session_id,timestamp,label,quaternion_w,quaternion_x,quaternion_y,quaternion_z,position_x,position_y,position_z,accelerometer_x,accelerometer_y,accelerometer_z,gyroscope_x,gyroscope_y,gyroscope_z,magnetometer_x,magnetometer_y,magnetometer_z,linear_acceleration_x,linear_acceleration_y,linear_acceleration_z,gravity_x,gravity_y,gravity_z
9_20251106_210938,1762434541071,9,0.01438199169933796,-0.05256257206201553,-0.5502030849456787,-0.8332507610321045,0.6882116198539734,2.4152896404266357,1.9398844242095947,1.4908055067062378,10.056004524230957,4.513788223266602,-0.5924203991889954,0.19327758252620697,0.052790164947509766,-0.6604328155517578,-35.069007873535156,18.901813507080078,0.5145536661148071,1.2088727951049805,0.8237674236297607,0.9762518405914307,8.847131729125977,3.690020799636841
9_20251106_210938,1762434541090,9,0.015421126037836075,-0.051550205796957016,-0.5453917384147644,-0.8364524245262146,0.6784539818763733,2.492400646209717,1.9196157455444336,1.3591300249099731,9.826171875,4.8154449462890625,-0.5679858326911926,0.15296052396297455,0.052790168672800064,-0.8221511840820312,-35.424339294433594,18.30733871459961,0.23814702033996582,0.5934514999389648,0.7421059608459473,1.1209830045700073,9.232720375061035,4.073338985443115
9_20251106_210938,1762434541110,9,0.01623300462961197,-0.050843849778175354,-0.540755569934845,-0.8394848108291626,0.6749493479728699,2.531541109085083,1.9138565063476562,1.3495537042617798,9.723225593566895,4.901631832122803,-0.4922386109828949,0.012461640872061253,0.10104846954345703,-1.0206260681152344,-35.782325744628906,17.738422393798828,0.18285655975341797,0.39240360260009766,0.6626343727111816,1.1666971445083618,9.330821990966797,4.238997459411621
9_20251106_210938,1762434541129,9,0.016760792583227158,-0.05147199705243111,-0.5366906523704529,-0.8420408964157104,0.6749493479728699,2.531541109085083,1.9138565063476562,1.3495537042617798,9.723225593566895,4.901631832122803,-0.39816543459892273,-0.09566140919923782,0.1548045575618744,-1.1898927688598633,-36.05095672607422,17.18585205078125,0.18285655975341797,0.39240360260009766,0.6626343727111816,1.1666971445083618,9.330821990966797,4.238997459411621
9_20251106_210938,1762434541146,9,0.01720510795712471,-0.05321952700614929,-0.5333539843559265,-0.8440409898757935,0.6710028052330017,2.6000607013702393,1.909670352935791,1.5626285076141357,9.781881332397461,5.060839653015137,-0.3334137797355652,-0.07000509649515152,0.15052850544452667,-1.4014558792114258,-36.42256164550781,16.64321517944336,0.27906084060668945,0.29384899139404297,0.5347895622253418,1.2835676670074463,9.488032341003418,4.526050090789795
9_20251106_210938,1762434541167,9,0.017822694033384323,-0.054699406027793884,-0.5305290818214417,-0.8457122445106506,0.670447826385498,2.636462926864624,1.9097131490707397,1.6176928281784058,9.765122413635254,4.961484909057617,-0.3334137797355652,-0.07000509649515152,0.15052850544452667,-1.424971580505371,-36.67072296142578,16.258991241455078,0.2673001289367676,0.22167205810546875,0.34834766387939453,1.3503926992416382,9.543450355529785,4.613137245178223
9_20251106_210938,1762434541185,9,0.018320346251130104,-0.05500829964876175,-0.5277631878852844,-0.8474104404449463,0.670447826385498,2.636462926864624,1.9097131490707397,1.6176928281784058,9.765122413635254,4.961484909057617,-0.3492962419986725,0.06743946671485901,-0.006463713478296995,-1.5410547256469727,-36.84895324707031,15.777812957763672,0.2673001289367676,0.22167205810546875,0.34834766387939453,1.3503926992416382,9.543450355529785,4.613137245178223
9_20251106_210938,1762434541204,9,0.018250707536935806,-0.05470965430140495,-0.5248865485191345,-0.8492160439491272,0.670378565788269,2.6992647647857666,1.9138096570968628,1.313642144203186,9.500574111938477,5.391225337982178,-0.34013327956199646,0.06499601155519485,-0.03761781379580498,-1.5829086303710938,-36.997703552246094,15.340652465820312,-0.05780386924743652,-0.042954444885253906,0.5479650497436523,1.3714460134506226,9.54352855682373,4.843260288238525
9_20251106_210938,1762434541224,9,0.018002158030867577,-0.05420012027025223,-0.5220786333084106,-0.8509830832481384,0.670378565788269,2.6992647647857666,1.9138096570968628,1.313642144203186,9.500574111938477,5.391225337982178,-0.2649969458580017,0.02834412269294262,-0.0235679242759943,-1.6736907958984375,-37.13829040527344,15.023441314697266,-0.05780386924743652,-0.042954444885253906,0.5479650497436523,1.3714460134506226,9.54352855682373,4.843260288238525
9_20251106_210938,1762434541242,9,0.017693927511572838,-0.05399889498949051,-0.5198216438293457,-0.8523828387260437,0.669664740562439,2.7331252098083496,1.91917884349823,1.2166812419891357,9.406007766723633,5.417560577392578,-0.1837519407272339,-0.046181369572877884,0.008197040297091007,-1.762655258178711,-37.241615295410156,14.747570037841797,-0.12381184101104736,-0.1100168228149414,0.4594402313232422,1.340493083000183,9.516024589538574,4.958120346069336
9_20251106_210938,1762434541261,9,0.017394235357642174,-0.05447229743003845,-0.5182206034660339,-0.8533332347869873,0.6670970320701599,2.7848684787750244,1.9306062459945679,1.102961540222168,9.555638313293457,5.374466896057129,-0.1837519407272339,-0.046181369572877884,0.008197040297091007,-1.8250341415405273,-37.3055419921875,14.459957122802734,-0.15680837631225586,0.02267169952392578,0.2515225410461426,1.2597699165344238,9.532966613769531,5.122944355010986
9_20251106_210938,1762434541280,9,0.01723010465502739,-0.05510791018605232,-0.5173951983451843,-0.8537964820861816,0.665127694606781,2.8100674152374268,1.9367320537567139,1.0885969400405884,9.504165649414062,5.179347515106201,-0.03225747495889664,-0.05167915299534798,0.033242493867874146,-1.8796539306640625,-37.44428253173828,14.198284149169922,-0.1369384527206421,-0.023040771484375,0.04512214660644531,1.2255353927612305,9.527206420898438,5.134225368499756
9_20251106_210938,1762434541300,9,0.017185933887958527,-0.05568244308233261,-0.5170474648475647,-0.8539707660675049,0.665127694606781,2.8100674152374268,1.9367320537567139,1.0885969400405884,9.504165649414062,5.179347515106201,-0.030424881726503372,-0.016859864816069603,0.05767708271741867,-1.8431215286254883,-37.465126037597656,14.009998321533203,-0.1369384527206421,-0.023040771484375,0.04512214660644531,1.2255353927612305,9.527206420898438,5.134225368499756
9_20251106_210938,1762434541319,9,0.017547329887747765,-0.05607070028781891,-0.5167317390441895,-0.8541290760040283,0.6608558297157288,2.857030153274536,1.94767165184021,1.219075322151184,9.352139472961426,5.036898612976074,-0.009655480273067951,-0.03152061626315117,0.07539215683937073,-1.9150514602661133,-37.46826934814453,13.844860076904297,0.009272456169128418,-0.12257671356201172,-0.06382131576538086,1.2098028659820557,9.474716186523438,5.100719928741455
9_20251106_210938,1762434541339,9,0.01790751703083515,-0.05672755092382431,-0.5165891051292419,-0.8541644811630249,0.659189760684967,2.8782756328582764,1.9523276090621948,1.3220216035842896,9.216873168945312,4.965075492858887,0.04348975419998169,-0.06450731307268143,0.0869985818862915,-1.9193925857543945,-37.55535888671875,13.761913299560547,0.0897749662399292,-0.20627403259277344,-0.10851573944091797,1.2322466373443604,9.423147201538086,5.073591232299805
9_20251106_210938,1762434541359,9,0.018275773152709007,-0.05769302323460579,-0.516874372959137,-0.8539194464683533,0.6582220196723938,2.8977444171905518,1.9556385278701782,1.4345442056655884,9.188143730163574,4.707710266113281,0.0941915288567543,-0.09810487180948257,0.0869985818862915,-1.9193925857543945,-37.55535888671875,13.761913299560547,0.16183805465698242,-0.1880025863647461,-0.29270505905151367,1.272706151008606,9.37614631652832,5.000415325164795
9_20251106_210938,1762434541376,9,0.018459323793649673,-0.05897992104291916,-0.5175692439079285,-0.853406548500061,0.6581640839576721,2.9130656719207764,1.9572432041168213,1.6021311283111572,9.19412899017334,4.513787746429443,0.0941915288567543,-0.09810487180948257,0.0869985818862915,-1.935201644897461,-37.61907196044922,13.77362060546875,0.2635399103164673,-0.1456136703491211,-0.38930225372314453,1.33859121799469,9.339742660522461,4.903090000152588
9_20251106_210938,1762434541395,9,0.018418172374367714,-0.06045617535710335,-0.5182735919952393,-0.8528764843940735,0.6593084335327148,2.929015874862671,1.9578001499176025,1.77809739112854,9.224056243896484,4.485058784484863,0.05387445539236069,-0.11154389381408691,0.0509575717151165,-1.936117172241211,-37.64350891113281,13.705509185791016,0.3516049385070801,-0.09254932403564453,-0.3344249725341797,1.42649245262146,9.316605567932129,4.819483757019043
9_20251106_210938,1762434541414,9,0.018201462924480438,-0.06176919862627983,-0.518729567527771,-0.8525097966194153,0.6618265509605408,2.943878412246704,1.957414984703064,1.9480783939361572,9.210887908935547,4.486255645751953,0.05387445539236069,-0.11154389381408691,0.0509575717151165,-1.9476966857910156,-37.63188171386719,13.718799591064453,0.4172687530517578,-0.08457469940185547,-0.2665824890136719,1.5308096408843994,9.295462608337402,4.752838134765625
9_20251106_210938,1762434541434,9,0.017750585451722145,-0.06270835548639297,-0.518955409526825,-0.852313220500946,0.666406512260437,2.9590625762939453,1.956062912940979,2.2090353965759277,9.40121841430664,4.4347825050354,-0.004157697781920433,-0.09016362577676773,-0.021735329180955887,-1.9711666107177734,-37.620643615722656,13.691051483154297,0.5425806045532227,0.08460426330566406,-0.25444459915161133,1.666454792022705,9.316614151000977,4.689227104187012
9_20251106_210938,1762434541453,9,0.017025873064994812,-0.06358394771814346,-0.5189749002456665,-0.8522512912750244,0.666406512260437,2.9590625762939453,1.956062912940979,2.2090353965759277,9.40121841430664,4.4347825050354,-0.010877209715545177,-0.13475675880908966,-0.05411116033792496,-1.9442710876464844,-37.56922912597656,13.733638763427734,0.5425806045532227,0.08460426330566406,-0.25444459915161133,1.666454792022705,9.316614151000977,4.689227104187012
9_20251106_210938,1762434541472,9,0.01585226133465767,-0.06470771133899689,-0.5189908146858215,-0.8521796464920044,0.6735116839408875,2.975033760070801,1.9542546272277832,2.423307180404663,9.562820434570312,4.552093505859375,-0.0066011566668748856,-0.1530826985836029,-0.07365883886814117,-1.9427490234375,-37.53236389160156,13.815528869628906,0.6054818630218506,0.19696521759033203,-0.10970687866210938,1.8178253173828125,9.36585521697998,4.661800384521484
9_20251106_210938,1762434541491,9,0.014361048117280006,-0.06597837805747986,-0.5190374851226807,-0.852080225944519,0.6901801228523254,3.002779483795166,1.950761079788208,2.860229969024658,9.933906555175781,4.451541423797607,-0.0066011566668748856,-0.1530826985836029,-0.07365883886814117,-1.8832283020019531,-37.553504943847656,13.817451477050781,0.7056360244750977,0.3865365982055664,-0.15812397003173828,2.1545939445495605,9.547369956970215,4.609665393829346
9_20251106_210938,1762434541511,9,0.012402110733091831,-0.06740668416023254,-0.5194517970085144,-0.8517466187477112,0.7027095556259155,3.0193347930908203,1.9478408098220825,3.009861469268799,9.972211837768555,4.339018821716309,0.014779110439121723,-0.22088868916034698,-0.1701754778623581,-1.8454713821411133,-37.53789520263672,13.751605987548828,0.6842141151428223,0.3398733139038086,-0.21651744842529297,2.3256473541259766,9.632338523864746,4.555536270141602
9_20251106_210938,1762434541530,9,0.00973543431609869,-0.06890476495027542,-0.5197702050209045,-0.8514671325683594,0.7027095556259155,3.0193347930908203,1.9478408098220825,3.009861469268799,9.972211837768555,4.339018821716309,0.014779110439121723,-0.22088868916034698,-0.1701754778623581,-1.8395357131958008,-37.437034606933594,13.71316909790039,0.6842141151428223,0.3398733139038086,-0.21651744842529297,2.3256473541259766,9.632338523864746,4.555536270141602
9_20251106_210938,1762434541549,9,0.006288584787398577,-0.07059744000434875,-0.5196910500526428,-0.8514091968536377,0.7324283123016357,3.053436040878296,1.9416660070419312,3.3127148151397705,10.23077392578125,4.69693660736084,-0.05547033250331879,-0.3577224016189575,-0.2880723178386688,-1.7401304244995117,-37.393280029296875,13.744918823242188,0.659111738204956,0.4036836624145508,0.14527320861816406,2.6536030769348145,9.8270902633667,4.551663398742676
9_20251106_210938,1762434541568,9,0.002034885110333562,-0.07265204936265945,-0.5195435285568237,-0.8513472080230713,0.7492936849594116,3.071239471435547,1.9398387670516968,3.528183698654175,10.482154846191406,4.808262348175049,-0.05547033250331879,-0.3577224016189575,-0.2880723178386688,-1.546365737915039,-37.405418395996094,13.725204467773438,0.6996643543243408,0.5240516662597656,0.20527935028076172,2.828519344329834,9.95810317993164,4.602982997894287
9_20251106_210938,1762434541586,9,0.0028718039393424988,0.07476646453142166,0.5194547772407532,0.8512158393859863,0.7492936849594116,3.071239471435547,1.9398387670516968,3.528183698654175,10.482154846191406,4.808262348175049,-0.06096811220049858,-0.4499629735946655,-0.41940823197364807,-1.365281105041504,-37.41902160644531,13.7725830078125,0.6996643543243408,0.5240516662597656,0.20527935028076172,2.828519344329834,9.95810317993164,4.602982997894287
9_20251106_210938,1762434541605,9,0.00874822773039341,0.07707253098487854,0.519253671169281,0.8510927557945251,0.7874211072921753,3.110170841217041,1.9395378828048706,3.99263858795166,10.990900039672852,5.309825897216797,-0.06096811220049858,-0.4499629735946655,-0.41940823197364807,-1.0895414352416992,-37.48811340332031,13.727951049804688,0.7703180313110352,0.684356689453125,0.5196056365966797,3.222320556640625,10.306543350219727,4.790220260620117
9_20251106_210938,1762434541625,9,0.016033723950386047,0.07952599972486496,0.5189180374145508,0.850965678691864,0.8085536360740662,3.1323020458221436,1.9442499876022339,3.8801162242889404,11.239887237548828,6.254297733306885,-0.14343486726284027,-0.592294454574585,-0.7052929997444153,-0.7885265350341797,-37.54279327392578,13.65753173828125,0.5262365341186523,0.7466754913330078,1.171262264251709,3.353879690170288,10.49321174621582,5.083035469055176
9_20251106_210938,1762434541644,9,0.025030817836523056,0.0817066952586174,0.5181211233139038,0.8510276079177856,0.8305107951164246,3.1591885089874268,1.9563219547271729,3.6251447200775146,12.057472229003906,7.504017353057861,-0.2766033709049225,-0.43835651874542236,-0.8714481592178345,-0.37944507598876953,-37.61570739746094,13.618030548095703,0.2170121669769287,1.251408576965332,1.9367852210998535,3.408132553100586,10.806063652038574,5.567232131958008
9_20251106_210938,1762434541662,9,0.03463573753833771,0.08168978244066238,0.5162338614463806,0.8518390655517578,0.8305107951164246,3.1591885089874268,1.9563219547271729,3.6251447200775146,12.057472229003906,7.504017353057861,-0.2979836165904999,-0.11581994593143463,-1.0858616828918457,0.16589641571044922,-37.64207458496094,13.57120132446289,0.2170121669769287,1.251408576965332,1.9367852210998535,3.408132553100586,10.806063652038574,5.567232131958008
9_20251106_210938,1762434541682,9,0.044450536370277405,0.07793840765953064,0.5142632126808167,0.8529261946678162,0.8667142391204834,3.2208750247955322,1.9994057416915894,2.613637924194336,12.699090003967285,8.25217342376709,-0.2979836165904999,-0.11581994593143463,-1.0858616828918457,0.8109455108642578,-37.83722686767578,13.538604736328125,-0.618988037109375,1.2146015167236328,1.6754603385925293,3.232625961303711,11.484488487243652,6.5767130851745605
9_20251106_210938,1762434541701,9,0.05575490742921829,0.07178544253110886,0.5148431062698364,0.8524522185325623,0.8769718408584595,3.253669023513794,2.02484130859375,1.2478044033050537,12.30885124206543,7.573446273803711,0.005616138689219952,0.01795942150056362,-1.3741897344589233,1.497981071472168,-37.941429138183594,13.44174575805664,-1.5878572463989258,0.6594905853271484,0.7973861694335938,2.8356616497039795,11.649360656738281,6.776060104370117
9_20251106_210938,1762434541720,9,0.06951481103897095,0.06614133715629578,0.5189129114151001,0.8494247794151306,0.8785915374755859,3.283431053161621,2.048694610595703,-0.25568950176239014,11.74983024597168,7.166449546813965,0.7313234210014343,-0.3955959975719452,-1.707111120223999,2.4973344802856445,-37.87616729736328,13.46844482421875,-2.473081111907959,0.08037567138671875,0.31231117248535156,2.2173914909362793,11.669454574584961,6.854138374328613
9_20251106_210938,1762434541739,9,0.0848725214600563,0.06163211911916733,0.525255024433136,0.8444556593894958,0.868456244468689,3.3126273155212402,2.0741238594055176,-1.678981065750122,10.939428329467773,6.936615943908691,0.8925917148590088,-0.5220450162887573,-1.6857306957244873,3.5705223083496094,-37.78196716308594,13.59322738647461,-3.117098093032837,-0.5840206146240234,0.06598186492919922,1.4381170272827148,11.523448944091797,6.870634078979492
9_20251106_210938,1762434541759,9,0.10065864771604538,0.05808061733841896,0.5326223969459534,0.8383363485336304,0.8455889821052551,3.3362483978271484,2.0982420444488525,-2.9167299270629883,10.16972541809082,6.857610702514648,0.8925917148590088,-0.5220450162887573,-1.6857306957244873,3.5705223083496094,-37.78196716308594,13.59322738647461,-3.483877658843994,-1.0829792022705078,-0.010418415069580078,0.5671476721763611,11.252704620361328,6.8680291175842285
9_20251106_210938,1762434541780,9,0.11536762118339539,0.05498333275318146,0.5405081510543823,0.8315756320953369,0.8131399750709534,3.3528051376342773,2.120065450668335,-3.7379062175750732,9.517332077026367,6.888733863830566,1.056914210319519,-0.5324296951293945,-1.3644158840179443,4.683904647827148,-37.61084747314453,13.802165985107422,-3.4440431594848633,-1.3882980346679688,0.016563892364501953,-0.2938630282878876,10.905630111694336,6.8721699714660645
9_20251106_210938,1762434541800,9,0.12838208675384521,0.05257279425859451,0.5485633015632629,0.8245195150375366,0.7631878852844238,3.3634231090545654,2.144629716873169,-4.170040607452393,8.840999603271484,7.024000644683838,1.17969810962677,-0.5409817695617676,-1.1817673444747925,5.850371837615967,-37.349464416503906,14.09600830078125,-3.1009421348571777,-1.6517047882080078,0.12146472930908203,-1.0690984725952148,10.492704391479492,6.902535915374756
9_20251106_210938,1762434541816,9,0.13983243703842163,0.05105441063642502,0.5572449564933777,0.8168955445289612,0.7248360514640808,3.3664445877075195,2.160482406616211,-4.575840950012207,8.237687110900879,6.86838436126709,1.4038854837417603,-0.6155072450637817,-1.0485988855361938,7.159679412841797,-36.893409729003906,14.642498016357422,-2.805394172668457,-1.8040142059326172,-0.027321338653564453,-1.7704468965530396,10.041701316833496,6.895705699920654
9_20251106_210938,1762434541835,9,0.1506911665201187,0.05111440271139145,0.5672191381454468,0.8080481886863708,0.6666369438171387,3.3632264137268066,2.1797988414764404,-4.93495512008667,7.724152565002441,6.644536018371582,1.6286836862564087,-0.6735394597053528,-0.9294803142547607,8.457321166992188,-36.41425323486328,15.310672760009766,-2.531606674194336,-1.854039192199707,-0.20093584060668945,-2.403348445892334,9.578191757202148,6.8454718589782715
9_20251106_210938,1762434541854,9,0.1608014702796936,0.05245741456747055,0.5785433053970337,0.7979215383529663,0.6100268363952637,3.3547983169555664,2.1946139335632324,-5.185138702392578,7.27286434173584,6.154942512512207,1.7551325559616089,-0.5196015238761902,-0.8390722870826721,9.730499267578125,-35.712257385253906,16.06322479248047,-2.2254321575164795,-1.8442621231079102,-0.5524234771728516,-2.9597065448760986,9.11712646484375,6.707365989685059
9_20251106_210938,1762434541873,9,0.16912005841732025,0.053087688982486725,0.5907948017120361,0.7871096134185791,0.5427567362785339,3.338679552078247,2.206094741821289,-5.4317307472229,6.741374492645264,5.339752197265625,1.7905627489089966,-0.22088870406150818,-0.7816510796546936,9.909139633178711,-33.253387451171875,16.504060745239258,-1.9776196479797363,-1.900601863861084,-1.0940909385681152,-3.454111099243164,8.641976356506348,6.43384313583374
9_20251106_210938,1762434541892,9,0.17530517280101776,0.051798079162836075,0.6035730838775635,0.7760699987411499,0.5427567362785339,3.338679552078247,2.206094741821289,-5.4317307472229,6.741374492645264,5.339752197265625,1.7795672416687012,0.024068070575594902,-0.6851344108581543,10.971268653869629,-32.38043212890625,17.562620162963867,-1.9776196479797363,-1.900601863861084,-1.0940909385681152,-3.454111099243164,8.641976356506348,6.43384313583374
9_20251106_210938,1762434541911,9,0.17924347519874573,0.04907253757119179,0.6165139079093933,0.7650974988937378,0.468031644821167,3.314152956008911,2.2116451263427734,-5.7285990715026855,6.121303558349609,4.672995567321777,1.7765129804611206,0.22015562653541565,-0.49637719988822937,12.00328254699707,-31.396713256835938,18.608564376831055,-1.8195903301239014,-2.016538619995117,-1.4086780548095703,-3.909008741378784,8.137842178344727,6.081673622131348
9_20251106_210938,1762434541930,9,0.1808515042066574,0.046088047325611115,0.6295215487480164,0.754235565662384,0.3345290422439575,3.2554543018341064,2.2068839073181152,-6.2337541580200195,4.968544960021973,3.67106556892395,1.7765129804611206,0.22015562653541565,-0.49637719988822937,12.843856811523438,-30.351303100585938,19.742860794067383,-1.5209717750549316,-2.0917463302612305,-1.6448729038238525,-4.712782382965088,7.060291290283203,5.315938472747803
9_20251106_210938,1762434541951,9,0.1792939305305481,0.043146565556526184,0.6426864266395569,0.743603527545929,0.25896188616752625,3.2143003940582275,2.1942052841186523,-6.1535515785217285,4.59865665435791,2.8522837162017822,1.7722368240356445,0.6666977405548096,0.09677241742610931,13.577280044555664,-29.263214111328125,20.91434669494629,-1.1526150703430176,-1.9693074226379395,-1.970923662185669,-5.000936508178711,6.56796407699585,4.823207378387451
9_20251106_210938,1762434541970,9,0.17396731674671173,0.04038584232330322,0.6558540463447571,0.7334574460983276,0.25896188616752625,3.2143003940582275,2.1942052841186523,-6.1535515785217285,4.59865665435791,2.8522837162017822,1.7722368240356445,0.6666977405548096,0.09677241742610931,13.886630058288574,-28.141624450683594,22.21866798400879,-1.1526150703430176,-1.9693074226379395,-1.970923662185669,-5.000936508178711,6.56796407699585,4.823207378387451
9_20251106_210938,1762434541991,9,0.1647767573595047,0.03858812898397446,0.6688153743743896,0.7239099144935608,0.17808812856674194,3.1637468338012695,2.1690125465393066,-5.519115447998047,4.516059875488281,1.5762289762496948,1.6354031562805176,0.930591344833374,0.8096515536308289,13.982170104980469,-26.93401336669922,23.529787063598633,-0.41454315185546875,-1.6415233612060547,-2.5975828170776367,-5.104572296142578,6.157583236694336,4.173811912536621
9_20251106_210938,1762434542006,9,0.15273618698120117,0.03837506100535393,0.6810356974601746,0.715114951133728,0.06576139479875565,3.0834972858428955,2.1098499298095703,-3.7845911979675293,5.128949165344238,0.0727350041270256,1.5144519805908203,0.9464737772941589,1.060716986656189,13.890493392944336,-25.813926696777344,24.858999252319336,0.9888167381286621,-0.6205949783325195,-2.715665102005005,-4.773407936096191,5.749544143676758,2.788400173187256
9_20251106_210938,1762434542026,9,0.13891124725341797,0.03979957848787308,0.6922370791435242,0.7070555090904236,0.011776812374591827,3.0379233360290527,2.06357741355896,-2.9969325065612793,5.376738548278809,-0.5281838178634644,1.4075506925582886,0.9550259113311768,1.2238178253173828,13.529413223266602,-24.736289978027344,26.16337776184082,1.421180248260498,-0.2982444763183594,-2.6532673835754395,-4.418112754821777,5.674983024597168,2.1250834465026855
9_20251106_210938,1762434542044,9,0.12391877919435501,0.042354170233011246,0.702463686466217,0.6995677351951599,0.011776812374591827,3.0379233360290527,2.06357741355896,-2.9969325065612793,5.376738548278809,-0.5281838178634644,1.2316216230392456,1.0258861780166626,1.356986403465271,12.717449188232422,-23.68804168701172,27.449609756469727,1.421180248260498,-0.2982444763183594,-2.6532673835754395,-4.418112754821777,5.674983024597168,2.1250834465026855
9_20251106_210938,1762434542064,9,0.10761377960443497,0.045372381806373596,0.7113401293754578,0.6930770874023438,-0.033179402351379395,2.994340181350708,2.010282516479492,-2.3361613750457764,5.580236434936523,-0.9459540247917175,1.001936435699463,1.180435061454773,1.5054265260696411,11.658846855163574,-22.70604705810547,28.738492965698242,1.6655614376068115,-0.07579755783081055,-2.4568300247192383,-4.001722812652588,5.656033992767334,1.5108760595321655
9_20251106_210938,1762434542084,9,0.08913849294185638,0.048102252185344696,0.7185572981834412,0.6880522966384888,-0.09122180938720703,2.9189133644104004,1.8963021039962769,-0.5322078466415405,5.95611047744751,-1.1733933687210083,0.839446485042572,1.342924952507019,1.640427589416504,10.464577674865723,-21.76978302001953,29.9536075592041,2.382713794708252,0.22020339965820312,-1.729232668876648,-2.914921522140503,5.735907077789307,0.5558393001556396
9_20251106_210938,1762434542102,9,0.06863582134246826,0.05067748948931694,0.7244678139686584,0.6840082406997681,-0.10426949709653854,2.8873238563537598,1.8387433290481567,0.5822451114654541,6.1787614822387695,-1.4439265727996826,0.839446485042572,1.342924952507019,1.640427589416504,9.096264839172363,-20.918899536132812,31.05214500427246,2.7977333068847656,0.35428380966186523,-1.5998127460479736,-2.2154881954193115,5.824477672576904,0.15588614344596863
9_20251106_210938,1762434542121,9,0.04726109653711319,0.0531478226184845,0.7295243740081787,0.6802469491958618,-0.10716842114925385,2.8567564487457275,1.7752790451049805,1.4967907667160034,6.229037284851074,-1.9383080005645752,0.7355994582176208,1.4040113687515259,1.5964453220367432,7.374432563781738,-20.114418029785156,31.96021842956543,2.9698233604431152,0.32364749908447266,-1.675355315208435,-1.4730324745178223,5.905389785766602,-0.26295265555381775
9_20251106_210938,1762434542140,9,0.026599137112498283,0.05549625679850578,0.7341134548187256,0.6762322187423706,-0.10716842114925385,2.8567564487457275,1.7752790451049805,1.4967907667160034,6.229037284851074,-1.9383080005645752,0.7081105709075928,1.2610691785812378,1.4125750064849854,5.621786117553711,-19.424667358398438,32.878456115722656,2.9698233604431152,0.32364749908447266,-1.675355315208435,-1.4730324745178223,5.905389785766602,-0.26295265555381775
9_20251106_210938,1762434542160,9,0.007711266167461872,0.05725834146142006,0.7383583784103394,0.6719292402267456,-0.08486229926347733,2.8030052185058594,1.634789228439331,1.8714672327041626,6.397821426391602,-2.8301095962524414,0.5828832983970642,1.1181267499923706,1.144405484199524,3.8375020027160645,-18.66101837158203,33.702186584472656,2.114623546600342,0.30040836334228516,-1.673816442489624,-0.2431563436985016,6.097413063049316,-1.1562931537628174
9_20251106_210938,1762434542179,9,0.008337250910699368,-0.05820144712924957,-0.7417784929275513,-0.668062686920166,-0.0672827735543251,2.7788679599761963,1.5651805400848389,1.1939373016357422,5.930972099304199,-2.443462610244751,0.3782435953617096,1.123624563217163,0.9110550880432129,2.0793819427490234,-17.881736755371094,34.37847900390625,1.149674892425537,-0.13315296173095703,-1.0297355651855469,0.0442623645067215,6.064125061035156,-1.413727045059204
9_20251106_210938,1762434542200,9,0.022828761488199234,-0.057337358593940735,-0.7438749074935913,-0.6654633283615112,-0.048380736261606216,2.7520697116851807,1.4933439493179321,0.47929883003234863,5.1888017654418945,-2.146594524383545,0.17482565343379974,1.3490337133407593,0.9159420132637024,0.27671337127685547,-17.278076171875,34.79280090332031,0.3480291962623596,-0.700258731842041,-0.5862939357757568,0.1312696486711502,5.8890604972839355,-1.560300588607788
9_20251106_210938,1762434542219,9,0.038799431174993515,-0.05486251041293144,-0.7444165349006653,-0.6643257737159729,-0.02908194810152054,2.722750425338745,1.4233641624450684,0.5726686716079712,4.619006156921387,-2.131032705307007,-0.06280071288347244,1.5982664823532104,1.2140440940856934,0.27671337127685547,-17.278076171875,34.79280090332031,0.35311922430992126,-1.0160436630249023,-0.4565856456756592,0.21954944729804993,5.635049819946289,-1.6744470596313477
9_20251106_210938,1762434542236,9,0.05847860127687454,-0.052510637789964676,-0.7429796457290649,-0.66468346118927,-0.02908194810152054,2.722750425338745,1.4233641624450684,0.5726686716079712,4.619006156921387,-2.131032705307007,-0.27415990829467773,1.5817731618881226,1.570789098739624,-1.4531612396240234,-16.693283081054688,35.06085968017578,0.35311922430992126,-1.0160436630249023,-0.4565856456756592,0.21954944729804993,5.635049819946289,-1.6744470596313477
9_20251106_210938,1762434542255,9,0.0801054984331131,-0.05298740416765213,-0.7397395372390747,-0.6660036444664001,0.012387715280056,2.6670377254486084,1.3017297983169556,2.0833449363708496,5.024806022644043,-2.2615110874176025,-0.5209492444992065,1.3172687292099,1.8304065465927124,-3.156857490539551,-16.723846435546875,35.74365997314453,1.3163646459579468,-0.2903866767883301,-0.33913910388946533,0.7669802904129028,5.315192699432373,-1.9223719835281372
9_20251106_210938,1762434542274,9,0.10128704458475113,-0.0574466697871685,-0.7347152829170227,-0.6683070063591003,0.012387715280056,2.6670377254486084,1.3017297983169556,2.0833449363708496,5.024806022644043,-2.2615110874176025,-0.7616299986839294,1.1028550863265991,1.9629642963409424,-4.905769348144531,-16.265151977539062,35.9815559387207,1.3163646459579468,-0.2903866767883301,-0.33913910388946533,0.7669802904129028,5.315192699432373,-1.9223719835281372
9_20251106_210938,1762434542294,9,0.12139738351106644,-0.06482701003551483,-0.7278614640235901,-0.6717721819877625,0.042299140244722366,2.6380255222320557,1.2408808469772339,2.8698062896728516,5.355191707611084,-1.1769845485687256,-0.7616299986839294,1.1028550863265991,1.9629642963409424,-6.4917707443237305,-15.968170166015625,35.925262451171875,1.6822608709335327,0.03199911117553711,0.5963099002838135,1.1875454187393188,5.323192596435547,-1.773294448852539
9_20251106_210938,1762434542313,9,0.1416984498500824,-0.07329162955284119,-0.7201351523399353,-0.6752445697784424,0.07845281064510345,2.6118712425231934,1.187143325805664,3.732879161834717,5.786129474639893,-0.434813916683197,-0.8123317360877991,1.0417686700820923,2.0533721446990967,-8.067727088928223,-15.731292724609375,35.67891311645508,2.036267042160034,0.3703494071960449,1.070784568786621,1.6966121196746826,5.415780067443848,-1.5055984258651733
9_20251106_210938,1762434542331,9,0.16168765723705292,-0.08281408250331879,-0.7121368050575256,-0.6781298518180847,0.1200476661324501,2.5907084941864014,1.141957402229309,4.964642524719238,6.3056488037109375,-0.2983503043651581,-0.7194802761077881,0.9159305691719055,2.0032811164855957,-9.605116844177246,-15.679054260253906,35.376502990722656,2.614424467086792,0.7118949890136719,0.9657984972000122,2.3502180576324463,5.593753814697266,-1.2641488313674927
9_20251106_210938,1762434542351,9,0.18087629973888397,-0.09177976846694946,-0.7043204307556152,-0.6802889108657837,0.2254563868045807,2.564478874206543,1.0657470226287842,7.1636223793029785,7.731334686279297,-0.5940214991569519,-0.7475800514221191,0.8359072804450989,1.7253377437591553,-11.145930290222168,-15.689468383789062,35.05925750732422,3.2244162559509277,1.4827766418457031,0.41068631410598755,3.939206123352051,6.248558044433594,-1.0047078132629395
9_20251106_210938,1762434542370,9,0.19754421710968018,-0.09969796985387802,-0.6964061856269836,-0.68268221616745,0.29088765382766724,2.559353828430176,1.031298279762268,7.629274845123291,8.043764114379883,-0.6095831394195557,-0.8404315114021301,0.7974228262901306,1.419905424118042,-12.611014366149902,-15.869712829589844,34.70119857788086,2.952054977416992,1.4361648559570312,0.31609976291656494,4.677219867706299,6.607599258422852,-0.9256829023361206
9_20251106_210938,1762434542390,9,0.21177558600902557,-0.10607932507991791,-0.6880418658256531,-0.6859275698661804,0.36614108085632324,2.558976888656616,0.9979997277259827,7.908186912536621,8.169455528259277,-0.5473365783691406,-0.9711565375328064,0.7650469541549683,1.228704810142517,-14.005097389221191,-16.082862854003906,34.34529113769531,2.584773540496826,1.2494850158691406,0.30267709493637085,5.323413372039795,6.919970512390137,-0.8500136733055115
9_20251106_210938,1762434542408,9,0.22441858053207397,-0.11157774925231934,-0.6789310574531555,-0.6901009678840637,0.43798232078552246,2.5615603923797607,0.9708082675933838,8.369050979614258,8.10002613067627,-0.33067065477371216,-1.1525834798812866,0.7302277088165283,1.108364462852478,-15.354691505432129,-16.39141082763672,33.80000686645508,2.4365100860595703,0.9440445899963379,0.41547447443008423,5.9325408935546875,7.155981540679932,-0.7461451292037964
9_20251106_210938,1762434542428,9,0.23571966588497162,-0.11692462116479874,-0.6686685681343079,-0.6954474449157715,0.5230303406715393,2.5667243003845215,0.9439369440078735,8.963984489440918,7.957576751708984,-0.14393091201782227,-1.3651643991470337,0.6648651361465454,0.9819154143333435,-16.524215698242188,-16.738136291503906,33.24750518798828,2.425154685974121,0.6412763595581055,0.48177140951156616,6.538829803466797,7.316300392150879,-0.6257023215293884
9_20251106_210938,1762434542447,9,0.24539664387702942,-0.12247438728809357,-0.6570813059806824,-0.702157199382782,0.6029118895530701,2.5734760761260986,0.9233420491218567,9.448789596557617,8.265218734741211,0.3408740758895874,-1.3651643991470337,0.6648651361465454,0.9819154143333435,-17.437034606933594,-17.280052185058594,32.620208740234375,2.327968120574951,0.7591347694396973,0.7732611894607544,7.120821475982666,7.506083965301514,-0.4323870837688446
9_20251106_210938,1762434542466,9,0.2523036003112793,-0.12887495756149292,-0.6447240710258484,-0.7099753618240356,0.6029118895530701,2.5734760761260986,0.9233420491218567,9.448789596557617,8.265218734741211,0.3408740758895874,-1.547812819480896,0.4675558805465698,0.8102623820304871,-18.28429412841797,-17.955055236816406,31.965919494628906,2.327968120574951,0.7591347694396973,0.7732611894607544,7.120821475982666,7.506083965301514,-0.4323870837688446
9_20251106_210938,1762434542486,9,0.255783349275589,-0.13657429814338684,-0.6328383684158325,-0.717940092086792,0.7791871428489685,2.591179132461548,0.8992000222206116,9.53138542175293,7.779216289520264,2.634420871734619,-1.569804072380066,-0.01747073233127594,0.5310972332954407,-19.01634979248047,-18.747146606445312,31.259830474853516,1.510009765625,0.10585451126098633,2.176502227783203,8.02137565612793,7.673361778259277,0.45791852474212646
9_20251106_210938,1762434542503,9,0.2575203478336334,-0.14470519125461578,-0.6213147640228271,-0.7257490158081055,0.8686833381652832,2.600435972213745,0.8985079526901245,10.078437805175781,8.00545883178711,2.9600181579589844,-1.5001654624938965,0.09126318991184235,0.6636548638343811,-19.652236938476562,-19.569480895996094,30.448741912841797,1.6456499099731445,0.26567745208740234,2.0016798973083496,8.432787895202637,7.739781379699707,0.9583383798599243
9_20251106_210938,1762434542523,9,0.26077941060066223,-0.1526508629322052,-0.609429657459259,-0.7329988479614258,0.9670141935348511,2.6131460666656494,0.9022343158721924,11.338930130004883,8.875714302062988,2.411769390106201,-1.4158661365509033,0.08393281698226929,0.8230906128883362,-20.075542449951172,-20.514297485351562,29.50841522216797,2.32491397857666,0.9087462425231934,1.1627448797225952,9.014016151428223,7.966968059539795,1.249024510383606
9_20251106_210938,1762434542541,9,0.2651717960834503,-0.16133131086826324,-0.5977672934532166,-0.7391416430473328,0.9670141935348511,2.6131460666656494,0.9022343158721924,11.338930130004883,8.875714302062988,2.411769390106201,-1.4451876878738403,-0.15125010907649994,0.8230906128883362,-20.479721069335938,-21.55744171142578,28.512893676757812,2.32491397857666,0.9087462425231934,1.1627448797225952,9.014016151428223,7.966968059539795,1.249024510383606
9_20251106_210938,1762434542560,9,0.2678978443145752,-0.1719467043876648,-0.5864949822425842,-0.7447742819786072,1.0711898803710938,2.6316988468170166,0.9103134870529175,12.553936004638672,10.097902297973633,2.742155075073242,-1.455572247505188,-0.44813036918640137,0.6502158641815186,-20.760318756103516,-22.555511474609375,27.577133178710938,2.8319358825683594,1.704747200012207,1.1945044994354248,9.722000122070312,8.393155097961426,1.5476505756378174
9_20251106_210938,1762434542580,9,0.26757150888442993,-0.18371182680130005,-0.5760888457298279,-0.7501847147941589,1.1759405136108398,2.6555862426757812,0.9246918559074402,13.633674621582031,10.996886253356934,4.13073205947876,-1.455572247505188,-0.44813036918640137,0.6502158641815186,-21.05312728881836,-23.577598571777344,26.451126098632812,3.1293392181396484,2.0829849243164062,2.066465377807617,10.504335403442383,8.913901329040527,2.0642666816711426
9_20251106_210938,1762434542600,9,0.2631213366985321,-0.19438514113426208,-0.5679611563682556,-0.7552494406700134,1.3893853425979614,2.717092752456665,0.9763895273208618,13.37391471862793,11.57505989074707,6.342879295349121,-1.086609959602356,-0.7327933311462402,-0.3766477108001709,-21.22446060180664,-24.580673217773438,25.478965759277344,1.7321491241455078,1.7337865829467773,2.9066648483276367,11.641765594482422,9.841273307800293,3.4362144470214844
9_20251106_210938,1762434542621,9,0.25444698333740234,-0.20148395001888275,-0.5622128844261169,-0.760642945766449,1.505788803100586,2.7588984966278076,1.0203903913497925,12.063145637512207,11.771376609802246,6.931827545166016,-0.930839478969574,-0.5214341282844543,-0.9960644841194153,-21.22136688232422,-25.509437561035156,24.474441528320312,0.33710384368896484,1.5440826416015625,2.7964906692504883,11.726041793823242,10.227293968200684,4.135336875915527
9_20251106_210938,1762434542641,9,0.24260549247264862,-0.20316265523433685,-0.5580223798751831,-0.7671235203742981,1.505788803100586,2.7588984966278076,1.0203903913497925,12.063145637512207,11.771376609802246,6.931827545166016,-0.7433039546012878,-0.2502101957798004,-1.5446209907531738,-21.22136688232422,-25.509437561035156,24.474441528320312,0.33710384368896484,1.5440826416015625,2.7964906692504883,11.726041793823242,10.227293968200684,4.135336875915527
9_20251106_210938,1762434542657,9,0.22851112484931946,-0.1991862654685974,-0.5554918646812439,-0.774297297000885,1.6167222261428833,2.804547071456909,1.0740280151367188,10.389670372009277,11.326074600219727,6.812122821807861,-0.5930312871932983,-0.14697405695915222,-1.8696010112762451,-21.16669464111328,-26.373184204101562,23.567813873291016,-1.0690975189208984,0.8790245056152344,2.1414289474487305,11.458767890930176,10.447050094604492,4.670693874359131
9_20251106_210938,1762434542676,9,0.212828129529953,-0.1921117901802063,-0.5543481111526489,-0.7813420295715332,1.7527815103530884,2.870069742202759,1.1603577136993408,6.489684104919434,10.081143379211426,6.060376167297363,-0.414658784866333,-0.30946406722068787,-1.8799858093261719,-20.968387603759766,-27.254127502441406,22.828739166259766,-3.4830188751220703,-0.33358287811279297,0.8413228988647461,9.972702980041504,10.414726257324219,5.219053268432617
9_20251106_210938,1762434542695,9,0.19652073085308075,-0.185478076338768,-0.5547927618026733,-0.7868815064430237,1.8046376705169678,2.901507616043091,1.2077747583389282,5.1190619468688965,9.701679229736328,5.767098426818848,-0.1825302094221115,-0.6497157216072083,-1.658241868019104,-20.489887237548828,-28.105323791503906,22.209339141845703,-3.8829121589660645,-0.5704383850097656,0.43843603134155273,9.001974105834961,10.272117614746094,5.328662395477295
9_20251106_210938,1762434542714,9,0.18036015331745148,-0.1818544864654541,-0.5570806264877319,-0.7899749279022217,1.839892864227295,2.9273831844329834,1.250801682472229,4.366118431091309,9.289894104003906,5.4714274406433105,0.0276072695851326,-1.0260083675384521,-1.3344836235046387,-19.827075958251953,-28.907745361328125,21.679183959960938,-3.7086849212646484,-0.7857789993286133,0.1142120361328125,8.074803352355957,10.07567310333252,5.357215404510498
9_20251106_210938,1762434542733,9,0.16503822803497314,-0.18210159242153168,-0.5609478950500488,-0.7905307412147522,1.8650826215744019,2.9518816471099854,1.2960567474365234,4.119525909423828,9.1498384475708,5.303840637207031,0.0276072695851326,-1.0260083675384521,-1.3344836235046387,-19.090232849121094,-29.68096160888672,21.220081329345703,-3.16422176361084,-0.7406673431396484,-0.04269981384277344,7.283747673034668,9.89050579071045,5.346540451049805
9_20251106_210938,1762434542753,9,0.15062661468982697,-0.18584924936294556,-0.5656930804252625,-0.7891533374786377,1.8797820806503296,2.9720349311828613,1.3362830877304077,4.355344772338867,9.177370071411133,5.121889114379883,0.17360392212867737,-1.3143365383148193,-1.0278295278549194,-18.18103790283203,-30.38269805908203,21.01245880126953,-2.3427224159240723,-0.5705080032348633,-0.17972135543823242,6.6980671882629395,9.747878074645996,5.301610469818115
9_20251106_210938,1762434542771,9,0.13707351684570312,-0.1911371648311615,-0.5708439946174622,-0.7866476774215698,1.8872435092926025,2.990173578262329,1.374251365661621,4.327812671661377,9.380868911743164,5.211667537689209,0.2805052697658539,-1.4218486547470093,-0.9349780678749084,-17.058002471923828,-30.92267608642578,21.05963134765625,-1.8962035179138184,-0.2936077117919922,-0.07195472717285156,6.224016189575195,9.674476623535156,5.2836222648620605
9_20251106_210938,1762434542791,9,0.12308269739151001,-0.19588546454906464,-0.5761188268661499,-0.7839429974555969,1.8874610662460327,3.006077527999878,1.4108463525772095,3.7197115421295166,9.19053840637207,5.475018501281738,0.31410282850265503,-1.2453088760375977,-1.151224136352539,-15.904337882995605,-31.336570739746094,21.218555450439453,-2.003443956375122,-0.38715076446533203,0.15311717987060547,5.723155498504639,9.577689170837402,5.321901321411133
9_20251106_210938,1762434542810,9,0.10855312645435333,-0.19797882437705994,-0.5816688537597656,-0.7814614176750183,1.8790080547332764,3.0196073055267334,1.4465821981430054,2.8710036277770996,8.796709060668945,5.03929328918457,0.3977912962436676,-0.9789718389511108,-1.3106598854064941,-14.684794425964355,-31.64698028564453,21.47665786743164,-2.281721591949463,-0.6247844696044922,-0.22608661651611328,5.1527252197265625,9.421493530273438,5.265379905700684
9_20251106_210938,1762434542828,9,0.09446350485086441,-0.19694861769676208,-0.5876526236534119,-0.7790714502334595,1.8640841245651245,3.0290443897247314,1.4745811223983765,2.0270836353302,8.55610179901123,4.2276930809021,0.3977912962436676,-0.9789718389511108,-1.3106598854064941,-13.426987648010254,-31.929489135742188,21.696212768554688,-2.5005133152008057,-0.6923131942749023,-0.8301496505737305,4.527596950531006,9.248414993286133,5.05784273147583
9_20251106_210938,1762434542848,9,0.08127707988023758,-0.19424784183502197,-0.5940344333648682,-0.7763922214508057,1.8388445377349854,3.036198854446411,1.4992173910140991,1.4070121049880981,8.325071334838867,3.440034866333008,0.4747602641582489,-0.8115948438644409,-1.3387596607208252,-12.045989036560059,-31.942901611328125,22.10143280029297,-2.4964680671691895,-0.7386751174926758,-1.2942461967468262,3.903480052947998,9.063746452331543,4.734281063079834
9_20251106_210938,1762434542866,9,0.06883218139410019,-0.19182901084423065,-0.6006632447242737,-0.7730895280838013,1.8096789121627808,3.040102005004883,1.516213059425354,0.8228520154953003,8.164667129516602,3.0821170806884766,0.533403217792511,-0.8030427694320679,-1.2483515739440918,-10.66416072845459,-31.920394897460938,22.68315887451172,-2.4645023345947266,-0.7192630767822266,-1.3217310905456543,3.2873544692993164,8.883930206298828,4.403848171234131
9_20251106_210938,1762434542886,9,0.05661926418542862,-0.1909339874982834,-0.6072690486907959,-0.7691311836242676,1.7702946662902832,3.042046308517456,1.5292761325836182,0.4589489698410034,8.168258666992188,2.7996134757995605,0.5694442391395569,-0.922161340713501,-0.9447519183158875,-9.30278491973877,-31.836151123046875,23.211158752441406,-2.2627243995666504,-0.5725374221801758,-1.2833876609802246,2.7216732501983643,8.740796089172363,4.083001136779785
9_20251106_210938,1762434542904,9,0.04548335075378418,-0.19107158482074738,-0.6135489344596863,-0.7648402452468872,1.7305158376693726,3.042605400085449,1.5366275310516357,0.24228304624557495,8.29275131225586,2.5326714515686035,0.5694442391395569,-0.922161340713501,-0.9447519183158875,-7.890240669250488,-31.69904327392578,23.796241760253906,-1.9835121631622314,-0.35843563079833984,-1.2402639389038086,2.225795269012451,8.6511869430542,3.772935390472412
9_20251106_210938,1762434542925,9,0.035567570477724075,-0.19152583181858063,-0.6193444132804871,-0.7605690956115723,1.6819696426391602,3.042142391204834,1.539547085762024,0.06871088594198227,8.30472183227539,2.180738925933838,0.4851449131965637,-0.7407345771789551,-0.7077364325523376,-6.5561723709106445,-31.465423583984375,24.21780776977539,-1.7256674766540527,-0.2771720886230469,-1.2737572193145752,1.794378399848938,8.581893920898438,3.454496145248413
9_20251106_210938,1762434542943,9,0.02700900472700596,-0.19163326919078827,-0.6243979334831238,-0.7567525506019592,1.6331100463867188,3.0411643981933594,1.537718415260315,-0.04500879347324371,8.377741813659668,1.8276093006134033,0.4851449131965637,-0.7407345771789551,-0.7077364325523376,-5.343952178955078,-31.228134155273438,24.729347229003906,-1.4715098142623901,-0.16332149505615234,-1.3015096187591553,1.4265010356903076,8.54106330871582,3.1291189193725586
9_20251106_210938,1762434542961,9,0.01959364302456379,-0.19150513410568237,-0.6285442113876343,-0.7535741329193115,1.5854305028915405,3.039522409439087,1.5329945087432861,-0.07852618396282196,8.231700897216797,1.879082441329956,0.34403520822525024,-0.5470904111862183,-0.535472571849823,-4.152493476867676,-30.941123962402344,25.132831573486328,-1.2040218114852905,-0.24748992919921875,-1.0000293254852295,1.1254956722259521,8.479190826416016,2.8791117668151855
9_20251106_210938,1762434542981,9,0.013118220493197441,-0.19126158952713013,-0.6322001218795776,-0.7507129311561584,1.5854305028915405,3.039522409439087,1.5329945087432861,-0.07852618396282196,8.231700897216797,1.879082441329956,0.38618484139442444,-0.4731758236885071,-0.47682955861091614,-3.0319252014160156,-30.609458923339844,25.615524291992188,-1.2040218114852905,-0.24748992919921875,-1.0000293254852295,1.1254956722259521,8.479190826416016,2.8791117668151855
9_20251106_210938,1762434543001,9,0.0075675491243600845,-0.19085419178009033,-0.6359626054763794,-0.7477091550827026,1.5256668329238892,3.0365514755249023,1.5236549377441406,-0.07134388387203217,8.18980598449707,1.8312004804611206,0.45765605568885803,-0.3540571928024292,-0.4291820824146271,-2.1786460876464844,-30.282577514648438,26.074176788330078,-0.9574716687202454,-0.2315082550048828,-0.8383289575576782,0.886127769947052,8.421314239501953,2.669529438018799
9_20251106_210938,1762434543020,9,0.003209103597328067,-0.18989041447639465,-0.6400905847549438,-0.74445641040802,1.471291184425354,3.0330963134765625,1.51162850856781,-0.02226485311985016,8.128755569458008,1.3667453527450562,0.45215824246406555,-0.22699733078479767,-0.39497366547584534,-1.4344606399536133,-29.973648071289062,26.352439880371094,-0.7267141342163086,-0.23404693603515625,-1.0422273874282837,0.7044492959976196,8.362802505493164,2.40897274017334
9_20251106_210938,1762434543040,9,0.0001802401093300432,0.1883130818605423,0.6441285014152527,0.7413748502731323,1.3764814138412476,3.0247554779052734,1.4787957668304443,0.12138105928897858,7.913286209106445,0.23792780935764313,0.36358287930488586,-0.16224567592144012,-0.37848031520843506,-0.7011375427246094,-29.628921508789062,26.7391357421875,-0.3718230128288269,-0.3049278259277344,-1.4612919092178345,0.4932040572166443,8.21821403503418,1.6992197036743164
9_20251106_210938,1762434543061,9,0.003266293089836836,0.18651343882083893,0.6475594639778137,0.7388293743133545,1.3255752325057983,3.018242597579956,1.454676628112793,-0.03423537313938141,7.651132583618164,0.10864648967981339,0.26156845688819885,-0.13170243799686432,-0.3558783233165741,-0.12554073333740234,-29.2935791015625,27.02484130859375,-0.4219515323638916,-0.45366477966308594,-1.2724586725234985,0.3877161741256714,8.10479736328125,1.3811051845550537
9_20251106_210938,1762434543079,9,0.0062218825332820415,0.18470871448516846,0.6502636075019836,0.7368861436843872,1.2754112482070923,3.0100793838500977,1.428033471107483,-0.20541343092918396,7.4548163414001465,0.1541343629360199,0.19864937663078308,-0.09566140919923782,-0.2978461682796478,-0.12554073333740234,-29.2935791015625,27.02484130859375,-0.47450369596481323,-0.5199847221374512,-0.981576681137085,0.2690902650356293,7.974801063537598,1.1357110738754272
9_20251106_210938,1762434543096,9,0.008624239824712276,0.18296512961387634,0.6524347066879272,0.7353763580322266,1.2337801456451416,3.0020484924316406,1.4042447805404663,-0.2425219714641571,7.319549560546875,0.10026713460683823,0.18032343685626984,-0.04679223522543907,-0.21782290935516357,0.36213207244873047,-29.013748168945312,27.279022216796875,-0.40928980708122253,-0.5242013931274414,-0.8283551931381226,0.16676783561706543,7.843750953674316,0.928622305393219
9_20251106_210938,1762434543115,9,0.010269658640027046,0.1814095675945282,0.6543033123016357,0.7340791821479797,1.1884613037109375,2.9918599128723145,1.3761820793151855,-0.240127831697464,7.238150596618652,-0.09365485608577728,0.18032343685626984,-0.04679223522543907,-0.21782290935516357,0.7620782852172852,-28.789169311523438,27.474651336669922,-0.3255165219306946,-0.4844803810119629,-0.817821741104126,0.08538870513439178,7.722630977630615,0.7241668701171875
9_20251106_210938,1762434543135,9,0.010872404091060162,0.17987193167209625,0.6556593775749207,0.7332385182380676,1.142196536064148,2.9808900356292725,1.3457096815109253,-0.22576327621936798,7.46558952331543,-0.06851682811975479,-0.026148825883865356,0.08943059295415878,-0.0015767957083880901,1.1132802963256836,-28.567771911621094,27.668319702148438,-0.24892158806324005,-0.20563316345214844,-0.6341469883918762,0.02315831556916237,7.671222686767578,0.5656301379203796
9_20251106_210938,1762434543155,9,0.010472564026713371,0.17868712544441223,0.6557555198669434,0.7334479689598083,1.100002646446228,2.9712302684783936,1.3176902532577515,-0.1371816098690033,7.758866786956787,0.376785546541214,-0.1886388659477234,0.10958913713693619,0.16152407228946686,1.4041452407836914,-28.349533081054688,27.77843475341797,-0.1282719373703003,0.07011556625366211,-0.15107569098472595,-0.008909666910767555,7.688751220703125,0.5278612375259399
9_20251106_210938,1762434543173,9,0.009100439958274364,0.17836591601371765,0.6544380187988281,0.7347201108932495,1.0621603727340698,2.9629950523376465,1.2932325601577759,0.04476989060640335,7.874980926513672,0.8364524841308594,-0.2032996118068695,0.09676097333431244,0.33500969409942627,1.6146345138549805,-28.273513793945312,27.81512451171875,0.042943645268678665,0.14898395538330078,0.24687302112579346,0.0018262439407408237,7.725996971130371,0.5895794630050659
9_20251106_210938,1762434543191,9,0.00655458914116025,0.17913468182086945,0.6526644229888916,0.7361365556716919,1.0621603727340698,2.9629950523376465,1.2932325601577759,0.04476989060640335,7.874980926513672,0.8364524841308594,-0.10433951020240784,0.09981530159711838,0.48467153310775757,1.742232322692871,-28.16497802734375,27.808624267578125,0.042943645268678665,0.14898395538330078,0.24687302112579346,0.0018262439407408237,7.725996971130371,0.5895794630050659
9_20251106_210938,1762434543211,9,0.0028621528763324022,0.1809099316596985,0.6512148380279541,0.7370092272758484,0.9898748993873596,2.9484856128692627,1.2477607727050781,0.7558172345161438,8.052144050598145,1.0327686071395874,-0.10433951020240784,0.09981530159711838,0.48467153310775757,1.770524024963379,-28.100067138671875,27.756858825683594,0.5472906827926636,0.2252054214477539,0.2796189785003662,0.20852656662464142,7.826938629150391,0.7531496286392212
9_20251106_210938,1762434543231,9,0.0020844375248998404,-0.18308846652507782,-0.6504765748977661,-0.737125813961029,0.9606249332427979,2.943511486053467,1.2279143333435059,1.0658529996871948,8.254446029663086,0.8053292632102966,0.1662735491991043,0.20121882855892181,0.6318898797035217,1.7452363967895508,-28.1260986328125,27.687767028808594,0.6858611702919006,0.34200572967529297,0.041743695735931396,0.3799918293952942,7.912440299987793,0.7635855674743652
9_20251106_210938,1762434543250,9,0.007917945273220539,-0.18519870936870575,-0.6505671143531799,-0.7364789247512817,0.9606249332427979,2.943511486053467,1.2279143333435059,1.0658529996871948,8.254446029663086,0.8053292632102966,0.22247309982776642,0.27024656534194946,0.5934054255485535,1.5743350982666016,-28.13762664794922,27.721450805664062,0.6858611702919006,0.34200572967529297,0.041743695735931396,0.3799918293952942,7.912440299987793,0.7635855674743652
9_20251106_210938,1762434543270,9,0.013971462845802307,-0.18666738271713257,-0.6511081457138062,-0.735539436340332,0.912507951259613,2.936713933944702,1.188207983970642,1.3519477844238281,8.088055610656738,0.4545937776565552,0.17421478033065796,0.33927425742149353,0.4822280704975128,1.2961711883544922,-28.11822509765625,27.710960388183594,0.6283722519874573,0.07619476318359375,-0.21460914611816406,0.7235755324363708,8.011860847473145,0.6692029237747192
9_20251106_210938,1762434543287,9,0.019615808501839638,-0.18699535727500916,-0.6515128016471863,-0.7349687218666077,0.912507951259613,2.936713933944702,1.188207983970642,1.3519477844238281,8.088055610656738,0.4545937776565552,0.03005072847008705,0.45717117190361023,0.3899874985218048,1.0288820266723633,-28.123008728027344,27.686920166015625,0.6283722519874573,0.07619476318359375,-0.21460914611816406,0.7235755324363708,8.011860847473145,0.6692029237747192
9_20251106_210938,1762434543307,9,0.025193480774760246,-0.18587245047092438,-0.6510673761367798,-0.7354780435562134,0.8763086199760437,2.9278011322021484,1.1517139673233032,1.266957402229309,7.2968058586120605,0.5850721597671509,-0.13366101682186127,0.6361545324325562,0.3863223195075989,0.652623176574707,-28.12238311767578,27.658729553222656,0.351978063583374,-0.5275425910949707,-0.04618257284164429,0.9149793386459351,7.824348449707031,0.6312547326087952
9_20251106_210938,1762434543325,9,0.03144696354866028,-0.18359078466892242,-0.6493697166442871,-0.737308919429779,0.8621448278427124,2.9217116832733154,1.135090947151184,1.3746917247772217,7.274062156677246,0.39952948689460754,-0.2649969458580017,0.7968119382858276,0.45473918318748474,0.14543437957763672,-28.079856872558594,27.585647583007812,0.3677699565887451,-0.4402294158935547,-0.18538019061088562,1.0069217681884766,7.714291572570801,0.5849096775054932
9_20251106_210938,1762434543344,9,0.03899873048067093,-0.18061913549900055,-0.646536648273468,-0.7401663064956665,0.8493809700012207,2.914785146713257,1.1168687343597412,1.5315052270889282,7.415313720703125,0.01886778324842453,-0.35601577162742615,0.8688939809799194,0.5408710837364197,-0.4014291763305664,-28.090347290039062,27.55059051513672,0.41966676712036133,-0.2391824722290039,-0.45283353328704834,1.111838459968567,7.654496192932129,0.47170132398605347
9_20251106_210938,1762434543363,9,0.047470249235630035,-0.17769210040569305,-0.6428760290145874,-0.7435606718063354,0.8391357660293579,2.9071316719055176,1.0983644723892212,1.7972501516342163,7.263288497924805,0.03682352602481842,-0.5356099605560303,0.809640109539032,0.5824098587036133,-1.047189712524414,-28.132308959960938,27.51108169555664,0.5483293533325195,-0.31296634674072266,-0.34790223836898804,1.2489207983016968,7.576254844665527,0.38472574949264526
9_20251106_210938,1762434543383,9,0.05553516373038292,-0.1755615919828415,-0.6379112005233765,-0.747772216796875,0.830411970615387,2.89703106880188,1.081215262413025,1.7493681907653809,6.77130126953125,0.8304672837257385,-0.5356099605560303,0.809640109539032,0.5824098587036133,-1.7383813858032227,-28.126548767089844,27.40308380126953,0.4003579616546631,-0.6439628601074219,0.3565932512283325,1.3490102291107178,7.415264129638672,0.473874032497406
9_20251106_210938,1762434543402,9,0.06240531802177429,-0.17417162656784058,-0.6314780116081238,-0.7529975771903992,0.830411970615387,2.89703106880188,1.081215262413025,1.7493681907653809,6.77130126953125,0.8304672837257385,-0.8618117570877075,0.7155669331550598,0.5518665909767151,-2.497591018676758,-28.28516387939453,27.00536346435547,0.4003579616546631,-0.6439628601074219,0.3565932512283325,1.3490102291107178,7.415264129638672,0.473874032497406
9_20251106_210938,1762434543421,9,0.06924360245466232,-0.17263391613960266,-0.6240105628967285,-0.7589556574821472,0.8229084014892578,2.88374924659729,1.0686204433441162,1.606919288635254,6.202702522277832,1.6899486780166626,-0.9002962708473206,0.901269793510437,0.645328938961029,-3.199295997619629,-28.502464294433594,26.595256805419922,0.20632719993591309,-0.9700493812561035,0.9728597402572632,1.4005920886993408,7.1727519035339355,0.7170889377593994
9_20251106_210938,1762434543440,9,0.0778205543756485,-0.17025119066238403,-0.6157380938529968,-0.7653921246528625,0.8165251612663269,2.868342399597168,1.061555027961731,1.54227876663208,5.926183700561523,2.2848825454711914,-0.9558849334716797,1.1260679960250854,0.8627967238426208,-3.976738929748535,-28.774490356445312,26.15412139892578,0.1133493185043335,-0.9972543716430664,1.2542349100112915,1.4289294481277466,6.92343807220459,1.0306476354599
9_20251106_210938,1762434543461,9,0.08923637866973877,-0.1674511432647705,-0.6063169240951538,-0.7722543478012085,0.8121108412742615,2.8337695598602295,1.0568784475326538,3.131960391998291,6.077012538909912,2.1747536659240723,-1.0267452001571655,0.9977864027023315,1.061938762664795,-4.794882774353027,-29.135719299316406,25.60153579711914,1.263655662536621,-0.5185375213623047,0.737015962600708,1.86830472946167,6.595550060272217,1.4377377033233643
9_20251106_210938,1762434543482,9,0.10112088173627853,-0.16699129343032837,-0.596004843711853,-0.7788881063461304,0.8121108412742615,2.8337695598602295,1.0568784475326538,3.131960391998291,6.077012538909912,2.1747536659240723,-1.0505690574645996,0.5823984146118164,1.1163057088851929,-4.794882774353027,-29.135719299316406,25.60153579711914,1.263655662536621,-0.5185375213623047,0.737015962600708,1.86830472946167,6.595550060272217,1.4377377033233643
9_20251106_210938,1762434543498,9,0.11095552146434784,-0.17018845677375793,-0.5856487154960632,-0.7846912145614624,0.8210718035697937,2.8105461597442627,1.0630714893341064,3.9279980659484863,6.272131443023682,3.1479549407958984,-0.9583284258842468,0.35393500328063965,1.0417802333831787,-5.711245536804199,-29.539085388183594,24.85500717163086,1.6477546691894531,-0.25873517990112305,1.3681738376617432,2.280243396759033,6.530866622924805,1.7797811031341553
9_20251106_210938,1762434543517,9,0.11918021738529205,-0.1745847463607788,-0.5760582089424133,-0.7896031737327576,0.8300856947898865,2.7962708473205566,1.0711718797683716,3.996229887008667,6.753345489501953,3.927233934402466,-0.8269924521446228,0.43456918001174927,0.9342679381370544,-6.636776924133301,-29.892745971679688,24.082012176513672,1.3727891445159912,0.17798328399658203,1.7179622650146484,2.623440742492676,6.575362205505371,2.2092716693878174
9_20251106_210938,1762434543536,9,0.1272806078195572,-0.17744635045528412,-0.5673808455467224,-0.7939718961715698,0.8437351584434509,2.7809371948242188,1.0858708620071411,3.8920865058898926,6.856291770935059,4.236072540283203,-0.7732363939285278,0.7247298955917358,0.8401947617530823,-7.551445960998535,-30.282203674316406,23.200584411621094,1.0149164199829102,0.22474384307861328,1.6214408874511719,2.8771700859069824,6.631547927856445,2.6146316528320312
9_20251106_210938,1762434543554,9,0.13632769882678986,-0.17740267515182495,-0.5588251948356628,-0.7985345721244812,0.8769221901893616,2.75370717048645,1.123273253440857,4.455897331237793,6.254176139831543,3.6136069297790527,-0.8239381909370422,1.1480591297149658,0.8041537404060364,-8.452223777770996,-30.645347595214844,22.279624938964844,1.0665030479431152,-0.3177461624145508,0.48995256423950195,3.3893942832946777,6.571922302246094,3.123654365539551
9_20251106_210938,1762434543574,9,0.14723195135593414,-0.1740158200263977,-0.5492400527000427,-0.803975522518158,0.8769221901893616,2.75370717048645,1.123273253440857,4.455897331237793,6.254176139831543,3.6136069297790527,-0.9833738207817078,1.0735336542129517,0.8615750670433044,-9.433764457702637,-30.92669677734375,21.411144256591797,1.0665030479431152,-0.3177461624145508,0.48995256423950195,3.3893942832946777,6.571922302246094,3.123654365539551
9_20251106_210938,1762434543593,9,0.1579202115535736,-0.17183485627174377,-0.5384775996208191,-0.8096764087677002,0.9233770966529846,2.724935293197632,1.1673442125320435,4.801844120025635,6.895793914794922,4.264801979064941,-0.9833738207817078,1.0735336542129517,0.8615750670433044,-10.400115013122559,-31.168365478515625,20.42230224609375,0.9231204986572266,0.31568241119384766,0.8215017318725586,3.878723621368408,6.580111503601074,3.443300247192383
9_20251106_210938,1762434543612,9,0.16767346858978271,-0.17279481887817383,-0.5264229774475098,-0.8154179453849792,0.9492451548576355,2.714200496673584,1.1934643983840942,5.114274024963379,7.191465377807617,5.224835395812988,-1.162357211112976,0.7900924682617188,0.9849697351455688,-11.450865745544434,-31.40276336669922,19.40325927734375,0.9884405136108398,0.48908329010009766,1.4252281188964844,4.125833511352539,6.7023820877075195,3.799607276916504
9_20251106_210938,1762434543632,9,0.17662830650806427,-0.17531214654445648,-0.5133997797966003,-0.821272611618042,0.9781541228294373,2.70628023147583,1.224481225013733,5.705616474151611,7.532624244689941,6.060376167297363,-1.2943040132522583,0.6276023983955383,1.0289521217346191,-12.521475791931152,-31.574623107910156,18.2493896484375,1.2638263702392578,0.6641941070556641,1.8086152076721191,4.4417901039123535,6.868430137634277,4.251760959625244
9_20251106_210938,1762434543651,9,0.18519559502601624,-0.17668840289115906,-0.4997727572917938,-0.8274726271629333,0.9781541228294373,2.70628023147583,1.224481225013733,5.705616474151611,7.532624244689941,6.060376167297363,-1.3370646238327026,0.9513607025146484,0.7491759657859802,-13.408873558044434,-31.710800170898438,17.238567352294922,1.2638263702392578,0.6641941070556641,1.8086152076721191,4.4417901039123535,6.868430137634277,4.251760959625244
9_20251106_210938,1762434543669,9,0.1933964043855667,-0.17521348595619202,-0.48590371012687683,-0.8341436386108398,1.0471570491790771,2.6961114406585693,1.300439715385437,6.732685089111328,7.829493045806885,6.57750129699707,-1.3932641744613647,1.105298638343811,0.6245595812797546,-14.28539752960205,-31.87116241455078,16.214191436767578,1.5370378494262695,0.6949477195739746,1.4834942817687988,5.195647239685059,7.13454532623291,5.0940070152282715
9_20251106_210938,1762434543689,9,0.20103541016578674,-0.17218604683876038,-0.47127851843833923,-0.8413282632827759,1.0892716646194458,2.695983648300171,1.346042513847351,7.172001838684082,8.325071334838867,7.137720108032227,-1.5258218050003052,0.9794604778289795,0.5701925754547119,-15.157809257507324,-32.11125946044922,15.028175354003906,1.5810832977294922,0.952420711517334,1.6349706649780273,5.59091854095459,7.372650623321533,5.502749443054199
9_20251106_210938,1762434543708,9,0.2073679268360138,-0.17016200721263885,-0.45592978596687317,-0.8486291766166687,1.1327017545700073,2.6988885402679443,1.3940067291259766,7.567028522491455,8.473505020141602,7.984034061431885,-1.5508671998977661,0.7766534090042114,0.5255994200706482,-16.080196380615234,-32.25927734375,13.70474624633789,1.580888271331787,0.8806838989257812,1.98502779006958,5.986140251159668,7.59282112121582,5.999006271362305
9_20251106_210938,1762434543727,9,0.21242782473564148,-0.1695309579372406,-0.44079676270484924,-0.8554717302322388,1.1789840459823608,2.7053847312927246,1.4469828605651855,7.817211627960205,8.954719543457031,8.699869155883789,-1.4451876878738403,0.6056113243103027,0.4632912576198578,-16.796817779541016,-32.40728759765625,12.484001159667969,1.4648571014404297,1.0895185470581055,2.1606903076171875,6.352354526519775,7.865200996398926,6.539178848266602
9_20251106_210938,1762434543745,9,0.21638177335262299,-0.16977404057979584,-0.4268243908882141,-0.8614967465400696,1.2244603633880615,2.7151107788085938,1.5012699365615845,7.904596328735352,9.44072151184082,9.222980499267578,-1.321182131767273,0.5371944308280945,0.3844897449016571,-17.491775512695312,-32.592193603515625,11.34454345703125,1.241793155670166,1.260416030883789,2.1470413208007812,6.6628031730651855,8.180305480957031,7.075939178466797
9_20251106_210938,1762434543765,9,0.21948130428791046,-0.16994160413742065,-0.4140816330909729,-0.8668819069862366,1.2244603633880615,2.7151107788085938,1.5012699365615845,7.904596328735352,9.44072151184082,9.222980499267578,-1.321182131767273,0.5371944308280945,0.3844897449016571,-18.133464813232422,-32.69817352294922,10.168083190917969,1.241793155670166,1.260416030883789,2.1470413208007812,6.6628031730651855,8.180305480957031,7.075939178466797
9_20251106_210938,1762434543784,9,0.2217458188533783,-0.1689581274986267,-0.40305519104003906,-0.8716813921928406,1.327561378479004,2.7452118396759033,1.627049207687378,8.208646774291992,9.506559371948242,8.696279525756836,-0.9461111426353455,0.570181131362915,0.06745091825723648,-18.654998779296875,-32.82173156738281,9.036548614501953,1.0119404792785645,0.8526334762573242,0.9347424507141113,7.196706295013428,8.653925895690918,7.761537075042725
9_20251106_210938,1762434543803,9,0.22294482588768005,-0.1667032092809677,-0.39390137791633606,-0.8759836554527283,1.3777061700820923,2.7627460956573486,1.6870148181915283,7.933324813842773,9.578381538391113,8.4053955078125,-0.8532596230506897,0.4528951048851013,-0.10603466629981995,-19.115402221679688,-32.94104766845703,7.880434036254883,0.58929443359375,0.7395639419555664,0.5150866508483887,7.344030380249023,8.838817596435547,7.890308856964111
9_20251106_210938,1762434543822,9,0.22232866287231445,-0.1646716147661209,-0.3861720860004425,-0.8799570202827454,1.425505518913269,2.781235694885254,1.7463051080703735,7.403032302856445,9.506559371948242,8.736978530883789,-0.8532596230506897,0.4528951048851013,-0.10603466629981995,-19.44327163696289,-33.076873779296875,6.742702484130859,0.04720115661621094,0.5341939926147461,0.6773357391357422,7.355831146240234,8.972365379333496,8.059642791748047
9_20251106_210938,1762434543842,9,0.22011087834835052,-0.16315601766109467,-0.3791652321815491,-0.8838354349136353,1.4696979522705078,2.7988312244415283,1.804715871810913,6.9122419357299805,8.983448028564453,8.819574356079102,-0.7286432385444641,0.3056766986846924,-0.33266547322273254,-19.66779327392578,-33.30695343017578,5.701887130737305,-0.3548712730407715,0.008866310119628906,0.607945442199707,7.267113208770752,8.974581718444824,8.211628913879395
9_20251106_210938,1762434543862,9,0.2171434462070465,-0.1611199527978897,-0.3731752038002014,-0.8874848484992981,1.513093113899231,2.8160805702209473,1.8669332265853882,6.369978904724121,8.608772277832031,8.476021766662598,-0.6107463240623474,0.33927425742149353,-0.41879740357398987,-19.78301239013672,-33.5072021484375,4.909305572509766,-0.717707633972168,-0.2926473617553711,0.21151447296142578,7.087686538696289,8.901419639587402,8.264507293701172
9_20251106_210938,1762434543879,9,0.21377982199192047,-0.15818454325199127,-0.36815881729125977,-0.8909180164337158,1.5434489250183105,2.8277173042297363,1.9148962497711182,5.713995933532715,8.159878730773926,8.316814422607422,-0.6174659132957458,0.3447720408439636,-0.49393370747566223,-19.798446655273438,-33.674766540527344,3.9995288848876953,-1.098952293395996,-0.5932321548461914,0.04184532165527344,6.812948226928711,8.753110885620117,8.274969100952148
9_20251106_210938,1762434543899,9,0.20983988046646118,-0.1548803448677063,-0.3631909489631653,-0.8944672346115112,1.571869969367981,2.8377370834350586,1.9684836864471436,5.001750946044922,7.77083683013916,8.268932342529297,-0.6773306727409363,0.35943281650543213,-0.544024646282196,-19.692710876464844,-33.8353271484375,3.189271926879883,-1.448957920074463,-0.7858190536499023,-0.00482940673828125,6.450708866119385,8.556655883789062,8.273761749267578
9_20251106_210938,1762434543919,9,0.20535703003406525,-0.1513470560312271,-0.35769233107566833,-0.8983199596405029,1.5924490690231323,2.8435750007629395,2.01920223236084,4.33858585357666,7.345884323120117,8.21147346496582,-0.6773306131362915,0.35882192850112915,-0.53486168384552,-19.692710876464844,-33.8353271484375,3.189271926879883,-1.6896986961364746,-0.9686174392700195,-0.04983043670654297,6.028284549713135,8.314501762390137,8.261303901672363
9_20251106_210938,1762434543937,9,0.2009677290916443,-0.1477309614419937,-0.35212332010269165,-0.9021068215370178,1.60475754737854,2.8449935913085938,2.0615861415863037,3.8813130855560303,6.863473892211914,7.863131999969482,-0.5771487951278687,0.31239622831344604,-0.4340690076351166,-19.545562744140625,-34.10707092285156,2.513763427734375,-1.7175772190093994,-1.1608219146728516,-0.31853723526000977,5.59889030456543,8.024295806884766,8.181669235229492
9_20251106_210938,1762434543956,9,0.19753509759902954,-0.14452169835567474,-0.3473127782344818,-0.9052442908287048,1.6117080450057983,2.8423707485198975,2.1023173332214355,3.633523941040039,6.54984712600708,7.536337852478027,-0.4616953730583191,0.2073274850845337,-0.2575291097164154,-19.261249542236328,-34.31945037841797,1.8041572570800781,-1.5722928047180176,-1.1795592308044434,-0.5162649154663086,5.205816745758057,7.729406356811523,8.052602767944336
9_20251106_210938,1762434543976,9,0.19536711275577545,-0.14258070290088654,-0.34340906143188477,-0.9075090289115906,1.6139053106307983,2.836061477661133,2.1390209197998047,3.600006580352783,6.337968826293945,7.326854228973389,-0.36578962206840515,0.0784350335597992,-0.04006126895546913,-18.963119506835938,-34.482421875,1.258291244506836,-1.2846479415893555,-1.1131501197814941,-0.5805988311767578,4.884654521942139,7.4511189460754395,7.9074530601501465
9_20251106_210938,1762434543994,9,0.19480082392692566,-0.1422763168811798,-0.34028080105781555,-0.9088559150695801,1.6129082441329956,2.827207326889038,2.1722896099090576,3.760411262512207,6.408595085144043,7.324460029602051,-0.3059248626232147,-0.019303323701024055,0.12487219274044037,-18.71453857421875,-34.66126251220703,0.7237167358398438,-0.8993945121765137,-0.8340187072753906,-0.46639442443847656,4.659805774688721,7.242613792419434,7.790854454040527
9_20251106_210938,1762434544013,9,0.19540180265903473,-0.14327171444892883,-0.3376271724700928,-0.9095599055290222,1.6129082441329956,2.827207326889038,2.1722896099090576,3.760411262512207,6.408595085144043,7.324460029602051,-0.29859450459480286,-0.03824013099074364,0.17618483304977417,-18.401390075683594,-34.7615966796875,0.2742748260498047,-0.8993945121765137,-0.8340187072753906,-0.46639442443847656,4.659805774688721,7.242613792419434,7.790854454040527
9_20251106_210938,1762434544033,9,0.19632305204868317,-0.14463230967521667,-0.33501702547073364,-0.9101111888885498,1.6064841747283936,2.804880142211914,2.23298978805542,4.141072750091553,6.431339263916016,7.808067798614502,-0.3028705418109894,0.02162461169064045,0.12120701372623444,-18.185321807861328,-34.85613250732422,-0.1382770538330078,-0.3149433135986328,-0.5295581817626953,0.04683208465576172,4.4560160636901855,6.960897445678711,7.76123571395874
9_20251106_210938,1762434544052,9,0.1970512419939041,-0.1453031599521637,-0.3323412537574768,-0.9108276963233948,1.6023428440093994,2.7917628288269043,2.261512041091919,4.216486930847168,6.254176139831543,7.916999816894531,-0.3156987130641937,0.08881973475217819,0.0509575717151165,-18.066726684570312,-34.945411682128906,-0.45987510681152344,-0.19162321090698242,-0.5653772354125977,0.12461137771606445,4.40811014175415,6.819553375244141,7.792388439178467
9_20251106_210938,1762434544071,9,0.1973356455564499,-0.14521700143814087,-0.32948926091194153,-0.9118154644966125,1.597830057144165,2.7765629291534424,2.2903876304626465,4.285915851593018,6.1344709396362305,7.9086198806762695,-0.31508782505989075,0.11508692055940628,0.014305688440799713,-18.04632568359375,-35.05360412597656,-0.7856597900390625,-0.09775543212890625,-0.5480661392211914,0.09298515319824219,4.383671283721924,6.682537078857422,7.815634727478027
9_20251106_210938,1762434544090,9,0.1973482221364975,-0.14482633769512177,-0.3266013264656067,-0.9129132628440857,1.597830057144165,2.7765629291534424,2.2903876304626465,4.285915851593018,6.1344709396362305,7.9086198806762695,-0.3022596836090088,0.07721330970525742,-0.0027985242195427418,-17.97014617919922,-35.04466247558594,-1.20172119140625,-0.09775543212890625,-0.5480661392211914,0.09298515319824219,4.383671283721924,6.682537078857422,7.815634727478027
9_20251106_210938,1762434544110,9,0.19712209701538086,-0.14471158385276794,-0.32391244173049927,-0.9139377474784851,1.5935544967651367,2.7591710090637207,2.3193581104278564,4.451108932495117,6.017159938812256,7.86552619934082,-0.3010379374027252,0.009407316334545612,-0.048613376915454865,-18.01760482788086,-35.04608917236328,-1.37939453125,0.05395030975341797,-0.5323019027709961,0.039913177490234375,4.397158622741699,6.549461841583252,7.825613021850586
9_20251106_210938,1762434544129,9,0.19623678922653198,-0.1451127529144287,-0.3214118778705597,-0.9149469137191772,1.5873910188674927,2.7290499210357666,2.365983009338379,4.447517395019531,6.2781171798706055,7.998398780822754,-0.3010379374027252,0.009407316334545612,-0.048613376915454865,-18.078166961669922,-35.07274627685547,-1.6256675720214844,0.02265310287475586,-0.15584850311279297,0.13318347930908203,4.424864292144775,6.433965682983398,7.865215301513672
9_20251106_210938,1762434544148,9,0.19415272772312164,-0.1458425223827362,-0.3189322352409363,-0.9161424040794373,1.583717942237854,2.7130167484283447,2.392392635345459,4.244019508361816,6.324801445007324,8.61607551574707,-0.39205679297447205,-0.06023125723004341,-0.31311777234077454,-18.12521743774414,-35.06201934814453,-1.7625274658203125,-0.14467573165893555,-0.08733129501342773,0.6006879806518555,4.388695240020752,6.412132740020752,8.015387535095215
9_20251106_210938,1762434544166,9,0.19065293669700623,-0.14616629481315613,-0.31618842482566833,-0.9177754521369934,1.5794165134429932,2.698430061340332,2.4176132678985596,3.917224645614624,6.0554656982421875,9.087713241577148,-0.39205679297447205,-0.06023125723004341,-0.31311777234077454,-18.161617279052734,-35.098968505859375,-2.075664520263672,-0.37717652320861816,-0.28533363342285156,0.8578605651855469,4.294401168823242,6.340799331665039,8.229852676391602
9_20251106_210938,1762434544185,9,0.18656732141971588,-0.14458845555782318,-0.3136812448501587,-0.9197232723236084,1.5734049081802368,2.68276047706604,2.443960428237915,3.6754207611083984,5.960898399353027,8.614879608154297,-0.19230404496192932,0.23176206648349762,-0.5037075877189636,-18.017127990722656,-35.14979553222656,-2.31439208984375,-0.49518442153930664,-0.3039207458496094,0.30802154541015625,4.170605182647705,6.264819145202637,8.30685806274414
9_20251106_210938,1762434544204,9,0.18260334432125092,-0.14125916361808777,-0.3122393488883972,-0.9215250611305237,1.5658656358718872,2.6668171882629395,2.4680750370025635,3.504242420196533,5.879499435424805,7.973260879516602,-0.19230404496192932,0.23176206648349762,-0.5037075877189636,-17.825912475585938,-35.2349853515625,-2.5654659271240234,-0.5330901145935059,-0.3082561492919922,-0.2668771743774414,4.037332534790039,6.187755584716797,8.240138053894043
9_20251106_210938,1762434544224,9,0.17880091071128845,-0.13815341889858246,-0.31204769015312195,-0.9228055477142334,1.5658656358718872,2.6668171882629395,2.4680750370025635,3.504242420196533,5.879499435424805,7.973260879516602,-0.010266344994306564,0.042394012212753296,-0.4169647991657257,-17.55866241455078,-35.265045166015625,-2.8260574340820312,-0.5330901145935059,-0.3082561492919922,-0.2668771743774414,4.037332534790039,6.187755584716797,8.240138053894043
9_20251106_210938,1762434544243,9,0.17517563700675964,-0.13648271560668945,-0.3124960958957672,-0.9235973954200745,1.5454363822937012,2.633225202560425,2.510425090789795,3.269620895385742,5.796902656555176,7.7853240966796875,-0.010266344994306564,0.042394012212753296,-0.4169647991657257,-17.273162841796875,-35.383033752441406,-2.9253196716308594,-0.49459171295166016,-0.24803876876831055,-0.29318809509277344,3.7642126083374023,6.044941425323486,8.078512191772461
9_20251106_210938,1762434544261,9,0.17246106266975403,-0.13550007343292236,-0.3129628598690033,-0.9240947961807251,1.5454363822937012,2.633225202560425,2.510425090789795,3.269620895385742,5.796902656555176,7.7853240966796875,0.009281325154006481,-0.02113591879606247,-0.2166011780500412,-16.966022491455078,-35.56114196777344,-3.1330509185791016,-0.49459171295166016,-0.24803876876831055,-0.29318809509277344,3.7642126083374023,6.044941425323486,8.078512191772461
9_20251106_210938,1762434544281,9,0.1704225242137909,-0.13493551313877106,-0.31342175602912903,-0.9244000315666199,1.534562349319458,2.61743426322937,2.5279719829559326,3.458754777908325,5.953716278076172,7.708712577819824,0.012335649691522121,-0.03090975247323513,-0.19827525317668915,-16.683338165283203,-35.72935485839844,-3.233369827270508,-0.24436640739440918,-0.07297992706298828,-0.2958402633666992,3.7031211853027344,6.02669620513916,8.004552841186523
9_20251106_210938,1762434544301,9,0.16848674416542053,-0.13456034660339355,-0.3139320909976959,-0.9246363639831543,1.5135215520858765,2.5882411003112793,2.559393882751465,3.588036060333252,6.026736259460449,7.967275619506836,-0.005379427224397659,0.01857028715312481,-0.24286837875843048,-16.362491607666016,-35.86980438232422,-3.358722686767578,-0.07384586334228516,-0.0030388832092285156,0.0023822784423828125,3.661881923675537,6.029775142669678,7.964893341064453
9_20251106_210938,1762434544319,9,0.16631194949150085,-0.13365903496742249,-0.31426897644996643,-0.9250462651252747,1.5039747953414917,2.57554030418396,2.5733213424682617,3.573671340942383,6.065041542053223,8.031915664672852,-0.02798142284154892,0.07415898144245148,-0.3137286603450775,-16.088653564453125,-35.964683532714844,-3.336301803588867,-0.07056856155395508,0.028213024139404297,0.05361747741699219,3.644239902496338,6.036828517913818,7.978298187255859
9_20251106_210938,1762434544340,9,0.16364018619060516,-0.1320963352918625,-0.3143756091594696,-0.9257107973098755,1.4930890798568726,2.56118106842041,2.5888853073120117,3.5533218383789062,5.952519416809082,8.016355514526367,-0.014542398042976856,0.08698714524507523,-0.3931410610675812,-15.851178169250488,-36.061676025390625,-3.3423843383789062,-0.07273435592651367,-0.06744766235351562,0.03044605255126953,3.62605619430542,6.019967079162598,7.985909461975098
9_20251106_210938,1762434544359,9,0.1603647619485855,-0.13014982640743256,-0.31467825174331665,-0.9264565706253052,1.4826514720916748,2.548046112060547,2.603114128112793,3.432419776916504,5.972868919372559,8.034310340881348,-0.008433750830590725,0.043004877865314484,-0.4640013575553894,-15.851178169250488,-36.061676025390625,-3.3423843383789062,-0.1549091339111328,-0.03767871856689453,0.03872060775756836,3.5873289108276367,6.010547637939453,7.995589733123779
9_20251106_210938,1762434544376,9,0.1563081443309784,-0.12839818000793457,-0.315155565738678,-0.9272317290306091,1.4731361865997314,2.537609338760376,2.6155171394348145,3.0924577713012695,6.087785720825195,8.411380767822266,-0.02492709830403328,0.055833034217357635,-0.5263095498085022,-15.660332679748535,-36.124176025390625,-3.349637985229492,-0.39589691162109375,0.06179046630859375,0.33263301849365234,3.4883546829223633,6.025995254516602,8.078747749328613
9_20251106_210938,1762434544395,9,0.15176814794540405,-0.1263354867696762,-0.3155405819416046,-0.9281378984451294,1.4611883163452148,2.5264151096343994,2.6300389766693115,2.81593918800354,5.98483943939209,8.571784973144531,0.009892190806567669,0.15784744918346405,-0.5843417048454285,-15.400191307067871,-36.24510192871094,-3.3147201538085938,-0.5379323959350586,-0.032924652099609375,0.39443016052246094,3.3538715839385986,6.017764091491699,8.17735481262207
9_20251106_210938,1762434544414,9,0.1470004767179489,-0.12307468801736832,-0.31610241532325745,-0.9291516542434692,1.4477970600128174,2.5152828693389893,2.6439709663391113,2.610046863555908,5.8364057540893555,8.227035522460938,0.08075249940156937,0.28185296058654785,-0.5892286896705627,-15.17299747467041,-36.317100524902344,-3.388347625732422,-0.595059871673584,-0.14508676528930664,0.03974437713623047,3.205106735229492,5.981492519378662,8.187291145324707
9_20251106_210938,1762434544435,9,0.14272505044937134,-0.1185292899608612,-0.31707316637039185,-0.9300779104232788,1.4477970600128174,2.5152828693389893,2.6439709663391113,2.610046863555908,5.8364057540893555,8.227035522460938,0.10763054341077805,0.3209483027458191,-0.5275313258171082,-14.887568473815918,-36.41199493408203,-3.2843379974365234,-0.595059871673584,-0.14508676528930664,0.03974437713623047,3.205106735229492,5.981492519378662,8.187291145324707
9_20251106_210938,1762434544452,9,0.1391291618347168,-0.11379407346248627,-0.31815582513809204,-0.9308441877365112,1.4303890466690063,2.5023937225341797,2.6581082344055176,2.4771742820739746,5.806479454040527,7.8643293380737305,0.08075249940156937,0.2726899981498718,-0.4187973737716675,-14.59993839263916,-36.48069763183594,-3.287931442260742,-0.5823459625244141,-0.14001035690307617,-0.25836944580078125,3.0595202445983887,5.9464898109436035,8.122698783874512
9_20251106_210938,1762434544472,9,0.1363801658153534,-0.10984062403440475,-0.3189809322357178,-0.9314433336257935,1.4152770042419434,2.491765260696411,2.6684958934783936,2.4173216819763184,5.698744773864746,7.878693580627441,0.08502855151891708,0.15173879265785217,-0.2954027056694031,-14.255509376525879,-36.620635986328125,-3.3041725158691406,-0.5137588977813721,-0.1981964111328125,-0.1952037811279297,2.9310805797576904,5.896941184997559,8.073897361755371
9_20251106_210938,1762434544491,9,0.1344498097896576,-0.10730988532304764,-0.3198471665382385,-0.9317218661308289,1.3840126991271973,2.470280408859253,2.6844208240509033,2.675884246826172,5.806479454040527,7.458529472351074,0.10030017048120499,-0.045570507645606995,-0.21965549886226654,-13.872210502624512,-36.720252990722656,-3.345182418823242,-0.14493894577026367,-0.0404667854309082,-0.41183900833129883,2.8208231925964355,5.8469462394714355,7.870368480682373
9_20251106_210938,1762434544510,9,0.13243713974952698,-0.10685895383358002,-0.32103899121284485,-0.9316520690917969,1.3687089681625366,2.460063934326172,2.69075870513916,2.7333426475524902,5.861543655395508,7.669209957122803,0.08319596201181412,-0.16102394461631775,-0.21537946164608002,-13.504311561584473,-36.871429443359375,-3.3336734771728516,-0.06998443603515625,0.011677742004394531,-0.16092634201049805,2.8033270835876465,5.849865913391113,7.830136299133301
9_20251106_210938,1762434544529,9,0.13006047904491425,-0.10750741511583328,-0.32224464416503906,-0.9314960241317749,1.3687089681625366,2.460063934326172,2.69075870513916,2.7333426475524902,5.861543655395508,7.669209957122803,0.052041858434677124,-0.09810487180948257,-0.26669207215309143,-13.097628593444824,-36.970802307128906,-3.2385406494140625,-0.06998443603515625,0.011677742004394531,-0.16092634201049805,2.8033270835876465,5.849865913391113,7.830136299133301
9_20251106_210938,1762434544549,9,0.12734103202819824,-0.10749805718660355,-0.32311517000198364,-0.9315712451934814,1.3520684242248535,2.4495162963867188,2.6979973316192627,2.6327905654907227,5.903439998626709,8.00438404083252,0.052041858434677124,-0.09810487180948257,-0.26669207215309143,-12.832144737243652,-36.991676330566406,-3.160961151123047,-0.1364293098449707,0.04285907745361328,0.13939809799194336,2.7692198753356934,5.860580921173096,7.864985942840576
9_20251106_210938,1762434544568,9,0.12451875954866409,-0.10587996989488602,-0.3236214518547058,-0.931962251663208,1.3365542888641357,2.440354585647583,2.7048685550689697,2.6184260845184326,5.98603630065918,7.970866680145264,0.03310504928231239,0.12180642783641815,-0.3833672106266022,-12.580565452575684,-37.05047607421875,-3.1387290954589844,-0.1206350326538086,0.10036468505859375,0.08470487594604492,2.739061117172241,5.885671615600586,7.886161804199219
9_20251106_210938,1762434544587,9,0.12155523151159286,-0.10350655019283295,-0.32415705919265747,-0.9324339032173157,1.3104023933410645,2.4260640144348145,2.7151694297790527,2.600470542907715,5.983642578125,7.626116752624512,0.05082013085484505,0.08087848871946335,-0.4084126651287079,-12.303006172180176,-37.082298278808594,-3.1420211791992188,-0.0869741439819336,0.06423377990722656,-0.1955409049987793,2.6874446868896484,5.919408798217773,7.821657657623291
9_20251106_210938,1762434544606,9,0.11826642602682114,-0.10141205042600632,-0.32493308186531067,-0.9328168034553528,1.295377254486084,2.4189984798431396,2.7190065383911133,2.33113431930542,6.042297840118408,7.398676872253418,0.08014164119958878,-0.015027271583676338,-0.423684298992157,-12.028761863708496,-37.16502380371094,-3.078786849975586,-0.285048246383667,0.0983114242553711,-0.33838462829589844,2.616182565689087,5.943986415863037,7.737061500549316
9_20251106_210938,1762434544624,9,0.11448350548744202,-0.10014288127422333,-0.3260985016822815,-0.9330191016197205,1.2809535264968872,2.4133410453796387,2.721719264984131,1.975610613822937,6.099756240844727,7.506411552429199,0.07097866386175156,-0.04129445180296898,-0.4120778739452362,-11.815545082092285,-37.251853942871094,-3.0044898986816406,-0.5124574899673462,0.12461566925048828,-0.18451976776123047,2.488068103790283,5.975140571594238,7.69093132019043
9_20251106_210938,1762434544644,9,0.11079242080450058,-0.09907431900501251,-0.32723984122276306,-0.9331791996955872,1.26360285282135,2.4074859619140625,2.7242183685302734,1.788870930671692,6.013568878173828,7.571052074432373,0.04593321308493614,0.03384190797805786,-0.3619869649410248,-11.59216022491455,-37.37542724609375,-2.944009780883789,-0.559357762336731,0.030742645263671875,-0.09590339660644531,2.348228693008423,5.982826232910156,7.666955471038818
9_20251106_210938,1762434544663,9,0.10777422785758972,-0.09742739051580429,-0.3280186951160431,-0.9334325790405273,1.2461103200912476,2.402282953262329,2.726447105407715,1.6799392700195312,6.012372016906738,7.65723991394043,0.05387445539236069,0.1395214945077896,-0.280131071805954,-11.362034797668457,-37.38545227050781,-2.9352188110351562,-0.5346314907073975,0.023636817932128906,-0.0077724456787109375,2.2145707607269287,5.988735198974609,7.665012359619141
9_20251106_210938,1762434544683,9,0.10580991208553314,-0.0950600877404213,-0.32864850759506226,-0.9336798191070557,1.227982997894287,2.3973424434661865,2.7279419898986816,1.6643776893615723,5.989627838134766,7.4381794929504395,0.0789199098944664,0.21465785801410675,-0.1750623881816864,-11.124855995178223,-37.48284912109375,-2.9007530212402344,-0.4401545524597168,0.0007138252258300781,-0.18146657943725586,2.104532241821289,5.9889140129089355,7.619646072387695
9_20251106_210938,1762434544700,9,0.10505274683237076,-0.0923055112361908,-0.3293115198612213,-0.9338080883026123,1.227982997894287,2.3973424434661865,2.7279419898986816,1.6643776893615723,5.989627838134766,7.4381794929504395,0.10946314036846161,0.17739512026309967,-0.03334175795316696,-10.813868522644043,-37.57453918457031,-2.957958221435547,-0.4401545524597168,0.0007138252258300781,-0.18146657943725586,2.104532241821289,5.9889140129089355,7.619646072387695
9_20251106_210938,1762434544720,9,0.10540077090263367,-0.09033659845590591,-0.3301733434200287,-0.9336570501327515,1.191468358039856,2.3876445293426514,2.727863073348999,1.841541051864624,5.903440475463867,7.178420066833496,0.11068487167358398,0.09431751817464828,0.13770036399364471,-10.53760814666748,-37.619728088378906,-2.8804168701171875,-0.14073431491851807,-0.05834245681762695,-0.29808998107910156,1.982275366783142,5.961782932281494,7.476510047912598
9_20251106_210938,1762434544740,9,0.10695387423038483,-0.08967874199151993,-0.33098337054252625,-0.933256983757019,1.174864411354065,2.383033037185669,2.7266507148742676,2.1671385765075684,5.950124740600586,7.228695869445801,0.08258509635925293,0.010629044845700264,0.2916382849216461,-10.3939847946167,-37.64854431152344,-2.8077430725097656,0.14789056777954102,-0.009326457977294922,-0.19825172424316406,2.0192480087280273,5.959451198577881,7.426947593688965
9_20251106_210938,1762434544759,9,0.10960958153009415,-0.0903162881731987,-0.3315051794052124,-0.9327020049095154,1.1595433950424194,2.379110097885132,2.725217580795288,2.44126296043396,6.185943603515625,7.354386329650879,0.058150507509708405,-0.08710930496454239,0.3734941780567169,-10.298907279968262,-37.680267333984375,-2.7640628814697266,0.3376119136810303,0.18119382858276367,-0.05804920196533203,2.1036510467529297,6.004749774932861,7.412435531616211
9_20251106_210938,1762434544779,9,0.11266925930976868,-0.09217054396867752,-0.33183926343917847,-0.9320369958877563,1.1472861766815186,2.3764445781707764,2.7246320247650146,2.675884485244751,6.323604583740234,7.670407295227051,0.0428788885474205,-0.14086540043354034,0.37288329005241394,-10.298907279968262,-37.680267333984375,-2.7640628814697266,0.45778679847717285,0.2550835609436035,0.20637750625610352,2.218097686767578,6.068521022796631,7.464029788970947
9_20251106_210938,1762434544798,9,0.11552570760250092,-0.09455535560846329,-0.33211538195610046,-0.9313498139381409,1.1373839378356934,2.3747665882110596,2.7250657081604004,2.8530478477478027,6.379865646362305,7.824826717376709,0.04654407501220703,-0.12376119196414948,0.29591432213783264,-10.295071601867676,-37.60546875,-2.708414077758789,0.5079600811004639,0.24907588958740234,0.288637638092041,2.345087766647339,6.130789756774902,7.536189079284668
9_20251106_210938,1762434544816,9,0.11771117150783539,-0.09657863527536392,-0.3324449956417084,-0.9307507276535034,1.1297757625579834,2.3737576007843018,2.7263405323028564,2.8745946884155273,6.334378242492676,7.895452499389648,0.04654407501220703,-0.12376119196414948,0.29591432213783264,-10.295071601867676,-37.60546875,-2.708414077758789,0.42360544204711914,0.1628704071044922,0.2874107360839844,2.450989246368408,6.171507835388184,7.608041763305664
9_20251106_210938,1762434544834,9,0.11909511685371399,-0.09748171269893646,-0.33292829990386963,-0.9303076863288879,1.1232659816741943,2.37337327003479,2.7279279232025146,2.8590331077575684,6.4002156257629395,7.7206830978393555,0.061204828321933746,0.06560686975717545,0.04545978829264641,-10.413592338562012,-37.539283752441406,-2.590087890625,0.3264350891113281,0.1829662322998047,0.09011316299438477,2.5325980186462402,6.217249393463135,7.630569934844971
9_20251106_210938,1762434544854,9,0.11973795294761658,-0.09701763838529587,-0.33337530493736267,-0.9301136136054993,1.117583155632019,2.373309850692749,2.7290921211242676,2.7153871059417725,6.327195644378662,7.505214691162109,0.061204828321933746,0.06560686975717545,0.04545978829264641,-10.61762523651123,-37.49053955078125,-2.543041229248047,0.14623117446899414,0.08795690536499023,-0.10028409957885742,2.5691559314727783,6.239238739013672,7.605498790740967
9_20251106_210938,1762434544873,9,0.11947073042392731,-0.0956307128071785,-0.3337181806564331,-0.930168628692627,1.111689805984497,2.3730151653289795,2.7298567295074463,2.499917984008789,6.163200378417969,7.474091053009033,0.04043542966246605,0.12791506946086884,-0.07854574918746948,-10.797175407409668,-37.42845916748047,-2.4136505126953125,-0.055390357971191406,-0.06083106994628906,-0.10512638092041016,2.5553083419799805,6.224031448364258,7.579217433929443
9_20251106_210938,1762434544892,9,0.11838707327842712,-0.09419845044612885,-0.33418139815330505,-0.9302870035171509,1.1054670810699463,2.371932029724121,2.7305309772491455,2.2257938385009766,5.92618465423584,7.573446273803711,-0.02798142284154892,0.12608246505260468,-0.12985838949680328,-10.978852272033691,-37.41566467285156,-2.3799304962158203,-0.2636115550994873,-0.23827743530273438,-0.004616737365722656,2.489405393600464,6.164462089538574,7.578063011169434
9_20251106_210938,1762434544911,9,0.11761683970689774,-0.0926419198513031,-0.33423247933387756,-0.9305226802825928,1.0986318588256836,2.3704004287719727,2.7310078144073486,2.152773857116699,5.981248378753662,7.5183820724487305,0.011113922111690044,0.08271108567714691,-0.057776350528001785,-11.063647270202637,-37.408935546875,-2.356067657470703,-0.2693052291870117,-0.14657068252563477,-0.0477447509765625,2.422079086303711,6.127819061279297,7.566126823425293
9_20251106_210938,1762434544930,9,0.11759791523218155,-0.09122054278850555,-0.33423298597335815,-0.9306652545928955,1.0914192199707031,2.368753433227539,2.7313625812530518,2.159956216812134,6.057859420776367,7.530352592468262,0.031883325427770615,0.03445276990532875,0.014305688440799713,-11.059617042541504,-37.3338623046875,-2.327451705932617,-0.20969843864440918,-0.05596780776977539,-0.028619766235351562,2.369654655456543,6.113827228546143,7.558972358703613
9_20251106_210938,1762434544950,9,0.11806177347898483,-0.0903325304389,-0.33452272415161133,-0.9305890798568726,1.0835363864898682,2.367202043533325,2.731710433959961,2.1491827964782715,6.145244121551514,7.556687831878662,0.034937646239995956,0.0320093110203743,0.06500745564699173,-11.06978702545166,-37.297119140625,-2.3136348724365234,-0.176377534866333,0.025133609771728516,-0.0018277168273925781,2.3255603313446045,6.120110511779785,7.558515548706055
9_20251106_210938,1762434544968,9,0.11892398446798325,-0.08963345736265182,-0.3348696231842041,-0.9304220676422119,1.0835363864898682,2.367202043533325,2.731710433959961,2.1491827964782715,6.145244121551514,7.556687831878662,0.012335649691522121,0.04972439259290695,0.0869985818862915,-11.077532768249512,-37.21068572998047,-2.2446956634521484,-0.176377534866333,0.025133609771728516,-0.0018277168273925781,2.3255603313446045,6.120110511779785,7.558515548706055
9_20251106_210938,1762434544988,9,0.12006090581417084,-0.08881131559610367,-0.33506128191947937,-0.9302859306335449,1.0685538053512573,2.3655734062194824,2.7323431968688965,2.218611717224121,6.263751983642578,7.587810516357422,-0.020040180534124374,0.07721330970525742,0.08944204449653625,-11.090027809143066,-37.22349548339844,-2.2995147705078125,-0.05982828140258789,0.09154748916625977,0.025069236755371094,2.278439998626709,6.172204494476318,7.562741279602051
9_20251106_210938,1762434545007,9,0.12132754921913147,-0.08777327835559845,-0.33510011434555054,-0.9302061200141907,1.061614751815796,2.3651912212371826,2.733041763305664,2.3095874786376953,6.251781463623047,7.695545196533203,-0.05363773927092552,0.09431751817464828,0.09555069357156754,-11.041382789611816,-37.22045135498047,-2.284036636352539,0.024918079376220703,0.06366157531738281,0.10624313354492188,2.2846693992614746,6.188119888305664,7.589302062988281
9_20251106_210938,1762434545026,9,0.12267762422561646,-0.08674441277980804,-0.33478742837905884,-0.9302381277084351,1.0554490089416504,2.3650193214416504,2.7339344024658203,2.440065860748291,6.2577667236328125,7.6728010177612305,-0.04203131049871445,0.08881973475217819,0.10165934264659882,-11.05437183380127,-37.23394012451172,-2.2712745666503906,0.12431716918945312,0.05571746826171875,0.06679916381835938,2.315748691558838,6.202049255371094,7.606001853942871
9_20251106_210938,1762434545045,9,0.12393923848867416,-0.08596717566251755,-0.3344588875770569,-0.9302612543106079,1.0554490089416504,2.3650193214416504,2.7339344024658203,2.440065860748291,6.2577667236328125,7.6728010177612305,-0.020040180534124374,0.026511527597904205,0.08577685803174973,-11.079646110534668,-37.24835205078125,-2.2454872131347656,0.12431716918945312,0.05571746826171875,0.06679916381835938,2.315748691558838,6.202049255371094,7.606001853942871
9_20251106_210938,1762434545065,9,0.12476649880409241,-0.08592859655618668,-0.3344391882419586,-0.9301612973213196,1.0499887466430664,2.365067720413208,2.734957456588745,2.547800064086914,6.2745256423950195,7.648859977722168,-0.004157697781920433,-0.0272445660084486,0.052179303020238876,-11.16334056854248,-37.22853088378906,-2.2754249572753906,0.18564105033874512,0.057981014251708984,0.0342864990234375,2.362159013748169,6.2165446281433105,7.6145734786987305
9_20251106_210938,1762434545084,9,0.125086709856987,-0.08642467111349106,-0.3346881866455078,-0.9299827218055725,1.0418568849563599,2.366126775741577,2.738647222518921,2.5537853240966797,6.2888898849487305,7.981639862060547,0.025163810700178146,-0.005253435578197241,0.000866664107888937,-11.249459266662598,-37.258392333984375,-2.360483169555664,0.1270461082458496,0.03308582305908203,0.2575225830078125,2.42673921585083,6.255804061889648,7.724117279052734
9_20251106_210938,1762434545102,9,0.12512466311454773,-0.08637625724077225,-0.33513402938842773,-0.9298215508460999,1.0385063886642456,2.3662660121917725,2.74105167388916,2.535829782485962,6.104544639587402,7.814053535461426,0.08136337250471115,0.06682860106229782,-0.05594375357031822,-11.322674751281738,-37.26329040527344,-2.3499088287353516,0.08727240562438965,-0.12100791931152344,0.07194900512695312,2.4485573768615723,6.225552558898926,7.742104530334473
9_20251106_210938,1762434545121,9,0.12483227252960205,-0.08555545657873154,-0.33575981855392456,-0.9297109842300415,1.0352836847305298,2.365691900253296,2.7424988746643066,2.4340803623199463,5.968080520629883,7.436982154846191,0.1253456175327301,0.11814124137163162,-0.10664553195238113,-11.376154899597168,-37.354095458984375,-2.3807506561279297,-0.011581659317016602,-0.2059774398803711,-0.24409770965576172,2.445662021636963,6.174057960510254,7.681079864501953
9_20251106_210938,1762434545141,9,0.12427175790071487,-0.08420682698488235,-0.33665731549263,-0.9295846223831177,1.0319966077804565,2.364253044128418,2.7424747943878174,2.363454580307007,5.848376274108887,7.171237468719482,0.08258509635925293,0.1144760474562645,-0.11397591233253479,-11.378270149230957,-37.39176940917969,-2.381542205810547,-0.0657658576965332,-0.2605457305908203,-0.40787410736083984,2.42922043800354,6.108922004699707,7.579111576080322
9_20251106_210938,1762434545160,9,0.12358839809894562,-0.08293811976909637,-0.33736538887023926,-0.929533064365387,1.0285882949829102,2.3620102405548096,2.7416481971740723,2.3251490592956543,5.78972053527832,7.286154270172119,0.08258509635925293,0.1144760474562645,-0.11397591233253479,-11.366183280944824,-37.39111328125,-2.367534637451172,-0.08325719833374023,-0.25536155700683594,-0.23436594009399414,2.4084062576293945,6.045082092285156,7.520520210266113
9_20251106_210938,1762434545179,9,0.12302462756633759,-0.08220076560974121,-0.3373963236808777,-0.9296621084213257,1.0285882949829102,2.3620102405548096,2.7416481971740723,2.3251490592956543,5.78972053527832,7.286154270172119,-0.07440713793039322,0.032620176672935486,-0.0235679242759943,-11.38099193572998,-37.441864013671875,-2.3961143493652344,-0.08325719833374023,-0.25536155700683594,-0.23436594009399414,2.4084062576293945,6.045082092285156,7.520520210266113
9_20251106_210938,1762434545201,9,0.12276572734117508,-0.0820852518081665,-0.33668115735054016,-0.9299657940864563,1.0213569402694702,2.3563265800476074,2.7417502403259277,2.440065860748291,6.023144721984863,7.884678840637207,-0.06829849630594254,-0.011972948908805847,0.025912117213010788,-11.319258689880371,-37.425201416015625,-2.4069137573242188,0.034052133560180664,0.0085601806640625,0.2736654281616211,2.4060137271881104,6.014584541320801,7.611013412475586
9_20251106_210938,1762434545218,9,0.12288439273834229,-0.08241282403469086,-0.33583584427833557,-0.930226743221283,1.01893949508667,2.3542983531951904,2.7431135177612305,2.5118887424468994,6.053071022033691,8.009172439575195,-0.06829849630594254,-0.011972948908805847,0.025912117213010788,-11.319258689880371,-37.425201416015625,-2.4069137573242188,0.08470010757446289,0.030788898468017578,0.3185272216796875,2.4271886348724365,6.022282123565674,7.690645217895508
9_20251106_210938,1762434545236,9,0.12302424758672714,-0.08302566409111023,-0.3353615999221802,-0.9303248524665833,1.0167635679244995,2.352201223373413,2.745112895965576,2.5310416221618652,5.999204158782959,7.945728302001953,-0.02187277376651764,-0.04129445180296898,0.0405728705227375,-11.29588794708252,-37.43657684326172,-2.3656482696533203,0.08308243751525879,-0.018462657928466797,0.20406627655029297,2.4479591846466064,6.017666816711426,7.74166202545166
9_20251106_210938,1762434545256,9,0.12315962463617325,-0.08332224935293198,-0.33532285690307617,-0.930294394493103,1.014763593673706,2.349952459335327,2.746676206588745,2.5142829418182373,5.964489936828613,7.580628395080566,0.07036780565977097,0.03811796009540558,-0.024178791791200638,-11.306355476379395,-37.400238037109375,-2.311281204223633,0.05305910110473633,-0.04254150390625,-0.12882709503173828,2.461223840713501,6.007031440734863,7.709455490112305
9_20251106_210938,1762434545275,9,0.12305606156587601,-0.08306382596492767,-0.3355315327644348,-0.9302560091018677,1.0127538442611694,2.347374200820923,2.747032642364502,2.458021640777588,5.898652076721191,7.3124895095825195,0.07036780565977097,0.03811796009540558,-0.024178791791200638,-11.257216453552246,-37.396522521972656,-2.363384246826172,-0.002561807632446289,-0.08670377731323242,-0.31757259368896484,2.460583448410034,5.985355854034424,7.630062103271484
9_20251106_210938,1762434545294,9,0.12242959439754486,-0.08276525884866714,-0.33572521805763245,-0.9302953481674194,1.0107260942459106,2.3444480895996094,2.7471234798431396,2.3826074600219727,5.766976356506348,7.545914173126221,-0.05058341473340988,0.019181152805685997,-0.05655461922287941,-11.230433464050293,-37.35685729980469,-2.40216064453125,-0.06238079071044922,-0.17470359802246094,-0.06731843948364258,2.444988250732422,5.941679954528809,7.613232612609863
9_20251106_210938,1762434545313,9,0.12178647518157959,-0.08282935619354248,-0.33541110157966614,-0.9304873943328857,1.008825659751892,2.341566801071167,2.747422456741333,2.45443058013916,5.904637336730957,7.690756797790527,-0.07196367532014847,-0.005864300299435854,-0.008296307176351547,-11.204861640930176,-37.342041015625,-2.4684982299804688,0.007553815841674805,-0.02963399887084961,0.06201934814453125,2.4468767642974854,5.934271335601807,7.628737449645996
9_20251106_210938,1762434545331,9,0.12156865000724792,-0.08312030136585236,-0.3345290422439575,-0.9308074116706848,1.0073519945144653,2.339292526245117,2.7479474544525146,2.5430119037628174,6.063844680786133,7.732653617858887,-0.07196367532014847,-0.005864300299435854,-0.008296307176351547,-11.217864036560059,-37.36714172363281,-2.5506134033203125,0.07690811157226562,0.10365867614746094,0.08313274383544922,2.4661037921905518,5.960186004638672,7.6495208740234375
9_20251106_210938,1762434545351,9,0.12143077701330185,-0.08403510600328445,-0.3340511620044708,-0.9309148788452148,1.0060666799545288,2.3373308181762695,2.7485287189483643,2.5549824237823486,6.104544639587402,7.6584367752075195,-0.005379427224397659,-0.0913853570818901,0.014305688440799713,-11.192181587219238,-37.340576171875,-2.5355892181396484,0.07110285758972168,0.11548709869384766,0.007132530212402344,2.483879566192627,5.989057540893555,7.651304244995117
9_20251106_210938,1762434545370,9,0.12113587558269501,-0.08515794575214386,-0.33404409885406494,-0.9308537840843201,1.00490140914917,2.3359363079071045,2.7488954067230225,2.481962203979492,6.126091003417969,7.593796253204346,-0.020040180534124374,-0.058398663997650146,-0.013183224946260452,-11.17788028717041,-37.30210876464844,-2.5343074798583984,-0.0015339851379394531,0.10962677001953125,-0.04600667953491211,2.4834961891174316,6.0164642333984375,7.639802932739258
9_20251106_210938,1762434545389,9,0.1206795945763588,-0.08592209219932556,-0.3340161144733429,-0.9308528900146484,1.00490140914917,2.3359363079071045,2.7488954067230225,2.481962203979492,6.126091003417969,7.593796253204346,-0.04691822826862335,0.00757472263649106,-0.032120030373334885,-11.166003227233887,-37.313331604003906,-2.588146209716797,-0.0015339851379394531,0.10962677001953125,-0.04600667953491211,2.4834961891174316,6.0164642333984375,7.639802932739258
9_20251106_210938,1762434545409,9,0.12027747184038162,-0.08594166487455368,-0.3337894082069397,-0.9309844374656677,1.0022437572479248,2.3338749408721924,2.747680187225342,2.4640069007873535,6.085391521453857,7.265804767608643,-0.06952022016048431,0.022846339270472527,-0.02051359973847866,-11.128344535827637,-37.2978515625,-2.6404762268066406,-0.004428863525390625,0.04296445846557617,-0.2707695960998535,2.468435764312744,6.042427062988281,7.536574363708496
9_20251106_210938,1762434545427,9,0.12009650468826294,-0.0857900083065033,-0.33344292640686035,-0.9311459064483643,1.0011868476867676,2.333300828933716,2.7462947368621826,2.502312183380127,6.1380615234375,7.361568450927734,-0.09945259243249893,-0.04373791068792343,0.009418769739568233,-11.153124809265137,-37.31159210205078,-2.682270050048828,0.02710103988647461,0.076507568359375,-0.14000511169433594,2.4752111434936523,6.061553955078125,7.50157356262207
9_20251106_210938,1762434545446,9,0.11985749751329422,-0.08650882542133331,-0.33307576179504395,-0.9312416315078735,1.0011868476867676,2.333300828933716,2.7462947368621826,2.502312183380127,6.1380615234375,7.361568450927734,-0.12083285301923752,-0.12620465457439423,0.03202076628804207,-11.092911720275879,-37.331787109375,-2.7749595642089844,0.02710103988647461,0.076507568359375,-0.14000511169433594,2.4752111434936523,6.061553955078125,7.50157356262207
9_20251106_210938,1762434545465,9,0.11954708397388458,-0.08803026378154755,-0.3325815498828888,-0.931315541267395,1.0002999305725098,2.3332436084747314,2.7452011108398438,2.5382237434387207,6.250584602355957,7.609357833862305,-0.12083285301923752,-0.12620465457439423,0.03202076628804207,-11.05958080291748,-37.39178466796875,-2.815357208251953,0.05041003227233887,0.15122461318969727,0.0862274169921875,2.487813711166382,6.09935998916626,7.523130416870117
9_20251106_210938,1762434545484,9,0.11902540922164917,-0.08972905576229095,-0.3320803642272949,-0.9313991069793701,0.9986570477485657,2.335543155670166,2.7467610836029053,2.4604156017303467,6.493585586547852,8.090572357177734,-0.09639827162027359,-0.1121547594666481,-0.011961495503783226,-11.057677268981934,-37.365997314453125,-2.8824100494384766,-0.024429798126220703,0.27126598358154297,0.3863377571105957,2.4848453998565674,6.222319602966309,7.704234600067139
9_20251106_210938,1762434545503,9,0.11846882849931717,-0.09061278402805328,-0.33157777786254883,-0.9315635561943054,0.9975950717926025,2.337759017944336,2.749201536178589,2.389789581298828,6.4768266677856445,8.095359802246094,-0.07318540662527084,-0.043127045035362244,-0.06021980568766594,-11.022047996520996,-37.39966583251953,-3.043926239013672,-0.07604455947875977,0.20360565185546875,0.3129000663757324,2.465834140777588,6.273221015930176,7.782459735870361
9_20251106_210938,1762434545522,9,0.11787290126085281,-0.09050219506025314,-0.33127453923225403,-0.9317577481269836,0.9975950717926025,2.337759017944336,2.749201536178589,2.389789581298828,6.4768266677856445,8.095359802246094,-0.07318540662527084,-0.043127045035362244,-0.06021980568766594,-11.035359382629395,-37.43678283691406,-3.180370330810547,-0.07604455947875977,0.20360565185546875,0.3129000663757324,2.465834140777588,6.273221015930176,7.782459735870361
9_20251106_210938,1762434545541,9,0.11718330532312393,-0.08984248340129852,-0.33112069964408875,-0.9319632649421692,0.99407559633255,2.342916250228882,2.755556106567383,2.2281880378723145,6.340363502502441,7.948122978210449,-0.049972549080848694,-0.00036651885602623224,-0.08343266695737839,-10.962763786315918,-37.45591735839844,-3.299602508544922,-0.16013765335083008,0.026308059692382812,0.08840417861938477,2.3883256912231445,6.314055442810059,7.8597187995910645
9_20251106_210938,1762434545560,9,0.11678706854581833,-0.08904512971639633,-0.3312601149082184,-0.9320399761199951,0.99407559633255,2.342916250228882,2.755556106567383,2.2281880378723145,6.340363502502441,7.948122978210449,0.02455294504761696,-0.04495964199304581,-0.032120030373334885,-10.930447578430176,-37.540489196777344,-3.39459228515625,-0.16013765335083008,0.026308059692382812,0.08840417861938477,2.3883256912231445,6.314055442810059,7.8597187995910645
9_20251106_210938,1762434545579,9,0.1165640726685524,-0.08869031071662903,-0.33172932267189026,-0.9319348335266113,0.9890771508216858,2.347071647644043,2.76096510887146,2.201852798461914,6.249387741088867,7.766170978546143,0.03127245977520943,-0.08772017061710358,0.0124730933457613,-10.870024681091309,-37.548805236816406,-3.4194374084472656,-0.12298154830932617,-0.038514137268066406,-0.06293535232543945,2.3248343467712402,6.287901878356934,7.829106330871582
9_20251106_210938,1762434545599,9,0.116593137383461,-0.08892332017421722,-0.3322715163230896,-0.9317157864570618,0.986179769039154,2.3490397930145264,2.7633206844329834,2.2425525188446045,6.292481422424316,7.774550437927246,0.029439862817525864,-0.09199623018503189,0.03751854598522186,-10.88514232635498,-37.611572265625,-3.5023460388183594,-0.0658254623413086,0.0036635398864746094,-0.04364490509033203,2.308377981185913,6.288817882537842,7.818195343017578
9_20251106_210938,1762434545619,9,0.11685319244861603,-0.08921254426240921,-0.3328072428703308,-0.9314643144607544,0.9831907153129578,2.3509387969970703,2.765589475631714,2.2305822372436523,6.298466682434082,7.828417778015137,0.026385542005300522,-0.06511817872524261,0.03263162821531296,-10.883027076721191,-37.57389831542969,-3.501554489135742,-0.06223654747009277,0.0077190399169921875,0.008178234100341797,2.292818784713745,6.29074764251709,7.820239543914795
9_20251106_210938,1762434545638,9,0.11710333824157715,-0.08931270986795425,-0.3333151042461395,-0.9312416911125183,0.9803388118743896,2.3524768352508545,2.7676496505737305,2.236567497253418,6.2266435623168945,7.824826240539551,0.02088775858283043,-0.01747073046863079,0.033242493867874146,-10.883027076721191,-37.57389831542969,-3.501554489135742,-0.04500102996826172,-0.05128288269042969,0.003669261932373047,2.2815685272216797,6.277926445007324,7.821156978607178
9_20251106_210938,1762434545656,9,0.11757927387952805,-0.0889410749077797,-0.333669513463974,-0.9310903549194336,0.977870523929596,2.3535757064819336,2.7692506313323975,2.3215577602386475,6.1620025634765625,7.718289375305176,0.034937646239995956,-0.006475165951997042,0.046070653945207596,-10.833380699157715,-37.557891845703125,-3.5263614654541016,0.03199148178100586,-0.09273910522460938,-0.08229398727416992,2.2895662784576416,6.254741668701172,7.800583362579346
9_20251106_210938,1762434545675,9,0.11817339062690735,-0.08855708688497543,-0.3340233862400055,-0.9309248328208923,0.975440502166748,2.3544723987579346,2.77040696144104,2.3059961795806885,6.179958343505859,7.636889934539795,0.05020926520228386,-0.04373791441321373,0.0613422729074955,-10.843550682067871,-37.521148681640625,-3.512542724609375,0.01314401626586914,-0.05982637405395508,-0.13095426559448242,2.2928521633148193,6.2397847175598145,7.767844200134277
9_20251106_210938,1762434545694,9,0.11871033906936646,-0.08875235915184021,-0.33454394340515137,-0.9306509494781494,0.9732895493507385,2.355393171310425,2.771392345428467,2.3502869606018066,6.264948844909668,7.726668357849121,0.03677024319767952,-0.07244855165481567,0.07539215683937073,-10.867514610290527,-37.510581970214844,-3.4727115631103516,0.04594779014587402,0.02013111114501953,-0.03294086456298828,2.3043391704559326,6.244817733764648,7.759609222412109
9_20251106_210938,1762434545714,9,0.11934945732355118,-0.08919684588909149,-0.3350619971752167,-0.9303402900695801,0.9715257287025452,2.356560707092285,2.772736072540283,2.4316864013671875,6.325998306274414,7.877496719360352,0.014779106713831425,-0.0504574216902256,0.06317486613988876,-10.888348579406738,-37.437774658203125,-3.3774948120117188,0.10187768936157227,0.06494426727294922,0.09430980682373047,2.3298087120056152,6.261054039001465,7.783186912536621
9_20251106_210938,1762434545733,9,0.1198699027299881,-0.08945900201797485,-0.3353727161884308,-0.9301362633705139,0.9715257287025452,2.356560707092285,2.772736072540283,2.4316864013671875,6.325998306274414,7.877496719360352,0.031883321702480316,-0.00952948909252882,0.02224692888557911,-10.912003517150879,-37.415191650390625,-3.283334732055664,0.10187768936157227,0.06494426727294922,0.09430980682373047,2.3298087120056152,6.261054039001465,7.783186912536621
9_20251106_210938,1762434545752,9,0.12011819332838058,-0.08930738270282745,-0.33573269844055176,-0.9299889206886292,0.9704327583312988,2.3579952716827393,2.7744367122650146,2.5286474227905273,6.341560363769531,7.890664100646973,0.07097866386175156,0.0039095343090593815,-0.026011381298303604,-10.936165809631348,-37.40489959716797,-3.216470718383789,0.1590709686279297,0.06440496444702148,0.08598184585571289,2.3695764541625977,6.27715539932251,7.80468225479126
9_20251106_210938,1762434545771,9,0.11999974399805069,-0.08901207149028778,-0.33644628524780273,-0.9297745823860168,0.9697664380073547,2.359271764755249,2.7759006023406982,2.4604153633117676,6.3212103843688965,7.83679723739624,0.07769817858934402,0.004520399030297995,-0.04128300026059151,-10.970076560974121,-37.33409881591797,-3.0000972747802734,0.07267117500305176,0.035243988037109375,0.025691986083984375,2.387744188308716,6.285966396331787,7.811105251312256
9_20251106_210938,1762434545791,9,0.11970996856689453,-0.08859199285507202,-0.3372266888618469,-0.9295693039894104,0.9680501818656921,2.3611199855804443,2.7783117294311523,2.296419858932495,6.115318298339844,7.732653617858887,0.08991547673940659,-0.009529490023851395,-0.0363960824906826,-10.973389625549316,-37.38500213623047,-2.9335708618164062,-0.06725788116455078,-0.12932491302490234,-0.05461454391479492,2.363677740097046,6.244643211364746,7.787268161773682
9_20251106_210938,1762434545810,9,0.11955016851425171,-0.08813413232564926,-0.3380836844444275,-0.9293221235275269,0.9667962789535522,2.3612234592437744,2.778975248336792,2.236567258834839,6.049480438232422,7.656042575836182,0.08991547673940659,-0.009529490023851395,-0.0363960824906826,-11.023926734924316,-37.4022216796875,-2.7871170043945312,-0.10168838500976562,-0.15613031387329102,-0.10498046875,2.3382556438446045,6.205610752105713,7.761023044586182
9_20251106_210938,1762434545829,9,0.11956077069044113,-0.08773097395896912,-0.33878159523010254,-0.9291046857833862,0.9653851985931396,2.360975503921509,2.7791435718536377,2.2581143379211426,6.07940673828125,7.592598915100098,0.09113720059394836,-0.0052534365095198154,0.016138281673192978,-11.050387382507324,-37.418251037597656,-2.5991344451904297,-0.06411314010620117,-0.10096311569213867,-0.13473892211914062,2.3222274780273438,6.180369853973389,7.727337837219238
9_20251106_210938,1762434545849,9,0.11995089799165726,-0.08730296790599823,-0.33942556381225586,-0.9288596510887146,0.9653851985931396,2.360975503921509,2.7791435718536377,2.2581143379211426,6.07940673828125,7.592598915100098,0.07281126081943512,-0.013194678351283073,0.04729238525032997,-11.053305625915527,-37.46861267089844,-2.5866737365722656,-0.06411314010620117,-0.10096311569213867,-0.13473892211914062,2.3222274780273438,6.180369853973389,7.727337837219238
9_20251106_210938,1762434545866,9,0.12053098529577255,-0.08712321519851685,-0.3399706780910492,-0.9286020398139954,0.9630807042121887,2.35979962348938,2.7779619693756104,2.412533760070801,6.139258861541748,7.555490493774414,0.05937223881483078,-0.02357937954366207,0.05217929929494858,-11.084107398986816,-37.57173156738281,-2.4816360473632812,0.0700538158416748,-0.013669967651367188,-0.10327911376953125,2.342479944229126,6.152928829193115,7.658769607543945
9_20251106_210938,1762434545886,9,0.12101618945598602,-0.08725172281265259,-0.3404388427734375,-0.92835533618927,0.962425708770752,2.3590760231018066,2.7771406173706055,2.4664011001586914,6.115318298339844,7.639284133911133,0.06059396266937256,-0.022968513891100883,0.02835557609796524,-11.083489418029785,-37.547698974609375,-2.3729782104492188,0.0991368293762207,-0.030088424682617188,-0.01558828353881836,2.3672642707824707,6.145406723022461,7.654872417449951
9_20251106_210938,1762434545905,9,0.12122712284326553,-0.08740335702896118,-0.34097030758857727,-0.9281184673309326,0.962425708770752,2.3590760231018066,2.7771406173706055,2.4664011001586914,6.115318298339844,7.639284133911133,0.06059396266937256,-0.022968513891100883,0.02835557609796524,-11.144913673400879,-37.552345275878906,-2.307849884033203,0.0991368293762207,-0.030088424682617188,-0.01558828353881836,2.3672642707824707,6.145406723022461,7.654872417449951
9_20251106_210938,1762434545924,9,0.12118544429540634,-0.08730936795473099,-0.34142106771469116,-0.9279670119285583,0.9619481563568115,2.358217239379883,2.7763171195983887,2.4197158813476562,6.104544639587402,7.653648376464844,0.05509618669748306,0.022235475480556488,-0.026622246950864792,-11.16948413848877,-37.55420684814453,-2.28179931640625,0.0419611930847168,-0.03269004821777344,-0.0009794235229492188,2.3777546882629395,6.137234687805176,7.654627799987793
9_20251106_210938,1762434545943,9,0.1211215928196907,-0.08688326179981232,-0.3417338728904724,-0.9279001951217651,0.9615476727485657,2.3572959899902344,2.775343418121338,2.3730309009552,6.047086238861084,7.531549453735352,0.03738110512495041,0.016737693920731544,-0.03273089602589607,-11.18005084991455,-37.51800537109375,-2.213916778564453,-0.003779172897338867,-0.07211875915527344,-0.09846305847167969,2.376810073852539,6.119204998016357,7.630012512207031
9_20251106_210938,1762434545963,9,0.12096384167671204,-0.0864950567483902,-0.341945081949234,-0.927879273891449,0.9602442383766174,2.354898452758789,2.7726333141326904,2.2724788188934326,6.047085762023926,7.549505233764648,0.010503056459128857,0.008796451613307,-0.019291872158646584,-11.18215274810791,-37.5440673828125,-2.119831085205078,-0.07385873794555664,-0.041942596435546875,-0.04214000701904297,2.3463375568389893,6.089028358459473,7.591645240783691
9_20251106_210938,1762434545981,9,0.12084560096263885,-0.086197629570961,-0.3419214189052582,-0.9279310703277588,0.9593517780303955,2.353717565536499,2.771355628967285,2.2904345989227295,6.098559379577637,7.620131492614746,0.010503056459128857,0.008796451613307,-0.019291872158646584,-11.190899848937988,-37.47059631347656,-2.0106067657470703,-0.04472231864929199,0.007624626159667969,0.02278900146484375,2.3351569175720215,6.090934753417969,7.597342491149902
9_20251106_210938,1762434546000,9,0.12102705240249634,-0.08582592755556107,-0.34173208475112915,-0.9280115962028503,0.9585191607475281,2.352623224258423,2.770000696182251,2.3407106399536133,6.100953578948975,7.545914173126221,0.009892190806567669,0.006963857915252447,0.013694822788238525,-11.179900169372559,-37.47142028808594,-1.847921371459961,0.004442930221557617,0.008015155792236328,-0.041142940521240234,2.3362677097320557,6.092938423156738,7.587057113647461
9_20251106_210938,1762434546019,9,0.12116745114326477,-0.08557286858558655,-0.3416496217250824,-0.9280470013618469,0.9576385617256165,2.3516221046447754,2.7684528827667236,2.3036022186279297,6.106938362121582,7.49204683303833,0.02027689293026924,0.010629045777022839,0.010029634460806847,-11.152609825134277,-37.419471740722656,-1.8594017028808594,-0.02613234519958496,0.011199951171875,-0.07600831985473633,2.3297345638275146,6.095738410949707,7.568055152893066
9_20251106_210938,1762434546040,9,0.12104175984859467,-0.08546614646911621,-0.3417118787765503,-0.9280503392219543,0.9565902352333069,2.3505804538726807,2.7665810585021973,2.2928287982940674,6.098559379577637,7.494441032409668,-0.007212021388113499,0.020402880385518074,0.016749147325754166,-11.167107582092285,-37.45820617675781,-1.8336524963378906,-0.029524564743041992,0.0022568702697753906,-0.05889129638671875,2.3223533630371094,6.096302509307861,7.553332328796387
