session_id,timestamp,label,quaternion_w,quaternion_x,quaternion_y,quaternion_z,position_x,position_y,position_z,accelerometer_x,accelerometer_y,accelerometer_z,gyroscope_x,gyroscope_y,gyroscope_z,magnetometer_x,magnetometer_y,magnetometer_z,linear_acceleration_x,linear_acceleration_y,linear_acceleration_z,gravity_x,gravity_y,gravity_z
3_20251106_150621,1762412743745,3,0.19693627953529358,0.37317830324172974,0.7786142826080322,0.46445006132125854,0.9792627692222595,1.8750797510147095,-2.55320405960083,0.46852537989616394,8.492658615112305,-4.816014766693115,0.12952622771263123,0.08454368263483047,0.017608176916837692,20.064014434814453,-12.145835876464844,27.090858459472656,0.06913504004478455,-0.10624313354492188,-0.04286336898803711,0.3993903398513794,8.598901748657227,-4.773151397705078
3_20251106_150621,1762412743763,3,0.19588372111320496,0.37340229749679565,0.7792599201202393,0.46363165974617004,0.9805727005004883,1.8728612661361694,-2.556993007659912,0.5511217713356018,8.560890197753906,-4.759753227233887,0.12891536951065063,0.043004874140024185,0.06159043684601784,20.091615676879883,-12.081863403320312,27.133708953857422,0.12138515710830688,-0.030408859252929688,0.010718822479248047,0.4297366142272949,8.591299057006836,-4.770472049713135
3_20251106_150621,1762412743782,3,0.19481129944324493,0.3739970028400421,0.7796811461448669,0.46289536356925964,0.9823670983314514,1.8705564737319946,-2.5607926845550537,0.6049890518188477,8.562087059020996,-4.770526885986328,0.12952622771263123,0.06866119801998138,0.04876227676868439,20.078935623168945,-12.083328247070312,27.20079803466797,0.14020192623138428,-0.023369789123535156,-4.38690185546875e-05,0.4647871255874634,8.585456848144531,-4.770483016967773
3_20251106_150621,1762412743801,3,0.1936183124780655,0.37446266412734985,0.7800168395042419,0.4624537229537964,0.9844958782196045,1.868128776550293,-2.5648458003997803,0.6193535923957825,8.49864387512207,-4.932128429412842,0.13868919014930725,0.08515454828739166,0.033490657806396484,20.009456634521484,-12.013557434082031,27.280536651611328,0.12365317344665527,-0.06945037841796875,-0.1293163299560547,0.4957004189491272,8.568094253540039,-4.802812099456787
3_20251106_150621,1762412743819,3,0.19226495921611786,0.37462297081947327,0.7804635167121887,0.4621346890926361,0.9867604374885559,1.8656755685806274,-2.569077253341675,0.6373093128204346,8.45914077758789,-5.039863109588623,0.13868919014930725,0.08515454828739166,0.033490657806396484,19.96505355834961,-11.929641723632812,27.36151885986328,0.11328709125518799,-0.08716297149658203,-0.18964099884033203,0.5240222215652466,8.546303749084473,-4.850222110748291
3_20251106_150621,1762412743839,3,0.19088557362556458,0.37490516901016235,0.7809811234474182,0.46160298585891724,0.989509642124176,1.862913966178894,-2.573758602142334,0.6983588933944702,8.436397552490234,-5.009937286376953,0.13868919014930725,0.02773326076567173,0.062201302498579025,19.83353042602539,-11.8885498046875,27.397727966308594,0.13946932554244995,-0.08792495727539062,-0.12777233123779297,0.5588895678520203,8.524322509765625,-4.88216495513916
3_20251106_150621,1762412743857,3,0.1896355152130127,0.3755266070365906,0.7814739346504211,0.46077826619148254,0.9927897453308105,1.8601510524749756,-2.5783627033233643,0.8025021553039551,8.473505973815918,-4.9393110275268555,0.1313588172197342,0.006352993194013834,0.07014254480600357,19.764951705932617,-11.805953979492188,27.450698852539062,0.1948900818824768,-0.040653228759765625,-0.04571676254272461,0.6076120734214783,8.514159202575684,-4.893594264984131
3_20251106_150621,1762412743876,3,0.1885194480419159,0.376427561044693,0.7818017601966858,0.4599442481994629,0.9965226650238037,1.8575855493545532,-2.582812786102295,0.8324283957481384,8.535752296447754,-4.9213547706604,0.13807833194732666,0.006963857915252447,0.04326449707150459,19.76535987854004,-11.793800354003906,27.491512298583984,0.17985302209854126,0.017274856567382812,-0.022208213806152344,0.6525753736495972,8.518477439880371,-4.899146556854248
3_20251106_150621,1762412743896,3,0.18750835955142975,0.3773750066757202,0.7820228338241577,0.459204763174057,1.0007004737854004,1.8550033569335938,-2.587461471557617,0.7989110350608826,8.513008117675781,-4.964448928833008,0.1521282196044922,0.024068070575594902,0.007834341377019882,19.692750930786133,-11.786277770996094,27.515865325927734,0.11706846952438354,-0.004375457763671875,-0.05224180221557617,0.681842565536499,8.517383575439453,-4.912207126617432
3_20251106_150621,1762412743916,3,0.18651635944843292,0.3780614137649536,0.7823269367218018,0.4585256278514862,1.0046377182006836,1.8526380062103271,-2.5921812057495117,0.7426497340202332,8.504629135131836,-5.103306770324707,0.1564042717218399,0.045448336750268936,-0.0037720883265137672,19.692750930786133,-11.786277770996094,27.515865325927734,0.048645734786987305,-0.010203361511230469,-0.1528797149658203,0.6940039992332458,8.514832496643066,-4.950427055358887
3_20251106_150621,1762412743935,3,0.18548056483268738,0.37841200828552246,0.7828168869018555,0.4578198790550232,1.0087920427322388,1.8502452373504639,-2.5976641178131104,0.7653936147689819,8.505825996398926,-5.201464653015137,0.13807833194732666,0.049113523215055466,0.010888664983212948,19.618831634521484,-11.803733825683594,27.52617645263672,0.05711168050765991,-0.007205009460449219,-0.20082998275756836,0.708281934261322,8.513031005859375,-5.000634670257568
3_20251106_150621,1762412743953,3,0.18436168134212494,0.37868210673332214,0.7833863496780396,0.457073837518692,1.0126172304153442,1.8483408689498901,-2.602766990661621,0.819260835647583,8.570466995239258,-5.169144630432129,0.11853066086769104,0.024068070575594902,0.026160283014178276,19.547630310058594,-11.771095275878906,27.55105972290039,0.0887831449508667,0.04594898223876953,-0.13480806350708008,0.7304776906967163,8.524518013000488,-5.034336566925049
3_20251106_150621,1762412743973,3,0.18341097235679626,0.3791923522949219,0.7837955355644226,0.45633116364479065,1.0169721841812134,1.8466850519180298,-2.6083412170410156,0.8348224759101868,8.641092300415039,-5.096124649047852,0.11853066086769104,0.024068070575594902,0.026160283014178276,19.54843521118164,-11.758399963378906,27.53780746459961,0.08347582817077637,0.09325981140136719,-0.04943084716796875,0.7513466477394104,8.547832489013672,-5.046693801879883
3_20251106_150621,1762412743991,3,0.1825963705778122,0.3798637390136719,0.7840912342071533,0.4555908441543579,1.0208157300949097,1.8455402851104736,-2.613326072692871,0.8001080751419067,8.657852172851562,-5.135626792907715,0.1515173614025116,-0.012583812698721886,0.00844520516693592,19.536643981933594,-11.758651733398438,27.483253479003906,0.039009153842926025,0.08801555633544922,-0.07114648818969727,0.7610989212989807,8.569836616516113,-5.064480304718018
3_20251106_150621,1762412744011,3,0.1819097250699997,0.38042280077934265,0.7843960523605347,0.45487383008003235,1.024954915046692,1.844537615776062,-2.618957042694092,0.7881375551223755,8.63750171661377,-5.1859025955200195,0.18083885312080383,-0.021746784448623657,0.009666934609413147,19.58751678466797,-11.706192016601562,27.580886840820312,0.02163088321685791,0.05413246154785156,-0.0971379280090332,0.7665066719055176,8.583369255065918,-5.088764667510986
3_20251106_150621,1762412744030,3,0.1812344640493393,0.3809540271759033,0.7848459482192993,0.45392173528671265,1.024954915046692,1.844537615776062,-2.618957042694092,0.7881375551223755,8.63750171661377,-5.1859025955200195,0.19000183045864105,-0.03396407887339592,0.02127336524426937,19.58742904663086,-11.694717407226562,27.689281463623047,0.02163088321685791,0.05413246154785156,-0.0971379280090332,0.7665066719055176,8.583369255065918,-5.088764667510986
3_20251106_150621,1762412744049,3,0.1805409938097,0.3815321624279022,0.7853885889053345,0.45277243852615356,1.0323189496994019,1.8434572219848633,-2.6301515102386475,0.7953198552131653,8.712915420532227,-5.244558334350586,0.182671457529068,-0.04618137329816818,0.024327687919139862,19.51633071899414,-11.661941528320312,27.700645446777344,0.0230371356010437,0.09267711639404297,-0.0960683822631836,0.7722827196121216,8.620238304138184,-5.148489952087402
3_20251106_150621,1762412744068,3,0.17993631958961487,0.38228023052215576,0.7858889102935791,0.45151224732398987,1.0358058214187622,1.8434813022613525,-2.635533332824707,0.7869405150413513,8.754812240600586,-5.163159370422363,0.182671457529068,-0.04618137329816818,0.024327687919139862,19.495988845825195,-11.588455200195312,27.72827911376953,0.0117262601852417,0.10765933990478516,-0.01173543930053711,0.7752142548561096,8.6471529006958,-5.151423931121826
3_20251106_150621,1762412744087,3,0.17942935228347778,0.38296282291412354,0.7863287329673767,0.45036840438842773,1.0394165515899658,1.8438454866409302,-2.6406848430633545,0.8839014768600464,8.771571159362793,-5.165553092956543,0.16068032383918762,-0.002199112670496106,0.006612611468881369,19.524194717407227,-11.512062072753906,27.784908294677734,0.08694976568222046,0.09953498840332031,-0.011303424835205078,0.7969517111778259,8.672036170959473,-5.154249668121338
3_20251106_150621,1762412744108,3,0.17877505719661713,0.3832188844680786,0.7867745161056519,0.4496317207813263,1.0394165515899658,1.8438454866409302,-2.6406848430633545,0.8839014768600464,8.771571159362793,-5.165553092956543,0.18450404703617096,-0.025411969050765038,0.0121103934943676,19.565488815307617,-11.422050476074219,27.815261840820312,0.08694976568222046,0.09953498840332031,-0.011303424835205078,0.7969517111778259,8.672036170959473,-5.154249668121338
3_20251106_150621,1762412744127,3,0.1780998408794403,0.383522093296051,0.7871888279914856,0.44891542196273804,1.048755407333374,1.8469197750091553,-2.650940179824829,1.1460553407669067,9.009783744812012,-5.098518371582031,0.2235993891954422,-0.05290088430047035,0.019440770149230957,19.544246673583984,-11.36138916015625,27.869667053222656,0.24181300401687622,0.22975635528564453,0.05443763732910156,0.9042423367500305,8.780027389526367,-5.152956008911133
3_20251106_150621,1762412744146,3,0.17739854753017426,0.3841738998889923,0.7875848412513733,0.44794002175331116,1.0544228553771973,1.8496869802474976,-2.6553497314453125,1.3208245038986206,9.149837493896484,-5.15358304977417,0.2645273506641388,-0.0608421266078949,0.027382012456655502,19.609121322631836,-11.270866394042969,28.00912857055664,0.3332657814025879,0.29584789276123047,-0.0005016326904296875,0.9875587224960327,8.853989601135254,-5.15308141708374
3_20251106_150621,1762412744166,3,0.1764799803495407,0.38495612144470215,0.7880011200904846,0.44689807295799255,1.0611844062805176,1.8531701564788818,-2.659559965133667,1.4896084070205688,9.165400505065918,-5.160764694213867,0.30850961804389954,-0.1017700582742691,0.01821904256939888,19.620418548583984,-11.271286010742188,28.131263732910156,0.40163981914520264,0.2491283416748047,-0.006146430969238281,1.0879685878753662,8.916272163391113,-5.154618263244629
3_20251106_150621,1762412744184,3,0.17548413574695587,0.38594546914100647,0.7883948683738708,0.4457409083843231,1.0691202878952026,1.8575600385665894,-2.6632776260375977,1.6392396688461304,9.310243606567383,-5.051833629608154,0.357989639043808,-0.1323132961988449,-0.008659005165100098,19.630489349365234,-11.295318603515625,28.127113342285156,0.44101691246032715,0.31517696380615234,0.08222818374633789,1.1982227563858032,8.99506664276123,-5.134061813354492
3_20251106_150621,1762412744203,3,0.17454606294631958,0.387226939201355,0.7888697981834412,0.4441547095775604,1.0779777765274048,1.862729787826538,-2.6669845581054688,1.6787424087524414,9.359321594238281,-5.197873592376709,0.41602179408073425,-0.1323132961988449,-0.07096721231937408,19.682374954223633,-11.218284606933594,28.279338836669922,0.38441574573516846,0.29140377044677734,-0.051049232482910156,1.294326663017273,9.067917823791504,-5.146824359893799
3_20251106_150621,1762412744221,3,0.1735280454158783,0.3882896900177002,0.7895845770835876,0.4423519968986511,1.0867427587509155,1.8677376508712769,-2.670797109603882,1.6164956092834473,9.212084770202637,-5.340322494506836,0.4813843071460724,-0.19767582416534424,-0.1015104353427887,19.79629135131836,-11.124183654785156,28.38021469116211,0.2577352523803711,0.11533355712890625,-0.1547985076904297,1.3587603569030762,9.09675121307373,-5.185523986816406
3_20251106_150621,1762412744241,3,0.17266066372394562,0.3891039192676544,0.7905939221382141,0.44016775488853455,1.0867427587509155,1.8677376508712769,-2.670797109603882,1.6164956092834473,9.212084770202637,-5.340322494506836,0.4813843071460724,-0.19767582416534424,-0.1015104353427887,19.872859954833984,-11.033538818359375,28.587749481201172,0.2577352523803711,0.11533355712890625,-0.1547985076904297,1.3587603569030762,9.09675121307373,-5.185523986816406
3_20251106_150621,1762412744259,3,0.17220839858055115,0.39052072167396545,0.7917608022689819,0.4369813799858093,1.097385287284851,1.8737949132919312,-2.6765246391296387,1.635648488998413,9.24799633026123,-5.633599281311035,0.5516337156295776,-0.404148131608963,-0.0019394950941205025,19.936931610107422,-10.955711364746094,28.740463256835938,0.2215104103088379,0.12099647521972656,-0.3584599494934082,1.4141380786895752,9.126999855041504,-5.275139331817627
3_20251106_150621,1762412744278,3,0.17219536006450653,0.39296796917915344,0.7926896810531616,0.4330912232398987,1.1165635585784912,1.8830878734588623,-2.6887190341949463,1.8798465728759766,9.066044807434082,-5.7269697189331055,0.5888964533805847,-0.5024973154067993,0.08785761892795563,20.15226936340332,-10.780311584472656,28.887393951416016,0.3300386667251587,-0.04169273376464844,-0.2891716957092285,1.5498079061508179,9.10773754119873,-5.437798023223877
3_20251106_150621,1762412744298,3,0.17251846194267273,0.3966471552848816,0.7932894825935364,0.4284859895706177,1.1165635585784912,1.8830878734588623,-2.6887190341949463,1.8798465728759766,9.066044807434082,-5.7269697189331055,0.637154757976532,-0.5715250968933105,0.1410028487443924,20.318145751953125,-10.63226318359375,28.93722152709961,0.3300386667251587,-0.04169273376464844,-0.2891716957092285,1.5498079061508179,9.10773754119873,-5.437798023223877
3_20251106_150621,1762412744319,3,0.1728043556213379,0.4013948142528534,0.7935138940811157,0.42350509762763977,1.1436413526535034,1.8919219970703125,-2.7048399448394775,2.504706621170044,8.98584270477295,-5.77724552154541,0.6994630098342896,-0.639331042766571,0.13978111743927002,20.508787155151367,-10.482086181640625,28.933963775634766,0.66916823387146,-0.09103584289550781,-0.22758913040161133,1.835538387298584,9.076878547668457,-5.549656391143799
3_20251106_150621,1762412744339,3,0.173028364777565,0.4067857563495636,0.7935289144515991,0.4182085394859314,1.1597657203674316,1.895087718963623,-2.71305513381958,2.710598945617676,8.864940643310547,-5.72098445892334,0.773377537727356,-0.7346259355545044,0.0634230300784111,20.787242889404297,-10.288139343261719,28.88086700439453,0.7000484466552734,-0.16954994201660156,-0.13706207275390625,2.0105504989624023,9.034490585327148,-5.583922386169434
3_20251106_150621,1762412744357,3,0.17470510303974152,0.4117646813392639,0.7946459054946899,0.4104459583759308,1.1750105619430542,1.896878719329834,-2.7201483249664307,2.6028645038604736,8.662639617919922,-5.612052917480469,0.8424053192138672,-0.7926580905914307,-0.09784525632858276,20.787242889404297,-10.288139343261719,28.88086700439453,0.47385120391845703,-0.29748058319091797,-0.022504806518554688,2.1290132999420166,8.96012020111084,-5.589548110961914
3_20251106_150621,1762412744374,3,0.17713101208209991,0.4163063168525696,0.796262264251709,0.40159687399864197,1.1889432668685913,1.8970013856887817,-2.726827383041382,2.2449464797973633,8.284372329711914,-5.732954978942871,0.8894418478012085,-0.7810516953468323,-0.2982088625431061,21.18947410583496,-10.048851013183594,28.86050033569336,0.09274649620056152,-0.5405979156494141,-0.11472511291503906,2.1521999835968018,8.824970245361328,-5.618229866027832
3_20251106_150621,1762412744394,3,0.18016338348388672,0.41956716775894165,0.7987073063850403,0.3918815553188324,1.2031158208847046,1.8942396640777588,-2.7354342937469482,1.6919097900390625,7.871389389038086,-5.993911266326904,0.8900527358055115,-0.7572279572486877,-0.4710836112499237,21.56402015686035,-9.862052917480469,28.905677795410156,-0.36823225021362305,-0.7628641128540039,-0.30054521560668945,2.0601420402526855,8.63425350189209,-5.693366050720215
3_20251106_150621,1762412744412,3,0.1836388111114502,0.42126622796058655,0.8019651174545288,0.3816589415073395,1.2130061388015747,1.8891215324401855,-2.743692398071289,1.1556316614151,7.5146684646606445,-6.058552265167236,0.8393509984016418,-0.7340151071548462,-0.5755414366722107,22.031696319580078,-9.554656982421875,28.753917694091797,-0.7236082553863525,-0.8956680297851562,-0.29214906692504883,1.8792399168014526,8.4103364944458,-5.7664031982421875
3_20251106_150621,1762412744432,3,0.18758544325828552,0.42168402671813965,0.8056628704071045,0.37135112285614014,1.2130061388015747,1.8891215324401855,-2.743692398071289,1.1556316614151,7.5146684646606445,-6.058552265167236,0.7819297313690186,-0.703471839427948,-0.5926457047462463,22.525562286376953,-9.208404541015625,28.644481658935547,-0.7236082553863525,-0.8956680297851562,-0.29214906692504883,1.8792399168014526,8.4103364944458,-5.7664031982421875
3_20251106_150621,1762412744451,3,0.19180859625339508,0.4214108884334564,0.8093419671058655,0.36136946082115173,1.222887635231018,1.8675569295883179,-2.763721466064453,0.40867289900779724,6.753345489501953,-6.186636447906494,0.7214541435241699,-0.713245689868927,-0.5621024966239929,23.083980560302734,-8.795257568359375,28.52530288696289,-0.9936414957046509,-1.1196560859680176,-0.26780033111572266,1.4023144245147705,7.873001575469971,-5.9188361167907715
3_20251106_150621,1762412744470,3,0.19608472287654877,0.42096832394599915,0.812761664390564,0.351788192987442,1.2221531867980957,1.8521883487701416,-2.773391008377075,0.12976039946079254,6.503162384033203,-5.991517066955566,0.6542589664459229,-0.7144674062728882,-0.5370569825172424,23.680564880371094,-8.354347229003906,28.381088256835938,-1.0180432796478271,-1.0958714485168457,-0.05814504623413086,1.1478036642074585,7.599033832550049,-5.9333720207214355
3_20251106_150621,1762412744489,3,0.200678750872612,0.4206767976284027,0.8157103657722473,0.3426012694835663,1.2180843353271484,1.8336882591247559,-2.782480239868164,-0.0809202790260315,6.17756462097168,-5.8981475830078125,0.6102766990661621,-0.669263482093811,-0.5242288708686829,24.407270431518555,-7.7550811767578125,28.271976470947266,-0.9829791784286499,-1.1371750831604004,0.028179645538330078,0.9020588994026184,7.31473970413208,-5.926327228546143
3_20251106_150621,1762412744508,3,0.2052590250968933,0.4203028082847595,0.8183441758155823,0.3339567482471466,1.2111016511917114,1.8117715120315552,-2.791395664215088,-0.23414260149002075,5.732262134552002,-6.028625965118408,0.6102766990661621,-0.669263482093811,-0.5242288708686829,25.160152435302734,-7.128570556640625,28.110309600830078,-0.9089612364768982,-1.2659821510314941,-0.08183908462524414,0.6748186349868774,6.998244285583496,-5.946786880493164
3_20251106_150621,1762412744528,3,0.20952118933200836,0.41977033019065857,0.820895254611969,0.32561445236206055,1.2008061408996582,1.7849398851394653,-2.8011786937713623,-0.414897084236145,5.381526947021484,-6.232124328613281,0.6524263620376587,-0.6582678556442261,-0.468029260635376,25.855926513671875,-6.442840576171875,27.906963348388672,-0.8717726469039917,-1.2933740615844727,-0.2282700538635254,0.4568755328655243,6.674901008605957,-6.003854274749756
3_20251106_150621,1762412744546,3,0.21358434855937958,0.41958707571029663,0.823298454284668,0.3170301020145416,1.189573884010315,1.7576438188552856,-2.8109805583953857,-0.5298137664794922,4.9062981605529785,-6.587647438049316,0.6524263620376587,-0.6582678556442261,-0.468029260635376,26.59076690673828,-5.716514587402344,27.651813507080078,-0.7893514633178711,-1.4148821830749512,-0.46703433990478516,0.2595376670360565,6.32118034362793,-6.120613098144531
3_20251106_150621,1762412744566,3,0.21749518811702728,0.4198058843612671,0.8255658149719238,0.30805835127830505,1.174939513206482,1.7229034900665283,-2.8240933418273926,-0.654306948184967,4.371216773986816,-7.030555725097656,0.7422235012054443,-0.7969341278076172,-0.3470780551433563,27.238994598388672,-5.020729064941406,27.379188537597656,-0.7310757040977478,-1.5599708557128906,-0.7279539108276367,0.07676875591278076,5.931187629699707,-6.3026018142700195
3_20251106_150621,1762412744586,3,0.221511110663414,0.4207998216152191,0.827516496181488,0.2984573245048523,1.1582576036453247,1.684015154838562,-2.8402225971221924,-0.8374555110931396,3.9953436851501465,-7.510572910308838,0.7843731641769409,-0.9863021969795227,-0.24139845371246338,27.995586395263672,-4.342781066894531,27.09693145751953,-0.7313793897628784,-1.5486750602722168,-0.966376781463623,-0.10607609152793884,5.544018745422363,-6.544196128845215
3_20251106_150621,1762412744604,3,0.2261722981929779,0.42313769459724426,0.8287947773933411,0.2879232168197632,1.1582576036453247,1.684015154838562,-2.8402225971221924,-0.8374555110931396,3.9953436851501465,-7.510572910308838,0.7904818058013916,-1.1982723474502563,-0.16870556771755219,28.756591796875,-3.600830078125,26.694347381591797,-0.7313793897628784,-1.5486750602722168,-0.966376781463623,-0.10607609152793884,5.544018745422363,-6.544196128845215
3_20251106_150621,1762412744623,3,0.23206637799739838,0.4269050061702728,0.8291969895362854,0.2762783169746399,1.1215004920959473,1.6029001474380493,-2.8765182495117188,-1.4575270414352417,3.293872833251953,-7.739209175109863,0.7141237258911133,-1.3222779035568237,-0.12105810642242432,29.520700454711914,-2.8198623657226562,26.157394409179688,-0.9183648824691772,-1.5027227401733398,-0.7669153213500977,-0.5391621589660645,4.796595573425293,-6.972293853759766
3_20251106_150621,1762412744642,3,0.23926976323127747,0.43147000670433044,0.8287385106086731,0.26415157318115234,1.0992530584335327,1.5569446086883545,-2.897266387939453,-1.7531981468200684,2.9539108276367188,-7.808638572692871,0.5669053196907043,-1.3198343515396118,-0.06608028709888458,30.17068099975586,-2.1448822021484375,25.451717376708984,-0.971228837966919,-1.4741477966308594,-0.6690759658813477,-0.7819693088531494,4.428058624267578,-7.139562606811523
3_20251106_150621,1762412744660,3,0.24724802374839783,0.4362719655036926,0.8274651765823364,0.2526589035987854,1.076255202293396,1.5121846199035645,-2.9183475971221924,-1.9902141094207764,3.047280788421631,-8.117477416992188,0.37509384751319885,-1.2862367630004883,-0.03798051178455353,30.767393112182617,-1.5488204956054688,24.78304672241211,-0.9665958881378174,-1.1046223640441895,-0.7823314666748047,-1.023618221282959,4.15190315246582,-7.335145950317383
3_20251106_150621,1762412744680,3,0.2553803622722626,0.44054359197616577,0.825695276260376,0.2427540123462677,1.0482807159423828,1.4618529081344604,-2.9426798820495605,-2.2403974533081055,3.137059211730957,-8.019319534301758,0.14357611536979675,-1.2697434425354004,-0.07829758524894714,31.388351440429688,-0.9745330810546875,23.939117431640625,-0.9734234809875488,-0.8118751049041748,-0.5473389625549316,-1.2669739723205566,3.948934316635132,-7.471980571746826
3_20251106_150621,1762412744699,3,0.26431307196617126,0.4443928003311157,0.8232353925704956,0.2343866527080536,1.0196503400802612,1.414933443069458,-2.965517520904541,-2.500157117843628,3.404001235961914,-7.791879653930664,-0.10382409393787384,-1.1768920421600342,-0.15587741136550903,32.044334411621094,-0.44634246826171875,22.919891357421875,-0.986546516418457,-0.4359464645385742,-0.2559194564819336,-1.513610601425171,3.8399477005004883,-7.5359601974487305
3_20251106_150621,1762412744717,3,0.27396002411842346,0.4468906819820404,0.8205263018608093,0.22797201573848724,0.9906814694404602,1.3717031478881836,-2.98561692237854,-2.813784122467041,3.4327306747436523,-7.351365089416504,-0.3176267445087433,-1.053497314453125,-0.26827651262283325,32.675140380859375,0.06756591796875,21.91293716430664,-1.040138840675354,-0.3257737159729004,0.1476759910583496,-1.773645281791687,3.7585043907165527,-7.4990410804748535
3_20251106_150621,1762412744738,3,0.28391769528388977,0.44768306612968445,0.8179028034210205,0.22361929714679718,0.9542697668075562,1.3218390941619873,-3.0058419704437256,-3.0579819679260254,3.1765618324279785,-6.886910438537598,-0.3176267445087433,-1.053497314453125,-0.26827651262283325,33.243099212646484,0.5401077270507812,20.87570571899414,-1.0274693965911865,-0.46555399894714355,0.4897041320800781,-2.030512571334839,3.642115831375122,-7.376614570617676
3_20251106_150621,1762412744758,3,0.29387903213500977,0.44690877199172974,0.8155173063278198,0.22099585831165314,0.9177037477493286,1.2750722169876099,-3.0220553874969482,-3.221977710723877,3.0987536907196045,-6.69059419631958,-0.5912941694259644,-0.7731103897094727,-0.30492839217185974,33.243099212646484,0.5401077270507812,20.87570571899414,-0.9531722068786621,-0.4346897602081299,0.5488162040710449,-2.268805503845215,3.5334434509277344,-7.239410400390625
3_20251106_150621,1762412744776,3,0.3032607138156891,0.44516676664352417,0.8133113980293274,0.21996371448040009,0.8838598728179932,1.2349741458892822,-3.0343894958496094,-3.316544532775879,3.487794876098633,-6.618771553039551,-0.5912941694259644,-0.7731103897094727,-0.30492839217185974,33.75343322753906,0.8350143432617188,19.697654724121094,-0.8381912708282471,-0.03651881217956543,0.49651098251342773,-2.478353261947632,3.5243136882781982,-7.1152825355529785
3_20251106_150621,1762412744796,3,0.3123028576374054,0.4431610405445099,0.8108704686164856,0.22037312388420105,0.8453875184059143,1.1931451559066772,-3.0454373359680176,-3.382382392883301,3.687702178955078,-6.4667463302612305,-0.7989882230758667,-0.7450106143951416,-0.20535744726657867,34.198028564453125,1.0614166259765625,18.691543579101562,-0.7232234477996826,0.13071060180664062,0.5188288688659668,-2.659158945083618,3.5569915771484375,-6.985575199127197
3_20251106_150621,1762412744814,3,0.321575790643692,0.4413762092590332,0.8078446984291077,0.22172734141349792,0.8105595111846924,1.1576560735702515,-3.052208423614502,-3.444628953933716,3.668549060821533,-5.899344444274902,-0.8539659976959229,-0.834196925163269,-0.16381865739822388,34.64042663574219,1.261627197265625,17.793033599853516,-0.6283760070800781,0.08924603462219238,0.8689846992492676,-2.8162529468536377,3.579303026199341,-6.76832914352417
3_20251106_150621,1762412744833,3,0.3316126763820648,0.4396328628063202,0.8042373061180115,0.22351355850696564,0.7736907005310059,1.1223591566085815,-3.055142879486084,-3.5248312950134277,3.6853079795837402,-5.36306619644165,-0.8539659976959229,-0.834196925163269,-0.16381865739822388,35.0950927734375,1.4511489868164062,16.78662109375,-0.5668625831604004,0.08480405807495117,1.1242103576660156,-2.9579687118530273,3.600503921508789,-6.487276554107666
3_20251106_150621,1762412744852,3,0.3422538936138153,0.4381831884384155,0.8000438809394836,0.2253609150648117,0.7367225885391235,1.0898315906524658,-3.0542714595794678,-3.6660830974578857,3.9666144847869873,-5.153582572937012,-0.8350292444229126,-0.9313243627548218,-0.0752432644367218,35.48219299316406,1.523284912109375,15.815929412841797,-0.5664916038513184,0.2928884029388428,1.0669550895690918,-3.0995914936065674,3.6737260818481445,-6.2205376625061035
3_20251106_150621,1762412744871,3,0.35314399003982544,0.43718329071998596,0.7953699827194214,0.22703883051872253,0.7367225885391235,1.0898315906524658,-3.0542714595794678,-3.6660830974578857,3.9666144847869873,-5.153582572937012,-0.7941012978553772,-0.9606459140777588,-0.06546942889690399,35.75954055786133,1.6113662719726562,15.04409408569336,-0.5664916038513184,0.2928884029388428,1.0669550895690918,-3.0995914936065674,3.6737260818481445,-6.2205376625061035
3_20251106_150621,1762412744891,3,0.3640207052230835,0.43656468391418457,0.7904059886932373,0.2283826321363449,0.6598588824272156,1.0343072414398193,-3.043372631072998,-4.0623064041137695,4.565138816833496,-5.023104667663574,-0.7281278967857361,-1.0388365983963013,-0.10700823366641998,36.05913543701172,1.6517486572265625,14.177570343017578,-0.6536769866943359,0.5915720462799072,0.7778491973876953,-3.4086294174194336,3.973566770553589,-5.8009538650512695
3_20251106_150621,1762412744909,3,0.3750326633453369,0.4358634948730469,0.7853929996490479,0.22919712960720062,0.6233586668968201,1.0127718448638916,-3.0347046852111816,-4.494441032409668,4.455010414123535,-4.677157402038574,-0.6426068544387817,-1.1066426038742065,-0.18092286586761475,36.256813049316406,1.6101608276367188,13.332572937011719,-0.8686492443084717,0.38515472412109375,0.8990373611450195,-3.6257917881011963,4.069855690002441,-5.576194763183594
3_20251106_150621,1762412744929,3,0.38646551966667175,0.4352110028266907,0.7803412079811096,0.22869929671287537,0.5826495885848999,0.9916454553604126,-3.0220484733581543,-5.122892379760742,4.240738868713379,-4.131302833557129,-0.6255025863647461,-1.0162346363067627,-0.24933969974517822,36.42146301269531,1.6289749145507812,12.487422943115234,-1.1976804733276367,0.13670635223388672,1.1559138298034668,-3.9252119064331055,4.104032516479492,-5.287216663360596
3_20251106_150621,1762412744948,3,0.39782416820526123,0.43400928378105164,0.7756543159484863,0.2274472713470459,0.5826495885848999,0.9916454553604126,-3.0220484733581543,-5.122892379760742,4.240738868713379,-4.131302833557129,-0.6670414209365845,-0.8427489995956421,-0.2444528043270111,36.64631652832031,1.627593994140625,11.549583435058594,-1.1976804733276367,0.13670635223388672,1.1559138298034668,-3.9252119064331055,4.104032516479492,-5.287216663360596
3_20251106_150621,1762412744967,3,0.40818363428115845,0.43199148774147034,0.7716038227081299,0.22670908272266388,0.4866865277290344,0.9548200368881226,-2.9899938106536865,-6.644341945648193,4.587882995605469,-4.222278594970703,-0.7104128003120422,-0.7676126956939697,-0.08746056258678436,36.81064224243164,1.6227798461914062,10.555227279663086,-1.8398375511169434,0.32326269149780273,0.6995639801025391,-4.80450439453125,4.264620304107666,-4.921842575073242
3_20251106_150621,1762412744986,3,0.41776636242866516,0.4299824833869934,0.7675021886825562,0.22699497640132904,0.4866865277290344,0.9548200368881226,-2.9899938106536865,-6.644341945648193,4.587882995605469,-4.222278594970703,-0.7049150466918945,-0.7645583152770996,0.18376338481903076,36.97740173339844,1.6792678833007812,9.710868835449219,-1.8398375511169434,0.32326269149780273,0.6995639801025391,-4.80450439453125,4.264620304107666,-4.921842575073242
3_20251106_150621,1762412745006,3,0.4266279637813568,0.4293096959590912,0.7625608444213867,0.22843538224697113,0.37870386242866516,0.9247244000434875,-2.9506402015686035,-6.614415645599365,4.358049392700195,-3.478910446166992,-0.6248917579650879,-0.8818444013595581,0.4293310344219208,37.10457229614258,1.6712646484375,8.796138763427734,-1.1432123184204102,0.023021221160888672,1.0259442329406738,-5.471203327178955,4.335028171539307,-4.504854679107666
3_20251106_150621,1762412745025,3,0.4351663291454315,0.4307403266429901,0.7563130855560303,0.2303987294435501,0.3283674120903015,0.9132653474807739,-2.9285519123077393,-6.4671783447265625,4.877569198608398,-3.0204405784606934,-0.44835177063941956,-1.0284518003463745,0.6596270203590393,37.24029541015625,1.5895156860351562,7.799217224121094,-0.7967801094055176,0.4340329170227051,1.1875309944152832,-5.670398235321045,4.443536281585693,-4.207971572875977
3_20251106_150621,1762412745044,3,0.443651407957077,0.4348682463169098,0.7486076951026917,0.23162376880645752,0.27278319001197815,0.9038792252540588,-2.900749444961548,-6.476755142211914,5.334841728210449,-2.7319517135620117,-0.3994826078414917,-1.0284518003463745,0.786076009273529,37.34893798828125,1.4677047729492188,6.881622314453125,-0.645085334777832,0.7130441665649414,1.1808159351348877,-5.831669807434082,4.621797561645508,-3.9127676486968994
3_20251106_150621,1762412745062,3,0.4518972933292389,0.4409383535385132,0.7398746013641357,0.2322666496038437,0.22625857591629028,0.8997222781181335,-2.876917600631714,-6.57850456237793,6.179958820343018,-3.2837915420532227,-0.3732154369354248,-0.8812334537506104,0.8838143348693848,37.48143005371094,1.323577880859375,5.842832565307617,-0.5974674224853516,1.2465291023254395,0.503180980682373,-5.981037139892578,4.933429718017578,-3.7869725227355957
3_20251106_150621,1762412745082,3,0.45909079909324646,0.44740134477615356,0.7309970855712891,0.23390375077724457,0.17190197110176086,0.9004268646240234,-2.8486175537109375,-6.756864547729492,6.693492889404297,-3.2395005226135254,-0.34022873640060425,-0.7902146577835083,0.8160083293914795,37.563690185546875,0.9496917724609375,4.9329833984375,-0.6206622123718262,1.408050537109375,0.43797755241394043,-6.136202335357666,5.285442352294922,-3.677478075027466
3_20251106_150621,1762412745101,3,0.46493464708328247,0.4534038305282593,0.7228320837020874,0.23616623878479004,0.1180015504360199,0.904201328754425,-2.8201863765716553,-6.880160331726074,6.306845664978027,-3.168874740600586,-0.41658681631088257,-0.5128820538520813,0.7078853249549866,37.55915069580078,0.556610107421875,4.127567291259766,-0.5951666831970215,0.8171224594116211,0.40688276290893555,-6.284993648529053,5.489723205566406,-3.5757575035095215
3_20251106_150621,1762412745120,3,0.46993985772132874,0.4585508108139038,0.7155522108078003,0.23848003149032593,0.06750347465276718,0.9113932251930237,-2.7950596809387207,-6.960363388061523,6.86945915222168,-3.7697935104370117,-0.6255025863647461,-0.31618359684944153,0.6620704531669617,37.591678619384766,0.17819976806640625,3.350919723510742,-0.5402956008911133,1.1037888526916504,-0.155228853225708,-6.42006778717041,5.765670299530029,-3.6145646572113037
3_20251106_150621,1762412745138,3,0.47398072481155396,0.46197938919067383,0.7093185186386108,0.24245525896549225,0.022533655166625977,0.9218578934669495,-2.7735249996185303,-7.351798057556152,7.746895790100098,-3.5339746475219727,-0.8667941689491272,-0.2355494499206543,0.6199207901954651,37.5405158996582,-0.39333343505859375,2.5673694610595703,-0.7453842163085938,1.5849800109863281,0.06447219848632812,-6.606413841247559,6.1619157791137695,-3.598446846008301
3_20251106_150621,1762412745158,3,0.478243887424469,0.4637751877307892,0.7032141089439392,0.248365119099617,-0.030927926301956177,0.9391908049583435,-2.7470154762268066,-7.659440040588379,8.01623249053955,-2.7953951358795166,-1.0250080823898315,-0.10787869989871979,0.5759385228157043,37.453216552734375,-0.9434814453125,1.9180383682250977,-0.8424210548400879,1.4834537506103516,0.6424412727355957,-6.817018985748291,6.532778739929199,-3.4378364086151123
3_20251106_150621,1762412745177,3,0.4827747642993927,0.46397876739501953,0.697258710861206,0.25589555501937866,-0.08413182944059372,0.9605998396873474,-2.717756748199463,-7.611557960510254,8.158681869506836,-2.097515344619751,-1.1080857515335083,-0.016859864816069603,0.5777711272239685,37.4025993347168,-1.4678878784179688,1.4464187622070312,-0.6356315612792969,1.300722599029541,1.0722568035125732,-6.975926399230957,6.857959270477295,-3.169772148132324
3_20251106_150621,1762412745196,3,0.48726561665534973,0.46301424503326416,0.6915265321731567,0.2645394206047058,-0.13376089930534363,0.9847151637077332,-2.6870362758636475,-7.563675880432129,8.605180740356445,-1.5971488952636719,-1.1276334524154663,0.055833034217357635,0.6431336402893066,37.3890495300293,-1.9776229858398438,1.0035667419433594,-0.4701995849609375,1.3977770805358887,1.2580986022949219,-7.093476295471191,7.207403659820557,-2.8552474975585938
3_20251106_150621,1762412745216,3,0.4913519322872162,0.4617132842540741,0.6857634782791138,0.2740848958492279,-0.1846374273300171,1.015230417251587,-2.6509881019592285,-7.503823280334473,9.312637329101562,-1.1027674674987793,-1.095868468284607,0.15662571787834167,0.7310981154441833,37.3890495300293,-1.9776229858398438,1.0035667419433594,-0.328277587890625,1.6841869354248047,1.4019839763641357,-7.175545692443848,7.628450393676758,-2.504751443862915
3_20251106_150621,1762412745235,3,0.49467942118644714,0.46051016449928284,0.6799519658088684,0.2844080924987793,-0.2312111109495163,1.0475553274154663,-2.614112377166748,-7.415241718292236,9.372489929199219,-0.922012984752655,-1.012179970741272,0.30812016129493713,0.7927954792976379,37.32456588745117,-2.5051116943359375,0.7612323760986328,-0.1917567253112793,1.3952317237854004,1.266190767288208,-7.223484992980957,7.977258205413818,-2.188203811645508
3_20251106_150621,1762412745254,3,0.49665626883506775,0.45958074927330017,0.6744546890258789,0.2953455448150635,-0.2727949023246765,1.0796942710876465,-2.577791452407837,-7.088447093963623,9.214479446411133,-0.9160277843475342,-0.9303240776062012,0.4596146047115326,0.8972533345222473,37.190914154052734,-2.9508132934570312,0.6529664993286133,0.10803031921386719,0.989776611328125,1.0177407264709473,-7.19647741317749,8.224702835083008,-1.9337685108184814
3_20251106_150621,1762412745273,3,0.4969431757926941,0.4589161276817322,0.6695690751075745,0.3067910373210907,-0.2727949023246765,1.0796942710876465,-2.577791452407837,-7.088447093963623,9.214479446411133,-0.9160277843475342,-0.8826766610145569,0.5439139604568481,1.0621869564056396,37.10388946533203,-3.4310073852539062,0.5458698272705078,0.10803031921386719,0.989776611328125,1.0177407264709473,-7.19647741317749,8.224702835083008,-1.9337685108184814
3_20251106_150621,1762412745292,3,0.49562695622444153,0.4589599668979645,0.6648027896881104,0.3189779222011566,-0.3478296399116516,1.152604341506958,-2.4996352195739746,-5.684308052062988,9.852506637573242,-0.9196189641952515,-0.8167032599449158,0.5573529005050659,1.2252877950668335,36.924922943115234,-4.030181884765625,0.4735136032104492,1.1091365814208984,1.1199378967285156,0.6775933504104614,-6.793444633483887,8.732568740844727,-1.597212314605713
3_20251106_150621,1762412745311,3,0.4932161271572113,0.4602401852607727,0.6594436764717102,0.3317391276359558,-0.37680625915527344,1.1945360898971558,-2.457887649536133,-4.972064018249512,10.259503364562988,-0.7197116613388062,-0.679869532585144,0.5573529005050659,1.2906503677368164,36.821311950683594,-4.563560485839844,0.5811309814453125,1.4571046829223633,1.221548080444336,0.702000617980957,-6.429168701171875,9.037955284118652,-1.4217122793197632
3_20251106_150621,1762412745330,3,0.4898366332054138,0.4627952575683594,0.653648853302002,0.34441810846328735,-0.3971996009349823,1.2362728118896484,-2.4179890155792236,-4.330445289611816,10.457016944885254,-0.6119772791862488,-0.5589183568954468,0.6666977405548096,1.2344508171081543,36.68499755859375,-5.225852966308594,0.86083984375,1.678978443145752,1.135249137878418,0.6477879881858826,-6.009423732757568,9.321767807006836,-1.2597652673721313
3_20251106_150621,1762412745349,3,0.48528555035591125,0.4656941592693329,0.6484414935112,0.3565817177295685,-0.41043639183044434,1.2794315814971924,-2.378941774368286,-3.772620677947998,10.600662231445312,-0.8430078625679016,-0.5283751487731934,0.8554549217224121,1.11899733543396,36.4328727722168,-5.996421813964844,1.2016048431396484,1.789442539215088,1.023116111755371,0.33340591192245483,-5.562063217163086,9.577546119689941,-1.1764137744903564
3_20251106_150621,1762412745368,3,0.47961434721946716,0.46769729256629944,0.6445093154907227,0.3685608506202698,-0.4165779650211334,1.3231507539749146,-2.3417696952819824,-3.2171895503997803,10.568342208862305,-1.1482553482055664,-0.5283751487731934,0.8554549217224121,1.11899733543396,36.1173095703125,-6.809173583984375,1.5931901931762695,1.875899076461792,0.7926368713378906,0.02252674102783203,-5.093088626861572,9.775705337524414,-1.1707820892333984
3_20251106_150621,1762412745387,3,0.47296780347824097,0.4681466519832611,0.6418302655220032,0.381043404340744,-0.4161490797996521,1.367210030555725,-2.306328773498535,-2.810192584991455,10.696426391601562,-1.124314308166504,-0.6450502872467041,1.0539859533309937,0.9174118638038635,35.800941467285156,-7.634613037109375,1.9980278015136719,1.8263168334960938,0.736577033996582,0.037174224853515625,-4.636509418487549,9.95984935760498,-1.1614885330200195
3_20251106_150621,1762412745406,3,0.4663046896457672,0.4675389528274536,0.6395001411437988,0.3937090337276459,-0.41090503334999084,1.4111692905426025,-2.2716546058654785,-2.873636484146118,10.72635269165039,-0.7951257824897766,-0.6450502872467041,1.0539859533309937,0.9174118638038635,35.482276916503906,-8.486381530761719,2.523983955383301,1.4102981090545654,0.6132030487060547,0.29309016466140747,-4.283934593200684,10.113149642944336,-1.088215947151184
3_20251106_150621,1762412745426,3,0.46004518866539,0.46559110283851624,0.637622594833374,0.4062274992465973,-0.40203234553337097,1.4562430381774902,-2.2364134788513184,-3.0903024673461914,10.47976016998291,-0.9016632437705994,-0.6969738006591797,1.113850712776184,0.7402611374855042,35.09001159667969,-9.331977844238281,3.2094573974609375,0.9549055099487305,0.2932882308959961,0.149242103099823,-4.045207977294922,10.186471939086914,-1.0509053468704224
3_20251106_150621,1762412745445,3,0.45379674434661865,0.4617454707622528,0.6367475986480713,0.41882234811782837,-0.3915495276451111,1.4945011138916016,-2.2067902088165283,-2.8688483238220215,10.072763442993164,-1.2571868896484375,-0.7275170087814331,1.4058440923690796,0.757976233959198,34.71307373046875,-10.102920532226562,4.045682907104492,0.9410877227783203,-0.09096717834472656,-0.1650252342224121,-3.809936046600342,10.16373062133789,-1.0921616554260254
3_20251106_150621,1762412745464,3,0.44639772176742554,0.45681658387184143,0.6365193128585815,0.43230873346328735,-0.37602952122688293,1.5345790386199951,-2.1754043102264404,-2.344540596008301,10.063187599182129,-1.0536885261535645,-0.6768152713775635,1.3490335941314697,1.0017112493515015,34.25234603881836,-10.854171752929688,4.865488052368164,1.172316312789917,-0.08043384552001953,0.03077852725982666,-3.5168569087982178,10.143621444702148,-1.0844670534133911
3_20251106_150621,1762412745482,3,0.4377342760562897,0.453113317489624,0.6355447173118591,0.4462733864784241,-0.35787472128868103,1.5696998834609985,-2.147780179977417,-1.532941222190857,10.490533828735352,-0.7640025615692139,-0.6768152713775635,1.3490335941314697,1.0017112493515015,33.74116516113281,-11.634117126464844,5.723352432250977,1.5871325731277466,0.2775297164916992,0.2563716173171997,-3.1200737953186035,10.213004112243652,-1.0203741788864136
3_20251106_150621,1762412745502,3,0.42807379364967346,0.4512995183467865,0.6333696246147156,0.4603525996208191,-0.33060768246650696,1.608918309211731,-2.1178603172302246,-0.4543997049331665,10.919076919555664,-0.7699877619743347,-0.4446865916252136,1.2482409477233887,1.3291348218917847,33.23149108886719,-12.388816833496094,6.568227767944336,2.1325392723083496,0.5648584365844727,0.200309157371521,-2.5869390964508057,10.354218482971191,-0.9702969193458557
3_20251106_150621,1762412745520,3,0.41728711128234863,0.4509718418121338,0.6305979490280151,0.4741751551628113,-0.29854437708854675,1.6445248126983643,-2.091991901397705,0.9664979577064514,11.196792602539062,-0.8537811636924744,-0.2870835065841675,1.1767698526382446,1.4146559238433838,32.73442840576172,-13.11895751953125,7.549283981323242,2.84274959564209,0.6740589141845703,0.09321260452270508,-1.8762516975402832,10.522733688354492,-0.9469937682151794
3_20251106_150621,1762412745540,3,0.4052605628967285,0.45187851786613464,0.6277536153793335,0.4873346984386444,-0.29854437708854675,1.6445248126983643,-2.091991901397705,0.9664979577064514,11.196792602539062,-0.8537811636924744,-0.15635846555233002,1.1016334295272827,1.4103797674179077,32.17401123046875,-13.902755737304688,8.472766876220703,2.84274959564209,0.6740589141845703,0.09321260452270508,-1.8762516975402832,10.522733688354492,-0.9469937682151794
3_20251106_150621,1762412745558,3,0.39281803369522095,0.45428404211997986,0.6245878338813782,0.4992094039916992,-0.19877997040748596,1.7241101264953613,-2.0413334369659424,3.854978084564209,12.009590148925781,-1.3146452903747559,-0.040294162929058075,1.0527642965316772,1.26438307762146,31.416202545166016,-14.737342834472656,9.428159713745117,3.88077449798584,1.0032997131347656,-0.3101843595504761,-0.02579653263092041,11.006290435791016,-1.0044609308242798
3_20251106_150621,1762412745578,3,0.38018202781677246,0.4569195806980133,0.6218288540840149,0.5099167227745056,-0.12931236624717712,1.7680319547653198,-2.0196306705474854,4.721642017364502,12.187950134277344,-1.7767064571380615,0.06233111023902893,0.945862889289856,1.010263442993164,30.69615364074707,-15.556312561035156,10.317707061767578,3.7979507446289062,0.9453277587890625,-0.6177964210510254,0.9236911535263062,11.242622375488281,-1.1589100360870361
3_20251106_150621,1762412745598,3,0.3683241903781891,0.45926913619041443,0.6199194192886353,0.5187572240829468,-0.05025488883256912,1.8124421834945679,-2.002652406692505,5.22081184387207,12.125703811645508,-2.3560781478881836,0.10570250451564789,0.8511788845062256,0.7042201161384583,29.92503547668457,-16.428016662597656,11.136655807495117,3.437696695327759,0.7064657211303711,-0.9577345848083496,1.7831151485443115,11.419238090515137,-1.398343563079834
3_20251106_150621,1762412745617,3,0.35787346959114075,0.46074622869491577,0.6191597580909729,0.5256240963935852,0.025704018771648407,1.85137140750885,-1.9912930727005005,5.180111885070801,11.80848503112793,-2.680478572845459,0.07332667708396912,0.7210646867752075,0.34869685769081116,29.14151954650879,-17.312393188476562,11.88726806640625,2.717597484588623,0.3113975524902344,-1.0257079601287842,2.4625144004821777,11.497087478637695,-1.6547706127166748
3_20251106_150621,1762412745635,3,0.3495146632194519,0.46089234948158264,0.6194249987602234,0.5307828187942505,0.10714591294527054,1.890182614326477,-1.9811530113220215,4.384073734283447,11.414655685424805,-2.110682964324951,-0.023189950734376907,0.6282132863998413,-0.09906698763370514,29.14151954650879,-17.312393188476562,11.88726806640625,1.5372474193572998,-0.06594562530517578,-0.3647298812866211,2.8468263149261475,11.48060131072998,-1.74595308303833
3_20251106_150621,1762412745655,3,0.3442226052284241,0.45931005477905273,0.6205770969390869,0.5342556834220886,0.18968388438224792,1.9266608953475952,-1.96998929977417,3.207374334335327,10.713184356689453,-1.4092121124267578,-0.15819105505943298,0.7632143497467041,-0.5755414962768555,28.397476196289062,-17.931076049804688,12.60385513305664,0.2884385585784912,-0.6139335632324219,0.269392728805542,2.918935775756836,11.327117919921875,-1.6786048412322998
3_20251106_150621,1762412745674,3,0.3418923020362854,0.4542790949344635,0.6233311295509338,0.5368411540985107,0.2619212865829468,1.9556779861450195,-1.9593095779418945,2.0977096557617188,9.903980255126953,-1.4582912921905518,-0.26264891028404236,0.964188814163208,-0.8699782490730286,27.7338809967041,-18.430633544921875,13.190597534179688,-0.6569807529449463,-1.138509750366211,0.17625093460083008,2.754690408706665,11.042490005493164,-1.6345422267913818
3_20251106_150621,1762412745693,3,0.341061532497406,0.4449731111526489,0.6279150247573853,0.5398135185241699,0.3262581527233124,1.9793094396591187,-1.9497443437576294,1.1915432214736938,9.608308792114258,-1.846135139465332,-0.26264891028404236,0.964188814163208,-0.8699782490730286,27.125978469848633,-18.80158233642578,13.79545783996582,-1.250517725944519,-1.1473445892333984,-0.16927433013916016,2.442060947418213,10.755653381347656,-1.6768608093261719
3_20251106_150621,1762412745712,3,0.34054338932037354,0.43363505601882935,0.6332042217254639,0.5431787967681885,0.382495641708374,1.9987396001815796,-1.9412466287612915,0.6624473929405212,9.654993057250977,-1.8916230201721191,-0.2748662233352661,0.8517897129058838,-0.5364461541175842,26.662189483642578,-18.98772430419922,14.382375717163086,-1.4236907958984375,-0.880528450012207,-0.17180967330932617,2.0861382484436035,10.535521507263184,-1.719813346862793
3_20251106_150621,1762412745731,3,0.3395059108734131,0.4235113859176636,0.6375733017921448,0.5466938018798828,0.4316309690475464,2.015623092651367,-1.9329850673675537,0.5223926305770874,9.961437225341797,-1.6510159969329834,-0.12825869023799896,0.5909504890441895,-0.12227983772754669,26.40505027770996,-18.959701538085938,14.927299499511719,-1.250996470451355,-0.45926761627197266,0.055037856101989746,1.7733891010284424,10.42070484161377,-1.7060538530349731
3_20251106_150621,1762412745751,3,0.33757147192955017,0.4171237647533417,0.6400501728057861,0.5498991012573242,0.4316309690475464,2.015623092651367,-1.9329850673675537,0.5223926305770874,9.961437225341797,-1.6510159969329834,0.12708276510238647,0.3930303454399109,0.22896736860275269,26.104297637939453,-18.84668731689453,15.445075988769531,-1.250996470451355,-0.45926761627197266,0.055037856101989746,1.7733891010284424,10.42070484161377,-1.7060538530349731
3_20251106_150621,1762412745769,3,0.3341998755931854,0.4149303734302521,0.6413784027099609,0.5520661473274231,0.5148547887802124,2.046010971069336,-1.9154201745986938,1.5003819465637207,10.636573791503906,-1.4810351133346558,0.3097313344478607,0.34355029463768005,0.4971369802951813,25.986719131469727,-18.732833862304688,15.821266174316406,-0.06459605693817139,0.19025230407714844,0.11547434329986572,1.564978003501892,10.446321487426758,-1.5965094566345215
3_20251106_150621,1762412745789,3,0.3288629651069641,0.4158552289009094,0.6423678994178772,0.5534230470657349,0.5603873133659363,2.0633904933929443,-1.905922770500183,2.183897018432617,10.785008430480957,-1.5672225952148438,0.3097313344478607,0.34355029463768005,0.4971369802951813,25.860984802246094,-18.544700622558594,16.225582122802734,0.49513518810272217,0.2709493637084961,0.023429512977600098,1.688761830329895,10.514059066772461,-1.5906521081924438
3_20251106_150621,1762412745808,3,0.3222510814666748,0.41876620054244995,0.642805814743042,0.5546077489852905,0.5603873133659363,2.0633904933929443,-1.905922770500183,2.183897018432617,10.785008430480957,-1.5672225952148438,0.36898520588874817,0.3111744821071625,0.7103287577629089,25.74309539794922,-18.44286346435547,16.547443389892578,0.49513518810272217,0.2709493637084961,0.023429512977600098,1.688761830329895,10.514059066772461,-1.5906521081924438
3_20251106_150621,1762412745827,3,0.31487417221069336,0.4224107563495636,0.6428455114364624,0.5560333132743835,0.6478203535079956,2.094465970993042,-1.8921623229980469,3.558109760284424,10.792190551757812,-1.9466873407363892,0.39647412300109863,0.16701042652130127,0.6700116991996765,25.58493995666504,-18.394851684570312,16.98842430114746,1.2961688041687012,0.18451595306396484,-0.24433398246765137,2.2619409561157227,10.607674598693848,-1.7023533582687378
3_20251106_150621,1762412745845,3,0.3077988624572754,0.42667508125305176,0.6425722241401672,0.5570539832115173,0.6478203535079956,2.094465970993042,-1.8921623229980469,3.558109760284424,10.792190551757812,-1.9466873407363892,0.4545062482357025,0.023457204923033714,0.5570017099380493,25.351144790649414,-18.40142822265625,17.384857177734375,1.2961688041687012,0.18451595306396484,-0.24433398246765137,2.2619409561157227,10.607674598693848,-1.7023533582687378
3_20251106_150621,1762412745866,3,0.3018168807029724,0.4314441382884979,0.642349123954773,0.5569112300872803,0.697613537311554,2.110388994216919,-1.8869003057479858,3.901663064956665,10.76585578918457,-2.032874822616577,0.4545062482357025,0.023457204923033714,0.5570017099380493,25.087932586669922,-18.509246826171875,17.697101593017578,1.3117778301239014,0.12654495239257812,-0.2644171714782715,2.5898852348327637,10.639310836791992,-1.7684576511383057
3_20251106_150621,1762412745885,3,0.29692211747169495,0.43616971373558044,0.6426596641540527,0.555501401424408,0.7957990765571594,2.137382745742798,-1.8817726373672485,3.889692544937134,10.334917068481445,-2.584714412689209,0.5217013359069824,-0.0919962227344513,0.39939865469932556,24.786640167236328,-18.65630340576172,17.925983428955078,0.8223001956939697,-0.2308197021484375,-0.5840764045715332,3.067392349243164,10.565736770629883,-2.000638008117676
3_20251106_150621,1762412745904,3,0.2933550775051117,0.4407089054584503,0.643535852432251,0.5527929663658142,0.8416944742202759,2.1476566791534424,-1.8821368217468262,3.748440742492676,10.090719223022461,-2.6888577938079834,0.5229230523109436,-0.24776673316955566,0.12756381928920746,24.542951583862305,-18.861907958984375,18.128965377807617,0.5448386669158936,-0.38001441955566406,-0.5505757331848145,3.2036020755767822,10.470733642578125,-2.138282060623169
3_20251106_150621,1762412745923,3,0.29094696044921875,0.4448195993900299,0.6447593569755554,0.5493366718292236,0.8888377547264099,2.1558589935302734,-1.8840159177780151,3.6119771003723145,9.705268859863281,-2.6900548934936523,0.49360159039497375,-0.2819751799106598,0.0035582883283495903,24.281951904296875,-18.931915283203125,18.428483963012695,0.32669997215270996,-0.6123714447021484,-0.4414181709289551,3.2852771282196045,10.31764030456543,-2.2486367225646973
3_20251106_150621,1762412745940,3,0.28956663608551025,0.44828954339027405,0.6461986899375916,0.5455409288406372,0.9313519597053528,2.1612260341644287,-1.8867144584655762,3.319897174835205,9.49937629699707,-2.6577346324920654,0.48810383677482605,-0.3186270594596863,-0.11861465871334076,24.11862564086914,-19.006912231445312,18.610015869140625,0.02769613265991211,-0.6546115875244141,-0.32727837562561035,3.292201042175293,10.153987884521484,-2.330456256866455
3_20251106_150621,1762412745960,3,0.28933098912239075,0.45131972432136536,0.6478578448295593,0.5411823391914368,0.97541344165802,2.1643810272216797,-1.8913547992706299,3.0242257118225098,9.32819938659668,-2.9198882579803467,0.4758865535259247,-0.30518803000450134,-0.21024435758590698,24.03466033935547,-18.964263916015625,18.810382843017578,-0.21438026428222656,-0.6606311798095703,-0.4715456962585449,3.2386059761047363,9.98883056640625,-2.4483425617218018
3_20251106_150621,1762412745979,3,0.28961485624313354,0.45347824692726135,0.6500263810157776,0.5366063714027405,0.97541344165802,2.1643810272216797,-1.8913547992706299,3.0242257118225098,9.32819938659668,-2.9198882579803467,0.469167023897171,-0.3693288266658783,-0.260946124792099,24.075151443481445,-18.886940002441406,18.853984832763672,-0.21438026428222656,-0.6606311798095703,-0.4715456962585449,3.2386059761047363,9.98883056640625,-2.4483425617218018
3_20251106_150621,1762412745998,3,0.2904049754142761,0.4551519453525543,0.6524493098258972,0.5318002700805664,1.0491950511932373,2.1626136302948,-1.906557559967041,2.5561795234680176,8.943946838378906,-3.3771612644195557,0.44228896498680115,-0.5257102251052856,-0.23162463307380676,24.152088165283203,-18.818984985351562,18.817699432373047,-0.4739093780517578,-0.6890277862548828,-0.5980830192565918,3.0300889015197754,9.632974624633789,-2.779078245162964
3_20251106_150621,1762412746017,3,0.2920673191547394,0.4573309123516083,0.6545420289039612,0.5264217257499695,1.0808247327804565,2.1585781574249268,-1.9156396389007568,2.4304895401000977,8.873319625854492,-3.1724658012390137,0.44106724858283997,-0.6704851388931274,-0.1735924780368805,24.222576141357422,-18.651229858398438,18.769519805908203,-0.4796793460845947,-0.6077241897583008,-0.3147101402282715,2.9101688861846924,9.481043815612793,-2.857755661010742
3_20251106_150621,1762412746038,3,0.29465311765670776,0.460651695728302,0.6557754874229431,0.520517110824585,1.1122195720672607,2.152015209197998,-1.9265716075897217,2.3682427406311035,8.787132263183594,-3.274214744567871,0.491158127784729,-0.7786082029342651,-0.15037962794303894,24.51341438293457,-18.456214904785156,18.689882278442383,-0.43354105949401855,-0.5551290512084961,-0.33316731452941895,2.801783800125122,9.34226131439209,-2.941047430038452
3_20251106_150621,1762412746057,3,0.29757997393608093,0.4648172855377197,0.6566166281700134,0.5140483379364014,1.1122195720672607,2.152015209197998,-1.9265716075897217,2.3682427406311035,8.787132263183594,-3.274214744567871,0.4960450232028961,-0.8891746997833252,-0.1735924780368805,24.51341438293457,-18.456214904785156,18.689882278442383,-0.43354105949401855,-0.5551290512084961,-0.33316731452941895,2.801783800125122,9.34226131439209,-2.941047430038452
3_20251106_150621,1762412746076,3,0.3010607957839966,0.4695958197116852,0.6572489738464355,0.5068194270133972,1.158555507659912,2.136657476425171,-1.9476745128631592,1.9145610332489014,8.605180740356445,-3.306535243988037,0.4545062780380249,-0.9386547803878784,-0.22734856605529785,24.810077667236328,-18.172088623046875,18.49044418334961,-0.6130232810974121,-0.4945240020751953,-0.21571683883666992,2.5275843143463135,9.09970474243164,-3.090818405151367
3_20251106_150621,1762412746094,3,0.3053690493106842,0.47445163130760193,0.657637894153595,0.4991570711135864,1.1771185398101807,2.1270837783813477,-1.958778738975525,1.642830729484558,8.55610179901123,-3.3627965450286865,0.399528443813324,-0.9172744750976562,-0.30553922057151794,25.09193229675293,-17.938720703125,18.262428283691406,-0.7078028917312622,-0.43488216400146484,-0.21758246421813965,2.3506336212158203,8.990983963012695,-3.145214080810547
3_20251106_150621,1762412746114,3,0.31025639176368713,0.4787029027938843,0.6580013036727905,0.4915473759174347,1.1924854516983032,2.1152381896972656,-1.9712539911270142,1.299277663230896,8.243672370910645,-3.5962212085723877,0.36898520588874817,-0.9313244223594666,-0.39228203892707825,25.407920837402344,-17.752655029296875,17.980762481689453,-0.8410845994949341,-0.5978488922119141,-0.3608057498931885,2.14036226272583,8.841521263122559,-3.235415458679199
3_20251106_150621,1762412746132,3,0.31567487120628357,0.48206621408462524,0.6585647463798523,0.48399797081947327,1.2026039361953735,2.1024765968322754,-1.9832096099853516,0.9138277769088745,7.772034645080566,-3.7590200901031494,0.3469940721988678,-0.9942434430122375,-0.3831190764904022,25.860057830810547,-17.53179168701172,17.61040496826172,-0.9812275171279907,-0.8555889129638672,-0.4188835620880127,1.8950552940368652,8.627623558044434,-3.3401365280151367
3_20251106_150621,1762412746152,3,0.3217248022556305,0.4852537214756012,0.6590461730957031,0.4761093258857727,1.2097485065460205,2.085418939590454,-1.9972120523452759,0.7318762540817261,7.447633743286133,-3.794931411743164,0.3469940721988678,-0.9942434430122375,-0.3831190764904022,26.230712890625,-17.25330352783203,17.197385787963867,-0.9305433034896851,-0.9439916610717773,-0.36383581161499023,1.6624195575714111,8.39162540435791,-3.431095600128174
3_20251106_150621,1762412746170,3,0.3281877338886261,0.4891807436943054,0.6587514877319336,0.46801868081092834,1.2134920358657837,2.0691232681274414,-2.0094196796417236,0.7019500136375427,7.696619987487793,-3.526792526245117,0.24925574660301208,-1.2752412557601929,-0.17175988852977753,26.649505615234375,-16.98406219482422,16.77254867553711,-0.7683756947517395,-0.556004524230957,-0.07655739784240723,1.4703257083892822,8.25262451171875,-3.45023512840271
3_20251106_150621,1762412746190,3,0.3353040814399719,0.4943286180496216,0.6570857763290405,0.4598354995250702,1.2146128416061401,2.050719738006592,-2.0218141078948975,0.5391513109207153,7.857025146484375,-3.2885794639587402,0.25658610463142395,-1.3821425437927246,-0.19252929091453552,27.13648223876953,-16.797950744628906,16.348806381225586,-0.7449395656585693,-0.3164796829223633,0.12932443618774414,1.2840908765792847,8.173504829406738,-3.4179039001464844
3_20251106_150621,1762412746209,3,0.3430792987346649,0.5001183152198792,0.6545705795288086,0.4513486623764038,1.212716817855835,2.03204345703125,-2.0320541858673096,0.22432729601860046,7.420102119445801,-3.073110580444336,0.30912044644355774,-1.4230705499649048,-0.2774394750595093,27.614967346191406,-16.57280731201172,15.709104537963867,-0.8478108644485474,-0.60272216796875,0.2758347988128662,1.0721381902694702,8.02282428741455,-3.348945379257202
3_20251106_150621,1762412746228,3,0.3514431118965149,0.5057984590530396,0.6521270275115967,0.44202491641044617,1.2073185443878174,2.011080741882324,-2.0411930084228516,-0.238930806517601,6.849108695983887,-3.134160041809082,0.34455060958862305,-1.3625949621200562,-0.30431750416755676,28.140478134155273,-16.381614685058594,15.016508102416992,-1.048855185508728,-0.9389724731445312,0.1718282699584961,0.8099243640899658,7.788081169128418,-3.305988311767578
3_20251106_150621,1762412746247,3,0.3598065674304962,0.5110988020896912,0.6500654220581055,0.4321252107620239,1.1984093189239502,1.9891352653503418,-2.0493640899658203,-0.5681193470954895,7.047819137573242,-3.119795560836792,0.34455060958862305,-1.3625949621200562,-0.30431750416755676,28.716846466064453,-16.149574279785156,14.326665878295898,-1.1024349927902222,-0.5922098159790039,0.14895415306091309,0.5343156456947327,7.640028953552246,-3.268749713897705
3_20251106_150621,1762412746267,3,0.3677503764629364,0.5164046287536621,0.64803546667099,0.4220615327358246,1.184853196144104,1.9643086194992065,-2.0573151111602783,-0.9942690134048462,6.692296028137207,-3.196406841278076,0.2229885458946228,-1.2709652185440063,-0.37762126326560974,29.234386444091797,-15.89544677734375,13.540285110473633,-1.222867727279663,-0.7581863403320312,0.057874202728271484,0.22859874367713928,7.450482368469238,-3.2542810440063477
3_20251106_150621,1762412746287,3,0.37605851888656616,0.520861029624939,0.6460418701171875,0.41220587491989136,1.168048620223999,1.9395694732666016,-2.0649068355560303,-1.4371771812438965,6.600123405456543,-3.405890464782715,0.0794353187084198,-1.1897201538085938,-0.4093862473964691,29.715850830078125,-15.654647827148438,12.589973449707031,-1.3326207399368286,-0.6802868843078613,-0.12128758430480957,-0.10455641150474548,7.280410289764404,-3.2846028804779053
3_20251106_150621,1762412746305,3,0.384533554315567,0.523912250995636,0.6440631151199341,0.4035252034664154,1.1474789381027222,1.9138659238815308,-2.0722317695617676,-1.7831244468688965,6.478024005889893,-3.325687885284424,-0.05862010270357132,-1.1677290201187134,-0.3482997715473175,30.29047393798828,-15.48297119140625,11.655517578125,-1.3428544998168945,-0.641909122467041,-0.0328679084777832,-0.44027000665664673,7.119933128356934,-3.2928199768066406
3_20251106_150621,1762412746324,3,0.3934365510940552,0.526432991027832,0.6414735913276672,0.3957115709781647,1.1235079765319824,1.8872824907302856,-2.0789785385131836,-2.0548548698425293,6.33078670501709,-3.215559482574463,-0.167964905500412,-1.1848331689834595,-0.2395658642053604,30.794689178466797,-15.277580261230469,10.637813568115234,-1.2916679382324219,-0.631317138671875,0.06180858612060547,-0.7631869316101074,6.962103843688965,-3.2773680686950684
3_20251106_150621,1762412746343,3,0.4026050269603729,0.5289338231086731,0.6378658413887024,0.38892844319343567,1.0981669425964355,1.8614726066589355,-2.0847480297088623,-2.293067455291748,6.196717262268066,-3.154510021209717,-0.24187952280044556,-1.2007156610488892,-0.12105810642242432,31.266265869140625,-15.011245727539062,9.565893173217773,-1.2239043712615967,-0.612309455871582,0.09828662872314453,-1.0691630840301514,6.809026718139648,-3.2527966499328613
3_20251106_150621,1762412746361,3,0.4118669927120209,0.5317558646202087,0.6332303285598755,0.3829107880592346,1.0689738988876343,1.8338881731033325,-2.0899288654327393,-2.4474868774414062,6.188337802886963,-3.0324110984802246,-0.34083959460258484,-1.2062135934829712,0.022495094686746597,31.670866012573242,-14.861488342285156,8.448596954345703,-1.1026591062545776,-0.4965510368347168,0.17630863189697266,-1.3448277711868286,6.68488883972168,-3.2087197303771973
3_20251106_150621,1762412746381,3,0.4211176931858063,0.5349968671798706,0.6275181770324707,0.3777024745941162,1.0689738988876343,1.8338881731033325,-2.0899288654327393,-2.4474868774414062,6.188337802886963,-3.0324110984802246,-0.4709537923336029,-1.2330915927886963,0.20697623491287231,32.05160140991211,-14.701034545898438,7.357616424560547,-1.1026591062545776,-0.4965510368347168,0.17630863189697266,-1.3448277711868286,6.68488883972168,-3.2087197303771973
3_20251106_150621,1762412746400,3,0.43018868565559387,0.5383559465408325,0.6206980347633362,0.37395796179771423,1.0343366861343384,1.8032763004302979,-2.0933215618133545,-2.5336742401123047,6.1931257247924805,-2.597882032394409,-0.588239848613739,-1.1860549449920654,0.37007713317871094,32.34288787841797,-14.632965087890625,6.153223037719727,-0.9510772228240967,-0.39341068267822266,0.48867011070251465,-1.582597017288208,6.586536407470703,-3.086552143096924
3_20251106_150621,1762412746419,3,0.4395565688610077,0.5425927042961121,0.6119483113288879,0.3713521659374237,0.9709556698799133,1.7517142295837402,-2.0893197059631348,-2.4582602977752686,6.48281192779541,-1.5983459949493408,-0.6371090412139893,-1.024175763130188,0.47820019721984863,32.59663391113281,-14.568626403808594,5.082521438598633,-0.5426124334335327,-0.038420677185058594,0.9913322925567627,-1.9156478643417358,6.521232604980469,-2.5896782875061035
3_20251106_150621,1762412746438,3,0.4481048882007599,0.546544075012207,0.60267573595047,0.37050437927246094,0.9406285285949707,1.7295218706130981,-2.083286762237549,-2.309826135635376,6.955646514892578,-1.4906115531921387,-0.6798695921897888,-0.9142202138900757,0.5551691651344299,32.77957534790039,-14.684059143066406,4.005672454833984,-0.31534266471862793,0.3475313186645508,0.8792533874511719,-1.994483470916748,6.608115196228027,-2.3698649406433105
3_20251106_150621,1762412746458,3,0.45570051670074463,0.5502251386642456,0.5932610034942627,0.3709861934185028,0.9061596393585205,1.708140254020691,-2.0737416744232178,-2.249973773956299,7.567338943481445,-1.51694655418396,-0.7275170087814331,-0.8427489995956421,0.544173538684845,32.86270523071289,-14.855400085449219,2.85626220703125,-0.2043921947479248,0.7673788070678711,0.6823346614837646,-2.045581579208374,6.799960136413574,-2.1992812156677246
3_20251106_150621,1762412746476,3,0.4627661406993866,0.5534364581108093,0.5837877988815308,0.3724880814552307,0.8775268793106079,1.6933825016021729,-2.0647666454315186,-2.275111675262451,7.877374649047852,-1.7108685970306396,-0.7275170087814331,-0.8427489995956421,0.544173538684845,32.91803741455078,-15.090980529785156,1.6910362243652344,-0.1836240291595459,0.8619318008422852,0.3907301425933838,-2.0914876461029053,7.015442848205566,-2.1015987396240234
3_20251106_150621,1762412746495,3,0.4699932336807251,0.5560084581375122,0.574569582939148,0.3739394545555115,0.847719669342041,1.680712103843689,-2.0553317070007324,-2.4905805587768555,7.791187286376953,-1.9430961608886719,-0.7244627475738525,-0.7841060161590576,0.34808602929115295,32.91803741455078,-15.090980529785156,1.6910362243652344,-0.3192744255065918,0.6205959320068359,0.1268022060394287,-2.1713061332702637,7.170591354370117,-2.0698983669281006
3_20251106_150621,1762412746515,3,0.4774848222732544,0.5577623844146729,0.5660451650619507,0.3748362958431244,0.8170910477638245,1.6704050302505493,-2.045464038848877,-2.4415016174316406,7.948000907897949,-1.927534580230713,-0.7110236883163452,-0.8354185819625854,0.3761857748031616,32.970252990722656,-15.377189636230469,0.565302848815918,-0.2161564826965332,0.6219277381896973,0.1138911247253418,-2.2253451347351074,7.326073169708252,-2.0414257049560547
3_20251106_150621,1762412746535,3,0.4848152697086334,0.559576153755188,0.5575582981109619,0.37544307112693787,0.7874313592910767,1.6631590127944946,-2.034379005432129,-2.4103784561157227,8.163469314575195,-1.4786410331726074,-0.7360691428184509,-0.8879530429840088,0.4085616171360016,32.864463806152344,-15.661575317382812,-0.5259933471679688,-0.148026704788208,0.669917106628418,0.4502277374267578,-2.2623517513275146,7.493552207946777,-1.9288687705993652
3_20251106_150621,1762412746553,3,0.49239885807037354,0.5617802739143372,0.5484281182289124,0.37572982907295227,0.7618316411972046,1.6597274541854858,-2.0231971740722656,-2.3601021766662598,8.615954399108887,-1.2368369102478027,-0.7403451800346375,-0.8506902456283569,0.38046184182167053,32.668739318847656,-16.02739715576172,-1.5682411193847656,-0.0782003402709961,0.8979215621948242,0.5536254644393921,-2.2819018363952637,7.7180328369140625,-1.7904623746871948
3_20251106_150621,1762412746572,3,0.5000911355018616,0.5639602541923523,0.5389637351036072,0.37599968910217285,0.735466718673706,1.6597352027893066,-2.009503126144409,-2.5348713397979736,8.975069046020508,-0.8861015439033508,-0.7403451800346375,-0.8506902456283569,0.38046184182167053,32.524681091308594,-16.339683532714844,-2.620987892150879,-0.2023756504058838,1.0056285858154297,0.7234887480735779,-2.33249568939209,7.969440460205078,-1.6095902919769287
3_20251106_150621,1762412746591,3,0.507723867893219,0.5653039216995239,0.530074954032898,0.37638866901397705,0.735466718673706,1.6597352027893066,-2.009503126144409,-2.5348713397979736,8.975069046020508,-0.8861015439033508,-0.8313640356063843,-0.71385657787323,0.16360484063625336,32.35655212402344,-16.653152465820312,-3.715264320373535,-0.2023756504058838,1.0056285858154297,0.7234887480735779,-2.33249568939209,7.969440460205078,-1.6095902919769287
3_20251106_150621,1762412746609,3,0.5156874656677246,0.5654122233390808,0.5219027996063232,0.3768194913864136,0.685825765132904,1.6669409275054932,-1.9758684635162354,-2.533674478530884,9.013374328613281,-0.2025863379240036,-0.85640949010849,-0.6784263849258423,0.09518799185752869,32.097373962402344,-16.859825134277344,-4.8246049880981445,-0.1155388355255127,0.6819076538085938,0.9441508650779724,-2.418135643005371,8.331466674804688,-1.1467372179031372
3_20251106_150621,1762412746629,3,0.523913562297821,0.5645642876625061,0.5142856240272522,0.377216100692749,0.6598667502403259,1.6744407415390015,-1.9533864259719849,-2.751537561416626,9.240814208984375,0.21159273386001587,-0.884509265422821,-0.6637656688690186,0.03898844122886658,31.77837562561035,-17.045761108398438,-5.895320892333984,-0.2667214870452881,0.72747802734375,1.0866639614105225,-2.484816074371338,8.513336181640625,-0.8750712871551514
3_20251106_150621,1762412746649,3,0.5324452519416809,0.563245415687561,0.5067793726921082,0.37740078568458557,0.6333504319190979,1.684486746788025,-1.9271639585494995,-3.095090627670288,9.474239349365234,0.7251268625259399,-0.8674050569534302,-0.6796481013298035,0.031047198921442032,31.528064727783203,-17.089599609375,-6.960680961608887,-0.4882194995880127,0.7687225341796875,1.280158519744873,-2.6068711280822754,8.705516815185547,-0.5550316572189331
3_20251106_150621,1762412746669,3,0.5411326289176941,0.5615212917327881,0.4994148910045624,0.37743091583251953,0.6060826182365417,1.6962326765060425,-1.897032618522644,-3.2902095317840576,9.429948806762695,1.1620498895645142,-0.7910469770431519,-0.6936980485916138,0.109848752617836,31.254493713378906,-17.110313415527344,-7.985945701599121,-0.54667067527771,0.5795459747314453,1.3736652135849,-2.7435388565063477,8.85040283203125,-0.21161536872386932
3_20251106_150621,1762412746686,3,0.5495559573173523,0.5601696968078613,0.49182021617889404,0.3772413730621338,0.5827842354774475,1.706375241279602,-1.8696082830429077,-3.3261208534240723,9.1498384475708,1.1967644691467285,-0.6792587041854858,-0.630778968334198,0.19964586198329926,30.988689422607422,-16.981285095214844,-8.913429260253906,-0.4660656452178955,0.2395486831665039,1.1267038583755493,-2.8600552082061768,8.910289764404297,0.07006058096885681
3_20251106_150621,1762412746706,3,0.556976318359375,0.5594876408576965,0.48424938321113586,0.3771651089191437,0.555921196937561,1.7192689180374146,-1.8354922533035278,-3.1310019493103027,9.422765731811523,1.2099318504333496,-0.6792587041854858,-0.630778968334198,0.19964586198329926,30.794492721557617,-16.87274169921875,-9.824980735778809,-0.21675729751586914,0.40998077392578125,0.9118970632553101,-2.9142446517944336,9.012784957885742,0.29803481698036194
3_20251106_150621,1762412746726,3,0.563299834728241,0.5592733025550842,0.4769028425216675,0.37745240330696106,0.5298806428909302,1.7349148988723755,-1.7993309497833252,-3.0855140686035156,10.13022232055664,1.531938076019287,-0.6499372124671936,-0.5696924924850464,0.2595106065273285,30.514698028564453,-16.770164489746094,-10.699417114257812,-0.13701534271240234,0.8939495086669922,0.9871225953102112,-2.9484987258911133,9.236272811889648,0.5448154807090759
3_20251106_150621,1762412746745,3,0.5693252086639404,0.5587823987007141,0.46957650780677795,0.37832382321357727,0.5060228705406189,1.751974105834961,-1.7632712125778198,-3.07833194732666,10.307385444641113,1.792894959449768,-0.763558030128479,-0.38704392313957214,0.2185826599597931,30.248498916625977,-16.641677856445312,-11.572835922241211,-0.1038665771484375,0.8568897247314453,0.9984636306762695,-2.9744653701782227,9.450495719909668,0.7944313287734985
3_20251106_150621,1762412746764,3,0.5754128098487854,0.557413637638092,0.4624902009963989,0.3798591196537018,0.4834408462047577,1.7694737911224365,-1.7263046503067017,-2.9442625045776367,9.92193603515625,1.7821214199066162,-0.763558030128479,-0.38704392313957214,0.2185826599597931,29.945669174194336,-16.49248504638672,-12.244452476501465,0.02416229248046875,0.3771524429321289,0.7901520729064941,-2.9684247970581055,9.544783592224121,0.9919693470001221
3_20251106_150621,1762412746782,3,0.5810089707374573,0.555353581905365,0.45645004510879517,0.38165998458862305,0.4632059931755066,1.7856394052505493,-1.6915488243103027,-2.9322919845581055,9.713648796081543,1.595381736755371,-0.6914759874343872,-0.25937315821647644,0.1556636095046997,29.695417404174805,-16.26531219482422,-12.85845947265625,0.02890634536743164,0.13509178161621094,0.4827299118041992,-2.961198329925537,9.578557014465332,1.1126518249511719
3_20251106_150621,1762412746802,3,0.585882306098938,0.5530432462692261,0.4515952467918396,0.38333645462989807,0.4428042769432068,1.800804615020752,-1.6578344106674194,-3.439840793609619,9.500574111938477,1.3954745531082153,-0.6597110033035278,-0.1481957733631134,0.1043509691953659,29.376184463500977,-16.180641174316406,-13.437273025512695,-0.38291406631469727,-0.062386512756347656,0.22625815868377686,-3.056926727294922,9.562960624694824,1.1692163944244385
3_20251106_150621,1762412746820,3,0.5900338888168335,0.5492995381355286,0.44813698530197144,0.3863978087902069,0.42029035091400146,1.8157126903533936,-1.6221411228179932,-3.806137800216675,9.453888893127441,1.856338620185852,-0.9303240776062012,-0.058398667722940445,0.2680627107620239,29.011028289794922,-16.048919677734375,-14.016992568969727,-0.5993688106536865,-0.08725738525390625,0.549697756767273,-3.2067689895629883,9.541146278381348,1.306640863418579
3_20251106_150621,1762412746839,3,0.5950532555580139,0.5455706715583801,0.44307851791381836,0.38980212807655334,0.3964601755142212,1.8305448293685913,-1.5832993984222412,-3.6397480964660645,9.516136169433594,2.3423407077789307,-0.9804149866104126,0.0937066525220871,0.4122267961502075,28.711654663085938,-16.02678680419922,-14.460983276367188,-0.34638333320617676,-0.020008087158203125,0.8285598754882812,-3.2933647632598877,9.536144256591797,1.5137808322906494
3_20251106_150621,1762412746858,3,0.5997971892356873,0.5416465401649475,0.43708086013793945,0.39474380016326904,0.3751164376735687,1.8438758850097656,-1.5474066734313965,-3.233948230743408,9.516136169433594,1.8192299604415894,-1.0017952919006348,0.3197265863418579,0.45620906352996826,28.450756072998047,-15.964874267578125,-14.875677108764648,0.047533273696899414,-0.0160064697265625,0.24435937404632568,-3.2814815044403076,9.532142639160156,1.5748705863952637
3_20251106_150621,1762412746877,3,0.6033191084861755,0.5370267629623413,0.43181848526000977,0.4014238715171814,0.3751164376735687,1.8438758850097656,-1.5474066734313965,-3.233948230743408,9.516136169433594,1.8192299604415894,-1.1905524730682373,0.4113563001155853,0.4745350182056427,28.2177677154541,-15.826972961425781,-15.193192481994629,0.047533273696899414,-0.0160064697265625,0.24435937404632568,-3.2814815044403076,9.532142639160156,1.5748705863952637
3_20251106_150621,1762412746898,3,0.6064438223838806,0.5312485098838806,0.42703554034233093,0.4094405174255371,0.3359204828739166,1.8744356632232666,-1.4689674377441406,-2.9023656845092773,10.366040229797363,3.2748422622680664,-1.354875087738037,0.5304749011993408,0.4959152638912201,28.2177677154541,-15.826972961425781,-15.193192481994629,0.2650430202484131,0.6060914993286133,1.2613146305084229,-3.1674087047576904,9.75994873046875,2.0135276317596436
3_20251106_150621,1762412746916,3,0.6101106405258179,0.5240841507911682,0.4215833246707916,0.4187700152397156,0.3208118975162506,1.889673113822937,-1.431523323059082,-2.8520894050598145,10.36843490600586,3.0976788997650146,-1.3585402965545654,0.7583274245262146,0.429941862821579,27.957489013671875,-15.74102783203125,-15.499228477478027,0.2522554397583008,0.4867887496948242,0.8673210144042969,-3.1043448448181152,9.881646156311035,2.2303578853607178
3_20251106_150621,1762412746935,3,0.6133161783218384,0.5153768658638,0.41702619194984436,0.42932403087615967,0.3208118975162506,1.889673113822937,-1.431523323059082,-2.8520894050598145,10.36843490600586,3.0976788997650146,-1.4471156597137451,0.9226500391960144,0.37374231219291687,27.767927169799805,-15.676773071289062,-15.66768741607666,0.2522554397583008,0.4867887496948242,0.8673210144042969,-3.1043448448181152,9.881646156311035,2.2303578853607178
3_20251106_150621,1762412746954,3,0.6160447001457214,0.5052834749221802,0.41384026408195496,0.44035646319389343,0.2948046922683716,1.9221211671829224,-1.3518003225326538,-2.5492360591888428,10.47616958618164,3.4962961673736572,-1.6151034832000732,0.9800713062286377,0.37435320019721985,27.577674865722656,-15.61346435546875,-15.741532325744629,0.37423086166381836,0.4387197494506836,0.9099864959716797,-2.923466920852661,10.037449836730957,2.5863096714019775
3_20251106_150621,1762412746973,3,0.618879497051239,0.49363672733306885,0.4108218848705292,0.4522569179534912,0.2844996750354767,1.9403058290481567,-1.307823657989502,-2.528886318206787,10.943017959594727,4.65623664855957,-1.6151034832000732,0.9800713062286377,0.37435320019721985,27.4903507232666,-15.443611145019531,-15.782308578491211,0.31566429138183594,0.7244548797607422,1.6559417247772217,-2.844550609588623,10.218563079833984,3.0002949237823486
3_20251106_150621,1762412746992,3,0.6219156384468079,0.4810730218887329,0.40715083479881287,0.4647772014141083,0.27588796615600586,1.959470272064209,-1.2601954936981201,-2.4151663780212402,10.90710735321045,5.132662773132324,-1.5173650979995728,1.0668140649795532,0.4177245795726776,27.410898208618164,-15.336830139160156,-15.715785026550293,0.3435072898864746,0.5508356094360352,1.7058944702148438,-2.758673667907715,10.356271743774414,3.4267683029174805
3_20251106_150621,1762412747011,3,0.6242694854736328,0.4684053361415863,0.40371012687683105,0.47739100456237793,0.26925358176231384,1.9781434535980225,-1.2110631465911865,-2.1949095726013184,10.526445388793945,4.8429765701293945,-1.5173650979995728,1.0668140649795532,0.4177245795726776,27.3448429107666,-15.204414367675781,-15.621210098266602,0.45101118087768555,0.136138916015625,1.1329665184020996,-2.645920753479004,10.39030647277832,3.710010051727295
3_20251106_150621,1762412747031,3,0.6251439452171326,0.4564834535121918,0.4014507234096527,0.48954594135284424,0.2647472023963928,1.9963825941085815,-1.159924030303955,-1.9459232091903687,10.247532844543457,4.370141983032227,-1.210711121559143,1.1529461145401,0.5661646723747253,27.300960540771484,-15.096595764160156,-15.418052673339844,0.5599981546401978,-0.11421871185302734,0.5281057357788086,-2.5059213638305664,10.361751556396484,3.842036247253418
3_20251106_150621,1762412747049,3,0.6245331168174744,0.44554072618484497,0.3998071849346161,0.5016035437583923,0.2625620365142822,2.012017011642456,-1.1137442588806152,-1.8286124467849731,10.378011703491211,4.839385509490967,-1.2400325536727905,1.11201810836792,0.7170482873916626,27.193328857421875,-15.042976379394531,-15.218402862548828,0.5418471097946167,0.01300811767578125,0.7978792190551758,-2.37045955657959,10.36500358581543,4.041506290435791
3_20251106_150621,1762412747068,3,0.6229496598243713,0.435104638338089,0.39770081639289856,0.5142486691474915,0.262547105550766,2.028407096862793,-1.0640976428985596,-1.5772318840026855,10.624603271484375,5.258353233337402,-1.2131544351577759,1.1480591297149658,0.822117030620575,27.155807495117188,-15.023475646972656,-14.8949556350708,0.6345820426940918,0.20767974853515625,0.9734773635864258,-2.2118139266967773,10.416923522949219,4.284875869750977
3_20251106_150621,1762412747088,3,0.6206640005111694,0.4252324402332306,0.3945896029472351,0.5274965763092041,0.2651212811470032,2.0446197986602783,-1.0138750076293945,-1.2683932781219482,10.650938034057617,5.399604797363281,-1.1502354145050049,1.1987608671188354,0.801347553730011,27.1367244720459,-15.103256225585938,-14.532090187072754,0.7547364234924316,0.1872119903564453,0.8917832374572754,-2.02312970161438,10.463726043701172,4.507821559906006
3_20251106_150621,1762412747107,3,0.6174694299697876,0.41530680656433105,0.3919060528278351,0.5409818887710571,0.2651212811470032,2.0446197986602783,-1.0138750076293945,-1.2683932781219482,10.650938034057617,5.399604797363281,-1.0940358638763428,1.3129925727844238,0.7219352126121521,27.090646743774414,-15.234580993652344,-14.198294639587402,0.7547364234924316,0.1872119903564453,0.8917832374572754,-2.02312970161438,10.463726043701172,4.507821559906006
3_20251106_150621,1762412747126,3,0.6137886643409729,0.404997855424881,0.3901233673095703,0.5541154742240906,0.2792818546295166,2.076615333557129,-0.9152764678001404,-0.5429813861846924,10.91788101196289,5.046474933624268,-1.0952576398849487,1.3850746154785156,0.646187961101532,26.965517044067383,-15.471534729003906,-13.829004287719727,1.0055195093154907,0.3375835418701172,0.31064653396606445,-1.548500895500183,10.580297470092773,4.735828399658203
3_20251106_150621,1762412747145,3,0.6097384691238403,0.39391374588012695,0.38941046595573425,0.5669307112693787,0.29182901978492737,2.0946788787841797,-0.8643262386322021,-0.2580835819244385,11.21594524383545,5.560009002685547,-1.14229416847229,1.3618618249893188,0.6052600145339966,26.8861141204834,-15.755805969238281,-13.431775093078613,1.0323338508605957,0.5085182189941406,0.6593446731567383,-1.2904174327850342,10.707427024841309,4.900664329528809
3_20251106_150621,1762412747164,3,0.6057811379432678,0.3822808563709259,0.3887583613395691,0.5794458389282227,0.30619534850120544,2.1123831272125244,-0.8151782751083374,-0.18147242069244385,11.218339920043945,6.054390907287598,-1.0873163938522339,1.3465901613235474,0.5808254480361938,27.614614486694336,-16.27710723876953,-11.968655586242676,0.8871560096740723,0.40873050689697266,0.9229812622070312,-1.0686284303665161,10.809609413146973,5.131409645080566
3_20251106_150621,1762412747184,3,0.6018499732017517,0.37061765789985657,0.38786786794662476,0.591589093208313,0.323251336812973,2.131035089492798,-0.7627550363540649,-0.18386653065681458,11.121378898620605,6.208809852600098,-1.0873163938522339,1.3465901613235474,0.5808254480361938,27.411645889282227,-16.59484100341797,-11.536310195922852,0.707809567451477,0.24941539764404297,0.8619203567504883,-0.8916760683059692,10.871963500976562,5.346889495849609
3_20251106_150621,1762412747202,3,0.5974088907241821,0.35924938321113586,0.38757914304733276,0.6031790375709534,0.323251336812973,2.131035089492798,-0.7627550363540649,-0.18386653065681458,11.121378898620605,6.208809852600098,-0.846635639667511,1.397291898727417,0.5631103515625,27.31392478942871,-16.981033325195312,-11.074102401733398,0.707809567451477,0.24941539764404297,0.8619203567504883,-0.8916760683059692,10.871963500976562,5.346889495849609
3_20251106_150621,1762412747221,3,0.5923318862915039,0.34834903478622437,0.38804560899734497,0.6141794919967651,0.3569698929786682,2.162578821182251,-0.6658886075019836,-0.20301932096481323,10.634180068969727,6.073543548583984,-0.7556167840957642,1.5335148572921753,0.6406901478767395,27.17137908935547,-17.307083129882812,-10.666601181030273,0.45855242013931274,-0.19144439697265625,0.415069580078125,-0.661571741104126,10.825624465942383,5.658473968505859
3_20251106_150621,1762412747240,3,0.5859871506690979,0.33730608224868774,0.38956353068351746,0.6253670454025269,0.3760257661342621,2.1761951446533203,-0.6179190278053284,0.18482467532157898,10.447440147399902,6.1513519287109375,-0.6835347414016724,1.5683339834213257,0.7866868376731873,26.99137306213379,-17.648338317871094,-10.233802795410156,0.6771171689033508,-0.3025474548339844,0.3943023681640625,-0.49229249358177185,10.749987602233887,5.757049560546875
3_20251106_150621,1762412747260,3,0.5784438252449036,0.3266858458518982,0.39145633578300476,0.6367425322532654,0.3760257661342621,2.1761951446533203,-0.6179190278053284,0.18482467532157898,10.447440147399902,6.1513519287109375,-0.6053440570831299,1.6043750047683716,0.8972533345222473,26.834131240844727,-18.013397216796875,-9.773518562316895,0.6771171689033508,-0.3025474548339844,0.3943023681640625,-0.49229249358177185,10.749987602233887,5.757049560546875
3_20251106_150621,1762412747278,3,0.5696224570274353,0.3169196844100952,0.3932792544364929,0.6484008431434631,0.42099395394325256,2.199763298034668,-0.5295907258987427,1.4285590648651123,10.48335075378418,5.679714202880859,-0.5314294099807739,1.563447117805481,0.9375703930854797,26.757368087768555,-18.44904327392578,-9.230287551879883,1.336792230606079,-0.19497203826904297,-0.10427188873291016,0.09176687896251678,10.678322792053223,5.7839860916137695
3_20251106_150621,1762412747299,3,0.5597126483917236,0.30762621760368347,0.3953632116317749,0.6601331830024719,0.45325326919555664,2.2107865810394287,-0.4841282069683075,2.013916015625,10.391179084777832,5.623452663421631,-0.49538835883140564,1.4137853384017944,0.922298789024353,26.59902572631836,-18.827194213867188,-8.716201782226562,1.5377192497253418,-0.22971534729003906,-0.12842702865600586,0.4761967062950134,10.620894432067871,5.751879692077637
3_20251106_150621,1762412747318,3,0.5497422814369202,0.2995277941226959,0.3970198929309845,0.6711495518684387,0.48537057638168335,2.2191877365112305,-0.4447213411331177,2.076162815093994,10.22957706451416,5.872439384460449,-0.4758407175540924,1.270232081413269,0.7365959286689758,26.438568115234375,-19.243011474609375,-8.202909469604492,1.2799729108810425,-0.31305408477783203,0.09644794464111328,0.7961899042129517,10.542631149291992,5.775991439819336
3_20251106_150621,1762412747336,3,0.5406918525695801,0.2923150956630707,0.39800915122032166,0.6810234189033508,0.5184117555618286,2.225285291671753,-0.4079069197177887,1.718245029449463,9.856098175048828,5.549235820770264,-0.4758407175540924,1.270232081413269,0.7365959286689758,26.438568115234375,-19.243011474609375,-8.202909469604492,0.7376440763473511,-0.5492267608642578,-0.18140459060668945,0.9806009531021118,10.405324935913086,5.730640411376953
3_20251106_150621,1762412747355,3,0.5335718989372253,0.2846998870372772,0.39941322803497314,0.688996434211731,0.5503500699996948,2.2284677028656006,-0.37382176518440247,1.1807698011398315,9.453889846801758,5.406786918640137,-0.5601401329040527,1.3649160861968994,0.19048288464546204,26.363611221313477,-19.652999877929688,-7.713215351104736,0.1601351499557495,-0.7611474990844727,-0.2590827941894531,1.020634651184082,10.21503734588623,5.66586971282959
3_20251106_150621,1762412747376,3,0.5282111167907715,0.2751660943031311,0.40166449546813965,0.6956596374511719,0.5503500699996948,2.2284677028656006,-0.37382176518440247,1.1807698011398315,9.453889846801758,5.406786918640137,-0.6138961315155029,1.4327219724655151,0.27600395679473877,26.298725128173828,-20.099868774414062,-7.223823070526123,0.1601351499557495,-0.7611474990844727,-0.2590827941894531,1.020634651184082,10.21503734588623,5.66586971282959
3_20251106_150621,1762412747394,3,0.523200511932373,0.26405787467956543,0.4038907289505005,0.7024292945861816,0.6104711890220642,2.225504159927368,-0.3080578148365021,0.9641038179397583,8.963098526000977,5.903562545776367,-0.4147542417049408,1.3221555948257446,0.6070926189422607,26.272314071655273,-20.50695037841797,-6.705134868621826,-0.026986360549926758,-0.8322687149047852,0.18410873413085938,0.9910901784896851,9.795367240905762,5.719453811645508
3_20251106_150621,1762412747413,3,0.5164079070091248,0.2540733516216278,0.40588662028312683,0.7099476456642151,0.6367377042770386,2.22121524810791,-0.2792045474052429,1.2789278030395508,9.104351043701172,5.945459365844727,-0.14108684659004211,1.085750937461853,0.9027511477470398,26.2725887298584,-20.87450408935547,-6.211706638336182,0.2302701473236084,-0.5528125762939453,0.18080472946166992,1.0486576557159424,9.657163619995117,5.764654636383057
3_20251106_150621,1762412747431,3,0.5072779059410095,0.24808140099048615,0.4077986478805542,0.7175130844116211,0.6642442941665649,2.2167179584503174,-0.24914121627807617,1.4740469455718994,9.585563659667969,6.17648983001709,-0.020135629922151566,0.9629670977592468,0.922909677028656,26.260578155517578,-21.24298858642578,-5.705252647399902,0.3403114080429077,-0.05727958679199219,0.3294677734375,1.1337355375289917,9.642843246459961,5.84702205657959
3_20251106_150621,1762412747452,3,0.49712780117988586,0.2451080083847046,0.40961119532585144,0.7245720624923706,0.691184401512146,2.212449312210083,-0.2202814221382141,1.4285589456558228,9.644220352172852,5.95623254776001,0.015294523909687996,1.0454338788986206,0.7084961533546448,25.39499282836914,-21.97693634033203,-5.968405723571777,0.23585879802703857,0.0011014938354492188,0.08736848831176758,1.1927001476287842,9.643118858337402,5.868864059448242
3_20251106_150621,1762412747470,3,0.48767340183258057,0.24210225045681,0.4119616746902466,0.7306495308876038,0.7182338237762451,2.206932306289673,-0.19274628162384033,1.228651762008667,9.23243522644043,5.433121681213379,0.04705949127674103,1.1144615411758423,0.5142411589622498,25.382278442382812,-22.35797882080078,-5.462215423583984,0.02876126766204834,-0.32854652404785156,-0.34859371185302734,1.1998904943466187,9.560981750488281,5.781715393066406
3_20251106_150621,1762412747490,3,0.47926196455955505,0.23748567700386047,0.41556471586227417,0.7356728315353394,0.7436215877532959,2.199589729309082,-0.1683426797389984,1.0981733798980713,8.869729042053223,5.2044854164123535,0.04705949127674103,1.0643707513809204,0.47697845101356506,25.32415771484375,-22.668067932128906,-4.834756851196289,-0.08137369155883789,-0.5530023574829102,-0.46178388595581055,1.1795470714569092,9.422731399536133,5.666269302368164
3_20251106_150621,1762412747508,3,0.4715738892555237,0.23250173032283783,0.4195869266986847,0.7399377226829529,0.7648801207542419,2.191941261291504,-0.14834056794643402,0.9976211786270142,8.866137504577637,5.3158111572265625,0.025679225102066994,0.8976045846939087,0.5234041213989258,25.215770721435547,-23.01819610595703,-4.291149139404297,-0.14554071426391602,-0.44527530670166016,-0.2803668975830078,1.1431618928909302,9.311412811279297,5.59617805480957
3_20251106_150621,1762412747528,3,0.46401944756507874,0.22812405228614807,0.4229833483695984,0.7441306710243225,0.7845640778541565,2.1839001178741455,-0.1294659525156021,0.9353746175765991,8.99661636352539,5.544447422027588,0.05194640904664993,0.7735990285873413,0.5227932333946228,25.061866760253906,-23.309120178222656,-3.707634925842285,-0.16622984409332275,-0.25183773040771484,-0.04138469696044922,1.1016044616699219,9.248454093933105,5.585832118988037
3_20251106_150621,1762412747546,3,0.4569690227508545,0.22514782845973969,0.42544397711753845,0.7479874491691589,0.8051892518997192,2.174650192260742,-0.11065472662448883,1.0514883995056152,8.997814178466797,5.220047473907471,0.11364375054836273,0.7882598042488098,0.4598742425441742,24.831832885742188,-23.655311584472656,-3.1010866165161133,-0.0400928258895874,-0.20051193237304688,-0.29262781143188477,1.0915812253952026,9.198326110839844,5.5126752853393555
3_20251106_150621,1762412747566,3,0.45020899176597595,0.2224084883928299,0.4281175136566162,0.7513732314109802,0.8240547180175781,2.1648685932159424,-0.09539347141981125,1.1831638813018799,8.67580795288086,4.887267112731934,0.16801071166992188,0.7473318576812744,0.41467025876045227,24.525711059570312,-24.02167510986328,-2.6304683685302734,0.07326614856719971,-0.4180145263671875,-0.5003266334533691,1.1098977327346802,9.093822479248047,5.387593746185303
3_20251106_150621,1762412747584,3,0.44370582699775696,0.21965943276882172,0.43137508630752563,0.7541819214820862,0.8423388600349426,2.154425859451294,-0.08285912871360779,1.2418193817138672,8.674610137939453,4.6717987060546875,0.16923242807388306,0.6483718156814575,0.3780183494091034,24.30815887451172,-24.366661071777344,-2.0639781951904297,0.1055372953414917,-0.3353700637817383,-0.5726361274719238,1.1362820863723755,9.009980201721191,5.244434833526611
3_20251106_150621,1762412747604,3,0.4375859797000885,0.2175074815750122,0.4345822334289551,0.7565363645553589,0.8423388600349426,2.154425859451294,-0.08285912871360779,1.2418193817138672,8.674610137939453,4.6717987060546875,0.14479783177375793,0.5555202960968018,0.283334344625473,24.116992950439453,-24.672523498535156,-1.4821996688842773,0.1055372953414917,-0.3353700637817383,-0.5726361274719238,1.1362820863723755,9.009980201721191,5.244434833526611
3_20251106_150621,1762412747622,3,0.4323940873146057,0.21576166152954102,0.4373842179775238,0.7584044337272644,0.874714732170105,2.1298086643218994,-0.06494540721178055,0.6624473929405212,8.185016632080078,4.554487228393555,0.07577013969421387,0.5078728795051575,0.21186316013336182,23.9190673828125,-24.890609741210938,-0.9666452407836914,-0.359563410282135,-0.5614948272705078,-0.4406089782714844,1.0220108032226562,8.746511459350586,4.995096206665039
3_20251106_150621,1762412747642,3,0.42825913429260254,0.21398696303367615,0.43975159525871277,0.7598830461502075,0.8882400393486023,2.1150197982788086,-0.05859284847974777,0.5056338906288147,8.126361846923828,4.473088264465332,-0.02196822315454483,0.5274205207824707,0.213084876537323,23.733417510986328,-25.11937713623047,-0.5589942932128906,-0.41310155391693115,-0.49611949920654297,-0.4176063537597656,0.9187354445457458,8.622481346130371,4.890694618225098
3_20251106_150621,1762412747660,3,0.4246602952480316,0.2116326242685318,0.44150927662849426,0.7615410685539246,0.8988577127456665,2.101454257965088,-0.05426046624779701,0.5343630909919739,8.24846076965332,4.444359302520752,-0.05495491623878479,0.4962664842605591,0.2857777774333954,23.59942626953125,-25.29460906982422,-0.16184234619140625,-0.30749791860580444,-0.29921627044677734,-0.3570680618286133,0.8418610095977783,8.547677040100098,4.801427364349365
3_20251106_150621,1762412747680,3,0.4207698702812195,0.20897391438484192,0.4426950514316559,0.7637432217597961,0.9091304540634155,2.086425542831421,-0.051005780696868896,0.5343630909919739,8.314298629760742,4.367747783660889,-0.02868773601949215,0.4040259122848511,0.35908156633377075,23.501487731933594,-25.47974395751953,0.20948505401611328,-0.2459983229637146,-0.18670272827148438,-0.34694385528564453,0.7803614139556885,8.501001358032227,4.714691638946533
3_20251106_150621,1762412747698,3,0.4166218638420105,0.207204669713974,0.4434961676597595,0.7660310864448547,0.9170868396759033,2.07326078414917,-0.04849076271057129,0.44458436965942383,8.372953414916992,4.605960845947266,-0.026244277134537697,0.29284852743148804,0.4091724753379822,23.452198028564453,-25.661834716796875,0.5962905883789062,-0.26862168312072754,-0.10243797302246094,-0.08698463439941406,0.7132060527801514,8.475391387939453,4.69294548034668
3_20251106_150621,1762412747717,3,0.41252464056015015,0.20666833221912384,0.44385826587677,0.7681806087493896,0.9243152141571045,2.0606093406677246,-0.045563701540231705,0.43979620933532715,8.675806999206543,4.840582370758057,-0.05495491623878479,0.2592509686946869,0.39939865469932556,23.29583740234375,-25.812728881835938,0.9118919372558594,-0.21872788667678833,0.16033267974853516,0.11810970306396484,0.6585240960121155,8.515474319458008,4.722472667694092
3_20251106_150621,1762412747739,3,0.40864524245262146,0.2067539244890213,0.4437168836593628,0.7703098058700562,0.9318581223487854,2.0481984615325928,-0.04175977036356926,0.5475306510925293,8.924793243408203,4.881281852722168,-0.06167443096637726,0.26108357310295105,0.3260948956012726,23.15106201171875,-25.975250244140625,1.2142038345336914,-0.0887947678565979,0.3274555206298828,0.12704753875732422,0.6363254189491272,8.59733772277832,4.754234313964844
3_20251106_150621,1762412747757,3,0.4050561189651489,0.20644493401050568,0.44348275661468506,0.7724202871322632,0.9372901320457458,2.039393424987793,-0.03867298737168312,0.46134307980537415,8.939157485961914,4.807065010070801,-0.029909463599324226,0.2323729395866394,0.22957822680473328,23.0830078125,-26.081703186035156,1.412384033203125,-0.1399858295917511,0.2734556198120117,0.042264461517333984,0.6013289093971252,8.665701866149902,4.764800548553467
3_20251106_150621,1762412747776,3,0.4021071791648865,0.20590128004550934,0.4434967637062073,0.7740963101387024,0.9417226314544678,2.031140089035034,-0.03568171709775925,0.23150961101055145,8.875714302062988,4.726862907409668,-0.004864010959863663,0.1810603141784668,0.16910262405872345,23.0830078125,-26.081703186035156,1.412384033203125,-0.29585540294647217,0.16800975799560547,-0.030350208282470703,0.5273650288581848,8.707704544067383,4.757213115692139
3_20251106_150621,1762412747795,3,0.39982694387435913,0.20543813705444336,0.4438016712665558,0.7752249240875244,0.9445700645446777,2.0238029956817627,-0.032427359372377396,0.030405305325984955,8.891275405883789,4.907617568969727,-0.004864010959863663,0.1810603141784668,0.16910262405872345,22.989582061767578,-26.20270538330078,1.6498680114746094,-0.3975677788257599,0.14685630798339844,0.12032365798950195,0.42797309160232544,8.74441909790039,4.787293910980225
3_20251106_150621,1762412747814,3,0.39822620153427124,0.20528875291347504,0.44395798444747925,0.7759985327720642,0.946049690246582,2.0175938606262207,-0.028696885332465172,-0.018673717975616455,9.02175521850586,5.020139694213867,-0.053122326731681824,0.13158026337623596,0.14772236347198486,22.89714813232422,-26.322357177734375,1.7521896362304688,-0.3573174476623535,0.22186851501464844,0.18627643585205078,0.33864372968673706,8.799886703491211,4.833863258361816
3_20251106_150621,1762412747834,3,0.3968103229999542,0.2050895094871521,0.4437759220600128,0.776880145072937,0.9465740919113159,2.012190103530884,-0.024778591468930244,0.02442006766796112,9.064847946166992,4.895646572113037,-0.053122326731681824,0.13158026337623596,0.14772236347198486,22.744091033935547,-26.4339599609375,1.906388282775879,-0.25137895345687866,0.21196937561035156,0.04942655563354492,0.2757990062236786,8.85287857055664,4.846220016479492
3_20251106_150621,1762412747854,3,0.3953401744365692,0.20471082627773285,0.4437335133552551,0.7777532935142517,0.9464135766029358,2.007486343383789,-0.02081133797764778,0.05913449823856354,8.994222640991211,4.926770210266113,0.02384663186967373,0.07965676486492157,0.1465006172657013,22.56635284423828,-26.559173583984375,2.005276679992676,-0.173331618309021,0.11307525634765625,0.06444025039672852,0.23246611654758453,8.881147384643555,4.862329959869385
3_20251106_150621,1762412747871,3,0.3938935101032257,0.20475319027900696,0.44391924142837524,0.7783699035644531,0.945824384689331,2.0038416385650635,-0.017566151916980743,0.023223012685775757,8.951128005981445,4.881282806396484,0.02384663186967373,0.07965676486492157,0.1465006172657013,22.449840545654297,-26.680007934570312,2.066068649291992,-0.1673944890499115,0.0559844970703125,0.015162467956542969,0.19061750173568726,8.895143508911133,4.866120338439941
3_20251106_150621,1762412747890,3,0.39262130856513977,0.20529980957508087,0.44415369629859924,0.7787348628044128,0.9442929029464722,1.999475121498108,-0.014476321637630463,-0.13957570493221283,8.714112281799316,4.7364397048950195,0.051335543394088745,0.03811795637011528,0.12634210288524628,22.34964370727539,-26.724838256835938,2.142451286315918,-0.2641545534133911,-0.14482498168945312,-0.1037445068359375,0.12457886338233948,8.85893726348877,4.840184211730957
3_20251106_150621,1762412747910,3,0.3918027877807617,0.20598344504833221,0.44452914595603943,0.778752326965332,0.9415653347969055,1.9944391250610352,-0.011767378076910973,-0.26885703206062317,8.63869857788086,4.7148919105529785,0.02629009075462818,0.02773326076567173,0.01882990635931492,22.311676025390625,-26.752334594726562,2.1404523849487305,-0.31474873423576355,-0.1761913299560547,-0.10023355484008789,0.045891690999269485,8.814889907836914,4.815125465393066
3_20251106_150621,1762412747928,3,0.3914342522621155,0.20635105669498444,0.444933146238327,0.7786096334457397,0.9384818077087402,1.9899588823318481,-0.00933254137635231,-0.25928062200546265,8.744039535522461,4.863326549530029,-0.008529199287295341,0.03567449748516083,0.015775583684444427,22.259220123291016,-26.80695343017578,2.2590808868408203,-0.24413785338401794,-0.056679725646972656,0.03856086730957031,-0.015142768621444702,8.800719261169434,4.824765682220459
3_20251106_150621,1762412747948,3,0.39128372073173523,0.20630089938640594,0.44511982798576355,0.7785918712615967,0.9343538284301758,1.9850574731826782,-0.006536041386425495,-0.3023744225502014,8.744039535522461,4.899237632751465,-0.008529199287295341,0.03567449748516083,0.015775583684444427,22.144611358642578,-26.902000427246094,2.252819061279297,-0.22978532314300537,-0.04534339904785156,0.05957746505737305,-0.07258909195661545,8.789382934570312,4.839660167694092
3_20251106_150621,1762412747967,3,0.3910880386829376,0.20619289577007294,0.44520118832588196,0.7786722779273987,0.9297712445259094,1.9802862405776978,-0.004068785347044468,-0.38497084379196167,8.662639617919922,4.81903600692749,0.04217257350683212,0.006352993194013834,0.04754054918885231,22.07211685180664,-26.882728576660156,2.358534812927246,-0.24990540742874146,-0.1013946533203125,-0.01649951934814453,-0.13506543636322021,8.764034271240234,4.835535526275635
3_20251106_150621,1762412747985,3,0.3907286822795868,0.20637068152427673,0.44546201825141907,0.7786564230918884,0.9249136447906494,1.9756776094436646,-0.0017326611559838057,-0.43285277485847473,8.63630485534668,4.882478713989258,0.04217257350683212,0.006352993194013834,0.04754054918885231,22.068294525146484,-26.94591522216797,2.397764205932617,-0.2382298707962036,-0.10218334197998047,0.03755474090576172,-0.19462290406227112,8.73848819732666,4.844923973083496
3_20251106_150621,1762412748005,3,0.39028969407081604,0.20683109760284424,0.4456815719604492,0.7786287665367126,0.9193167090415955,1.9708770513534546,0.0014223840553313494,-0.3490593433380127,8.759599685668945,5.071613311767578,-0.024411682039499283,0.017348559573292732,0.07808378338813782,22.040904998779297,-26.998001098632812,2.422760009765625,-0.12354914844036102,0.01688861846923828,0.1813516616821289,-0.22551019489765167,8.742711067199707,4.890261650085449
3_20251106_150621,1762412748025,3,0.38980183005332947,0.20712538063526154,0.44556310772895813,0.778862714767456,0.9136531352996826,1.9662514925003052,0.004912760108709335,-0.3394829034805298,8.721294403076172,5.052460193634033,-0.024411682039499283,0.017348559573292732,0.07808378338813782,22.003246307373047,-27.01348114013672,2.4750900268554688,-0.09117816388607025,-0.01713275909423828,0.1297588348388672,-0.24830473959445953,8.73842716217041,4.922701358795166
3_20251106_150621,1762412748043,3,0.3892403542995453,0.20715217292308807,0.44536224007606506,0.7792511582374573,0.9084771871566772,1.9620097875595093,0.00804264098405838,-0.3837738037109375,8.621939659118652,4.981834411621094,-0.01830303482711315,0.043004874140024185,0.07747292518615723,22.047466278076172,-27.08605194091797,2.516016960144043,-0.10837525129318237,-0.09319019317626953,0.04730653762817383,-0.2753985524177551,8.715129852294922,4.93452787399292
3_20251106_150621,1762412748062,3,0.3884942829608917,0.2072281539440155,0.4453680217266083,0.7795999050140381,0.9029402732849121,1.9576319456100464,0.01123875379562378,-0.4017295241355896,8.669821739196777,4.955499172210693,0.047670356929302216,0.026511529460549355,0.11656826734542847,21.996719360351562,-27.115150451660156,2.5946245193481445,-0.10106480121612549,-0.036246299743652344,0.01677703857421875,-0.3006647229194641,8.70606803894043,4.938722133636475
3_20251106_150621,1762412748081,3,0.3875153660774231,0.20762857794761658,0.4455757439136505,0.7798618078231812,0.8974193334579468,1.9533439874649048,0.014511575922369957,-0.395744264125824,8.659048080444336,5.024928092956543,0.051335543394088745,0.04178314283490181,0.11962258815765381,21.88653564453125,-27.13458251953125,2.5629138946533203,-0.07606363296508789,-0.03761577606201172,0.06896495819091797,-0.3196806311607361,8.696663856506348,4.955963134765625
3_20251106_150621,1762412748100,3,0.38652658462524414,0.2080036997795105,0.4462156295776367,0.7798867225646973,0.8920807242393494,1.9490818977355957,0.017392871901392937,-0.35384753346443176,8.627924919128418,4.872902870178223,0.05805505812168121,0.088208869099617,0.1403919905424118,21.88564682006836,-27.13579559326172,2.684560775756836,-0.02733352780342102,-0.05499076843261719,-0.06644821166992188,-0.32651400566101074,8.682915687561035,4.9393510818481445
3_20251106_150621,1762412748120,3,0.3853142261505127,0.20810705423355103,0.4469800889492035,0.7800213098526001,0.8871248364448547,1.944911003112793,0.020021218806505203,-0.2006252408027649,8.712915420532227,4.856143951416016,0.05805505812168121,0.088208869099617,0.1403919905424118,21.878204345703125,-27.26190948486328,2.7359867095947266,0.10071101784706116,0.024000167846679688,-0.06656551361083984,-0.30133625864982605,8.688915252685547,4.9227094650268555
3_20251106_150621,1762412748138,3,0.38375088572502136,0.2081630378961563,0.44775497913360596,0.7803325653076172,0.8832563757896423,1.9415807723999023,0.022107494994997978,-0.1515461951494217,8.784738540649414,4.857341289520264,0.053779006004333496,0.08943060040473938,0.181319922208786,21.8271484375,-27.30303192138672,2.760265350341797,0.11983205378055573,0.07665824890136719,-0.052294254302978516,-0.2713782489299774,8.708080291748047,4.909635543823242
3_20251106_150621,1762412748158,3,0.38199281692504883,0.2086808681488037,0.44841575622558594,0.780677318572998,0.8793480396270752,1.938218593597412,0.024016056209802628,-0.21379277110099792,8.758403778076172,4.813050270080566,0.03972911834716797,0.0576656311750412,0.17032435536384583,21.776809692382812,-27.319976806640625,2.8796863555908203,0.04606837034225464,0.04025840759277344,-0.07726812362670898,-0.25986114144325256,8.718145370483398,4.890318393707275
3_20251106_150621,1762412748177,3,0.38036900758743286,0.2094864845275879,0.44889193773269653,0.7809807062149048,0.8757599592208862,1.9351304769515991,0.025329485535621643,-0.2820245623588562,8.698551177978516,4.741227149963379,-0.009750928729772568,0.08210022002458572,0.11595739424228668,21.67438507080078,-27.414230346679688,2.8739147186279297,-0.017730742692947388,-0.01567554473876953,-0.11927318572998047,-0.2642938196659088,8.714226722717285,4.860500335693359
3_20251106_150621,1762412748196,3,0.37921378016471863,0.2100251317024231,0.4493531882762909,0.7811325788497925,0.8725522756576538,1.932350754737854,0.026630975306034088,-0.19104883074760437,8.770374298095703,4.880084991455078,-0.07877863943576813,0.12119556218385696,0.06708821654319763,21.67438507080078,-27.414230346679688,2.8739147186279297,0.05859600007534027,0.044918060302734375,0.01566791534423828,-0.24964483082294464,8.725456237792969,4.86441707611084
3_20251106_150621,1762412748216,3,0.3783881664276123,0.20959191024303436,0.4496437609195709,0.7814819812774658,0.8725522756576538,1.932350754737854,0.026630975306034088,-0.19104883074760437,8.770374298095703,4.880084991455078,-0.07144826650619507,0.1291368007659912,0.036544982343912125,21.54909896850586,-27.484825134277344,2.8541746139526367,0.05859600007534027,0.044918060302734375,0.01566791534423828,-0.24964483082294464,8.725456237792969,4.86441707611084
3_20251106_150621,1762412748234,3,0.37786194682121277,0.20873652398586273,0.4497932493686676,0.7818794250488281,0.8674741387367249,1.9274077415466309,0.029693374410271645,-0.11802880465984344,8.812271118164062,4.948317527770996,-0.03540724515914917,0.10531307756900787,0.04143190011382103,21.462894439697266,-27.503211975097656,2.8775100708007812,0.08806481957435608,0.06858539581298828,0.053696632385253906,-0.20609362423419952,8.743685722351074,4.894620895385742
3_20251106_150621,1762412748254,3,0.37728869915008545,0.2079804390668869,0.450008749961853,0.7822336554527283,0.8654746413230896,1.9256683588027954,0.03188890963792801,-0.10246717929840088,8.922399520874023,5.096750736236572,-0.015248711220920086,0.055833037942647934,0.0530383326113224,21.436012268066406,-27.543014526367188,2.9298019409179688,0.08290114998817444,0.14297103881835938,0.16170358657836914,-0.18536832928657532,8.779428482055664,4.935047149658203
3_20251106_150621,1762412748272,3,0.3767632246017456,0.20777443051338196,0.4502347409725189,0.7824116349220276,0.863686203956604,1.9244153499603271,0.034075845032930374,-0.21738389134407043,8.874517440795898,5.060839653015137,0.017737986519932747,0.0320093110203743,0.042653631418943405,21.384845733642578,-27.59587860107422,2.8727197647094727,-0.025612443685531616,0.07607078552246094,0.10063409805297852,-0.19177144765853882,8.798446655273438,4.960205554962158
3_20251106_150621,1762412748292,3,0.37636780738830566,0.20801407098770142,0.4504307508468628,0.7824254035949707,0.8612838983535767,1.9229637384414673,0.03617345914244652,-0.36102986335754395,8.756009101867676,4.8908586502075195,0.015294527634978294,0.04667006433010101,0.01882990635931492,21.28725814819336,-27.602371215820312,2.882312774658203,-0.1354067325592041,-0.033949851989746094,-0.05547761917114258,-0.22562313079833984,8.789958953857422,4.946336269378662
3_20251106_150621,1762412748311,3,0.37608954310417175,0.20815107226371765,0.45079317688941956,0.7823140621185303,0.8584914207458496,1.9211138486862183,0.03764832392334938,-0.45320263504981995,8.593210220336914,4.79389762878418,-0.04579194635152817,0.09431751817464828,0.009056070819497108,21.198936462402344,-27.658432006835938,2.9048566818237305,-0.18206360936164856,-0.15739917755126953,-0.12195110321044922,-0.2711390256881714,8.750609397888184,4.915848731994629
3_20251106_150621,1762412748330,3,0.3758341670036316,0.20757824182510376,0.45124584436416626,0.7823280096054077,0.8584914207458496,1.9211138486862183,0.03764832392334938,-0.45320263504981995,8.593210220336914,4.79389762878418,-0.09466111660003662,0.1346345841884613,0.03593411669135094,21.112621307373047,-27.688568115234375,2.846830368041992,-0.18206360936164856,-0.15739917755126953,-0.12195110321044922,-0.2711390256881714,8.750609397888184,4.915848731994629
3_20251106_150621,1762412748349,3,0.3755244314670563,0.20635336637496948,0.45154327154159546,0.782629132270813,0.8524158596992493,1.9150450229644775,0.03966126590967178,-0.25928062200546265,8.408864974975586,4.88966178894043,-0.10015890002250671,0.14624100923538208,0.11107048392295837,21.016555786132812,-27.65819549560547,2.938312530517578,0.03823384642601013,-0.21756744384765625,-0.00047969818115234375,-0.2975144684314728,8.626432418823242,4.890141487121582
3_20251106_150621,1762412748367,3,0.37474995851516724,0.20492155849933624,0.4516046643257141,0.7833408117294312,0.8505171537399292,1.9117358922958374,0.04079717770218849,-0.012688472867012024,8.50103759765625,4.993804931640625,-0.047624535858631134,0.11325432360172272,0.18803942203521729,21.00286102294922,-27.684234619140625,2.9508094787597656,0.22786080837249756,-0.10031604766845703,0.0829305648803711,-0.24054928123950958,8.601353645324707,4.910874366760254
3_20251106_150621,1762412748387,3,0.3731868267059326,0.20399309694766998,0.4514661729335785,0.7844085097312927,0.8496915698051453,1.9082835912704468,0.04214407131075859,0.1525043547153473,8.552511215209961,4.9866228103637695,0.02934441529214382,0.06377428025007248,0.23751947283744812,20.96017074584961,-27.787750244140625,3.0148086547851562,0.314442902803421,-0.039073944091796875,0.06059885025024414,-0.16193854808807373,8.591585159301758,4.926023960113525
3_20251106_150621,1762412748407,3,0.37128013372421265,0.20432117581367493,0.45137256383895874,0.7852813005447388,0.8496499061584473,1.9048125743865967,0.04291888326406479,0.08427252620458603,8.63750171661377,4.735241889953613,0.09043088555335999,0.003298669820651412,0.25584539771080017,20.921497344970703,-27.827804565429688,3.012544631958008,0.19696886837482452,0.03673362731933594,-0.15262556076049805,-0.1126963421702385,8.600768089294434,4.887867450714111
3_20251106_150621,1762412748425,3,0.36904376745224,0.2056964933872223,0.4513377547264099,0.7859960794448853,0.8496382236480713,1.9020323753356934,0.04281437024474144,-0.10366423428058624,8.619545936584473,4.589202404022217,0.09226348996162415,-0.032742347568273544,0.22408044338226318,20.844558715820312,-27.89575958251953,3.0488319396972656,0.007225692272186279,0.01502227783203125,-0.23893213272094727,-0.11088992655277252,8.604523658752441,4.828134536743164
3_20251106_150621,1762412748445,3,0.3672816753387451,0.20783540606498718,0.4515209197998047,0.7861536145210266,0.8496382236480713,1.9020323753356934,0.04281437024474144,-0.10366423428058624,8.619545936584473,4.589202404022217,-0.0011988207697868347,0.011239911429584026,0.19353720545768738,20.780712127685547,-27.950096130371094,3.058839797973633,0.007225692272186279,0.01502227783203125,-0.23893213272094727,-0.11088992655277252,8.604523658752441,4.828134536743164
3_20251106_150621,1762412748464,3,0.3659377694129944,0.20949654281139374,0.4518352448940277,0.7861588001251221,0.8492028117179871,1.8971080780029297,0.0418880358338356,-0.055782243609428406,8.812271118164062,4.941134452819824,-0.11359792947769165,0.0680503323674202,0.18437424302101135,20.676483154296875,-28.07000732421875,3.1066055297851562,0.05844379961490631,0.16034698486328125,0.11637163162231445,-0.11422604322433472,8.651924133300781,4.82476282119751
3_20251106_150621,1762412748482,3,0.3646749258041382,0.2098589390516281,0.45170027017593384,0.7867262959480286,0.8497318625450134,1.8960416316986084,0.042460665106773376,0.1381397545337677,8.966690063476562,5.142238616943359,-0.15819105505943298,0.0833219513297081,0.16055051982402802,20.584836959838867,-28.188583374023438,3.100797653198242,0.2018926441669464,0.2518129348754883,0.2539806365966797,-0.06375288963317871,8.714877128601074,4.88825798034668
3_20251106_150621,1762412748501,3,0.36339691281318665,0.20945842564105988,0.45099857449531555,0.7878262400627136,0.8497318625450134,1.8960416316986084,0.042460665106773376,0.1381397545337677,8.966690063476562,5.142238616943359,-0.1215391755104065,0.07171551883220673,0.12939642369747162,20.555728912353516,-28.277801513671875,3.0709362030029297,0.2018926441669464,0.2518129348754883,0.2539806365966797,-0.06375288963317871,8.714877128601074,4.88825798034668
3_20251106_150621,1762412748521,3,0.3623681962490082,0.20919442176818848,0.45002856850624084,0.7889240980148315,0.8529293537139893,1.896403193473816,0.046226292848587036,0.27699747681617737,9.070833206176758,5.2511701583862305,-0.05067886412143707,0.045448336750268936,0.10801616311073303,20.453109741210938,-28.37232208251953,3.0921974182128906,0.2314871847629547,0.2358560562133789,0.2359027862548828,0.04551028460264206,8.834977149963379,5.015267372131348
3_20251106_150621,1762412748540,3,0.36146581172943115,0.20927025377750397,0.4493446946144104,0.7897074222564697,0.8555941581726074,1.8975346088409424,0.049072232097387314,0.27699747681617737,9.013375282287598,5.212864875793457,-0.009140064008533955,0.014294235035777092,0.08174897730350494,20.366186141967773,-28.414878845214844,3.0203914642333984,0.18518975377082825,0.14271831512451172,0.15807771682739258,0.09180772304534912,8.870656967163086,5.0547871589660645
3_20251106_150621,1762412748558,3,0.36077260971069336,0.2098115235567093,0.4490489661693573,0.7900488972663879,0.8582313060760498,1.8986676931381226,0.051617685705423355,0.23749485611915588,8.93796157836914,5.100342273712158,-0.007918334566056728,0.01185077615082264,0.04143190011382103,20.229022979736328,-28.47425079345703,3.0544891357421875,0.11654971539974213,0.05384349822998047,0.03644418716430664,0.12094514071941376,8.88411808013916,5.063898086547852
3_20251106_150621,1762412748578,3,0.36032360792160034,0.21043933928012848,0.44884124398231506,0.7902048826217651,0.8611254692077637,1.9001001119613647,0.05390588194131851,0.15729254484176636,8.961901664733887,4.932755470275879,-0.03479637950658798,0.039339687675237656,-0.006826411932706833,20.130830764770508,-28.4931640625,3.0503005981445312,0.029077917337417603,0.06222724914550781,-0.10491371154785156,0.12821462750434875,8.899674415588379,5.0376691818237305
3_20251106_150621,1762412748597,3,0.3602263927459717,0.2107226699590683,0.44873762130737305,0.7902325391769409,0.8634625673294067,1.9017442464828491,0.05539412423968315,0.028011202812194824,9.027739524841309,4.827414512634277,-0.059841834008693695,0.036285363137722015,-0.06424769759178162,20.130830764770508,-28.4931640625,3.0503005981445312,-0.08016274124383926,0.10245227813720703,-0.16820383071899414,0.10817394405603409,8.925287246704102,4.9956183433532715
3_20251106_150621,1762412748617,3,0.3605170249938965,0.2105105072259903,0.4487166702747345,0.7901684045791626,0.8649227619171143,1.9034488201141357,0.05633827671408653,-0.18027539551258087,8.94514274597168,4.816641807556152,-0.059841834008693695,0.036285363137722015,-0.06424769759178162,20.032230377197266,-28.52423095703125,3.005300521850586,-0.23075947165489197,0.0158843994140625,-0.14318132400512695,0.050484079867601395,8.929258346557617,4.959823131561279
3_20251106_150621,1762412748636,3,0.36143937706947327,0.2101271003484726,0.4489952623844147,0.7896907329559326,0.8651991486549377,1.9047006368637085,0.05679885298013687,-0.34427115321159363,8.845788955688477,4.819035530090332,-0.08244383335113525,0.06499601155519485,-0.11678206920623779,19.999195098876953,-28.463821411132812,3.0051498413085938,-0.3158041834831238,-0.06677532196044922,-0.11262989044189453,-0.02846696227788925,8.912564277648926,4.931665420532227
3_20251106_150621,1762412748655,3,0.3624834716320038,0.20916429162025452,0.44945359230041504,0.789206862449646,0.8645836114883423,1.9057825803756714,0.05754614248871803,-0.35384753346443176,8.84937858581543,5.035701751708984,-0.10382409393787384,0.06560687720775604,-0.055084723979234695,19.999195098876953,-28.463821411132812,3.0051498413085938,-0.26030445098876953,-0.050548553466796875,0.08322906494140625,-0.09354307502508163,8.899927139282227,4.952472686767578
3_20251106_150621,1762412748675,3,0.36328649520874023,0.20786546170711517,0.4498208463191986,0.7889715433120728,0.8633497357368469,1.907006025314331,0.05934394896030426,-0.26885703206062317,8.92599105834961,5.254761695861816,-0.10382409393787384,0.06560687720775604,-0.055084723979234695,19.99839210510254,-28.476516723632812,3.018402099609375,-0.14025117456912994,0.02085113525390625,0.24183130264282227,-0.12860585749149323,8.905139923095703,5.012930393218994
3_20251106_150621,1762412748692,3,0.3635444641113281,0.20670215785503387,0.44994738698005676,0.7890861630439758,0.862218976020813,1.9080793857574463,0.06098952516913414,-0.211398646235466,8.965493202209473,5.132662773132324,-0.06533961743116379,0.0576656274497509,0.009666935540735722,19.975826263427734,-28.45245361328125,2.9638843536376953,-0.06623423099517822,0.048282623291015625,0.09578561782836914,-0.14516441524028778,8.917210578918457,5.036877155303955
3_20251106_150621,1762412748711,3,0.3631792962551117,0.20584708452224731,0.45024195313453674,0.7893097996711731,0.860899031162262,1.909292459487915,0.06253974139690399,-0.18865473568439484,8.943946838378906,4.965075492858887,0.04950295388698578,0.06377428025007248,0.03837757557630539,20.010974884033203,-28.475189208984375,2.9648284912109375,-0.03479225933551788,0.021389007568359375,-0.05744171142578125,-0.15386247634887695,8.922557830810547,5.022517204284668
