session_id,timestamp,label,quaternion_w,quaternion_x,quaternion_y,quaternion_z,position_x,position_y,position_z,accelerometer_x,accelerometer_y,accelerometer_z,gyroscope_x,gyroscope_y,gyroscope_z,magnetometer_x,magnetometer_y,magnetometer_z,linear_acceleration_x,linear_acceleration_y,linear_acceleration_z,gravity_x,gravity_y,gravity_z
2_20251106_213338,1762435980837,2,0.1920851469039917,0.3547589182853699,0.7470428943634033,0.5283713936805725,0.46611693501472473,2.9053242206573486,0.570694625377655,1.259774923324585,9.984182357788086,-2.771454334259033,-0.06551142036914825,0.03696494922041893,0.12967130541801453,20.81304168701172,-20.508403778076172,31.09156608581543,-0.19577312469482422,0.6049728393554688,0.5878098011016846,1.4555480480194092,9.379209518432617,-3.3592641353607178
2_20251106_213338,1762435980856,2,0.19137826561927795,0.3552994132041931,0.7462043166160583,0.5294486284255981,0.48006144165992737,2.9461851119995117,0.5485069155693054,1.4536969661712646,9.84292984008789,-3.086277961730957,-0.06551142036914825,0.03696494922041893,0.12967130541801453,20.81304168701172,-20.508403778076172,31.09156608581543,0.011839151382446289,0.2946739196777344,0.1515364646911621,1.4418578147888184,9.548255920410156,-3.237814426422119
2_20251106_213338,1762435980875,2,0.19056278467178345,0.3563210070133209,0.7455509901046753,0.5299763083457947,0.4870876967906952,2.967891216278076,0.5379685759544373,1.4441206455230713,9.816595077514648,-3.103036880493164,0.036502987146377563,0.008865173906087875,0.12356265634298325,20.746063232421875,-20.624980926513672,31.04619026184082,0.001810312271118164,0.21467113494873047,0.10782217979431152,1.4423103332519531,9.601923942565918,-3.2108590602874756
2_20251106_213338,1762435980895,2,0.18969492614269257,0.3571968376636505,0.7452234029769897,0.5301587581634521,0.49352458119392395,2.988729953765869,0.5277340412139893,1.3555389642715454,9.681327819824219,-3.292170524597168,0.036502987146377563,0.008865173906087875,0.12356265634298325,20.681411743164062,-20.692005157470703,31.0694522857666,-0.06941711902618408,0.0635232925415039,-0.0650491714477539,1.4249560832977295,9.617804527282715,-3.227121353149414
2_20251106_213338,1762435980913,2,0.18878431618213654,0.3572172224521637,0.7452978491783142,0.5303654074668884,0.49917328357696533,3.008293628692627,0.5174649357795715,1.2549867630004883,9.532894134521484,-3.4262404441833496,0.013290127739310265,0.11210132390260696,-0.02548833005130291,20.665096282958984,-20.768009185791016,31.053861618041992,-0.13597548007965088,-0.06792831420898438,-0.15929508209228516,1.3909622430801392,9.600822448730469,-3.2669453620910645
2_20251106_213338,1762435980933,2,0.18807671964168549,0.35655227303504944,0.7455448508262634,0.5307169556617737,0.49917328357696533,3.008293628692627,0.5174649357795715,1.2549867630004883,9.532894134521484,-3.4262404441833496,-0.014809650368988514,0.10293834656476974,-0.05908588320016861,20.675561904907227,-20.80434799194336,30.999494552612305,-0.13597548007965088,-0.06792831420898438,-0.15929508209228516,1.3909622430801392,9.600822448730469,-3.2669453620910645
2_20251106_213338,1762435980952,2,0.18766146898269653,0.3555857837200165,0.7458036541938782,0.5311486124992371,0.5042956471443176,3.0284032821655273,0.5060160756111145,1.149646520614624,9.471844673156738,-3.465743064880371,-0.016031380742788315,0.0894993245601654,-0.056642428040504456,20.645648956298828,-20.906261444091797,30.982885360717773,-0.19305264949798584,-0.10318183898925781,-0.15903806686401367,1.3426991701126099,9.575026512145996,-3.3067049980163574
2_20251106_213338,1762435980971,2,0.18739384412765503,0.35475969314575195,0.746006429195404,0.531510591506958,0.5102313756942749,3.059941053390503,0.48685312271118164,0.9676949977874756,9.338972091674805,-3.3173089027404785,-0.00014889705926179886,0.06872992217540741,-0.02854265458881855,20.592281341552734,-20.98531723022461,31.033403396606445,-0.24881303310394287,-0.1625661849975586,0.004704952239990234,1.2165080308914185,9.501538276672363,-3.3220138549804688
2_20251106_213338,1762435980990,2,0.1870872676372528,0.35422655940055847,0.7461699843406677,0.5317445397377014,0.5118054151535034,3.0739922523498535,0.47821733355522156,0.9102365970611572,9.265953063964844,-3.1592984199523926,-0.00014889705926179886,0.06872992217540741,-0.02854265458881855,20.530336380004883,-21.013866424560547,30.97635841369629,-0.2450171709060669,-0.18846797943115234,0.1301722526550293,1.1552537679672241,9.454421043395996,-3.289470672607422
2_20251106_213338,1762435981009,2,0.1867043673992157,0.3543185889720917,0.7463366389274597,0.5315839052200317,0.5127040147781372,3.086606979370117,0.4702325165271759,0.9377686977386475,9.186946868896484,-3.2095742225646973,0.12996529042720795,0.02658025175333023,0.06675224006175995,20.50627326965332,-21.003437042236328,31.029706954956055,-0.17398810386657715,-0.21397972106933594,0.06391716003417969,1.1117568016052246,9.40092658996582,-3.273491382598877
2_20251106_213338,1762435981029,2,0.18581750988960266,0.35489726066589355,0.7467398047447205,0.5309420228004456,0.5133575797080994,3.098665952682495,0.461477667093277,1.0311386585235596,9.218070983886719,-3.526792526245117,0.1843322366476059,0.024747656658291817,0.10340412706136703,20.483112335205078,-20.980182647705078,31.05628776550293,-0.06449449062347412,-0.1462841033935547,-0.20264077186584473,1.0956331491470337,9.364355087280273,-3.3241517543792725
2_20251106_213338,1762435981047,2,0.18452265858650208,0.3557842969894409,0.7473233938217163,0.5299779772758484,0.5137899518013,3.1088547706604004,0.4529067277908325,1.0443060398101807,9.315031051635742,-3.765005111694336,0.19166262447834015,0.000923932995647192,0.12967130541801453,20.460350036621094,-20.95638656616211,31.0288028717041,-0.0410616397857666,-0.039459228515625,-0.35268259048461914,1.0853676795959473,9.354490280151367,-3.412322521209717
2_20251106_213338,1762435981066,2,0.18323072791099548,0.3570435643196106,0.7478227615356445,0.528873860836029,0.5137899518013,3.1088547706604004,0.4529067277908325,1.0443060398101807,9.315031051635742,-3.765005111694336,0.18127791583538055,-0.005184714216738939,0.14494290947914124,20.383819580078125,-21.012187957763672,31.10590171813965,-0.0410616397857666,-0.039459228515625,-0.35268259048461914,1.0853676795959473,9.354490280151367,-3.412322521209717
2_20251106_213338,1762435981086,2,0.18200525641441345,0.3585290312767029,0.7481754422187805,0.5277920961380005,0.5151568651199341,3.12941312789917,0.4320947825908661,1.220272421836853,9.366504669189453,-3.8799221515655518,0.1733366698026657,-0.009460767731070518,0.13272562623023987,20.33548355102539,-21.003215789794922,31.14475440979004,0.10319352149963379,0.008455276489257812,-0.3046262264251709,1.1170789003372192,9.358049392700195,-3.575295925140381
2_20251106_213338,1762435981105,2,0.18085245788097382,0.35988858342170715,0.7485436797142029,0.5267399549484253,0.5164540410041809,3.1386868953704834,0.4216236472129822,1.3016717433929443,9.360519409179688,-3.7889461517333984,0.1733366698026657,-0.009460767731070518,0.13272562623023987,20.32682228088379,-20.941226959228516,31.145586013793945,0.1476743221282959,0.00197601318359375,-0.17092013359069824,1.1539974212646484,9.358543395996094,-3.6180260181427
2_20251106_213338,1762435981124,2,0.17999021708965302,0.3610306978225708,0.7489524483680725,0.5256715416908264,0.5164540410041809,3.1386868953704834,0.4216236472129822,1.3016717433929443,9.360519409179688,-3.7889461517333984,0.1476803570985794,0.0027565271593630314,0.03376554697751999,20.31786346435547,-20.879642486572266,31.18696403503418,0.1476743221282959,0.00197601318359375,-0.17092013359069824,1.1539974212646484,9.358543395996094,-3.6180260181427
2_20251106_213338,1762435981142,2,0.17935657501220703,0.3616524934768677,0.7494921684265137,0.524690568447113,0.5188623070716858,3.155534505844116,0.4011763334274292,1.0359268188476562,9.310243606567383,-3.826054811477661,0.14034998416900635,0.02719111368060112,-0.021212276071310043,20.296817779541016,-20.818714141845703,31.21433448791504,-0.10467743873596191,-0.04470252990722656,-0.13275551795959473,1.1406042575836182,9.35494613647461,-3.6932992935180664
2_20251106_213338,1762435981161,2,0.1788644939661026,0.3617327809333801,0.7502313852310181,0.5237458944320679,0.5188623070716858,3.155534505844116,0.4011763334274292,1.0359268188476562,9.310243606567383,-3.826054811477661,0.11408279836177826,0.07667116075754166,-0.033429570496082306,20.213123321533203,-20.798892974853516,31.184396743774414,-0.10467743873596191,-0.04470252990722656,-0.13275551795959473,1.1406042575836182,9.35494613647461,-3.6932992935180664
2_20251106_213338,1762435981181,2,0.17825064063072205,0.36117222905158997,0.7509877681732178,0.5232577323913574,0.5192103385925293,3.164029359817505,0.389806866645813,0.9234041571617126,9.277922630310059,-3.8164782524108887,0.08231784403324127,0.100494883954525,-0.010216711089015007,20.210205078125,-20.849254608154297,31.196855545043945,-0.17375999689102173,-0.061618804931640625,-0.09854316711425781,1.0971641540527344,9.3395414352417,-3.717935085296631
2_20251106_213338,1762435981201,2,0.1775059700012207,0.36036980152130127,0.7516569495201111,0.5231033563613892,0.5177469849586487,3.178408622741699,0.3698887825012207,0.8084874153137207,9.407204627990723,-3.8164784908294678,0.09392426908016205,0.08522326499223709,0.038652464747428894,20.150190353393555,-20.828784942626953,31.262514114379883,-0.1889667510986328,0.05575370788574219,-0.05770516395568848,0.9974541664123535,9.35145092010498,-3.7587733268737793
2_20251106_213338,1762435981219,2,0.1767040342092514,0.3599104881286621,0.7522416114807129,0.522850513458252,0.5177469849586487,3.178408622741699,0.3698887825012207,0.8084874153137207,9.407204627990723,-3.8164784908294678,0.1372956484556198,0.04734965041279793,0.10706932097673416,20.18020248413086,-20.726741790771484,31.265607833862305,-0.1889667510986328,0.05575370788574219,-0.05770516395568848,0.9974541664123535,9.35145092010498,-3.7587733268737793
2_20251106_213338,1762435981239,2,0.17568987607955933,0.359996497631073,0.7527603507041931,0.5223863124847412,0.5145720839500427,3.192518711090088,0.3507842421531677,0.8958719968795776,9.529302597045898,-3.955336093902588,0.19349521398544312,-0.0064064436592161655,0.19992074370384216,20.144756317138672,-20.704418182373047,31.305212020874023,-0.05064797401428223,0.1274242401123047,-0.14456987380981445,0.9465199708938599,9.401878356933594,-3.8107662200927734
2_20251106_213338,1762435981259,2,0.17445167899131775,0.3610650897026062,0.7531457543373108,0.5215075612068176,0.5134579539299011,3.200383424758911,0.34061479568481445,1.1173261404037476,9.657387733459473,-4.015188694000244,0.23808835446834564,-0.07665587961673737,0.3049894869327545,20.073261260986328,-20.672183990478516,31.370641708374023,0.13664495944976807,0.2044076919555664,-0.16353797912597656,0.9806811809539795,9.452980041503906,-3.8516507148742676
2_20251106_213338,1762435981276,2,0.17299310863018036,0.36338040232658386,0.7532665133476257,0.5202091932296753,0.5134815573692322,3.2076222896575928,0.3319832980632782,1.4010268449783325,9.857295036315918,-4.042720794677734,0.25702518224716187,-0.12430333346128464,0.38073670864105225,20.073261260986328,-20.672183990478516,31.370641708374023,0.3362765312194824,0.3234519958496094,-0.15285611152648926,1.06475031375885,9.533843040466309,-3.889864683151245
2_20251106_213338,1762435981296,2,0.17130330204963684,0.36667370796203613,0.7529946565628052,0.5188493132591248,0.5154327154159546,3.217125415802002,0.322079062461853,1.6978950500488281,9.998546600341797,-3.9744889736175537,0.2570251226425171,-0.13468803465366364,0.4088364839553833,19.98918342590332,-20.641284942626953,31.489648818969727,0.5065157413482666,0.3717622756958008,-0.06769943237304688,1.1913793087005615,9.626784324645996,-3.906789541244507
2_20251106_213338,1762435981315,2,0.16935598850250244,0.37034040689468384,0.7524162530899048,0.5177222490310669,0.5195324420928955,3.2269322872161865,0.3131091296672821,2.043842315673828,10.07515811920166,-3.918227434158325,0.25213825702667236,-0.11514035612344742,0.3984518051147461,19.92534828186035,-20.684001922607422,31.594533920288086,0.6819703578948975,0.35869884490966797,-0.009150266647338867,1.3618719577789307,9.716459274291992,-3.9090771675109863
2_20251106_213338,1762435981334,2,0.1672079712152481,0.3740121126174927,0.7515964508056641,0.5169711709022522,0.5195324420928955,3.2269322872161865,0.3131091296672821,2.043842315673828,10.07515811920166,-3.918227434158325,0.25213825702667236,-0.11514035612344742,0.3984518051147461,19.861413955688477,-20.726856231689453,31.712934494018555,0.6819703578948975,0.35869884490966797,-0.009150266647338867,1.3618719577789307,9.716459274291992,-3.9090771675109863
2_20251106_213338,1762435981353,2,0.1650722324848175,0.37755754590034485,0.7506627440452576,0.516436755657196,0.5269011855125427,3.2388248443603516,0.30328691005706787,2.2760701179504395,10.192468643188477,-4.029552936553955,0.24725134670734406,-0.12185987085103989,0.3538586497306824,19.752456665039062,-20.709835052490234,31.80366325378418,0.731358528137207,0.38080787658691406,-0.09638047218322754,1.5447115898132324,9.811660766601562,-3.9331724643707275
2_20251106_213338,1762435981372,2,0.16340316832065582,0.3812316060066223,0.7497830390930176,0.5155455470085144,0.545246422290802,3.260533332824707,0.2882113456726074,2.647155284881592,10.200848579406738,-3.687196969985962,0.2857357859611511,-0.22815033793449402,0.28788524866104126,19.653064727783203,-20.74197769165039,31.866792678833008,0.7367830276489258,0.2442922592163086,0.1966874599456787,1.910372257232666,9.95655632019043,-3.8838844299316406
2_20251106_213338,1762435981391,2,0.16254305839538574,0.3849712908267975,0.7495957016944885,0.5133060812950134,0.5580089092254639,3.2719225883483887,0.28150612115859985,2.8769888877868652,10.107479095458984,-3.7602169513702393,0.2857357859611511,-0.22815033793449402,0.28788524866104126,19.53886604309082,-20.824871063232422,31.901342391967773,0.7732934951782227,0.12073802947998047,0.09893393516540527,2.1036953926086426,9.986741065979004,-3.8591508865356445
2_20251106_213338,1762435981410,2,0.16152456402778625,0.38899555802345276,0.7495412826538086,0.5106663703918457,0.5731219053268433,3.282653331756592,0.27506932616233826,3.193009853363037,9.954256057739258,-3.8835132122039795,0.424402117729187,-0.3466581106185913,0.33370012044906616,19.452054977416992,-20.85567855834961,31.910898208618164,0.8714516162872314,-0.025987625122070312,-0.019489765167236328,2.3215582370758057,9.980243682861328,-3.864023447036743
2_20251106_213338,1762435981430,2,0.1607581228017807,0.3939194679260254,0.7495501637458801,0.5071082711219788,0.5920485854148865,3.2927117347717285,0.2690536379814148,3.5760655403137207,9.759136199951172,-3.7255024909973145,0.4757147431373596,-0.4291248321533203,0.3520260751247406,19.446331024169922,-20.944660186767578,32.017181396484375,1.003605842590332,-0.17688655853271484,0.11081671714782715,2.5724596977233887,9.936022758483887,-3.8363192081451416
2_20251106_213338,1762435981450,2,0.16023901104927063,0.39948558807373047,0.7495595216751099,0.5028868913650513,0.5920485854148865,3.2927117347717285,0.2690536379814148,3.5760655403137207,9.759136199951172,-3.7255024909973145,0.5007601380348206,-0.43156829476356506,0.32942408323287964,19.465259552001953,-21.043262481689453,31.989015579223633,1.003605842590332,-0.17688655853271484,0.11081671714782715,2.5724596977233887,9.936022758483887,-3.8363192081451416
2_20251106_213338,1762435981468,2,0.15968362987041473,0.4049575924873352,0.7496846318244934,0.4984811544418335,0.6363696455955505,3.3070995807647705,0.25824761390686035,4.148255348205566,9.299468994140625,-3.951744794845581,0.5496293306350708,-0.46822017431259155,0.22252273559570312,19.58631706237793,-21.04800796508789,32.007171630859375,1.0431756973266602,-0.45201969146728516,-0.09417462348937988,3.1050796508789062,9.75148868560791,-3.857570171356201
2_20251106_213338,1762435981487,2,0.15970085561275482,0.41004934906959534,0.7502797842025757,0.493391752243042,0.6614770889282227,3.3109378814697266,0.25291523337364197,4.173393249511719,9.00140380859375,-3.9266068935394287,0.5887246131896973,-0.47860485315322876,0.061865322291851044,19.756019592285156,-21.04971694946289,32.040809631347656,0.8546507358551025,-0.6000680923461914,-0.05522942543029785,3.318742513656616,9.601471900939941,-3.871377468109131
2_20251106_213338,1762435981506,2,0.16038331389427185,0.41420793533325195,0.7515752911567688,0.48769205808639526,0.687467098236084,3.3117916584014893,0.24755671620368958,4.0979790687561035,8.583634376525879,-3.9780802726745605,0.5887246131896973,-0.47860485315322876,0.061865322291851044,19.90093994140625,-21.065166473388672,32.03264617919922,0.6233892440795898,-0.81427001953125,-0.08536243438720703,3.4745898246765137,9.397904396057129,-3.8927178382873535
2_20251106_213338,1762435981525,2,0.1612928807735443,0.4170995056629181,0.7534710764884949,0.48196879029273987,0.7139467597007751,3.309488534927368,0.24163420498371124,4.126708030700684,8.262825012207031,-4.1959428787231445,0.5887246131896973,-0.4663875699043274,-0.18981094658374786,20.131065368652344,-21.075191497802734,32.04143524169922,0.5216946601867676,-0.9080629348754883,-0.24257993698120117,3.605013370513916,9.17088794708252,-3.9533629417419434
2_20251106_213338,1762435981543,2,0.1629788875579834,0.4193667471408844,0.7557209730148315,0.47587308287620544,0.738897979259491,3.304157018661499,0.23578324913978577,4.059673309326172,7.847448348999023,-4.164819717407227,0.5887246131896973,-0.4663875699043274,-0.18981094658374786,20.393230438232422,-20.934017181396484,32.162506103515625,0.36372804641723633,-1.0587520599365234,-0.16916537284851074,3.6959452629089355,8.906200408935547,-3.995654344558716
2_20251106_213338,1762435981563,2,0.16572129726409912,0.4213535785675049,0.7584133744239807,0.4688355028629303,0.765868067741394,3.2938003540039062,0.22887463867664337,3.904057025909424,7.350673198699951,-4.236642837524414,0.6296526193618774,-0.5610715746879578,-0.31015127897262573,20.791542053222656,-20.758052825927734,32.19488525390625,0.1664893627166748,-1.2444214820861816,-0.19279098510742188,3.737567663192749,8.595094680786133,-4.043851852416992
2_20251106_213338,1762435981582,2,0.16898059844970703,0.42267948389053345,0.7616516351699829,0.4611663818359375,0.7897818684577942,3.2795023918151855,0.2216508835554123,3.5820508003234863,6.7904534339904785,-4.404229640960693,0.6821869611740112,-0.6349862217903137,-0.5208996534347534,21.209484100341797,-20.455181121826172,32.17633056640625,-0.12441349029541016,-1.4437127113342285,-0.2883024215698242,3.7064642906188965,8.234166145324707,-4.115927219390869
2_20251106_213338,1762435981601,2,0.1729164868593216,0.423556387424469,0.765184760093689,0.45298144221305847,0.8097098469734192,3.262150764465332,0.21335192024707794,3.0589401721954346,6.413383483886719,-4.845940589904785,0.6797435283660889,-0.6465926766395569,-0.5978685617446899,21.628738403320312,-20.127330780029297,32.17181396484375,-0.518019437789917,-1.4566264152526855,-0.5840106010437012,3.5769596099853516,7.870009899139404,-4.261929988861084
2_20251106_213338,1762435981620,2,0.17723913490772247,0.42386922240257263,0.7689764499664307,0.444518119096756,0.8277691006660461,3.2380969524383545,0.20121534168720245,2.598076343536377,5.982445240020752,-5.372642517089844,0.6394264698028564,-0.6985161900520325,-0.6791136264801025,22.151119232177734,-19.692668914794922,32.17333984375,-0.7831065654754639,-1.5100517272949219,-0.8885698318481445,3.381182909011841,7.492496967315674,-4.484072685241699
2_20251106_213338,1762435981640,2,0.1824839562177658,0.42375054955482483,0.7727918028831482,0.4358072280883789,0.8277691006660461,3.2380969524383545,0.20121534168720245,2.598076343536377,5.982445240020752,-5.372642517089844,0.5447424054145813,-0.8023632168769836,-0.7505847215652466,22.763919830322266,-19.175891876220703,32.0582275390625,-0.7831065654754639,-1.5100517272949219,-0.8885698318481445,3.381182909011841,7.492496967315674,-4.484072685241699
2_20251106_213338,1762435981659,2,0.18918642401695251,0.4234130382537842,0.7762587666511536,0.42702722549438477,0.841906726360321,3.2061026096343994,0.18443188071250916,2.094118595123291,5.628118991851807,-5.598885536193848,0.45922136306762695,-0.8988798260688782,-0.8153364062309265,23.480554580688477,-18.539745330810547,31.949419021606445,-1.029651403427124,-1.491502285003662,-0.891850471496582,3.123769998550415,7.119621276855469,-4.707035064697266
2_20251106_213338,1762435981680,2,0.19721606373786926,0.42278921604156494,0.7793970108032227,0.4182049334049225,0.848594605922699,3.1418418884277344,0.1496780514717102,0.5834421515464783,5.247457504272461,-5.902935981750488,0.3999674916267395,-0.8897168040275574,-0.8409926891326904,24.25016212463379,-17.825084686279297,31.84415626525879,-1.7336399555206299,-1.2332344055175781,-0.8027243614196777,2.317082166671753,6.480691909790039,-5.1002116203308105
2_20251106_213338,1762435981697,2,0.20554088056087494,0.42161235213279724,0.7824057340621948,0.40967947244644165,0.8434370756149292,3.1097798347473145,0.13109545409679413,-0.1120435893535614,4.838066101074219,-6.461957931518555,0.395691454410553,-0.9043775796890259,-0.8416036367416382,24.25016212463379,-17.825084686279297,31.84415626525879,-1.9433006048202515,-1.314100742340088,-1.0893974304199219,1.8312569856643677,6.152166843414307,-5.372560501098633
2_20251106_213338,1762435981716,2,0.21399998664855957,0.42034393548965454,0.7853308916091919,0.40096184611320496,0.8308821320533752,3.0711140632629395,0.1074533760547638,-0.7488738298416138,4.466980934143066,-6.798328399658203,0.34682226181030273,-1.0027269124984741,-0.7518064975738525,25.0955810546875,-17.078784942626953,31.566652297973633,-2.0641045570373535,-1.3481483459472656,-1.1406145095825195,1.3152308464050293,5.815129280090332,-5.657713890075684
2_20251106_213338,1762435981735,2,0.22305810451507568,0.4199881851673126,0.7874538898468018,0.39213699102401733,0.811570942401886,3.0306992530822754,0.0808458998799324,-1.3761277198791504,4.472966194152832,-7.1694135665893555,0.34682226181030273,-1.0027269124984741,-0.7518064975738525,25.90847396850586,-16.25979995727539,31.316293716430664,-2.1530869007110596,-1.07373046875,-1.2093596458435059,0.7769591808319092,5.546696662902832,-5.96005392074585
2_20251106_213338,1762435981753,2,0.23290827870368958,0.42074689269065857,0.7881793975830078,0.3840560019016266,0.811570942401886,3.0306992530822754,0.0808458998799324,-1.3761277198791504,4.472966194152832,-7.1694135665893555,0.051774606108665466,-1.1859862804412842,-0.41094398498535156,26.74239730834961,-15.513355255126953,30.94368553161621,-2.1530869007110596,-1.07373046875,-1.2093596458435059,0.7769591808319092,5.546696662902832,-5.96005392074585
2_20251106_213338,1762435981774,2,0.24327170848846436,0.4228156507015228,0.7873162031173706,0.3770662844181061,0.7563768625259399,2.946183919906616,0.0237831212580204,-1.869312047958374,4.239541530609131,-6.91204833984375,-0.08322650194168091,-1.1664386987686157,-0.21180208027362823,27.601892471313477,-14.752086639404297,30.50473976135254,-1.7173631191253662,-0.8490281105041504,-0.594912052154541,-0.1519489288330078,5.088569641113281,-6.317136287689209
2_20251106_213338,1762435981793,2,0.25330573320388794,0.4258875250816345,0.7851150035858154,0.37155139446258545,0.7211275696754456,2.901503086090088,-0.006353024393320084,-1.9243762493133545,4.40593147277832,-6.755234718322754,-0.08322650194168091,-1.1664386987686157,-0.21180208027362823,28.398317337036133,-14.05569076538086,29.8727970123291,-1.4179418087005615,-0.5461101531982422,-0.3504786491394043,-0.5064343810081482,4.9520416259765625,-6.40475606918335
2_20251106_213338,1762435981812,2,0.26346737146377563,0.42961177229881287,0.781686007976532,0.36740389466285706,0.6853886842727661,2.8609447479248047,-0.0331396646797657,-1.9375438690185547,4.866795539855957,-6.254868030548096,-0.3770524263381958,-1.2336336374282837,0.0691957026720047,29.177213668823242,-13.460140228271484,29.197702407836914,-1.1448875665664673,-0.06819677352905273,0.11991071701049805,-0.7926563024520874,4.93499231338501,-6.374778747558594
2_20251106_213338,1762435981831,2,0.2741059362888336,0.43408653140068054,0.7769344449043274,0.3644278943538666,0.6853886842727661,2.8609447479248047,-0.0331396646797657,-1.9375438690185547,4.866795539855957,-6.254868030548096,-0.3770524263381958,-1.2336336374282837,0.0691957026720047,29.937171936035156,-12.990550994873047,28.47892951965332,-1.1448875665664673,-0.06819677352905273,0.11991071701049805,-0.7926563024520874,4.93499231338501,-6.374778747558594
2_20251106_213338,1762435981850,2,0.2846759855747223,0.4377790093421936,0.7719043493270874,0.36259183287620544,0.646129310131073,2.8213253021240234,-0.05731285363435745,-1.9507112503051758,5.243865966796875,-5.515091896057129,-0.5468728542327881,-0.9917312264442444,-0.04075995087623596,30.641929626464844,-12.64889907836914,27.674455642700195,-0.9264439344406128,0.2470989227294922,0.6877493858337402,-1.024267315864563,4.996767044067383,-6.202841281890869
2_20251106_213338,1762435981870,2,0.2945459187030792,0.4397159218788147,0.7674527764320374,0.3618132770061493,0.6079326272010803,2.785714626312256,-0.07579062134027481,-2.0321106910705566,5.049943923950195,-4.985995769500732,-0.6213983297348022,-0.8927711844444275,-0.07802269607782364,31.313745498657227,-12.471271514892578,26.78447151184082,-0.8062747716903687,0.04254150390625,0.9734764099121094,-1.225835919380188,5.007402420043945,-5.959472179412842
2_20251106_213338,1762435981889,2,0.30411863327026367,0.44071486592292786,0.7630950212478638,0.361895352602005,0.5281071662902832,2.719148874282837,-0.10208455473184586,-3.329712390899658,4.784198760986328,-4.866291046142578,-0.666602373123169,-1.1768232583999634,0.09424115717411041,31.937824249267578,-12.496807098388672,25.875276565551758,-1.4880201816558838,-0.12446355819702148,0.7256836891174316,-1.8416922092437744,4.90866231918335,-5.59197473526001
2_20251106_213338,1762435981908,2,0.31539037823677063,0.4438496530056,0.7569122314453125,0.36140042543411255,0.4793440103530884,2.6866323947906494,-0.10880585014820099,-3.9402077198028564,5.215137004852295,-3.889498233795166,-0.5230491161346436,-1.5354009866714478,0.3935648798942566,32.48988723754883,-12.51401138305664,24.909337997436523,-1.6788125038146973,0.2451796531677246,1.3619813919067383,-2.261395215988159,4.96995735168457,-5.251479625701904
2_20251106_213338,1762435981927,2,0.3276504576206207,0.45053550601005554,0.7487968802452087,0.35911858081817627,0.4335087537765503,2.6602628231048584,-0.11118407547473907,-3.943798542022705,5.551507949829102,-3.8835129737854004,-0.2597663998603821,-1.5109663009643555,0.6030914783477783,33.06269836425781,-12.592548370361328,23.956579208374023,-1.3459227085113525,0.465240478515625,1.0943732261657715,-2.5978758335113525,5.086267471313477,-4.977886199951172
2_20251106_213338,1762435981946,2,0.33791154623031616,0.4589749574661255,0.7406406402587891,0.3558219075202942,0.38170871138572693,2.6338388919830322,-0.11187045276165009,-3.722344398498535,5.5503106117248535,-4.377894401550293,-0.2597663998603821,-1.5109663009643555,0.6030914783477783,33.61294937133789,-12.859966278076172,22.97233772277832,-0.8995747566223145,0.3712344169616699,0.4799933433532715,-2.8227696418762207,5.179076194763184,-4.8578877449035645
2_20251106_213338,1762435981965,2,0.3457726538181305,0.46691831946372986,0.7330253720283508,0.35369807481765747,0.38170871138572693,2.6338388919830322,-0.11187045276165009,-3.722344398498535,5.5503106117248535,-4.377894401550293,-0.22861230373382568,-1.2366880178451538,0.672119140625,34.14899826049805,-13.165714263916016,21.973295211791992,-0.8995747566223145,0.3712344169616699,0.4799933433532715,-2.8227696418762207,5.179076194763184,-4.8578877449035645
2_20251106_213338,1762435981984,2,0.353200227022171,0.47316697239875793,0.7251933217048645,0.35419949889183044,0.2852031886577606,2.5953192710876465,-0.10979438573122025,-3.5894718170166016,6.829956531524658,-4.148061275482178,-0.49861449003219604,-0.9923421144485474,0.6397433280944824,34.59762954711914,-13.514690399169922,20.970029830932617,-0.513864278793335,1.190058708190918,0.5174927711486816,-3.0756075382232666,5.63989782333374,-4.665554046630859
2_20251106_213338,1762435982003,2,0.3612614870071411,0.4765472114086151,0.717651903629303,0.35688748955726624,0.23655635118484497,2.5841548442840576,-0.10449453443288803,-4.262213706970215,7.336308479309082,-3.3939199447631836,-0.7936621904373169,-0.8158022165298462,0.4552622139453888,35.0208740234375,-13.889835357666016,19.91118812561035,-0.9492847919464111,1.3571281433105469,1.0173072814941406,-3.3129289150238037,5.979180335998535,-4.411227226257324
2_20251106_213338,1762435982021,2,0.36949190497398376,0.4767354428768158,0.7112436294555664,0.36101457476615906,0.1887565404176712,2.5785746574401855,-0.0958431139588356,-4.944531440734863,7.793581008911133,-2.834897994995117,-1.0202929973602295,-0.36070799827575684,0.09363029152154922,35.3326416015625,-14.297779083251953,18.901472091674805,-1.3052821159362793,1.4515209197998047,1.261063575744629,-3.639249324798584,6.342060089111328,-4.095961570739746
2_20251106_213338,1762435982041,2,0.3768085241317749,0.4747878611087799,0.7060292959213257,0.36621642112731934,0.1887565404176712,2.5785746574401855,-0.0958431139588356,-4.944531440734863,7.793581008911133,-2.834897994995117,-0.9769216179847717,-0.11880555003881454,0.15838193893432617,35.63505172729492,-14.644672393798828,17.987197875976562,-1.3052821159362793,1.4515209197998047,1.261063575744629,-3.639249324798584,6.342060089111328,-4.095961570739746
2_20251106_213338,1762435982062,2,0.3820802867412567,0.4721769392490387,0.7016182541847229,0.3725525736808777,0.07344871759414673,2.5834293365478516,-0.0674348995089531,-5.140848159790039,8.55729866027832,-3.085081100463867,-0.9396588802337646,-0.04855611175298691,0.39539748430252075,35.87261199951172,-15.05886459350586,17.12321662902832,-0.9370822906494141,1.4970455169677734,0.6174683570861816,-4.203765869140625,7.060253143310547,-3.702549457550049
2_20251106_213338,1762435982079,2,0.3859158158302307,0.47105780243873596,0.696435272693634,0.3796728551387787,0.026837468147277832,2.5918052196502686,-0.05375237017869949,-4.6309051513671875,8.935566902160645,-2.8779916763305664,-0.9304958581924438,-0.12919025123119354,0.6666214466094971,36.08612823486328,-15.45101547241211,16.40746307373047,-0.34171152114868164,1.500251293182373,0.6596462726593018,-4.289193630218506,7.4353156089782715,-3.537637948989868
2_20251106_213338,1762435982099,2,0.38920003175735474,0.47209465503692627,0.689671516418457,0.3873024582862854,-0.02437484636902809,2.6076014041900635,-0.03472262993454933,-3.9988629817962646,9.552047729492188,-2.3081960678100586,-0.9304958581924438,-0.12919025123119354,0.6666214466094971,36.15927505493164,-15.94168472290039,15.873693466186523,0.23226475715637207,1.6933856010437012,0.983553409576416,-4.231127738952637,7.858662128448486,-3.2917494773864746
2_20251106_213338,1762435982119,2,0.39203962683677673,0.4744357764720917,0.6821829676628113,0.39476829767227173,-0.06895502656698227,2.628739833831787,-0.014074735343456268,-3.633762836456299,10.367237091064453,-2.0256924629211426,-0.8058794736862183,-0.05588648468255997,0.7466446757316589,36.122352600097656,-16.440044403076172,15.389575958251953,0.4778919219970703,2.0068607330322266,1.012845754623413,-4.111654758453369,8.360376358032227,-3.0385382175445557
2_20251106_213338,1762435982136,2,0.39375993609428406,0.475979208946228,0.6755872964859009,0.4024658203125,-0.06895502656698227,2.628739833831787,-0.014074735343456268,-3.633762836456299,10.367237091064453,-2.0256924629211426,-0.8266488909721375,0.2183917611837387,0.5865981578826904,36.122352600097656,-16.440044403076172,15.389575958251953,0.4778919219970703,2.0068607330322266,1.012845754623413,-4.111654758453369,8.360376358032227,-3.0385382175445557
2_20251106_213338,1762435982156,2,0.3943447768688202,0.47526484727859497,0.6705671548843384,0.41104164719581604,-0.14695629477500916,2.687497854232788,0.03375828638672829,-3.5559544563293457,11.080678939819336,-1.4942026138305664,-0.8950657844543457,0.5378740429878235,0.44182318449020386,36.048179626464844,-16.941730499267578,14.998600006103516,0.3426241874694824,1.771829605102539,1.0573251247406006,-3.898578643798828,9.308849334716797,-2.551527738571167
2_20251106_213338,1762435982175,2,0.3936665952205658,0.4719949960708618,0.6670953631401062,0.4209882616996765,-0.18158382177352905,2.721820831298828,0.06099405884742737,-3.570319175720215,10.828102111816406,-1.3373892307281494,-0.9078938961029053,0.7437354326248169,0.41555601358413696,35.91481018066406,-17.398639678955078,14.754907608032227,0.2626075744628906,1.215402603149414,0.9713108539581299,-3.8329267501831055,9.612699508666992,-2.3087000846862793
2_20251106_213338,1762435982194,2,0.39179709553718567,0.4674970507621765,0.6644120812416077,0.4318542778491974,-0.18158382177352905,2.721820831298828,0.06099405884742737,-3.570319175720215,10.828102111816406,-1.3373892307281494,-0.8364227414131165,0.7382376790046692,0.5346746444702148,35.775123596191406,-17.94533920288086,14.69859504699707,0.2626075744628906,1.215402603149414,0.9713108539581299,-3.8329267501831055,9.612699508666992,-2.3087000846862793
2_20251106_213338,1762435982213,2,0.3890819251537323,0.46394121646881104,0.6614224314689636,0.442599356174469,-0.2412925362586975,2.7935783863067627,0.12256112694740295,-2.972991466522217,10.682062149047852,-0.6993618011474609,-0.7234127521514893,0.7351832985877991,0.6825039386749268,35.54792022705078,-18.535404205322266,14.651573181152344,0.6085832118988037,0.6907129287719727,1.0705804824829102,-3.5815746784210205,9.991349220275879,-1.769942283630371
2_20251106_213338,1762435982232,2,0.385100781917572,0.46152105927467346,0.658241868019104,0.4532254636287689,-0.2644163966178894,2.8297791481018066,0.15532559156417847,-2.3301758766174316,10.698820114135742,-0.8286432027816772,-0.5890225172042847,0.8164283633232117,0.7955138683319092,35.335227966308594,-19.075122833251953,14.67367935180664,1.0011191368103027,0.5659770965576172,0.7530392408370972,-3.3312950134277344,10.132843017578125,-1.5816824436187744
2_20251106_213338,1762435982250,2,0.3795265853404999,0.4600115716457367,0.655240535736084,0.4636903703212738,-0.2644163966178894,2.8297791481018066,0.15532559156417847,-2.3301758766174316,10.698820114135742,-0.8286432027816772,-0.46135175228118896,0.8659083843231201,0.8449939489364624,35.01689910888672,-19.75986099243164,14.743022918701172,1.0011191368103027,0.5659770965576172,0.7530392408370972,-3.3312950134277344,10.132843017578125,-1.5816824436187744
2_20251106_213338,1762435982271,2,0.3727584183216095,0.4591439962387085,0.6526032090187073,0.47365283966064453,-0.282033234834671,2.86751127243042,0.18857434391975403,-1.5197737216949463,10.636574745178223,-1.422379732131958,-0.43080854415893555,0.8420846462249756,0.8175050020217896,34.55859375,-20.329639434814453,14.917251586914062,1.4492170810699463,0.4029855728149414,0.1274421215057373,-2.9689908027648926,10.233589172363281,-1.5498218536376953
2_20251106_213338,1762435982290,2,0.36595770716667175,0.4584876298904419,0.650010883808136,0.4830630123615265,-0.29603341221809387,2.9375569820404053,0.2469676434993744,-0.316739022731781,10.677274703979492,-1.4415323734283447,-0.5468728542327881,0.9392121434211731,0.730762243270874,34.15852737426758,-20.922313690185547,15.269115447998047,1.7935881614685059,0.2824258804321289,0.10167348384857178,-2.1103272438049316,10.394848823547363,-1.5432058572769165
2_20251106_213338,1762435982310,2,0.3593199551105499,0.45647376775741577,0.6474921107292175,0.4932289719581604,-0.29603341221809387,2.9375569820404053,0.2469676434993744,-0.316739022731781,10.677274703979492,-1.4415323734283447,-0.7142497897148132,1.1035346984863281,0.590874195098877,33.708518981933594,-21.531391143798828,15.686334609985352,1.7935881614685059,0.2824258804321289,0.10167348384857178,-2.1103272438049316,10.394848823547363,-1.5432058572769165
2_20251106_213338,1762435982328,2,0.3528972268104553,0.45218124985694885,0.6452261209487915,0.5046572089195251,-0.2912285029888153,2.976306915283203,0.2800607979297638,0.2997414171695709,10.605450630187988,-1.083614706993103,-0.7429604530334473,1.1951643228530884,0.38012582063674927,33.170692443847656,-22.18423843383789,16.15339469909668,1.928054928779602,0.16848182678222656,0.3676729202270508,-1.6283135414123535,10.436968803405762,-1.4512876272201538
2_20251106_213338,1762435982347,2,0.34688231348991394,0.4459647238254547,0.6438798904418945,0.5159523487091064,-0.26851314306259155,3.0356531143188477,0.3321344554424286,0.8958719968795776,10.864013671875,-0.9327865242958069,-0.7429604530334473,1.1951643228530884,0.38012582063674927,32.55039978027344,-22.780803680419922,16.712955474853516,1.638079047203064,0.29380130767822266,0.3341391682624817,-0.7422070503234863,10.570212364196777,-1.2669256925582886
2_20251106_213338,1762435982365,2,0.3411199450492859,0.43805357813835144,0.6443143486976624,0.525932788848877,-0.26851314306259155,3.0356531143188477,0.3321344554424286,0.8958719968795776,10.864013671875,-0.9327865242958069,-0.5108318328857422,1.3356631994247437,-0.1574351191520691,31.92255973815918,-23.290668487548828,17.314422607421875,1.638079047203064,0.29380130767822266,0.3341391682624817,-0.7422070503234863,10.570212364196777,-1.2669256925582886
2_20251106_213338,1762435982385,2,0.3356349766254425,0.4283967614173889,0.6466258764266968,0.5345094799995422,-0.23243337869644165,3.094804525375366,0.3828471899032593,-0.01627962291240692,10.297809600830078,-1.673760175704956,-0.46257346868515015,1.3191698789596558,-0.32420116662979126,31.283138275146484,-23.78890609741211,17.92917823791504,0.35982781648635864,-0.24137306213378906,-0.31476807594299316,-0.37610745429992676,10.539182662963867,-1.358992099761963
2_20251106_213338,1762435982403,2,0.33085763454437256,0.41792383790016174,0.6497458219528198,0.5419439673423767,-0.23243337869644165,3.094804525375366,0.3828471899032593,-0.01627962291240692,10.297809600830078,-1.673760175704956,-0.4961710572242737,1.2904592752456665,-0.2863275706768036,30.676349639892578,-24.135143280029297,18.575117111206055,0.35982781648635864,-0.24137306213378906,-0.31476807594299316,-0.37610745429992676,10.539182662963867,-1.358992099761963
2_20251106_213338,1762435982423,2,0.32626181840896606,0.4077049493789673,0.6523897647857666,0.5492882132530212,-0.20081226527690887,3.143383502960205,0.4237896800041199,-0.7799971103668213,9.972211837768555,-1.9251405000686646,-0.4961710572242737,1.2904592752456665,-0.2863275706768036,30.171588897705078,-24.38766098022461,19.2808895111084,-0.2912406325340271,-0.3737773895263672,-0.3799556493759155,-0.4887564778327942,10.345989227294922,-1.545184850692749
2_20251106_213338,1762435982442,2,0.321410208940506,0.39873379468917847,0.6538271307945251,0.5569711923599243,-0.1874498724937439,3.164482831954956,0.4422634541988373,-0.7752089500427246,10.069171905517578,-1.4870203733444214,-0.5749726295471191,1.0418373346328735,0.11256708949804306,29.586544036865234,-24.569316864013672,19.876684188842773,-0.22916197776794434,-0.22145366668701172,0.0465315580368042,-0.5460469722747803,10.29062557220459,-1.5335519313812256
2_20251106_213338,1762435982462,2,0.31644532084465027,0.391774982213974,0.6537489295005798,0.5647894144058228,-0.17411091923713684,3.184999942779541,0.4625962972640991,-0.5537547469139099,10.099098205566406,-0.922012984752655,-0.5645879507064819,0.9776965975761414,0.2952156662940979,29.07471466064453,-24.746074676513672,20.461904525756836,-0.006166219711303711,-0.15322208404541016,0.4892311692237854,-0.5475885272026062,10.252320289611816,-1.4112441539764404
2_20251106_213338,1762435982480,2,0.31082484126091003,0.38620996475219727,0.6527448296546936,0.5728472471237183,-0.16187238693237305,3.2021324634552,0.4823911488056183,-0.20900458097457886,10.085931777954102,-0.4324198365211487,-0.5407642126083374,0.9776965975761414,0.3947865962982178,28.539417266845703,-24.91159439086914,21.019376754760742,0.27086716890335083,-0.13311100006103516,0.7830594182014465,-0.4798717498779297,10.219042778015137,-1.2154792547225952
2_20251106_213338,1762435982500,2,0.30449700355529785,0.3812123239040375,0.65137779712677,0.5810900926589966,-0.14742088317871094,3.2199175357818604,0.5065978169441223,0.024420060217380524,10.120645523071289,-0.12597519159317017,-0.5407642126083374,0.9776965975761414,0.3947865962982178,27.992525100708008,-25.077098846435547,21.49526023864746,0.4034334421157837,-0.07871818542480469,0.8716033101081848,-0.37901338934898376,10.199363708496094,-0.997578501701355
2_20251106_213338,1762435982520,2,0.2973942756652832,0.3757391571998596,0.6501571536064148,0.5896375179290771,-0.13174863159656525,3.236628770828247,0.532345712184906,0.26023879647254944,10.138601303100586,-0.09245780855417252,-0.5273252129554749,1.1957752704620361,0.40639305114746094,27.405353546142578,-25.308040618896484,21.995386123657227,0.5114017724990845,-0.048610687255859375,0.7240965366363525,-0.25116294622421265,10.187211990356445,-0.8165543675422668
2_20251106_213338,1762435982539,2,0.2893666923046112,0.3694077432155609,0.6492033004760742,0.5986149907112122,-0.11549851298332214,3.2516002655029297,0.557303786277771,0.5164073705673218,10.146980285644531,-0.18941880762577057,-0.5132752656936646,1.2446445226669312,0.4381580054759979,26.792400360107422,-25.565685272216797,22.494001388549805,0.6140562295913696,-0.03218555450439453,0.501708447933197,-0.09764888882637024,10.179165840148926,-0.6911272406578064
2_20251106_213338,1762435982557,2,0.28067830204963684,0.36295750737190247,0.6482517719268799,0.6076604127883911,-0.11549851298332214,3.2516002655029297,0.557303786277771,0.5164073705673218,10.146980285644531,-0.18941880762577057,-0.4644060730934143,1.196997046470642,0.507796585559845,26.792400360107422,-25.565685272216797,22.494001388549805,0.6140562295913696,-0.03218555450439453,0.501708447933197,-0.09764888882637024,10.179165840148926,-0.6911272406578064
2_20251106_213338,1762435982576,2,0.2716981768608093,0.3574128746986389,0.6470595002174377,0.6162386536598206,-0.09753541648387909,3.265455722808838,0.582098126411438,0.8228520154953003,10.045231819152832,-0.29595622420310974,-0.41614776849746704,1.1096433401107788,0.6195847988128662,26.078519821166992,-25.903949737548828,22.87898063659668,0.7364007234573364,-0.107147216796875,0.31613680720329285,0.08645127713680267,10.152379035949707,-0.6120930314064026
2_20251106_213338,1762435982595,2,0.2623875141143799,0.35324063897132874,0.6454156041145325,0.6243497133255005,-0.07579435408115387,3.2778937816619873,0.6078135371208191,1.3292038440704346,9.686117172241211,-0.3091237545013428,-0.40087616443634033,1.0070180892944336,0.6892234086990356,25.30028533935547,-26.308841705322266,23.246671676635742,0.9942020773887634,-0.37300968170166016,0.2423754334449768,0.33500176668167114,10.059126853942871,-0.5514991879463196
2_20251106_213338,1762435982614,2,0.25310465693473816,0.35015222430229187,0.6432603597640991,0.6320977210998535,-0.053151171654462814,3.2874093055725098,0.6304294466972351,1.981595754623413,9.604718208312988,-0.29595619440078735,-0.4393606185913086,0.9923574328422546,0.6146979331970215,24.480754852294922,-26.80374526977539,23.584009170532227,1.3172752857208252,-0.3635263442993164,0.20443439483642578,0.6643205285072327,9.968244552612305,-0.5003905892372131
2_20251106_213338,1762435982634,2,0.2444513589143753,0.3467395007610321,0.6409022808074951,0.6397339105606079,-0.02374623715877533,3.296377420425415,0.6561059355735779,2.4747800827026367,9.614294052124023,0.09308484196662903,-0.4393606185913086,0.9923574328422546,0.6146979331970215,23.61398696899414,-27.27657699584961,23.906396865844727,1.448367714881897,-0.2831602096557617,0.4747803509235382,1.0264123678207397,9.897454261779785,-0.3816955089569092
2_20251106_213338,1762435982653,2,0.23610013723373413,0.3411719799041748,0.6387360692024231,0.647977352142334,0.04228891804814339,3.3081436157226562,0.704414427280426,3.5928242206573486,9.258769989013672,0.09907008707523346,-0.5267143249511719,1.1426299810409546,0.44793182611465454,22.808856964111328,-27.73287582397461,24.23150062561035,1.7396082878112793,-0.44036006927490234,0.2845151126384735,1.8532159328460693,9.699130058288574,-0.18544502556324005
2_20251106_213338,1762435982671,2,0.22883498668670654,0.3339306116104126,0.6365987062454224,0.6564046144485474,0.07965975999832153,3.3127291202545166,0.7269224524497986,3.8992691040039062,9.6873140335083,-0.037393540143966675,-0.6501089930534363,1.1805037260055542,-0.05847502499818802,21.979650497436523,-28.190357208251953,24.515073776245117,1.6368424892425537,-0.00945281982421875,0.11844119429588318,2.2624266147613525,9.69676685333252,-0.15583473443984985
2_20251106_213338,1762435982691,2,0.2237626314163208,0.3250825107097626,0.6349942088127136,0.6641039252281189,0.12209220230579376,3.3188326358795166,0.7512921094894409,3.24448299407959,10.112266540527344,0.04520286247134209,-0.6415568590164185,1.1896666288375854,-0.5318951606750488,21.21286964416504,-28.630237579345703,24.693235397338867,0.7856450080871582,0.3324003219604492,0.1608300805091858,2.4588379859924316,9.779866218566895,-0.1156272143125534
2_20251106_213338,1762435982710,2,0.221513032913208,0.31334587931632996,0.634835958480835,0.6706188917160034,0.15715256333351135,3.3244361877441406,0.7722264528274536,1.9636399745941162,9.936300277709961,-0.07569911330938339,-0.6812630891799927,1.3991931676864624,-0.9595004916191101,20.449613571166992,-29.007328033447266,24.872716903686523,-0.39615845680236816,0.12514686584472656,0.03194247931241989,2.3597984313964844,9.811153411865234,-0.10764159262180328
2_20251106_213338,1762435982731,2,0.2208566963672638,0.29741302132606506,0.6360638737678528,0.6768977642059326,0.19083863496780396,3.3301172256469727,0.7961798906326294,0.45056965947151184,9.586761474609375,-0.20378340780735016,-0.8022143244743347,1.5653483867645264,-1.0334151983261108,19.809627532958984,-29.351360321044922,25.05763053894043,-1.5273829698562622,-0.17951393127441406,-0.07691346108913422,1.9779525995254517,9.766275405883789,-0.12686994671821594
2_20251106_213338,1762435982749,2,0.2201097011566162,0.27946680784225464,0.6369831562042236,0.683887779712677,0.2110295295715332,3.333359956741333,0.8148004412651062,-0.4555967450141907,9.28989315032959,-0.12597519159317017,-0.9164459705352783,1.5207552909851074,-0.6296335458755493,19.270652770996094,-29.62625503540039,25.247785568237305,-1.9468395709991455,-0.3811054229736328,0.0007158070802688599,1.49124276638031,9.670998573303223,-0.12669099867343903
2_20251106_213338,1762435982768,2,0.21731005609035492,0.2636239528656006,0.6359588503837585,0.6919791102409363,0.2257840931415558,3.3357794284820557,0.8348540663719177,-0.5106610059738159,9.36770248413086,0.376785546541214,-0.953097939491272,1.1377431154251099,0.0997389405965805,18.81123924255371,-29.78323745727539,25.42974281311035,-1.6015230417251587,-0.24263668060302734,0.40278124809265137,1.0908620357513428,9.610339164733887,-0.025995701551437378
2_20251106_213338,1762435982786,2,0.21190664172172546,0.2542080879211426,0.6320684552192688,0.7006877064704895,0.2371976673603058,3.338238000869751,0.8559869527816772,0.33325880765914917,9.724422454833984,1.2266905307769775,-0.8388662338256836,0.5849105715751648,0.9445648193359375,18.410627365112305,-29.985530853271484,25.518484115600586,-0.6060826182365417,0.09126663208007812,1.002148985862732,0.9393414258956909,9.633155822753906,0.2245415300130844
2_20251106_213338,1762435982805,2,0.20389151573181152,0.2537091076374054,0.6256170868873596,0.7089874148368835,0.25074711441993713,3.3426811695098877,0.8824864625930786,1.7062745094299316,10.354070663452148,2.1591920852661133,-0.5688639879226685,0.15058578550815582,1.5694794654846191,17.971736907958984,-30.227344512939453,25.5508975982666,0.6135464906692505,0.5767316818237305,1.5477204322814941,1.0927280187606812,9.777338981628418,0.6114716529846191
2_20251106_213338,1762435982825,2,0.19364573061466217,0.26054659485816956,0.6182900667190552,0.715775191783905,0.25074711441993713,3.3426811695098877,0.8824864625930786,1.7062745094299316,10.354070663452148,2.1591920852661133,-0.27687060832977295,0.03757581487298012,1.8284860849380493,17.44279670715332,-30.573955535888672,25.456117630004883,0.6135464906692505,0.5767316818237305,1.5477204322814941,1.0927280187606812,9.777338981628418,0.6114716529846191
2_20251106_213338,1762435982843,2,0.18144190311431885,0.2702869474887848,0.6117176413536072,0.7209891080856323,0.2734079957008362,3.3515615463256836,0.9184870719909668,3.2013893127441406,10.862815856933594,2.4740161895751953,-0.09300033748149872,0.1102687194943428,1.7875581979751587,16.86350440979004,-30.94913101196289,25.385881423950195,1.6869291067123413,0.8683815002441406,1.4900356531143188,1.5144602060317993,9.994434356689453,0.9839805364608765
2_20251106_213338,1762435982862,2,0.1685003936290741,0.2797585725784302,0.6063115000724792,0.7250718474388123,0.3301275670528412,3.3728506565093994,0.9785916209220886,5.9390411376953125,11.51401138305664,1.941329002380371,-0.062457095831632614,0.21167226135730743,1.5041168928146362,16.240703582763672,-31.45212173461914,25.298017501831055,3.026132583618164,1.032094955444336,0.5801433324813843,2.9129085540771484,10.481916427612305,1.3611856698989868
2_20251106_213338,1762435982882,2,0.1568090319633484,0.28723904490470886,0.6017907857894897,0.7285276651382446,0.3301275670528412,3.3728506565093994,0.9785916209220886,5.9390411376953125,11.51401138305664,1.941329002380371,-0.10033071041107178,0.3900447487831116,1.053298830986023,15.524235725402832,-31.89828109741211,25.167001724243164,3.026132583618164,1.032094955444336,0.5801433324813843,2.9129085540771484,10.481916427612305,1.3611856698989868
2_20251106_213338,1762435982903,2,0.14732074737548828,0.2910761833190918,0.5983245968818665,0.7318326234817505,0.4249853491783142,3.4058709144592285,1.0415935516357422,7.126514434814453,11.445779800415039,1.2793607711791992,-0.10277417302131653,0.5561999678611755,0.5786569118499756,14.706037521362305,-32.437747955322266,24.93560218811035,2.7639341354370117,0.5699481964111328,-0.13625717163085938,4.362580299377441,10.875831604003906,1.4156179428100586
2_20251106_213338,1762435982919,2,0.14020563662052155,0.2911973297595978,0.5962923169136047,0.734834611415863,0.4806671440601349,3.42301082611084,1.0688010454177856,7.039129257202148,11.2255220413208,0.8149056434631348,-0.0838373601436615,0.551923930644989,0.17304269969463348,14.061612129211426,-32.78568649291992,24.70064926147461,2.1412391662597656,0.2797517776489258,-0.48056983947753906,4.897890090942383,10.945770263671875,1.2954754829406738
2_20251106_213338,1762435982939,2,0.13592766225337982,0.28925174474716187,0.595503568649292,0.7370431423187256,0.5411115884780884,3.4408557415008545,1.0948715209960938,6.464545726776123,11.177640914916992,0.921442985534668,-0.13087394833564758,0.49328088760375977,-0.18064796924591064,13.244428634643555,-33.30057907104492,24.523841857910156,1.2533245086669922,0.18549633026123047,-0.2992260456085205,5.211221218109131,10.992144584655762,1.2206690311431885
2_20251106_213338,1762435982959,2,0.13462457060813904,0.2857067584991455,0.5953398942947388,0.7387951612472534,0.5996801257133484,3.4573423862457275,1.1192783117294312,5.588305473327637,10.838874816894531,1.1021974086761475,-0.20845375955104828,0.5311545133590698,-0.47325217723846436,13.244428634643555,-33.30057907104492,24.523841857910156,0.3016672134399414,-0.12261581420898438,-0.09477734565734863,5.286638259887695,10.961490631103516,1.196974754333496
2_20251106_213338,1762435982979,2,0.13542510569095612,0.2800177037715912,0.5955015420913696,0.7406942844390869,0.6503050327301025,3.470647096633911,1.1414066553115845,4.472655296325684,10.387588500976562,1.233872890472412,-0.2328883558511734,0.4706789255142212,-0.5685470700263977,12.056940078735352,-33.91531753540039,24.398319244384766,-0.6511859893798828,-0.4591217041015625,0.029518485069274902,5.123841285705566,10.846710205078125,1.2043544054031372
2_20251106_213338,1762435982996,2,0.1373007893562317,0.27395713329315186,0.5957112908363342,0.742444634437561,0.6919471025466919,3.4807450771331787,1.1620815992355347,3.5317747592926025,10.084733963012695,1.5127854347229004,-0.1663040965795517,0.316130131483078,-0.42316126823425293,12.056940078735352,-33.91531753540039,24.398319244384766,-1.273653268814087,-0.6095809936523438,0.24674487113952637,4.8054280281066895,10.694314956665039,1.266040563583374
2_20251106_213338,1762435983016,2,0.1387915164232254,0.26956886053085327,0.5959068536758423,0.7436158657073975,0.7307716012001038,3.488779306411743,1.1847680807113647,3.117595672607422,9.830960273742676,1.549893856048584,-0.03924424201250076,0.140811949968338,-0.15010474622249603,11.682293891906738,-34.10225296020508,24.366657257080078,-1.3502659797668457,-0.6906843185424805,0.22708261013031006,4.467861652374268,10.521644592285156,1.322811245918274
2_20251106_213338,1762435983035,2,0.13902032375335693,0.26787474751472473,0.5961154103279114,0.744018018245697,0.7622013688087463,3.493773937225342,1.2053238153457642,3.1523101329803467,9.699283599853516,1.3523807525634766,0.08781562000513077,-0.06504944711923599,0.15899279713630676,11.410380363464355,-34.182918548583984,24.395095825195312,-1.0524413585662842,-0.6578884124755859,0.02365565299987793,4.204751491546631,10.357172012329102,1.3287250995635986
2_20251106_213338,1762435983054,2,0.1378716677427292,0.26942625641822815,0.5962042212486267,0.7436003088951111,0.790016233921051,3.497180223464966,1.2243386507034302,3.459951877593994,9.86926555633545,1.141700029373169,0.158065065741539,-0.27763038873672485,0.4289950132369995,11.271498680114746,-34.279422760009766,24.37433624267578,-0.5958395004272461,-0.39032554626464844,-0.14962005615234375,4.05579137802124,10.259591102600098,1.2913200855255127
2_20251106_213338,1762435983072,2,0.13594740629196167,0.27421143651008606,0.5957911610603333,0.7425357103347778,0.8146582841873169,3.4998714923858643,1.241278052330017,3.8968746662139893,10.107478141784668,1.220705270767212,0.158065065741539,-0.27763038873672485,0.4289950132369995,11.283388137817383,-34.27903366088867,24.415374755859375,-0.12713360786437988,-0.12169075012207031,-0.056491851806640625,4.024008274078369,10.229168891906738,1.2771971225738525
2_20251106_213338,1762435983092,2,0.1338941901922226,0.28109824657440186,0.5948857069015503,0.7410581111907959,0.8415601849555969,3.5026843547821045,1.2594199180603027,4.3170390129089355,10.220001220703125,1.3631541728973389,0.18738655745983124,-0.4547811448574066,0.536507248878479,11.283698081970215,-34.26701736450195,24.469703674316406,0.23442459106445312,-0.0073337554931640625,0.06876564025878906,4.082614421844482,10.227334976196289,1.2943885326385498
2_20251106_213338,1762435983111,2,0.13213951885700226,0.28789323568344116,0.5940700769424438,0.7394168972969055,0.8670964241027832,3.5052192211151123,1.275728702545166,4.540887832641602,10.22598648071289,1.2709813117980957,0.17700186371803284,-0.36070799827575684,0.34836089611053467,11.286319732666016,-34.21706008911133,24.497791290283203,0.36661863327026367,-0.001079559326171875,-0.018725872039794922,4.174269199371338,10.227066040039062,1.2897071838378906
2_20251106_213338,1762435983131,2,0.13109362125396729,0.29291075468063354,0.5937667489051819,0.7378745079040527,0.8670964241027832,3.5052192211151123,1.275728702545166,4.540887832641602,10.22598648071289,1.2709813117980957,0.12446750700473785,-0.259915292263031,0.12356265634298325,11.19155216217041,-34.17332077026367,24.508438110351562,0.36661863327026367,-0.001079559326171875,-0.018725872039794922,4.174269199371338,10.227066040039062,1.2897071838378906
2_20251106_213338,1762435983149,2,0.13126878440380096,0.29597944021224976,0.593794584274292,0.7365953326225281,0.9161365628242493,3.508620023727417,1.305191159248352,4.166211128234863,9.906373977661133,1.1057885885238647,0.08292870968580246,-0.20738093554973602,-0.07130318135023117,11.22378158569336,-34.24641799926758,24.52184295654297,-0.049208641052246094,-0.2376117706298828,-0.13303017616271973,4.215419769287109,10.143985748291016,1.2388187646865845
2_20251106_213338,1762435983169,2,0.1325295865535736,0.29741930961608887,0.594196081161499,0.7354649305343628,0.9375055432319641,3.5084900856018066,1.318007230758667,3.793928623199463,9.665766716003418,1.038753867149353,0.0810961127281189,-0.20554834604263306,-0.22768455743789673,11.199817657470703,-34.2358512878418,24.561676025390625,-0.33719301223754883,-0.38257503509521484,-0.16005194187164307,4.131121635437012,10.048341751098633,1.198805809020996
2_20251106_213338,1762435983190,2,0.13500238955020905,0.29800355434417725,0.5950098037719727,0.7341195940971375,0.9563137888908386,3.506483793258667,1.3297035694122314,3.288773775100708,9.431145668029785,0.8304672837257385,0.08537216484546661,-0.21654391288757324,-0.3205359876155853,11.235869407653809,-34.24575424194336,24.535850524902344,-0.6738781929016113,-0.4937562942504883,-0.2946707606315613,3.9626519680023193,9.924901962280273,1.1251380443572998
2_20251106_213338,1762435983207,2,0.1380925178527832,0.2980019152164459,0.5961661338806152,0.7326058149337769,0.9563137888908386,3.506483793258667,1.3297035694122314,3.288773775100708,9.431145668029785,0.8304672837257385,0.08537216484546661,-0.21654391288757324,-0.3205359876155853,11.28583812713623,-34.206119537353516,24.66025161743164,-0.6738781929016113,-0.4937562942504883,-0.2946707606315613,3.9626519680023193,9.924901962280273,1.1251380443572998
2_20251106_213338,1762435983225,2,0.14159682393074036,0.29802435636520386,0.5974990725517273,0.730839729309082,0.9709831476211548,3.502516269683838,1.339027762413025,2.910506248474121,9.24679946899414,0.5371901988983154,0.0810961127281189,-0.2849607467651367,-0.359020471572876,11.3851318359375,-34.17411422729492,24.610637664794922,-0.8417167663574219,-0.5424823760986328,-0.4703582525253296,3.752223014831543,9.789281845092773,1.007548451423645
2_20251106_213338,1762435983249,2,0.14539629220962524,0.2981552183628082,0.598754346370697,0.7290107011795044,0.9876188039779663,3.48988676071167,1.35016667842865,2.3203606605529785,9.17617416381836,0.1684989482164383,0.048720281571149826,-0.3008432388305664,-0.37673553824424744,11.562264442443848,-34.06132125854492,24.497970581054688,-0.9604434967041016,-0.3990926742553711,-0.5632310509681702,3.28080415725708,9.57526683807373,0.7317299842834473
2_20251106_213338,1762435983264,2,0.14961981773376465,0.2982921302318573,0.5998108386993408,0.7272294163703918,0.9898839592933655,3.48429536819458,1.351933479309082,2.090527296066284,9.142656326293945,0.015276625752449036,0.0022945627570152283,-0.30389755964279175,-0.3791790008544922,11.733277320861816,-34.03805160522461,24.545650482177734,-0.9522213935852051,-0.3460884094238281,-0.5731627345085144,3.0427486896514893,9.488744735717773,0.5884393453598022
2_20251106_213338,1762435983282,2,0.1539875566959381,0.29830458760261536,0.6005913615226746,0.7256667613983154,0.989912211894989,3.477281093597412,1.3524861335754395,2.0055367946624756,9.228843688964844,-0.0050732046365737915,-0.08994600921869278,-0.3228343725204468,-0.3376401960849762,11.96822452545166,-33.971920013427734,24.474925994873047,-0.8297696113586426,-0.20792102813720703,-0.47481006383895874,2.835306406021118,9.43676471710205,0.46973684430122375
2_20251106_213338,1762435983302,2,0.15835542976856232,0.2984461188316345,0.6006509065628052,0.7246184945106506,0.9875360131263733,3.4699366092681885,1.352746844291687,2.043842315673828,9.456283569335938,0.36361801624298096,-0.20356686413288116,-0.36498403549194336,-0.285716712474823,12.268232345581055,-33.82661056518555,24.421756744384766,-0.6331713199615479,0.015615463256835938,-0.0848950743675232,2.677013635635376,9.440668106079102,0.44851309061050415
2_20251106_213338,1762435983320,2,0.16291430592536926,0.29897603392601013,0.5997186899185181,0.7241613864898682,0.9843048453330994,3.46419358253479,1.3538867235183716,2.189882278442383,9.658584594726562,0.8208908438682556,-0.26159900426864624,-0.35582107305526733,-0.24356704950332642,12.602684020996094,-33.71658706665039,24.369266510009766,-0.38970494270324707,0.1743335723876953,0.2979021668434143,2.57958722114563,9.484251022338867,0.5229886770248413
2_20251106_213338,1762435983340,2,0.16736865043640137,0.29962214827537537,0.5981829762458801,0.7241487503051758,0.9805536866188049,3.4590108394622803,1.357010841369629,2.4675979614257812,9.7735013961792,1.1548676490783691,-0.26159900426864624,-0.35582107305526733,-0.24356704950332642,12.921016693115234,-33.68230056762695,24.274150848388672,-0.08959150314331055,0.2314004898071289,0.5055031776428223,2.557189464569092,9.54210090637207,0.6493644714355469
2_20251106_213338,1762435983359,2,0.17155757546424866,0.3005966246128082,0.596625566482544,0.72404944896698,0.9777205586433411,3.4549782276153564,1.3623666763305664,2.758481025695801,9.777091979980469,1.5738348960876465,-0.18768437206745148,-0.4694419205188751,-0.1928652822971344,13.190295219421387,-33.663211822509766,24.122745513916016,0.16103315353393555,0.18799304962158203,0.7395763397216797,2.5974478721618652,9.589098930358887,0.8342585563659668
2_20251106_213338,1762435983379,2,0.17598269879817963,0.3023749887943268,0.595122218132019,0.7234839200973511,0.9760028719902039,3.451469659805298,1.370640516281128,2.9643733501434326,9.761530876159668,1.7940919399261475,-0.12415443360805511,-0.5134241580963135,-0.21729986369609833,13.49905014038086,-33.591373443603516,23.960350036621094,0.29354023933410645,0.13794517517089844,0.7678667306900024,2.670833110809326,9.62358570098877,1.026225209236145
2_20251106_213338,1762435983398,2,0.18052828311920166,0.3043711185455322,0.5939778685569763,0.7224666476249695,0.9753992557525635,3.4487998485565186,1.379974603652954,3.0158462524414062,9.804624557495117,1.70670747756958,-0.07039833813905716,-0.5067046284675598,-0.2869384288787842,13.787470817565918,-33.659000396728516,23.84862518310547,0.27601051330566406,0.14483070373535156,0.5443857908248901,2.739835739135742,9.659793853759766,1.16232168674469
2_20251106_213338,1762435983416,2,0.1854502111673355,0.30613458156585693,0.5932916402816772,0.7210373282432556,0.9753941297531128,3.446638822555542,1.389397382736206,2.958388328552246,9.757940292358398,1.5774260759353638,-0.058791909366846085,-0.5152567625045776,-0.3571878671646118,13.787470817565918,-33.659000396728516,23.84862518310547,0.17484211921691895,0.07851696014404297,0.33208346366882324,2.783546209335327,9.679423332214355,1.2453426122665405
2_20251106_213338,1762435983435,2,0.19077719748020172,0.3075350522994995,0.5928918123245239,0.7193785905838013,0.9755994081497192,3.444624662399292,1.4001154899597168,2.860229969024658,9.73519515991211,1.7079044580459595,-0.07650698721408844,-0.5409130454063416,-0.41277655959129333,14.155535697937012,-33.62018966674805,23.62030792236328,0.061347007751464844,0.044617652893066406,0.37004947662353516,2.7988829612731934,9.690577507019043,1.3378549814224243
2_20251106_213338,1762435983454,2,0.1967075616121292,0.3087979555130005,0.592465341091156,0.7175895571708679,0.9756540060043335,3.443047285079956,1.4111980199813843,2.7477073669433594,9.813004493713379,1.6660076379776,-0.06062450259923935,-0.5213654041290283,-0.47813907265663147,14.568523406982422,-33.64139175415039,23.433181762695312,-0.04094052314758301,0.09794139862060547,0.2625221014022827,2.7886478900909424,9.715063095092773,1.4034855365753174
2_20251106_213338,1762435983474,2,0.2028931826353073,0.30952969193458557,0.5923460721969604,0.7156478762626648,0.9747981429100037,3.4418840408325195,1.422081470489502,2.489144802093506,9.851308822631836,1.338016152381897,-0.003203221596777439,-0.49448737502098083,-0.5569406747817993,14.948774337768555,-33.60178756713867,23.20535659790039,-0.23960256576538086,0.10899639129638672,-0.0523754358291626,2.7287473678588867,9.74231243133545,1.3903915882110596
2_20251106_213338,1762435983493,2,0.20936550199985504,0.3097895085811615,0.5928522348403931,0.7132480144500732,0.9725744128227234,3.4409191608428955,1.4303234815597534,2.122847557067871,9.754348754882812,0.9585515260696411,0.025507420301437378,-0.48898959159851074,-0.6027554869651794,15.367389678955078,-33.53414535522461,22.925464630126953,-0.48471975326538086,0.009629249572753906,-0.34547197818756104,2.607567310333252,9.744719505310059,1.3040235042572021
2_20251106_213338,1762435983512,2,0.21601492166519165,0.30977755784988403,0.5937421917915344,0.7105249166488647,0.9675709009170532,3.439540386199951,1.4379112720489502,1.7338064908981323,9.626264572143555,0.9382017254829407,-0.0019814912229776382,-0.4810483455657959,-0.5844295024871826,15.789033889770508,-33.40439224243164,22.714473724365234,-0.699008584022522,-0.09476375579833984,-0.29265743494033813,2.4328150749206543,9.721028327941895,1.2308591604232788
2_20251106_213338,1762435983531,2,0.2226928174495697,0.30982130765914917,0.5944070219993591,0.7078834772109985,0.9605068564414978,3.4377996921539307,1.4435063600540161,1.503973126411438,9.54007625579834,0.7742059230804443,-0.02763780951499939,-0.4596680700778961,-0.505017101764679,16.23373794555664,-33.298030853271484,22.490421295166016,-0.743073582649231,-0.1447610855102539,-0.3653225898742676,2.247046709060669,9.684837341308594,1.139528512954712
2_20251106_213338,1762435983550,2,0.22859282791614532,0.30986329913139343,0.5948035717010498,0.7056477665901184,0.9516423344612122,3.435831069946289,1.4474942684173584,1.4620764255523682,9.570003509521484,0.6556980609893799,-0.0477963462471962,-0.528084933757782,-0.3724594712257385,16.66435432434082,-33.2182502746582,22.332931518554688,-0.6279761791229248,-0.09186744689941406,-0.3870643377304077,2.090052604675293,9.661870956420898,1.0427623987197876
2_20251106_213338,1762435983569,2,0.23400980234146118,0.31101128458976746,0.5945547819137573,0.7035737037658691,0.9516423344612122,3.435831069946289,1.4474942684173584,1.4620764255523682,9.570003509521484,0.6556980609893799,-0.0477963462471962,-0.528084933757782,-0.3724594712257385,17.151046752929688,-33.020931243896484,22.04461669921875,-0.6279761791229248,-0.09186744689941406,-0.3870643377304077,2.090052604675293,9.661870956420898,1.0427623987197876
2_20251106_213338,1762435983588,2,0.23928925395011902,0.3138953447341919,0.5934867858886719,0.7014155387878418,0.9305867552757263,3.4323337078094482,1.4532712697982788,1.4896085262298584,9.7890625,1.0160099267959595,-0.0526832640171051,-0.7583809494972229,-0.1464395523071289,17.59766960144043,-32.87717056274414,21.848388671875,-0.3829435110092163,0.10668373107910156,0.026929855346679688,1.8725520372390747,9.682378768920898,0.9890800714492798
2_20251106_213338,1762435983608,2,0.2445954531431198,0.31792759895324707,0.5919143557548523,0.6990940570831299,0.9305867552757263,3.4323337078094482,1.4532712697982788,1.4896085262298584,9.7890625,1.0160099267959595,-0.062457095831632614,-0.7315028309822083,-0.14949387311935425,18.006816864013672,-32.76022720336914,21.58258056640625,-0.3829435110092163,0.10668373107910156,0.026929855346679688,1.8725520372390747,9.682378768920898,0.9890800714492798
2_20251106_213338,1762435983626,2,0.2496909350156784,0.32160547375679016,0.5903279781341553,0.6969484686851501,0.9079515337944031,3.431077480316162,1.4598815441131592,1.6200867891311646,9.810609817504883,1.0806505680084229,-0.06612228602170944,-0.6661403775215149,-0.18981094658374786,18.42605209350586,-32.66855239868164,21.411346435546875,-0.14932000637054443,0.06540584564208984,0.04117608070373535,1.769406795501709,9.745203971862793,1.0394744873046875
2_20251106_213338,1762435983645,2,0.2546863257884979,0.32459157705307007,0.5889400243759155,0.6949279308319092,0.8968052268028259,3.430311918258667,1.4625157117843628,1.6045252084732056,9.63823413848877,0.8627876043319702,-0.052072398364543915,-0.6746924519538879,-0.23196059465408325,18.854637145996094,-32.63792037963867,21.144668579101562,-0.131905198097229,-0.08557605743408203,-0.14134955406188965,1.7364304065704346,9.723810195922852,1.0041371583938599
2_20251106_213338,1762435983664,2,0.25996702909469604,0.32747581601142883,0.5877171158790588,0.6926509141921997,0.8852993249893188,3.4289984703063965,1.464551568031311,1.4022239446640015,9.510150909423828,0.8340584635734558,-0.05085066705942154,-0.711955189704895,-0.275942862033844,19.298229217529297,-32.5562629699707,20.879539489746094,-0.26736509799957275,-0.1709280014038086,-0.13606297969818115,1.6695890426635742,9.681078910827637,0.970121443271637
2_20251106_213338,1762435983684,2,0.2657950222492218,0.33044105768203735,0.5865067839622498,0.6900518536567688,0.8724784255027771,3.426863431930542,1.4655479192733765,1.237031102180481,9.410795211791992,0.6281659603118896,-0.05390499159693718,-0.6966835856437683,-0.31442731618881226,19.791061401367188,-32.470760345458984,20.548789978027344,-0.34604644775390625,-0.21622657775878906,-0.2735643982887268,1.5830775499343872,9.627021789550781,0.9017303586006165
2_20251106_213338,1762435983703,2,0.2717682123184204,0.3330092430114746,0.5854392051696777,0.687391996383667,0.8597184419631958,3.4241297245025635,1.4645799398422241,1.149646520614624,9.332986831665039,0.2211691290140152,-0.05085066705942154,-0.6826336979866028,-0.3315315544605255,20.234962463378906,-32.3770866394043,20.337989807128906,-0.3467448949813843,-0.2352285385131836,-0.544448971748352,1.4963914155960083,9.568215370178223,0.765618085861206
2_20251106_213338,1762435983722,2,0.27780240774154663,0.3354206085205078,0.584468424320221,0.6846280097961426,0.8463035821914673,3.421051502227783,1.4616936445236206,1.0251532793045044,9.392839431762695,0.04879401996731758,-0.0783395767211914,-0.7137877941131592,-0.3565770089626312,20.71531105041504,-32.292781829833984,20.047298431396484,-0.37699055671691895,-0.14030075073242188,-0.573459267616272,1.4021438360214233,9.533140182495117,0.6222532987594604
2_20251106_213338,1762435983741,2,0.28417542576789856,0.33779269456863403,0.5833734273910522,0.6817740797996521,0.8319011330604553,3.418093681335449,1.4577001333236694,0.7977139949798584,9.520923614501953,0.16610485315322876,-0.1718018800020218,-0.7137877941131592,-0.3834550380706787,21.207338333129883,-32.219966888427734,19.729801177978516,-0.48354387283325195,-0.00977325439453125,-0.3649187684059143,1.2812578678131104,9.530696868896484,0.5310236215591431
2_20251106_213338,1762435983760,2,0.29115402698516846,0.3398711681365967,0.5816860198974609,0.6792336106300354,0.8164750337600708,3.4150664806365967,1.4535390138626099,0.6456886529922485,9.451495170593262,0.3971354067325592,-0.2573229670524597,-0.6661403775215149,-0.3791790008544922,21.728078842163086,-32.058475494384766,19.496231079101562,-0.5084553956985474,-0.06336116790771484,-0.10711058974266052,1.154144048690796,9.514856338500977,0.5042459964752197
2_20251106_213338,1762435983780,2,0.29803362488746643,0.3412831425666809,0.5795819759368896,0.6773378252983093,0.8002216219902039,3.4118492603302,1.4495744705200195,0.571471631526947,9.390445709228516,0.5000816583633423,-0.29214221239089966,-0.6325427889823914,-0.36146390438079834,22.173561096191406,-31.962650299072266,19.069168090820312,-0.46613794565200806,-0.09952831268310547,-0.003331482410430908,1.037609577178955,9.489974021911621,0.5034131407737732
2_20251106_213338,1762435983801,2,0.30464574694633484,0.34234797954559326,0.5772792100906372,0.6758236289024353,0.7813324928283691,3.408069372177124,1.4461147785186768,0.4936634302139282,9.370096206665039,0.7131564617156982,-0.31230080127716064,-0.6685838103294373,-0.32420116662979126,22.6474609375,-31.778545379638672,18.766582489013672,-0.4351569414138794,-0.0959024429321289,0.16779464483261108,0.9288203716278076,9.465998649597168,0.5453618168830872
2_20251106_213338,1762435983820,2,0.31137025356292725,0.3438470959663391,0.5745278000831604,0.6743408441543579,0.7627047300338745,3.404478073120117,1.4442042112350464,0.42303749918937683,9.409598350524902,0.9465810656547546,-0.3446766138076782,-0.7015705108642578,-0.2600603699684143,23.093551635742188,-31.670291900634766,18.353302001953125,-0.4046262800693512,-0.0451202392578125,0.3209754228591919,0.827663779258728,9.454718589782715,0.6256056427955627
2_20251106_213338,1762435983839,2,0.3178892433643341,0.34570473432540894,0.5712426900863647,0.6731392741203308,0.7458877563476562,3.401829957962036,1.4442158937454224,0.4661312699317932,9.626263618469238,1.2937252521514893,-0.39904356002807617,-0.7040139436721802,-0.22707369923591614,23.576805114746094,-31.547237396240234,17.955272674560547,-0.2892259955406189,0.1372356414794922,0.5344957113265991,0.7553572654724121,9.489027976989746,0.7592295408248901
2_20251106_213338,1762435983856,2,0.3243963122367859,0.3475551903247833,0.5674303770065308,0.6723058819770813,0.7458877563476562,3.401829957962036,1.4442158937454224,0.4661312699317932,9.626263618469238,1.2937252521514893,-0.4479127526283264,-0.6630859971046448,-0.25700607895851135,23.576805114746094,-31.547237396240234,17.955272674560547,-0.2892259955406189,0.1372356414794922,0.5344957113265991,0.7553572654724121,9.489027976989746,0.7592295408248901
2_20251106_213338,1762435983876,2,0.3310224413871765,0.3487909138202667,0.5634517669677734,0.6717820167541504,0.7117056250572205,3.3986546993255615,1.4517675638198853,0.37276142835617065,9.713648796081543,2.0119550228118896,-0.43630629777908325,-0.581230103969574,-0.31992512941360474,24.081485748291016,-31.49618148803711,17.38092803955078,-0.26631247997283936,0.13590431213378906,0.8509669303894043,0.63907390832901,9.577744483947754,1.1609880924224854
2_20251106_213338,1762435983894,2,0.33758437633514404,0.34917622804641724,0.5599142909049988,0.6712740063667297,0.6939569711685181,3.3973824977874756,1.4590632915496826,0.23629780113697052,9.583169937133789,2.0143489837646484,-0.3813284635543823,-0.49937427043914795,-0.3431379795074463,24.50965118408203,-31.489315032958984,16.978561401367188,-0.32222092151641846,0.004340171813964844,0.6826887130737305,0.5585187077522278,9.578829765319824,1.331660270690918
2_20251106_213338,1762435983913,2,0.3435710668563843,0.3489413261413574,0.5570684671401978,0.6707261800765991,0.6759424209594727,3.396113634109497,1.4672006368637085,0.1381397545337677,9.556835174560547,1.771347999572754,-0.33368104696273804,-0.47860488295555115,-0.32481205463409424,24.966096878051758,-31.429149627685547,16.429553985595703,-0.336303174495697,-0.017595291137695312,0.35175013542175293,0.4744429290294647,9.574430465698242,1.419597864151001
2_20251106_213338,1762435983933,2,0.3492361307144165,0.3488644063472748,0.5544849634170532,0.6699807047843933,0.6564288139343262,3.394758462905884,1.4762871265411377,-0.018673717975616455,9.546062469482422,1.7318453788757324,-0.3324592709541321,-0.5128132700920105,-0.29854485392570496,25.38426399230957,-31.408496856689453,15.82421588897705,-0.39449334144592285,-0.02269458770751953,0.24979805946350098,0.3758196234703064,9.568757057189941,1.4820473194122314
2_20251106_213338,1762435983951,2,0.3549954295158386,0.34925180673599243,0.5516759157180786,0.6690703630447388,0.6383399963378906,3.3935940265655518,1.4847949743270874,-0.19463999569416046,9.566411972045898,1.7821214199066162,-0.3617808222770691,-0.48410266637802124,-0.26677989959716797,25.840930938720703,-31.324832916259766,15.4379301071167,-0.4563676714897156,-0.0018758773803710938,0.24005937576293945,0.2617276906967163,9.56828784942627,1.5420620441436768
2_20251106_213338,1762435983970,2,0.3603174090385437,0.34935593605041504,0.5487672090530396,0.6685628890991211,0.6383399963378906,3.3935940265655518,1.4847949743270874,-0.19463999569416046,9.566411972045898,1.7821214199066162,-0.38988059759140015,-0.4254596531391144,-0.22218677401542664,26.208351135253906,-31.33328628540039,14.911200523376465,-0.4563676714897156,-0.0018758773803710938,0.24005937576293945,0.2617276906967163,9.56828784942627,1.5420620441436768
2_20251106_213338,1762435983991,2,0.36508435010910034,0.34913957118988037,0.5457615256309509,0.6685501337051392,0.6165733933448792,3.3928749561309814,1.495021104812622,-0.25090131163597107,9.738786697387695,1.7797274589538574,-0.38988059759140015,-0.4254596531391144,-0.22218677401542664,26.57506561279297,-31.354297637939453,14.384207725524902,-0.4101032018661499,0.1363992691040039,0.19013237953186035,0.15920190513134003,9.602387428283691,1.589595079421997
2_20251106_213338,1762435984009,2,0.36954498291015625,0.34887081384658813,0.5427043437957764,0.6687284111976624,0.5773345828056335,3.39408016204834,1.5139291286468506,-0.40651771426200867,9.975802421569824,2.0143489837646484,-0.3856045603752136,-0.3778122067451477,-0.14766128361225128,26.883373260498047,-31.329456329345703,13.896367073059082,-0.3766166865825653,0.2493276596069336,0.3001885414123535,-0.029901031404733658,9.72647476196289,1.714160442352295
2_20251106_213338,1762435984029,2,0.3736421465873718,0.3488076329231262,0.5395938158035278,0.6690016984939575,0.5560563206672668,3.39597225189209,1.5248650312423706,-0.374197393655777,10.011713981628418,2.038290023803711,-0.35933732986450195,-0.34054943919181824,-0.0700814500451088,27.15593910217285,-31.28268814086914,13.488680839538574,-0.2754370868206024,0.22819137573242188,0.2593036890029907,-0.09876029938459396,9.783522605895996,1.7789863348007202
2_20251106_213338,1762435984048,2,0.37694209814071655,0.3489425778388977,0.5365215539932251,0.6695508360862732,0.5367801189422607,3.398503065109253,1.5350421667099,-0.12521110475063324,10.083537101745605,1.8910529613494873,-0.3257398009300232,-0.3515450358390808,0.025213442742824554,27.41741943359375,-31.223621368408203,13.026701927185059,-0.021160639822483063,0.24001216888427734,0.0896533727645874,-0.10405046492815018,9.843524932861328,1.8013995885849
2_20251106_213338,1762435984067,2,0.37956494092941284,0.3497619032859802,0.5332990884780884,0.6702157258987427,0.5367801189422607,3.398503065109253,1.5350421667099,-0.12521110475063324,10.083537101745605,1.8910529613494873,-0.304970383644104,-0.43767696619033813,0.08629991859197617,27.592187881469727,-31.19522476196289,12.560763359069824,-0.021160639822483063,0.24001216888427734,0.0896533727645874,-0.10405046492815018,9.843524932861328,1.8013995885849
2_20251106_213338,1762435984085,2,0.3821595311164856,0.35161057114601135,0.5296672582626343,0.6706539392471313,0.5034826993942261,3.406390428543091,1.5560059547424316,0.18961288034915924,10.417513847351074,2.4093754291534424,-0.3006943464279175,-0.42729222774505615,0.07041743397712708,27.778846740722656,-31.166439056396484,12.135863304138184,0.20460748672485352,0.3941669464111328,0.44598841667175293,-0.014994598925113678,10.023346900939941,1.9633870124816895
2_20251106_213338,1762435984105,2,0.3848210573196411,0.353387713432312,0.5260811448097229,0.6710205078125,0.5034826993942261,3.406390428543091,1.5560059547424316,0.18961288034915924,10.417513847351074,2.4093754291534424,-0.2903096675872803,-0.3130605220794678,0.007498365826904774,27.88945770263672,-31.204395294189453,11.625603675842285,0.20460748672485352,0.3941669464111328,0.44598841667175293,-0.014994598925113678,10.023346900939941,1.9633870124816895
2_20251106_213338,1762435984124,2,0.3872245252132416,0.35409119725227356,0.5231619477272034,0.6715490818023682,0.48670607805252075,3.413069009780884,1.570310115814209,0.2865738868713379,10.4653959274292,2.5027451515197754,-0.2774814963340759,-0.23181553184986115,-0.05236637592315674,28.024948120117188,-31.228473663330078,11.143620491027832,0.2412547916173935,0.3536386489868164,0.4314866065979004,0.0453190915286541,10.111757278442383,2.071258544921875
2_20251106_213338,1762435984144,2,0.38955414295196533,0.35403740406036377,0.5208017230033875,0.672064483165741,0.4738268554210663,3.419722318649292,1.5831772089004517,0.3679732084274292,10.539613723754883,2.4835925102233887,-0.24449478089809418,-0.23242639005184174,-0.08962912112474442,28.112215042114258,-31.231830596923828,10.78184986114502,0.2581232786178589,0.34228515625,0.3298671245574951,0.10984991490840912,10.197328567504883,2.1537253856658936
2_20251106_213338,1762435984162,2,0.39205366373062134,0.35399287939071655,0.5187416076660156,0.672227680683136,0.45320481061935425,3.4339654445648193,1.608579397201538,0.4158552289009094,10.582706451416016,2.653573513031006,-0.17974312603473663,-0.2495305985212326,-0.10734420269727707,28.183374404907227,-31.299304962158203,10.472334861755371,0.19852480292320251,0.24951457977294922,0.34154558181762695,0.2173304259777069,10.333191871643066,2.312027931213379
2_20251106_213338,1762435984182,2,0.39446577429771423,0.3541738986968994,0.5171141028404236,0.6719751358032227,0.4443502128124237,3.441502571105957,1.6215788125991821,0.3715643882751465,10.569540023803711,2.6164650917053223,-0.10705022513866425,-0.24769800901412964,-0.13483312726020813,28.255733489990234,-31.35354995727539,10.095501899719238,0.1233871579170227,0.18907833099365234,0.24354982376098633,0.24817723035812378,10.380461692810059,2.372915267944336
2_20251106_213338,1762435984202,2,0.39673274755477905,0.3544204533100128,0.5160632729530334,0.6713180541992188,0.4443502128124237,3.441502571105957,1.6215788125991821,0.3715643882751465,10.569540023803711,2.6164650917053223,-0.07589612156152725,-0.20615921914577484,-0.17637193202972412,28.327190399169922,-31.42061996459961,9.745438575744629,0.1233871579170227,0.18907833099365234,0.24354982376098633,0.24817723035812378,10.380461692810059,2.372915267944336
2_20251106_213338,1762435984220,2,0.3990404009819031,0.35438272356987,0.5154688358306885,0.6704263687133789,0.4261399209499359,3.458089590072632,1.6491334438323975,0.0675138384103775,10.484548568725586,2.5446419715881348,-0.08200477063655853,-0.1524031162261963,-0.21546727418899536,28.40208625793457,-31.41342544555664,9.505087852478027,-0.14435376226902008,0.05301666259765625,0.11162900924682617,0.21186760067939758,10.43153190612793,2.4330129623413086
2_20251106_213338,1762435984239,2,0.401363730430603,0.3537850081920624,0.5151891112327576,0.6695696115493774,0.4162377417087555,3.4658021926879883,1.6627559661865234,-0.13239340484142303,10.360055923461914,2.5673859119415283,-0.08200477063655853,-0.1524031162261963,-0.21546727418899536,28.51222801208496,-31.428829193115234,9.252163887023926,-0.2754088044166565,-0.05718040466308594,0.1074984073638916,0.14301539957523346,10.417236328125,2.4598875045776367
2_20251106_213338,1762435984259,2,0.403422474861145,0.35296717286109924,0.5152756571769714,0.6686968803405762,0.4054657816886902,3.472245693206787,1.6759731769561768,-0.3059655725955963,10.126630783081055,2.5506272315979004,-0.0025923559442162514,-0.09070577472448349,-0.17637193202972412,28.637165069580078,-31.405094146728516,8.932942390441895,-0.35918477177619934,-0.2324838638305664,0.07259178161621094,0.05321921035647392,10.359114646911621,2.4780354499816895
2_20251106_213338,1762435984276,2,0.40495505928993225,0.3524070084095001,0.5156270265579224,0.6677944660186768,0.3959180414676666,3.4764516353607178,1.686716079711914,-0.33349770307540894,9.905176162719727,2.509927749633789,0.034670390188694,-0.07115810364484787,-0.09512690454721451,28.637165069580078,-31.405094146728516,8.932942390441895,-0.30937352776527405,-0.36315059661865234,0.025513887405395508,-0.024124164134263992,10.268326759338379,2.4844138622283936
2_20251106_213338,1762435984296,2,0.4058648943901062,0.3523124158382416,0.5159742832183838,0.6670233607292175,0.3847140967845917,3.4794700145721436,1.6981781721115112,-0.19942817091941833,9.714845657348633,2.305232048034668,0.034670390188694,-0.07115810364484787,-0.09512690454721451,28.787811279296875,-31.331562042236328,8.818501472473145,-0.14024320244789124,-0.44278526306152344,-0.14334535598754883,-0.0591849647462368,10.157630920410156,2.448577404022217
2_20251106_213338,1762435984315,2,0.4059865176677704,0.3527359068393707,0.5163476467132568,0.6664363741874695,0.37462174892425537,3.4808216094970703,1.7075086832046509,-0.05219109356403351,9.657387733459473,2.0789897441864014,0.11530452966690063,-0.11330776661634445,0.058200135827064514,28.941375732421875,-31.20766830444336,8.69159984588623,0.005595099180936813,-0.4001951217651367,-0.2956700325012207,-0.05778619274497032,10.05758285522461,2.374659776687622
2_20251106_213338,1762435984334,2,0.40575408935546875,0.3539501130580902,0.5165730118751526,0.6657591462135315,0.3653843402862549,3.480905771255493,1.7152429819107056,0.06990794092416763,9.620279312133789,1.9628759622573853,0.10736329853534698,-0.13957495987415314,0.09240856021642685,29.035505294799805,-31.074108123779297,8.454379081726074,0.10215531289577484,-0.34984302520751953,-0.3294271230697632,-0.03224736824631691,9.970122337341309,2.2923030853271484
2_20251106_213338,1762435984353,2,0.4055168628692627,0.3555799126625061,0.5164973735809326,0.6650936007499695,0.35722407698631287,3.4800784587860107,1.7216867208480835,0.19200697541236877,9.63943099975586,1.9628758430480957,0.0499420128762722,-0.1004796102643013,0.08202386647462845,29.078393936157227,-30.970325469970703,8.363348960876465,0.17940348386764526,-0.2645530700683594,-0.26354169845581055,0.012603497132658958,9.903984069824219,2.2264175415039062
2_20251106_213338,1762435984373,2,0.4055333137512207,0.35628223419189453,0.5167095065116882,0.6645426750183105,0.3502333462238312,3.4786388874053955,1.727462887763977,0.2901650071144104,9.665766716003418,2.100536584854126,-0.018474839627742767,-0.04855610802769661,0.03254382312297821,29.13296127319336,-30.878032684326172,8.245511054992676,0.22204920649528503,-0.19057369232177734,-0.10070466995239258,0.06811579316854477,9.856340408325195,2.2012412548065186
2_20251106_213338,1762435984391,2,0.4058493673801422,0.35638129711151123,0.5167007446289062,0.6643034219741821,0.3502333462238312,3.4786388874053955,1.727462887763977,0.2901650071144104,9.665766716003418,2.100536584854126,-0.04901807755231857,0.000923932995647192,-0.01937968097627163,29.185216903686523,-30.823680877685547,8.153914451599121,0.22204920649528503,-0.19057369232177734,-0.10070466995239258,0.06811579316854477,9.856340408325195,2.2012412548065186
2_20251106_213338,1762435984411,2,0.40624165534973145,0.35575681924819946,0.5166981220245361,0.6644003987312317,0.3387012481689453,3.474121332168579,1.7388147115707397,0.30931782722473145,9.58077621459961,2.2788970470428467,-0.032524727284908295,0.015584684908390045,-0.03159697353839874,29.213409423828125,-30.758899688720703,8.115666389465332,0.15915749967098236,-0.1891927719116211,0.057552337646484375,0.15016032755374908,9.76996898651123,2.2213447093963623
2_20251106_213338,1762435984430,2,0.40652671456336975,0.3548656702041626,0.5168297290802002,0.6646001935005188,0.33430540561676025,3.471245765686035,1.7437764406204224,0.3428351879119873,9.5819730758667,2.129265785217285,0.010235801339149475,0.016195550560951233,-0.02854265458881855,29.21120834350586,-30.785091400146484,8.22326946258545,0.15413989126682281,-0.15039634704589844,-0.07366323471069336,0.1886952966451645,9.732369422912598,2.2029290199279785
2_20251106_213338,1762435984450,2,0.4065840244293213,0.3541160821914673,0.5171499252319336,0.6647158265113831,0.33064016699790955,3.46824049949646,1.748110294342041,0.42902275919914246,9.68970775604248,1.9963933229446411,0.010235801339149475,0.016195550560951233,-0.02854265458881855,29.212915420532227,-30.759571075439453,8.183247566223145,0.1922619640827179,-0.03412914276123047,-0.1652287244796753,0.23676079511642456,9.723836898803711,2.1616220474243164
2_20251106_213338,1762435984469,2,0.4068370759487152,0.35367557406425476,0.5173669457435608,0.6646266579627991,0.32775795459747314,3.465543031692505,1.752077341079712,0.3919142186641693,9.72921085357666,2.181936264038086,-0.005646679550409317,-0.009460767731070518,-0.03465130180120468,29.199813842773438,-30.784809112548828,8.11464786529541,0.1241227388381958,0.004299163818359375,0.016251325607299805,0.2677914798259735,9.7249116897583,2.165684938430786
2_20251106_213338,1762435984487,2,0.40761688351631165,0.3532532751560211,0.5173642039299011,0.6643755435943604,0.32498323917388916,3.463202476501465,1.755932331085205,0.1944010704755783,9.760334014892578,2.2812912464141846,-0.08444822579622269,0.07728202641010284,-0.15315908193588257,29.19789695739746,-30.822208404541016,8.086823463439941,-0.058712318539619446,0.028337478637695312,0.09248495101928711,0.25311338901519775,9.731996536254883,2.1888062953948975
2_20251106_213338,1762435984507,2,0.40847375988960266,0.3515489995479584,0.517700731754303,0.6644911170005798,0.3213009238243103,3.4601011276245117,1.759714961051941,0.00526728481054306,9.524515151977539,2.0945513248443604,-0.08444822579622269,0.07728202641010284,-0.15315908193588257,29.27040672302246,-30.82986831665039,8.0759859085083,-0.19827687740325928,-0.165985107421875,-0.07540392875671387,0.20354416966438293,9.690500259399414,2.169955253601074
2_20251106_213338,1762435984526,2,0.4091452360153198,0.34919461607933044,0.5185686349868774,0.6646426916122437,0.31710195541381836,3.4566826820373535,1.76262629032135,-0.11563470959663391,9.464662551879883,1.9868168830871582,-0.05757018178701401,0.13287070393562317,-0.17026329040527344,29.273832321166992,-30.767215728759766,8.090821266174316,-0.25534310936927795,-0.18066978454589844,-0.14651060104370117,0.13970839977264404,9.645332336425781,2.1333274841308594
2_20251106_213338,1762435984544,2,0.4095456600189209,0.347423791885376,0.5194500088691711,0.6646358370780945,0.3126882314682007,3.4534175395965576,1.7646292448043823,-0.11802880465984344,9.568805694580078,1.8826735019683838,-0.04046596959233284,0.03879754617810249,0.008720095269382,29.333860397338867,-30.776073455810547,8.120041847229004,-0.20618976652622223,-0.06122112274169922,-0.20052313804626465,0.08816096186637878,9.630026817321777,2.0831966400146484
2_20251106_213338,1762435984564,2,0.40966707468032837,0.3465760052204132,0.5198575854301453,0.6646849513053894,0.3126882314682007,3.4534175395965576,1.7646292448043823,-0.11802880465984344,9.568805694580078,1.8826735019683838,-0.04046596959233284,0.03879754617810249,0.008720095269382,29.309179306030273,-30.789676666259766,8.064732551574707,-0.20618976652622223,-0.06122112274169922,-0.20052313804626465,0.08816096186637878,9.630026817321777,2.0831966400146484
2_20251106_213338,1762435984582,2,0.40942588448524475,0.3465661406517029,0.5198173522949219,0.6648701429367065,0.3076188266277313,3.4501912593841553,1.7663096189498901,0.03519351780414581,9.74716567993164,1.9221763610839844,-0.07039834558963776,-0.011904226616024971,0.1522732973098755,29.2768497467041,-30.716716766357422,8.064845085144043,-0.04237395524978638,0.09371089935302734,-0.1288161277770996,0.07756747305393219,9.653454780578613,2.050992488861084
2_20251106_213338,1762435984601,2,0.40897470712661743,0.3470005393028259,0.5193300843238831,0.6653018593788147,0.30156752467155457,3.4474613666534424,1.7698335647583008,0.5379542112350464,10.046428680419922,2.290867567062378,-0.07039833813905716,0.01741728000342846,0.13883426785469055,29.239177703857422,-30.74380874633789,8.022297859191895,0.3362090587615967,0.2614622116088867,0.18205785751342773,0.2017451524734497,9.784966468811035,2.10880970954895
2_20251106_213338,1762435984621,2,0.4082329571247101,0.3472455143928528,0.5187598466873169,0.6660740375518799,0.30156752467155457,3.4474613666534424,1.7698335647583008,0.5379542112350464,10.046428680419922,2.290867567062378,-0.07223093509674072,0.06201041117310524,0.06736311316490173,29.211591720581055,-30.796161651611328,8.074326515197754,0.3362090587615967,0.2614622116088867,0.18205785751342773,0.2017451524734497,9.784966468811035,2.10880970954895
2_20251106_213338,1762435984641,2,0.40764641761779785,0.34705373644828796,0.5182166695594788,0.6669554710388184,0.3001796007156372,3.4473891258239746,1.7730742692947388,0.5870332717895508,10.066779136657715,2.412966728210449,-0.08444822579622269,0.1255403310060501,-0.007162387482821941,29.23345375061035,-30.832782745361328,8.128581047058105,0.3082304894924164,0.2254495620727539,0.24332547187805176,0.2788027822971344,9.841329574584961,2.1696412563323975
2_20251106_213338,1762435984659,2,0.40713030099868774,0.34591859579086304,0.5180197954177856,0.6680124998092651,0.29883626103401184,3.447673797607422,1.78066086769104,0.32727354764938354,9.755545616149902,2.3160057067871094,-0.06001364067196846,0.17135518789291382,-0.0157144945114851,29.184511184692383,-30.836231231689453,8.153651237487793,0.013975322246551514,-0.08554649353027344,0.057857513427734375,0.31329822540283203,9.841092109680176,2.258148193359375
2_20251106_213338,1762435984679,2,0.406440407037735,0.3441980183124542,0.518202006816864,0.6691790819168091,0.29883626103401184,3.447673797607422,1.78066086769104,0.32727354764938354,9.755545616149902,2.3160057067871094,-0.06001364067196846,0.17135518789291382,-0.0157144945114851,29.184511184692383,-30.836231231689453,8.153651237487793,0.013975322246551514,-0.08554649353027344,0.057857513427734375,0.31329822540283203,9.841092109680176,2.258148193359375
2_20251106_213338,1762435984699,2,0.40555503964424133,0.343411386013031,0.5184812545776367,0.6699036359786987,0.29777613282203674,3.4479196071624756,1.7846312522888184,0.34403225779533386,10.03445816040039,1.7414216995239258,0.0016836971044540405,0.030856303870677948,0.10218239575624466,29.08904457092285,-31.018001556396484,8.187071800231934,0.021202027797698975,0.1607189178466797,-0.35138988494873047,0.3228302299976349,9.873739242553711,2.0928115844726562
2_20251106_213338,1762435984716,2,0.4047808051109314,0.3440636992454529,0.5186754465103149,0.6698868870735168,0.2975921332836151,3.4486634731292725,1.784713625907898,0.4134610891342163,10.054808616638184,1.6695988178253174,0.016955316066741943,0.01069776900112629,0.10768017917871475,29.08904457092285,-31.018001556396484,8.187071800231934,0.07250469923019409,0.14485549926757812,-0.33857011795043945,0.3409563899040222,9.909953117370605,2.008168935775757
2_20251106_213338,1762435984735,2,0.40419691801071167,0.3452199399471283,0.5189296007156372,0.6694476008415222,0.29778289794921875,3.449699640274048,1.78384268283844,0.481692910194397,9.999744415283203,1.658825397491455,0.00840320996940136,0.03696494922041893,0.08752164989709854,29.04886245727539,-31.083301544189453,8.197796821594238,0.11258921027183533,0.07183265686035156,-0.2794748544692993,0.36910369992256165,9.927911758422852,1.9383002519607544
2_20251106_213338,1762435984754,2,0.4036124646663666,0.34621676802635193,0.5192856788635254,0.6690092086791992,0.29867371916770935,3.4510059356689453,1.782862663269043,0.6277329921722412,10.045230865478516,1.882673740386963,0.00840320996940136,0.03696494922041893,0.08752164989709854,29.072233200073242,-31.094676971435547,8.239062309265137,0.20690345764160156,0.09385490417480469,-0.04450118541717529,0.42082953453063965,9.951375961303711,1.9271749258041382
2_20251106_213338,1762435984774,2,0.4032267928123474,0.3466663956642151,0.5191138386726379,0.6691423058509827,0.30063748359680176,3.452786684036255,1.7833884954452515,0.7737729549407959,10.107478141784668,2.4225430488586426,-0.08933514356613159,0.05834521725773811,0.07530435174703598,29.00597381591797,-31.187091827392578,8.288826942443848,0.2823547422885895,0.12488174438476562,0.39629459381103516,0.4914182126522064,9.982596397399902,2.0262484550476074
2_20251106_213338,1762435984792,2,0.4031105935573578,0.3466210961341858,0.5181078314781189,0.6700148582458496,0.303306519985199,3.454634428024292,1.7862493991851807,0.8934779167175293,10.114660263061523,3.0055060386657715,-0.1858517825603485,0.06017781421542168,0.06553051620721817,28.977880477905273,-31.25173568725586,8.313559532165527,0.3216477632522583,0.1056509017944336,0.7834062576293945,0.571830153465271,10.00900936126709,2.222099781036377
2_20251106_213338,1762435984812,2,0.4030918478965759,0.34620600938796997,0.5167127251625061,0.6713168621063232,0.30721810460090637,3.4566659927368164,1.7921239137649536,0.9317834973335266,10.035655975341797,3.1611223220825195,-0.061846233904361725,0.022304197773337364,-0.00105374027043581,28.887853622436523,-31.333309173583984,8.376124382019043,0.2879626750946045,0.0213165283203125,0.7512180805206299,0.6438208222389221,10.014339447021484,2.4099042415618896
2_20251106_213338,1762435984830,2,0.4026987850666046,0.34543099999427795,0.515701174736023,0.6727283000946045,0.30721810460090637,3.4566659927368164,1.7921239137649536,0.9317834973335266,10.035655975341797,3.1611223220825195,-0.061846233904361725,0.022304197773337364,-0.00105374027043581,28.82299041748047,-31.412220001220703,8.33154010772705,0.2879626750946045,0.0213165283203125,0.7512180805206299,0.6438208222389221,10.014339447021484,2.4099042415618896
2_20251106_213338,1762435984851,2,0.4021168649196625,0.3445034623146057,0.5152169466018677,0.6739220023155212,0.3160727024078369,3.459731101989746,1.8070719242095947,0.8563693761825562,9.895600318908691,2.842707395553589,0.012068398296833038,0.038186680525541306,-0.03526216000318527,28.855913162231445,-31.484371185302734,8.250330924987793,0.13239198923110962,-0.08710193634033203,0.24692416191101074,0.7239773869514465,9.982702255249023,2.595783233642578
2_20251106_213338,1762435984869,2,0.4017012417316437,0.34334319829940796,0.5150052309036255,0.6749230623245239,0.32026058435440063,3.460272789001465,1.8143150806427002,0.8001080751419067,9.728013038635254,2.779263973236084,0.00351629126816988,0.07789289206266403,-0.06275107711553574,28.84242820739746,-31.498531341552734,8.330674171447754,0.06090456247329712,-0.2037515640258789,0.14678478240966797,0.7392035126686096,9.931764602661133,2.632479190826416
2_20251106_213338,1762435984889,2,0.4015006124973297,0.34228280186653137,0.514978289604187,0.6756013035774231,0.32026058435440063,3.460272789001465,1.8143150806427002,0.8001080751419067,9.728013038635254,2.779263973236084,0.0603267103433609,0.06262127310037613,-0.08290960639715195,28.856037139892578,-31.461009979248047,8.426569938659668,0.06090456247329712,-0.2037515640258789,0.14678478240966797,0.7392035126686096,9.931764602661133,2.632479190826416
2_20251106_213338,1762435984908,2,0.4011763334274292,0.3415401577949524,0.5153383612632751,0.675895094871521,0.3279452323913574,3.458244562149048,1.8282749652862549,0.5319690108299255,9.447904586791992,2.317202568054199,0.0603267103433609,0.06262127310037613,-0.08290960639715195,28.85372543334961,-31.498950958251953,8.452811241149902,-0.1579117774963379,-0.331695556640625,-0.25406408309936523,0.6898807883262634,9.779600143432617,2.5712666511535645
2_20251106_213338,1762435984927,2,0.4006839394569397,0.3411182463169098,0.5161219239234924,0.6758024096488953,0.3304838240146637,3.455664873123169,1.8324073553085327,0.4529637098312378,9.374883651733398,1.9461171627044678,0.08659389615058899,0.05529089272022247,-0.017547087743878365,28.818082809448242,-31.47689437866211,8.519448280334473,-0.18953365087509155,-0.3237733840942383,-0.5001194477081299,0.6424973607063293,9.698657035827637,2.4462366104125977
2_20251106_213338,1762435984945,2,0.40008819103240967,0.3409668505191803,0.5168994069099426,0.6756375432014465,0.3304838240146637,3.455664873123169,1.8324073553085327,0.4529637098312378,9.374883651733398,1.9461171627044678,0.08659389615058899,0.05529089272022247,-0.017547087743878365,28.812240600585938,-31.364673614501953,8.521332740783691,-0.18953365087509155,-0.3237733840942383,-0.5001194477081299,0.6424973607063293,9.698657035827637,2.4462366104125977
2_20251106_213338,1762435984965,2,0.39943385124206543,0.3411244750022888,0.5169617533683777,0.6758973598480225,0.33448028564453125,3.449205160140991,1.8365846872329712,0.6241418123245239,9.620279312133789,2.1400394439697266,0.012068398296833038,0.02352592721581459,0.060643598437309265,28.803592681884766,-31.291065216064453,8.617039680480957,0.0060645341873168945,-0.01664447784423828,-0.1599588394165039,0.618077278137207,9.636923789978027,2.2999982833862305
2_20251106_213338,1762435984984,2,0.3988686203956604,0.3419075906276703,0.5162643790245056,0.6763682961463928,0.3366379141807556,3.446922540664673,1.838330864906311,0.7797582149505615,9.86926555633545,2.368675708770752,-0.01786397397518158,-0.05832994356751442,0.147386372089386,28.767343521118164,-31.281429290771484,8.66989803314209,0.12934476137161255,0.18587398529052734,0.05494189262390137,0.650413453578949,9.683391571044922,2.3137338161468506
2_20251106_213338,1762435985003,2,0.3980903923511505,0.3428651690483093,0.5155358910560608,0.6768975257873535,0.3396870791912079,3.4454057216644287,1.840504765510559,0.9042513370513916,9.976999282836914,2.4225430488586426,0.010846666991710663,-0.04794524610042572,0.10706932097673416,28.76947021484375,-31.23214340209961,8.765568733215332,0.2030702829360962,0.23488616943359375,0.08704733848571777,0.7011810541152954,9.74211311340332,2.335495710372925
2_20251106_213338,1762435985021,2,0.39751359820365906,0.3437352478504181,0.515079140663147,0.6771429181098938,0.342835396528244,3.4447314739227295,1.8427222967147827,0.9210100173950195,9.994955062866211,2.48119854927063,0.010846666991710663,-0.04794524610042572,0.10706932097673416,28.694141387939453,-31.274715423583984,8.775349617004395,0.1758631467819214,0.20227336883544922,0.1165621280670166,0.7451468706130981,9.792681694030762,2.3646364212036133
2_20251106_213338,1762435985040,2,0.3971222937107086,0.34453085064888,0.5147379040718079,0.6772276759147644,0.346094012260437,3.4445905685424805,1.8451770544052124,0.7821522951126099,9.987773895263672,2.448878049850464,0.0242856927216053,-0.026564981788396835,0.03437641263008118,28.689924240112305,-31.338443756103516,8.868643760681152,0.029604315757751465,0.15607357025146484,0.06739330291748047,0.7525479793548584,9.831700325012207,2.3814847469329834
2_20251106_213338,1762435985059,2,0.3970218896865845,0.3445970416069031,0.5147126317024231,0.6772720217704773,0.3487158715724945,3.4445531368255615,1.8478220701217651,0.579850971698761,9.866870880126953,2.49556303024292,0.013900991529226303,0.03696494922041893,-0.08229874819517136,28.676624298095703,-31.363948822021484,8.82707691192627,-0.13815760612487793,0.028136253356933594,0.0912625789642334,0.7180085778236389,9.83873462677002,2.4043004512786865
2_20251106_213338,1762435985080,2,0.39706724882125854,0.3441009223461151,0.5150664448738098,0.6772286891937256,0.3487158715724945,3.4445531368255615,1.8478220701217651,0.579850971698761,9.866870880126953,2.49556303024292,0.013290125876665115,0.057734351605176926,-0.0798552855849266,28.713788986206055,-31.349140167236328,8.842328071594238,-0.13815760612487793,0.028136253356933594,0.0912625789642334,0.7180085778236389,9.83873462677002,2.4043004512786865
2_20251106_213338,1762435985100,2,0.39716559648513794,0.3432028293609619,0.5155528783798218,0.6772566437721252,0.35060736536979675,3.4440431594848633,1.8513754606246948,0.4481755495071411,9.711255073547363,2.5793566703796387,0.04322249814867973,0.04429532587528229,-0.06336194276809692,28.696880340576172,-31.425952911376953,8.907835960388184,-0.21586644649505615,-0.10198402404785156,0.140045166015625,0.6640419960021973,9.813239097595215,2.4393115043640137
2_20251106_213338,1762435985118,2,0.39709562063217163,0.3422362804412842,0.5161686539649963,0.67731773853302,0.3512309789657593,3.441181182861328,1.8570592403411865,0.23510074615478516,9.518529891967773,2.383040428161621,0.07620919495820999,0.008865173906087875,-0.046868592500686646,28.67008399963379,-31.477230072021484,8.85173511505127,-0.2986549735069275,-0.19148635864257812,-0.052101850509643555,0.5337557196617126,9.710016250610352,2.4351422786712646
2_20251106_213338,1762435985138,2,0.39699289202690125,0.34168997406959534,0.5168890953063965,0.6771042943000793,0.3498461842536926,3.4387528896331787,1.859130859375,0.14053384959697723,9.486209869384766,2.213059425354004,0.06704622507095337,0.03574322164058685,-0.021823139861226082,28.67008399963379,-31.477230072021484,8.85173511505127,-0.31457751989364624,-0.1790447235107422,-0.17766618728637695,0.4551113545894623,9.665254592895508,2.390725612640381
2_20251106_213338,1762435985155,2,0.39671653509140015,0.34097781777381897,0.5177561640739441,0.6769628524780273,0.3498461842536926,3.4387528896331787,1.859130859375,0.14053384959697723,9.486209869384766,2.213059425354004,0.04322249814867973,0.057734351605176926,0.015439607203006744,28.72125244140625,-31.424365997314453,8.908818244934082,-0.31457751989364624,-0.1790447235107422,-0.17766618728637695,0.4551113545894623,9.665254592895508,2.390725612640381
2_20251106_213338,1762435985175,2,0.3963109850883484,0.340347021818161,0.5185816884040833,0.6768859028816223,0.3456004559993744,3.433232069015503,1.8596656322479248,0.23629780113697052,9.48261833190918,1.8431711196899414,0.03711384907364845,0.03574322164058685,0.05758927762508392,28.696386337280273,-31.426624298095703,8.975419044494629,-0.12988974153995514,-0.1153554916381836,-0.38146233558654785,0.36618754267692566,9.597973823547363,2.2246334552764893
2_20251106_213338,1762435985194,2,0.39575397968292236,0.3402785360813141,0.5192427039146423,0.6767394542694092,0.34319043159484863,3.4302010536193848,1.8579741716384888,0.2997414469718933,9.517332077026367,1.7414218187332153,0.012068398296833038,0.01986073888838291,0.08813250809907913,28.722984313964844,-31.375614166259766,9.058552742004395,-0.053156882524490356,-0.0645132064819336,-0.38656938076019287,0.35289832949638367,9.5818452835083,2.127991199493408
2_20251106_213338,1762435985213,2,0.39518681168556213,0.3406963050365448,0.5196531414985657,0.6765456795692444,0.34116557240486145,3.426924467086792,1.8552114963531494,0.4493725895881653,9.437129974365234,1.7067073583602905,-0.03374645486474037,0.025358520448207855,0.10706932097673416,28.73748207092285,-31.33687973022461,9.032803535461426,0.07717940211296082,-0.11577224731445312,-0.3370269536972046,0.37219318747520447,9.552902221679688,2.043734312057495
2_20251106_213338,1762435985233,2,0.3946622312068939,0.34123775362968445,0.5197290778160095,0.6765206456184387,0.3399212062358856,3.423612594604492,1.8512240648269653,0.6289299726486206,9.541274070739746,1.6408696174621582,-0.03374645486474037,0.025358520448207855,0.10706932097673416,28.650375366210938,-31.368091583251953,9.082907676696777,0.20538944005966187,-0.009303092956542969,-0.3222917318344116,0.42354053258895874,9.550577163696289,1.9631613492965698
2_20251106_213338,1762435985252,2,0.39417141675949097,0.3419082462787628,0.5193662047386169,0.6767469048500061,0.3398739993572235,3.421353578567505,1.8466590642929077,0.8156697154045105,9.816595077514648,1.6109434366226196,-0.1198783814907074,0.027801979333162308,0.11317796260118484,28.625595092773438,-31.381832122802734,9.04111385345459,0.31370335817337036,0.2128143310546875,-0.2817744016647339,0.5019663572311401,9.603780746459961,1.8927178382873535
2_20251106_213338,1762435985271,2,0.3937443196773529,0.34269005060195923,0.5186876654624939,0.6771203875541687,0.340828001499176,3.4200949668884277,1.8422960042953491,0.9066454172134399,9.918344497680664,1.7893037796020508,-0.16447150707244873,0.030856303870677948,0.0740826204419136,28.553071975708008,-31.385791778564453,8.957074165344238,0.32374322414398193,0.2516508102416992,-0.08273124694824219,0.582902193069458,9.666693687438965,1.872035026550293
2_20251106_213338,1762435985290,2,0.3937315046787262,0.34350624680519104,0.5177494287490845,0.6774322986602783,0.3428628444671631,3.4193530082702637,1.8384943008422852,0.9210100173950195,9.859688758850098,2.1364481449127197,-0.2072320431470871,0.04918224364519119,0.04231765866279602,28.56656837463379,-31.36001968383789,8.97160816192627,0.2704862356185913,0.15439605712890625,0.21153044700622559,0.6505237817764282,9.705292701721191,1.9249176979064941
2_20251106_213338,1762435985310,2,0.3938847780227661,0.3437918722629547,0.5165601372718811,0.6781058311462402,0.34549814462661743,3.4186482429504395,1.836431860923767,0.881507396697998,9.705268859863281,2.434513568878174,-0.21944934129714966,0.04001927748322487,0.0435393825173378,28.488208770751953,-31.464702606201172,8.912487983703613,0.184786856174469,-1.9073486328125e-05,0.40767669677734375,0.696720540523529,9.70528793334961,2.02683687210083
2_20251106_213338,1762435985329,2,0.3939567506313324,0.3436088562011719,0.5150622725486755,0.6792951226234436,0.34549814462661743,3.4186482429504395,1.836431860923767,0.881507396697998,9.705268859863281,2.434513568878174,-0.21517328917980194,-0.016180280596017838,0.08385645598173141,28.448719024658203,-31.529064178466797,8.828598976135254,0.184786856174469,-1.9073486328125e-05,0.40767669677734375,0.696720540523529,9.70528793334961,2.02683687210083
2_20251106_213338,1762435985346,2,0.3940076231956482,0.3435591161251068,0.513080894947052,0.6807886362075806,0.3513021767139435,3.4179627895355225,1.8391894102096558,0.96170973777771,9.84292984008789,3.1970338821411133,-0.17241275310516357,-0.04855610802769661,0.11501055955886841,28.397241592407227,-31.593952178955078,8.71718692779541,0.1835746169090271,0.1022634506225586,0.808682918548584,0.7781351208686829,9.740666389465332,2.3883509635925293
2_20251106_213338,1762435985365,2,0.3937830328941345,0.3435196578502655,0.5109714269638062,0.6825228333473206,0.3551568388938904,3.4178104400634766,1.8437227010726929,1.0514883995056152,9.749560356140137,3.1000728607177734,-0.17241275310516357,-0.04855610802769661,0.11501055955886841,28.295610427856445,-31.687129974365234,8.603285789489746,0.2186826467514038,0.007115364074707031,0.5693774223327637,0.8328057527542114,9.74244499206543,2.5306954383850098
2_20251106_213338,1762435985385,2,0.39321061968803406,0.34359291195869446,0.5095038414001465,0.6839116811752319,0.3551568388938904,3.4178104400634766,1.8437227010726929,1.0514883995056152,9.749560356140137,3.1000728607177734,0.07010054588317871,-0.05588648468255997,0.025213440880179405,28.30355453491211,-31.77328872680664,8.50731372833252,0.2186826467514038,0.007115364074707031,0.5693774223327637,0.8328057527542114,9.74244499206543,2.5306954383850098
2_20251106_213338,1762435985404,2,0.3926728069782257,0.3439454138278961,0.5089558959007263,0.6844512820243835,0.3631570637226105,3.4165444374084473,1.8530199527740479,0.7582113742828369,9.607111930847168,2.3411436080932617,0.027340013533830643,0.005810850765556097,-0.0541989728808403,28.261554718017578,-31.875858306884766,8.476698875427246,-0.08374768495559692,-0.08986854553222656,-0.1839427947998047,0.8419590592384338,9.696980476379395,2.5250864028930664
2_20251106_213338,1762435985424,2,0.3926366865634918,0.3437279462814331,0.5089032053947449,0.6846203804016113,0.36591672897338867,3.415168523788452,1.8559027910232544,0.552318811416626,9.494588851928711,2.132857084274292,-0.06978747248649597,0.06262127310037613,-0.09451603889465332,28.260343551635742,-31.900699615478516,8.449137687683105,-0.23171216249465942,-0.1619129180908203,-0.3137834072113037,0.7840309739112854,9.656501770019531,2.4466404914855957
2_20251106_213338,1762435985442,2,0.39311325550079346,0.3427988588809967,0.509033739566803,0.6847156882286072,0.36732247471809387,3.4135992527008057,1.8575183153152466,0.3967024087905884,9.49698257446289,2.101733684539795,-0.0991089791059494,0.0204716045409441,-0.06091848015785217,28.256200790405273,-31.98752212524414,8.339159965515137,-0.3098628520965576,-0.12761497497558594,-0.2759253978729248,0.706565260887146,9.624597549438477,2.3776590824127197
2_20251106_213338,1762435985462,2,0.39383479952812195,0.34219828248023987,0.5089971423149109,0.6846286654472351,0.3676168918609619,3.411926031112671,1.858770489692688,0.31530308723449707,9.619081497192383,2.228621006011963,-0.07895044982433319,-0.06566031277179718,0.007498365826904774,28.2537899017334,-32.02560043334961,8.37891674041748,-0.31300973892211914,-0.004412651062011719,-0.11923050880432129,0.6283128261566162,9.623494148254395,2.347851514816284
2_20251106_213338,1762435985480,2,0.39455127716064453,0.3423997163772583,0.5087102651596069,0.684328556060791,0.36707428097724915,3.4107911586761475,1.859789252281189,0.30572664737701416,9.743574142456055,2.3267788887023926,-0.0734526664018631,-0.07787761092185974,0.0539240837097168,28.202720642089844,-32.07833480834961,8.308318138122559,-0.25806891918182373,0.09606361389160156,-0.01685810089111328,0.5637955665588379,9.647510528564453,2.343636989593506
2_20251106_213338,1762435985500,2,0.3949327766895294,0.34260544180870056,0.5083323121070862,0.6842864155769348,0.3657606542110443,3.40999436378479,1.8608133792877197,0.32009124755859375,9.779487609863281,2.3267788887023926,-0.09483292698860168,-0.05161043256521225,0.0588110014796257,28.15205955505371,-32.11891555786133,8.278531074523926,-0.1949634552001953,0.10558128356933594,-0.013486385345458984,0.5150547027587891,9.673906326293945,2.3402652740478516
2_20251106_213338,1762435985519,2,0.3952919840812683,0.3425365388393402,0.5078414678573608,0.6844779253005981,0.3657606542110443,3.40999436378479,1.8608133792877197,0.32009124755859375,9.779487609863281,2.3267788887023926,-0.09483292698860168,-0.05161043256521225,0.0588110014796257,28.199689865112305,-32.140445709228516,8.239415168762207,-0.1949634552001953,0.10558128356933594,-0.013486385345458984,0.5150547027587891,9.673906326293945,2.3402652740478516
2_20251106_213338,1762435985540,2,0.39574241638183594,0.342424213886261,0.5072644948959351,0.6847016215324402,0.36251845955848694,3.4103951454162598,1.8637746572494507,0.45416080951690674,10.003334999084473,2.682302713394165,-0.10705022513866425,-0.0797102078795433,0.02704603783786297,28.129182815551758,-32.106868743896484,8.169682502746582,-0.028246521949768066,0.2340097427368164,0.2660198211669922,0.4824073314666748,9.769325256347656,2.416282892227173
2_20251106_213338,1762435985559,2,0.3964712619781494,0.342460572719574,0.5066057443618774,0.6847494840621948,0.36251845955848694,3.4103951454162598,1.8637746572494507,0.45416080951690674,10.003334999084473,2.682302713394165,-0.09361119568347931,-0.027786709368228912,-0.046868592500686646,28.095134735107422,-32.071041107177734,8.114937782287598,-0.028246521949768066,0.2340097427368164,0.2660198211669922,0.4824073314666748,9.769325256347656,2.416282892227173
2_20251106_213338,1762435985577,2,0.3972507417201996,0.341616153717041,0.5062567591667175,0.684977650642395,0.3587605655193329,3.414036512374878,1.8717472553253174,0.24108600616455078,10.101492881774902,3.107255220413208,-0.10155244171619415,0.10477093607187271,-0.1360548585653305,28.095134735107422,-32.071041107177734,8.114937782287598,-0.18068495392799377,0.20952320098876953,0.4569699764251709,0.42177096009254456,9.891969680786133,2.650285243988037
2_20251106_213338,1762435985596,2,0.39789292216300964,0.3390367031097412,0.5064924955368042,0.6857118010520935,0.3557111322879791,3.4159865379333496,1.8775475025177002,0.0639226883649826,9.852506637573242,3.122817039489746,-0.0991089791059494,0.1976223737001419,-0.16904154419898987,28.06853675842285,-32.12205123901367,8.031804084777832,-0.2862786054611206,-0.0315704345703125,0.3780252933502197,0.3502013087272644,9.884077072143555,2.7447917461395264
2_20251106_213338,1762435985614,2,0.39831122756004333,0.3363482356071472,0.5071803331375122,0.6862843036651611,0.35185495018959045,3.4171156883239746,1.883669137954712,-0.10127012431621552,9.629855155944824,3.110846519470215,-0.06734401732683182,0.20678533613681793,-0.11833976954221725,28.067522048950195,-32.14662551879883,7.977211952209473,-0.36117714643478394,-0.20337772369384766,0.2928438186645508,0.2599070370197296,9.833232879638672,2.818002700805664
2_20251106_213338,1762435985634,2,0.3982556164264679,0.3339259624481201,0.5079536437988281,0.6869272589683533,0.3464936912059784,3.4173145294189453,1.8907772302627563,-0.16471374034881592,9.506559371948242,3.030643939971924,-0.028859538957476616,0.17868556082248688,-0.0047189295291900635,28.096506118774414,-32.08076858520508,7.83083438873291,-0.33969664573669434,-0.2613382339477539,0.17011308670043945,0.17498289048671722,9.767897605895996,2.8605308532714844
2_20251106_213338,1762435985652,2,0.3975185751914978,0.3323802053928375,0.5085003972053528,0.6876988410949707,0.3464936912059784,3.4173145294189453,1.8907772302627563,-0.16471374034881592,9.506559371948242,3.030643939971924,-0.028859538957476616,0.17868556082248688,-0.0047189295291900635,28.13678550720215,-32.01533126831055,7.806591987609863,-0.33969664573669434,-0.2613382339477539,0.17011308670043945,0.17498289048671722,9.767897605895996,2.8605308532714844
2_20251106_213338,1762435985672,2,0.39597445726394653,0.33192411065101624,0.508603036403656,0.6887332797050476,0.33529403805732727,3.415480613708496,1.9039320945739746,0.17764237523078918,9.494588851928711,2.682302951812744,0.05116374045610428,0.1102687194943428,0.2750571072101593,28.19961929321289,-31.98556900024414,7.741990089416504,0.045178890228271484,-0.1751089096069336,-0.16348004341125488,0.1324634850025177,9.669697761535645,2.845782995223999
2_20251106_213338,1762435985691,2,0.3934779167175293,0.3324938714504242,0.5085387229919434,0.6899357438087463,0.3313705623149872,3.4139163494110107,1.9082820415496826,0.5116191506385803,9.508953094482422,2.3746609687805176,0.10247638076543808,0.054680030792951584,0.3691302537918091,28.138195037841797,-31.990215301513672,7.8071184158325195,0.30332452058792114,-0.12859535217285156,-0.37689757347106934,0.20829461514949799,9.637548446655273,2.751558542251587
2_20251106_213338,1762435985710,2,0.39050742983818054,0.334210067987442,0.5082800984382629,0.6909840106964111,0.32936549186706543,3.412461757659912,1.9110716581344604,0.8360195159912109,9.649007797241211,2.2621383666992188,0.07865265011787415,0.028412844985723495,0.39539748430252075,28.136192321777344,-32.01613998413086,7.887688636779785,0.5021799206733704,0.009167671203613281,-0.39153623580932617,0.3338395953178406,9.639840126037598,2.653674602508545
2_20251106_213338,1762435985729,2,0.3874596357345581,0.3361762464046478,0.5077168345451355,0.6921590566635132,0.3297777473926544,3.4117519855499268,1.9124997854232788,1.1783757209777832,9.88482666015625,2.208271026611328,0.03344866260886192,0.0436844639480114,0.36424335837364197,28.08272361755371,-32.095333099365234,7.951724052429199,0.6756289005279541,0.19598960876464844,-0.3563230037689209,0.5027468204498291,9.688837051391602,2.564594030380249
2_20251106_213338,1762435985750,2,0.38469910621643066,0.33781811594963074,0.5069724321365356,0.6934439539909363,0.3297777473926544,3.4117519855499268,1.9124997854232788,1.1783757209777832,9.88482666015625,2.208271026611328,0.00046196766197681427,0.05040397867560387,0.290939599275589,28.040935516357422,-32.1860237121582,7.988953590393066,0.6756289005279541,0.19598960876464844,-0.3563230037689209,0.5027468204498291,9.688837051391602,2.564594030380249
2_20251106_213338,1762435985767,2,0.38247179985046387,0.33900922536849976,0.5062446594238281,0.6946253776550293,0.3336675465106964,3.4119739532470703,1.9128260612487793,1.4369384050369263,9.961438179016113,2.226227045059204,-0.04596375301480293,0.04124100133776665,0.18953603506088257,27.841630935668945,-32.27421188354492,7.993039131164551,0.7473533153533936,0.21808147430419922,-0.2706935405731201,0.6895850896835327,9.743356704711914,2.496920585632324
2_20251106_213338,1762435985787,2,0.3811792731285095,0.33970770239830017,0.5054312348365784,0.6955862641334534,0.34495124220848083,3.413996458053589,1.9139127731323242,1.4608793258666992,9.97939395904541,2.7816579341888428,-0.07467439025640488,0.08033635467290878,0.08263472467660904,27.708703994750977,-32.471187591552734,8.051756858825684,0.487499475479126,0.14780807495117188,0.23183774948120117,0.9733798503875732,9.831585884094238,2.5498201847076416
2_20251106_213338,1762435985806,2,0.38045114278793335,0.33946511149406433,0.5049041509628296,0.6964855790138245,0.34495124220848083,3.413996458053589,1.9139127731323242,1.4608793258666992,9.97939395904541,2.7816579341888428,-0.07467439025640488,0.08033635467290878,0.08263472467660904,27.541839599609375,-32.62058639526367,8.137091636657715,0.487499475479126,0.14780807495117188,0.23183774948120117,0.9733798503875732,9.831585884094238,2.5498201847076416
