session_id,timestamp,label,quaternion_w,quaternion_x,quaternion_y,quaternion_z,position_x,position_y,position_z,accelerometer_x,accelerometer_y,accelerometer_z,gyroscope_x,gyroscope_y,gyroscope_z,magnetometer_x,magnetometer_y,magnetometer_z,linear_acceleration_x,linear_acceleration_y,linear_acceleration_z,gravity_x,gravity_y,gravity_z
6_20251106_215308,1762437151205,6,0.44855213165283203,0.4953157901763916,0.5932396054267883,0.44892096519470215,-0.7013754844665527,2.600261688232422,1.540702223777771,4.4271674156188965,12.969623565673828,2.52309513092041,-0.5824595093727112,-0.21593688428401947,1.9433859586715698,50.63593292236328,-28.702701568603516,9.669378280639648,5.336322784423828,3.969799041748047,1.7783422470092773,-0.9091554880142212,8.999824523925781,0.7447529435157776
6_20251106_215308,1762437151224,6,0.4439290761947632,0.5042300224304199,0.5800933837890625,0.46061989665031433,-0.6725877523422241,2.6464757919311523,1.5474885702133179,5.828912734985352,13.18748664855957,3.092890739440918,-0.28985530138015747,-0.054668575525283813,1.4064358472824097,50.40762710571289,-29.43764877319336,10.376855850219727,5.3904547691345215,3.350130081176758,1.8785102367401123,0.43845802545547485,9.837356567382812,1.2143805027008057
6_20251106_215308,1762437151243,6,0.43895626068115234,0.5105577707290649,0.5711230635643005,0.46953871846199036,-0.6318373084068298,2.695161819458008,1.5557456016540527,5.821730136871338,12.380674362182617,1.9916051626205444,-0.10354156792163849,0.4657881557941437,0.48036491870880127,49.99971389770508,-30.381526947021484,10.762369155883789,4.306617736816406,2.0346546173095703,0.6217797994613647,1.5151124000549316,10.346019744873047,1.3698253631591797
6_20251106_215308,1762437151262,6,0.4341786205768585,0.5102760195732117,0.5694409608840942,0.4762817323207855,-0.5866817235946655,2.7418625354766846,1.5630296468734741,3.8633575439453125,10.509686470031738,1.1656410694122314,-0.03390299156308174,0.7528945803642273,-0.4066106677055359,49.620399475097656,-31.248477935791016,11.150445938110352,1.8785961866378784,0.13093280792236328,-0.16334748268127441,1.984761357307434,10.378753662109375,1.3289885520935059
6_20251106_215308,1762437151281,6,0.4314643442630768,0.5044175386428833,0.5735612511634827,0.4800301790237427,-0.5448205471038818,2.7813327312469482,1.567369818687439,1.606919288635254,8.59440803527832,0.38875603675842285,-0.03390299156308174,0.7528945803642273,-0.4066106677055359,49.28640365600586,-32.17490005493164,11.525650024414062,-0.30227363109588623,-1.4274768829345703,-0.7521859407424927,1.9091929197311401,10.02188491821289,1.1409419775009155
6_20251106_215308,1762437151300,6,0.4305194616317749,0.4952629506587982,0.5801272392272949,0.48251426219940186,-0.5098852515220642,2.8115499019622803,1.568854570388794,0.14771614968776703,7.368628978729248,0.17927239835262299,-0.14752383530139923,0.6545453667640686,-0.7719077467918396,48.927127838134766,-32.90279006958008,11.903604507446289,-1.4091814756393433,-2.1226048469543457,-0.7693356275558472,1.5568976402282715,9.491233825683594,0.9486080408096313
6_20251106_215308,1762437151321,6,0.43093597888946533,0.48721498250961304,0.5854960680007935,0.4838492274284363,-0.4819028973579407,2.8347675800323486,1.5680164098739624,-0.34068000316619873,7.490727424621582,0.1289963275194168,-0.0827721655368805,0.3032981753349304,-0.4628101885318756,48.789100646972656,-33.37765121459961,12.200298309326172,-1.5180621147155762,-1.6004047393798828,-0.6556894183158875,1.1773821115493774,9.091132164001465,0.7846857309341431
6_20251106_215308,1762437151339,6,0.43173953890800476,0.4826430082321167,0.5884180068969727,0.4841703474521637,-0.4819028973579407,2.8347675800323486,1.5680164098739624,-0.34068000316619873,7.490727424621582,0.1289963275194168,-0.0827721655368805,0.3032981753349304,-0.4628101885318756,48.789100646972656,-33.37765121459961,12.200298309326172,-1.5180621147155762,-1.6004047393798828,-0.6556894183158875,1.1773821115493774,9.091132164001465,0.7846857309341431
6_20251106_215308,1762437151360,6,0.43244946002960205,0.4806484878063202,0.5894977450370789,0.48420748114585876,-0.45540300011634827,2.857154607772827,1.5636521577835083,0.013646617531776428,8.234095573425293,-0.15111322700977325,-0.08521562814712524,0.03818286210298538,-0.15249091386795044,48.67302703857422,-33.67605209350586,12.514694213867188,-0.9309883713722229,-0.6856288909912109,-0.7486391663551331,0.9446349740028381,8.919724464416504,0.597525954246521
6_20251106_215308,1762437151379,6,0.4332902133464813,0.4790431559085846,0.5899015069007874,0.4845549166202545,-0.41636747121810913,2.894702911376953,1.5480625629425049,0.6265358924865723,9.48261833190918,-0.6538739800453186,-0.1792888045310974,0.07911080121994019,-0.2422880232334137,48.604888916015625,-33.77102279663086,12.821268081665039,-0.17255592346191406,0.44107627868652344,-0.829625129699707,0.7990918159484863,9.041542053222656,0.17575116455554962
6_20251106_215308,1762437151396,6,0.4346452057361603,0.47643789649009705,0.5904245972633362,0.4852723479270935,-0.40164920687675476,2.9123899936676025,1.5390288829803467,0.26742106676101685,9.725619316101074,-0.43960216641426086,-0.1792888045310974,0.07911080121994019,-0.2422880232334137,48.695770263671875,-33.63029861450195,13.124963760375977,-0.4253365993499756,0.5472612380981445,-0.4922826886177063,0.6927576661109924,9.17835807800293,0.05268050730228424
6_20251106_215308,1762437151416,6,0.4367403984069824,0.4732680320739746,0.5909712314605713,0.48582732677459717,-0.3880899250507355,2.934389114379883,1.5273922681808472,-0.2580835819244385,9.912359237670898,-0.45396676659584045,-0.23487748205661774,0.06445004791021347,-0.33208513259887695,49.06631851196289,-33.27078628540039,13.403121948242188,-0.7606729865074158,0.5872011184692383,-0.4053178131580353,0.5025894045829773,9.32515811920166,-0.04864894226193428
6_20251106_215308,1762437151436,6,0.43851158022880554,0.46990400552749634,0.5915325880050659,0.48681312799453735,-0.3788711428642273,2.957033395767212,1.5146139860153198,-0.7021889090538025,9.899191856384277,-0.6155683994293213,-0.24892738461494446,0.11759527772665024,-0.13172152638435364,49.44804000854492,-32.935054779052734,13.627178192138672,-0.9638226628303528,0.4592275619506836,-0.4535355567932129,0.2616337537765503,9.439964294433594,-0.1620328277349472
6_20251106_215308,1762437151453,6,0.4395221173763275,0.4673856794834137,0.5914111733436584,0.4884708523750305,-0.37343084812164307,2.9762141704559326,1.5032836198806763,-0.6507157683372498,9.847718238830566,-0.6227506995201111,-0.23304489254951477,0.0424589142203331,0.07536161690950394,49.76055145263672,-32.5523796081543,13.700668334960938,-0.72987961769104,0.3262033462524414,-0.368574321269989,0.07916384935379028,9.521514892578125,-0.25417637825012207
6_20251106_215308,1762437151474,6,0.4399752914905548,0.4664387106895447,0.590171217918396,0.4904636740684509,-0.3683573603630066,3.000422716140747,1.4885390996932983,-0.31195080280303955,10.028472900390625,-0.6861943006515503,-0.17867793142795563,-0.0864335373044014,0.17737603187561035,50.06359100341797,-32.3449592590332,13.716398239135742,-0.31289172172546387,0.4055671691894531,-0.34561434388160706,0.0009409263730049133,9.622905731201172,-0.34057995676994324
6_20251106_215308,1762437151492,6,0.44045931100845337,0.466948539018631,0.5881554484367371,0.4919632375240326,-0.3646380305290222,3.020275354385376,1.4769114255905151,-0.08211734890937805,10.185285568237305,-0.47192245721817017,-0.08949168026447296,-0.2666386365890503,0.1700456440448761,50.24727249145508,-32.33182907104492,13.602108001708984,-0.06644661724567413,0.4499034881591797,-0.10507398843765259,-0.01567072793841362,9.735382080078125,-0.3668484687805176
6_20251106_215308,1762437151510,6,0.44150444865226746,0.46864768862724304,0.5858333706855774,0.49218133091926575,-0.3604968786239624,3.043353796005249,1.4647765159606934,0.054346293210983276,10.46419906616211,-0.28997093439102173,-0.0033597545698285103,-0.3338337540626526,0.09368755668401718,50.458736419677734,-32.26607894897461,13.408758163452148,0.05601361766457558,0.5830535888671875,0.061502039432525635,-0.0016673244535923004,9.881145477294922,-0.35147297382354736
6_20251106_215308,1762437151531,6,0.4428902566432953,0.47059938311576843,0.5839177966117859,0.49134960770606995,-0.3564062714576721,3.0691630840301514,1.4521727561950684,-0.07852618396282196,10.351676940917969,-0.31032079458236694,0.02779434621334076,-0.2605299651622772,-0.051698245108127594,50.64391326904297,-32.239315032958984,13.186601638793945,-0.06148708984255791,0.37642574310302734,0.03292173147201538,-0.017039094120264053,9.975251197814941,-0.3432425260543823
6_20251106_215308,1762437151549,6,0.44443151354789734,0.4715491533279419,0.5830426216125488,0.49008500576019287,-0.3564062714576721,3.0691630840301514,1.4521727561950684,-0.07852618396282196,10.351676940917969,-0.31032079458236694,0.0027488917112350464,-0.11758764088153839,-0.1958623230457306,50.851558685302734,-32.236751556396484,13.032480239868164,-0.06148708984255791,0.37642574310302734,0.03292173147201538,-0.017039094120264053,9.975251197814941,-0.3432425260543823
6_20251106_215308,1762437151569,6,0.44594669342041016,0.47087979316711426,0.5833429098129272,0.48899367451667786,-0.3547080457210541,3.0930838584899902,1.4399415254592896,-0.6758538484573364,10.162542343139648,-0.6155683994293213,-0.043065961450338364,-0.02290360815823078,-0.23312507569789886,50.93632888793945,-32.26670455932617,12.81886100769043,-0.5270518064498901,0.14983272552490234,-0.21786069869995117,-0.1488020271062851,10.012709617614746,-0.3977077007293701
6_20251106_215308,1762437151588,6,0.4473578631877899,0.46933668851852417,0.5840889811515808,0.48829713463783264,-0.36008909344673157,3.133632183074951,1.415175199508667,-1.5281529426574707,10.186483383178711,-1.1781816482543945,-0.07544179260730743,-0.028401389718055725,-0.15188005566596985,51.03166198730469,-32.33285903930664,12.537359237670898,-0.9249207377433777,0.13209152221679688,-0.5341698527336121,-0.603232204914093,10.054391860961914,-0.6440117955207825
6_20251106_215308,1762437151606,6,0.44866424798965454,0.4681798219680786,0.5843329429626465,0.48791706562042236,-0.36636802554130554,3.15436053276062,1.4011799097061157,-1.4108421802520752,10.334917068481445,-1.0441120862960815,-0.07910697907209396,-0.10903553664684296,-0.0358157604932785,51.13948059082031,-32.3978157043457,12.215799331665039,-0.6460880041122437,0.22442054748535156,-0.3200802803039551,-0.7647541761398315,10.110496520996094,-0.7240318059921265
6_20251106_215308,1762437151626,6,0.4499286115169525,0.46805456280708313,0.5837193131446838,0.48760735988616943,-0.37325170636177063,3.1748127937316895,1.387561321258545,-1.0996092557907104,10.387587547302246,-0.8418107628822327,-0.019242238253355026,-0.19638918340206146,0.03443368524312973,51.24821472167969,-32.43833541870117,11.962348937988281,-0.2678840756416321,0.22167301177978516,-0.09422314167022705,-0.8317251801490784,10.165914535522461,-0.7475876212120056
6_20251106_215308,1762437151645,6,0.4510987401008606,0.46900349855422974,0.5826473832130432,0.48689597845077515,-0.3805094361305237,3.1958916187286377,1.3736234903335571,-0.9547663331031799,10.372025489807129,-0.852584183216095,0.08888080716133118,-0.3069556951522827,0.036877140402793884,51.386253356933594,-32.38936996459961,11.711727142333984,-0.09843289852142334,0.16488933563232422,-0.08399724960327148,-0.8563334345817566,10.207136154174805,-0.7685869336128235
6_20251106_215308,1762437151664,6,0.4523093104362488,0.47088971734046936,0.5815845131874084,0.48522016406059265,-0.38760876655578613,3.215160846710205,1.3608371019363403,-1.0565155744552612,10.296611785888672,-0.8442049026489258,0.1548541933298111,-0.374761700630188,0.00022525805979967117,51.471431732177734,-32.407169342041016,11.538921356201172,-0.16014569997787476,0.0715799331665039,-0.060494422912597656,-0.8963698744773865,10.225031852722168,-0.7837104797363281
6_20251106_215308,1762437151682,6,0.4537602663040161,0.4732036590576172,0.5806602835655212,0.48271477222442627,-0.38760876655578613,3.215160846710205,1.3608371019363403,-1.0565155744552612,10.296611785888672,-0.8442049026489258,0.11209367215633392,-0.3277251124382019,-0.04986564815044403,51.59526824951172,-32.39652633666992,11.273500442504883,-0.16014569997787476,0.0715799331665039,-0.060494422912597656,-0.8963698744773865,10.225031852722168,-0.7837104797363281
6_20251106_215308,1762437151702,6,0.45537498593330383,0.47480887174606323,0.5799769163131714,0.4804341197013855,-0.3958827257156372,3.2343528270721436,1.34882390499115,-1.2827578783035278,10.199651718139648,-0.5293807983398438,0.03817904740571976,-0.16951113939285278,-0.1390518993139267,51.71818923950195,-32.41032791137695,10.939970016479492,-0.3091104030609131,-0.02030467987060547,0.20346373319625854,-0.9736474752426147,10.219956398010254,-0.7328445315361023
6_20251106_215308,1762437151720,6,0.45692095160484314,0.4748119115829468,0.5800240635871887,0.4789039194583893,-0.4153788685798645,3.2659213542938232,1.3344956636428833,-2.182939052581787,10.050020217895508,0.4043176770210266,0.000916297547519207,0.05162188783288002,-0.2679443359375,51.86880874633789,-32.36002731323242,10.635772705078125,-0.8607088327407837,-0.12982749938964844,0.7953932285308838,-1.3222302198410034,10.179847717285156,-0.3910755217075348
6_20251106_215308,1762437151741,6,0.4580836892127991,0.4728078842163086,0.5814334750175476,0.4780660569667816,-0.4153788685798645,3.2659213542938232,1.3344956636428833,-2.182939052581787,10.050020217895508,0.4043176770210266,0.07055487483739853,0.22083140909671783,-0.3858412504196167,51.97261428833008,-32.26388931274414,10.452316284179688,-0.8607088327407837,-0.12982749938964844,0.7953932285308838,-1.3222302198410034,10.179847717285156,-0.3910755217075348
6_20251106_215308,1762437151760,6,0.4586326479911804,0.4695564806461334,0.584430992603302,0.4770882725715637,-0.4532751142978668,3.2954518795013428,1.3288792371749878,-3.7774088382720947,9.96383285522461,0.35763275623321533,0.16340629756450653,0.2745875120162964,-0.4420408010482788,52.10039520263672,-32.16669845581055,10.323905944824219,-1.711512804031372,-0.14188861846923828,0.4837699830532074,-2.0658960342407227,10.105721473693848,-0.12613722681999207
6_20251106_215308,1762437151779,6,0.4587472081184387,0.46601057052612305,0.5884367823600769,0.47552844882011414,-0.4532751142978668,3.2954518795013428,1.3288792371749878,-3.7774088382720947,9.96383285522461,0.35763275623321533,0.22510366141796112,0.4492948055267334,-0.4084432125091553,52.22022247314453,-31.99496078491211,10.196588516235352,-1.711512804031372,-0.14188861846923828,0.4837699830532074,-2.0658960342407227,10.105721473693848,-0.12613722681999207
6_20251106_215308,1762437151799,6,0.45757174491882324,0.46202391386032104,0.5933693647384644,0.4744204878807068,-0.5131320953369141,3.3193607330322266,1.3273457288742065,-4.829614639282227,9.863279342651367,-0.43720805644989014,0.29657483100891113,0.6533236503601074,-0.23740112781524658,52.28196334838867,-31.753734588623047,10.257631301879883,-1.812448263168335,-0.1674213409423828,-0.327409029006958,-3.0171663761138916,10.03070068359375,-0.10979902744293213
6_20251106_215308,1762437151817,6,0.45422932505607605,0.4582591950893402,0.5988035202026367,0.4744561016559601,-0.5455601811408997,3.3294239044189453,1.3242747783660889,-4.6141462326049805,10.082340240478516,-0.8753281235694885,0.3460548520088196,0.6185043454170227,0.03565541282296181,52.28196334838867,-31.753734588623047,10.257631301879883,-1.2775838375091553,0.04131126403808594,-0.612423300743103,-3.336562395095825,10.04102897644043,-0.2629048228263855
6_20251106_215308,1762437151836,6,0.4495868980884552,0.45648089051246643,0.6031789183616638,0.4750494658946991,-0.5784339904785156,3.339719295501709,1.3207660913467407,-4.176026344299316,10.339706420898438,-0.5030457377433777,0.4218021035194397,0.510992169380188,0.21769309043884277,52.37110900878906,-31.448810577392578,10.388555526733398,-0.6715712547302246,0.23894119262695312,-0.1921127438545227,-3.504455089569092,10.100765228271484,-0.310932993888855
6_20251106_215308,1762437151855,6,0.4443838596343994,0.45668163895606995,0.6065794825553894,0.47542211413383484,-0.6137091517448425,3.3510000705718994,1.3168059587478638,-3.693614959716797,10.236759185791016,-0.39531129598617554,0.5109882950782776,0.5702460408210754,0.26411882042884827,52.34959030151367,-31.152385711669922,10.650228500366211,-0.15132808685302734,0.108795166015625,-0.06750264763832092,-3.5422868728637695,10.12796401977539,-0.3278086483478546
6_20251106_215308,1762437151874,6,0.4382031261920929,0.4572156071662903,0.6103206276893616,0.47585779428482056,-0.6137091517448425,3.3510000705718994,1.3168059587478638,-3.693614959716797,10.236759185791016,-0.39531129598617554,0.5451967120170593,0.694862425327301,0.2109735906124115,52.265560150146484,-30.86208724975586,11.125709533691406,-0.15132808685302734,0.108795166015625,-0.06750264763832092,-3.5422868728637695,10.12796401977539,-0.3278086483478546
6_20251106_215308,1762437151893,6,0.431289404630661,0.45697420835494995,0.6149040460586548,0.4765050411224365,-0.6744990348815918,3.3660237789154053,1.3084666728973389,-3.298588752746582,9.074424743652344,-0.5365631580352783,0.5323686003684998,0.8781218528747559,0.14072415232658386,52.06543731689453,-30.66885757446289,11.797672271728516,0.17090606689453125,-0.7725191116333008,-0.1406894326210022,-3.4694948196411133,9.846943855285645,-0.3958737254142761
6_20251106_215308,1762437151913,6,0.4235108494758606,0.4553155303001404,0.6205165982246399,0.47779229283332825,-0.7033395171165466,3.3673207759857178,1.303418755531311,-3.3261210918426514,8.314298629760742,-0.6407064199447632,0.5115991830825806,1.0424443483352661,0.07475075125694275,51.851226806640625,-30.502208709716797,12.536199569702148,0.11469912528991699,-1.2261161804199219,-0.1958661675453186,-3.4408202171325684,9.540414810180664,-0.4448402523994446
6_20251106_215308,1762437151931,6,0.41527044773101807,0.45261096954345703,0.6267635226249695,0.4794384837150574,-0.7033395171165466,3.3673207759857178,1.303418755531311,-3.3261210918426514,8.314298629760742,-0.6407064199447632,0.4645625948905945,1.1640065908432007,0.042985789477825165,51.561302185058594,-30.367061614990234,13.433450698852539,0.11469912528991699,-1.2261161804199219,-0.1958661675453186,-3.4408202171325684,9.540414810180664,-0.4448402523994446
6_20251106_215308,1762437151950,6,0.40660539269447327,0.44892600178718567,0.6333588361740112,0.48165762424468994,-0.7524470090866089,3.353166341781616,1.2939380407333374,-3.41111159324646,6.700675010681152,-0.5293808579444885,0.4645625948905945,1.1640065908432007,0.042985789477825165,51.174705505371094,-30.21396255493164,14.408403396606445,0.012693405151367188,-1.9507369995117188,-0.04778558015823364,-3.423804998397827,8.651412010192871,-0.4815952777862549
6_20251106_215308,1762437151970,6,0.39699554443359375,0.4443543553352356,0.6401873826980591,0.48487505316734314,-0.7766737937927246,3.335124969482422,1.2882827520370483,-3.334500551223755,6.1308794021606445,-0.7580172419548035,0.4163042902946472,1.3307725191116333,0.0668095126748085,50.67161178588867,-30.170085906982422,15.539026260375977,0.07144355773925781,-2.0164260864257812,-0.22113758325576782,-3.4059441089630127,8.147305488586426,-0.5368796586990356
6_20251106_215308,1762437151989,6,0.38609230518341064,0.4393886625766754,0.6471644639968872,0.48892590403556824,-0.798151969909668,3.312518835067749,1.281714916229248,-3.2650716304779053,5.842391014099121,-1.0704472064971924,0.40958482027053833,1.48654305934906,0.13705895841121674,50.059757232666016,-30.10892105102539,16.73334312438965,0.11269783973693848,-1.8439316749572754,-0.4268540143966675,-3.3777694702148438,7.6863226890563965,-0.6435931921005249
6_20251106_215308,1762437152008,6,0.3740212023258209,0.4341796338558197,0.6540753245353699,0.49374252557754517,-0.8178463578224182,3.2854650020599365,1.2733256816864014,-3.1190314292907715,5.653256893157959,-1.4271678924560547,0.29657483100891113,1.7406628131866455,0.3026033043861389,49.48537826538086,-30.020931243896484,17.997241973876953,0.20699048042297363,-1.626452922821045,-0.6268597841262817,-3.326021909713745,7.279709815979004,-0.800308108329773
6_20251106_215308,1762437152027,6,0.36100777983665466,0.428513765335083,0.6604929566383362,0.49979832768440247,-0.8178463578224182,3.2854650020599365,1.2733256816864014,-3.1190314292907715,5.653256893157959,-1.4271678924560547,0.12003491818904877,1.8988767862319946,0.4052285850048065,48.85641098022461,-29.823894500732422,19.261064529418945,0.20699048042297363,-1.626452922821045,-0.6268597841262817,-3.326021909713745,7.279709815979004,-0.800308108329773
6_20251106_215308,1762437152048,6,0.3471580743789673,0.42215314507484436,0.6659613847732544,0.5077040791511536,-0.8498159646987915,3.2207467555999756,1.2526885271072388,-2.37326979637146,5.4425764083862305,-1.3409802913665771,0.12003491818904877,1.8988767862319946,0.4052285850048065,48.004695892333984,-29.680583953857422,20.690977096557617,0.6932675838470459,-1.1585283279418945,-0.31615185737609863,-3.066537380218506,6.601104736328125,-1.0248284339904785
6_20251106_215308,1762437152065,6,0.3322709798812866,0.4154026508331299,0.6701067090034485,0.5176810622215271,-0.8589541912078857,3.1887435913085938,1.242628812789917,-1.5365322828292847,5.854361534118652,-1.2380340099334717,-0.15790854394435883,2.1572728157043457,0.7558649182319641,47.000911712646484,-29.647525787353516,22.139925003051758,1.2240041494369507,-0.5973944664001465,-0.1705644130706787,-2.7605364322662354,6.451756000518799,-1.067469596862793
6_20251106_215308,1762437152085,6,0.3157644271850586,0.408761590719223,0.6731442213058472,0.5292292833328247,-0.8616986274719238,3.1521456241607666,1.231691837310791,-0.4903111755847931,5.525172710418701,-1.172196388244629,-0.16340632736682892,2.185983180999756,0.9122462868690491,45.840614318847656,-29.599010467529297,23.515443801879883,1.8161802291870117,-0.7412667274475098,-0.08378136157989502,-2.3064913749694824,6.266439437866211,-1.0884150266647339
6_20251106_215308,1762437152102,6,0.2980861961841583,0.40288013219833374,0.675207793712616,0.5412269830703735,-0.8616986274719238,3.1521456241607666,1.231691837310791,-0.4903111755847931,5.525172710418701,-1.172196388244629,-0.20799943804740906,2.138335704803467,1.0576320886611938,44.586456298828125,-29.70687484741211,24.897878646850586,1.8161802291870117,-0.7412667274475098,-0.08378136157989502,-2.3064913749694824,6.266439437866211,-1.0884150266647339
6_20251106_215308,1762437152125,6,0.2799321115016937,0.39810431003570557,0.6758638620376587,0.5534970760345459,-0.83888179063797,3.074660062789917,1.2098495960235596,1.4704557657241821,5.6113600730896,-1.021368145942688,-0.20799943804740906,2.138335704803467,1.0576320886611938,43.12321853637695,-29.865642547607422,26.24415397644043,2.566446542739868,-0.35106706619262695,0.09251570701599121,-1.095990777015686,5.962427139282227,-1.1138838529586792
6_20251106_215308,1762437152142,6,0.2625366747379303,0.3938615918159485,0.6748783588409424,0.5661154985427856,-0.83888179063797,3.074660062789917,1.2098495960235596,1.4704557657241821,5.6113600730896,-1.021368145942688,-0.5525271892547607,2.155440092086792,0.8890334367752075,41.594017028808594,-30.116413116455078,27.599645614624023,2.566446542739868,-0.35106706619262695,0.09251570701599121,-1.095990777015686,5.962427139282227,-1.1138838529586792
6_20251106_215308,1762437152161,6,0.24597588181495667,0.3868478834629059,0.6735035181045532,0.5798599720001221,-0.7874354720115662,3.0113489627838135,1.2042566537857056,2.861427068710327,6.248190879821777,0.9501721858978271,-0.7498365044593811,2.568995475769043,0.5316776037216187,39.9134407043457,-30.476497650146484,28.87955665588379,2.606677293777466,0.280759334564209,1.4159936904907227,0.2547498345375061,5.967431545257568,-0.4658215343952179
6_20251106_215308,1762437152180,6,0.22924451529979706,0.3745233714580536,0.6726992726325989,0.5955290794372559,-0.7530116438865662,2.983374834060669,1.2057808637619019,2.977540969848633,6.335575103759766,0.3420711159706116,-0.9758564829826355,2.8469388484954834,0.33742260932922363,38.15812683105469,-30.878345489501953,30.088151931762695,2.1782329082489014,0.29451465606689453,0.6463141441345215,0.7993080615997314,6.041060447692871,-0.3042430281639099
6_20251106_215308,1762437152201,6,0.21251772344112396,0.35865357518196106,0.6712715029716492,0.6128608584403992,-0.7530116438865662,2.983374834060669,1.2057808637619019,2.977540969848633,6.335575103759766,0.3420711159706116,-1.2030980587005615,2.56044340133667,0.41500240564346313,36.32573699951172,-31.383129119873047,31.061918258666992,2.1782329082489014,0.29451465606689453,0.6463141441345215,0.7993080615997314,6.041060447692871,-0.3042430281639099
6_20251106_215308,1762437152219,6,0.19767990708351135,0.34420740604400635,0.667290449142456,0.630212128162384,-0.6619765162467957,2.930410146713257,1.2103586196899414,3.0613343715667725,6.941282272338867,-0.16667486727237701,-1.2299760580062866,1.9043744802474976,0.6288051009178162,34.483360290527344,-31.86251449584961,31.92759132385254,1.436396598815918,0.6487307548522949,0.08191472291946411,1.6249377727508545,6.292551517486572,-0.24858959019184113
6_20251106_215308,1762437152237,6,0.18571369349956512,0.3348904550075531,0.6608686447143555,0.6454544067382812,-0.619286835193634,2.9123473167419434,1.2147150039672852,2.674687385559082,7.454815864562988,0.6952006816864014,-1.0827577114105225,1.3710895776748657,0.7460910677909851,34.483360290527344,-31.86251449584961,31.92759132385254,0.8397996425628662,0.9298114776611328,0.7550322413444519,1.8348877429962158,6.5250043869018555,-0.05983154475688934
6_20251106_215308,1762437152256,6,0.1760493665933609,0.3298262059688568,0.6537303328514099,0.6579194068908691,-0.5746375322341919,2.8969101905822754,1.223286509513855,2.5059032440185547,7.500304222106934,1.47208571434021,-1.0827577114105225,1.3710895776748657,0.7460910677909851,32.721736907958984,-32.435306549072266,32.645904541015625,0.5368125438690186,0.7802400588989258,1.2255338430404663,1.9690907001495361,6.720064163208008,0.24655187129974365
6_20251106_215308,1762437152276,6,0.16551126539707184,0.3250088095664978,0.6470990180969238,0.6695058941841125,-0.527224600315094,2.8822619915008545,1.2352124452590942,2.878185749053955,6.979587554931641,1.3499866724014282,-0.9404262900352478,1.352152705192566,0.810842752456665,30.98778533935547,-32.967220306396484,33.20379638671875,0.727276086807251,0.20761871337890625,0.8827478289604187,2.150909662246704,6.771968841552734,0.4672388434410095
6_20251106_215308,1762437152294,6,0.15197019279003143,0.31933847069740295,0.6400392055511475,0.6821127533912659,-0.527224600315094,2.8822619915008545,1.2352124452590942,2.878185749053955,6.979587554931641,1.3499866724014282,-1.0125082731246948,1.6924043893814087,1.3062540292739868,29.288957595825195,-33.54509353637695,33.5728759765625,0.727276086807251,0.20761871337890625,0.8827478289604187,2.150909662246704,6.771968841552734,0.4672388434410095
6_20251106_215308,1762437152314,6,0.13611018657684326,0.3148539662361145,0.6314308047294617,0.6954395174980164,-0.4797295928001404,2.8684096336364746,1.2469393014907837,3.8657517433166504,6.541467666625977,0.8184967041015625,-1.0222820043563843,1.3405463695526123,1.6666641235351562,25.567718505859375,-29.8221435546875,32.130210876464844,1.3718736171722412,-0.1844010353088379,0.2810063362121582,2.493878126144409,6.7258687019348145,0.5374903678894043
6_20251106_215308,1762437152333,6,0.12008347362279892,0.31518271565437317,0.620794415473938,0.7077104449272156,-0.4214664697647095,2.854053020477295,1.2593798637390137,4.998160362243652,6.782074928283691,0.575495719909668,-1.0344994068145752,0.7266274094581604,1.9629336595535278,23.98689079284668,-30.49010467529297,32.258792877197266,2.0034258365631104,0.044965267181396484,0.030404269695281982,2.994734525680542,6.737109661102295,0.545091450214386
6_20251106_215308,1762437152352,6,0.10540319234132767,0.3212659955024719,0.6082274317741394,0.7181488275527954,-0.3071708083152771,2.8404195308685303,1.2877103090286255,6.73029088973999,8.971478462219238,2.7253966331481934,-1.0344994068145752,0.7266274094581604,1.9629336595535278,22.35317611694336,-31.248062133789062,32.27543258666992,2.524442195892334,1.6395273208618164,1.6145033836364746,4.205848693847656,7.331951141357422,1.1108932495117188
6_20251106_215308,1762437152371,6,0.09167014807462692,0.3288431167602539,0.5944848656654358,0.7280429601669312,-0.2367914617061615,2.8428306579589844,1.3106720447540283,8.085350036621094,9.693299293518066,3.515449047088623,-1.1462875604629517,1.0009056329727173,1.7992218732833862,20.780969619750977,-32.012855529785156,32.11854934692383,3.1036009788513184,1.8890786170959473,1.9236446619033813,4.981749057769775,7.804220676422119,1.5918043851852417
6_20251106_215308,1762437152390,6,0.0769929587841034,0.3315551280975342,0.5809199810028076,0.7393749356269836,-0.15792490541934967,2.850277900695801,1.3367946147918701,9.357813835144043,9.683723449707031,3.1623196601867676,-1.1462875604629517,1.0009056329727173,1.7992218732833862,19.228090286254883,-32.875709533691406,31.879436492919922,3.500852108001709,1.5036020278930664,1.2564122676849365,5.856961727142334,8.180121421813965,1.905907392501831
6_20251106_215308,1762437152409,6,0.06250156462192535,0.32872632145881653,0.5682322978973389,0.7517610192298889,-0.15792490541934967,2.850277900695801,1.3367946147918701,9.357813835144043,9.683723449707031,3.1623196601867676,-1.2483021020889282,1.4272891283035278,1.1071120500564575,17.637439727783203,-33.76579284667969,31.61129379272461,3.500852108001709,1.5036020278930664,1.2564122676849365,5.856961727142334,8.180121421813965,1.905907392501831
6_20251106_215308,1762437152429,6,0.050813090056180954,0.3248308002948761,0.5556281208992004,0.7636624574661255,0.019222408533096313,2.8704705238342285,1.3934170007705688,9.154315948486328,8.788330078125,2.8295397758483887,-1.2935060262680054,0.9691407084465027,1.177972435951233,15.996834754943848,-34.68389892578125,31.313629150390625,2.0859827995300293,0.3534374237060547,0.6047232151031494,7.068333148956299,8.434892654418945,2.2248165607452393
6_20251106_215308,1762437152447,6,0.041075512766838074,0.32446178793907166,0.5421842932701111,0.7739984393119812,0.10475949943065643,2.882740020751953,1.4218270778656006,9.716928482055664,9.683723449707031,3.546572208404541,-1.2935060262680054,0.9691407084465027,1.177972435951233,14.455793380737305,-35.59281921386719,30.736045837402344,2.1188764572143555,0.9990644454956055,1.0574045181274414,7.598052024841309,8.684659004211426,2.4891676902770996
6_20251106_215308,1762437152467,6,0.0327804796397686,0.3285418748855591,0.5284194350242615,0.7821499705314636,0.1975068598985672,2.899144411087036,1.4557032585144043,10.139488220214844,10.179301261901855,4.452738285064697,-1.172554850578308,0.20433805882930756,1.2573847770690918,12.936415672302246,-36.53863525390625,30.239749908447266,2.033148765563965,1.195713996887207,1.5708565711975098,8.106339454650879,8.983587265014648,2.8818817138671875
6_20251106_215308,1762437152485,6,0.02623089775443077,0.33398082852363586,0.515000581741333,0.7890140414237976,0.29157596826553345,2.917693853378296,1.4931281805038452,10.278345108032227,10.064384460449219,4.79270076751709,-1.0204495191574097,0.08277598768472672,1.0228127241134644,11.434343338012695,-37.40709686279297,29.623882293701172,1.7376041412353516,0.8646373748779297,1.5286550521850586,8.540740966796875,9.199747085571289,3.2640457153320312
6_20251106_215308,1762437152505,6,0.021348528563976288,0.33885517716407776,0.5033647418022156,0.7945724129676819,0.3896791934967041,2.936357021331787,1.5334316492080688,9.867757797241211,9.237222671508789,4.210934638977051,-0.8451313972473145,0.07727820426225662,0.6593483090400696,10.082422256469727,-38.20270538330078,28.96115493774414,1.0616130828857422,0.02998065948486328,0.7575111389160156,8.806144714355469,9.207242012023926,3.453423500061035
6_20251106_215308,1762437152523,6,0.0186879001557827,0.3419612646102905,0.49413833022117615,0.7990873456001282,0.4741406738758087,2.9509317874908447,1.5673364400863647,9.042989730834961,8.645880699157715,3.2281570434570312,-0.8451313972473145,0.07727820426225662,0.6593483090400696,8.991738319396973,-38.8931884765625,28.256507873535156,0.18947601318359375,-0.44908905029296875,-0.18021321296691895,8.853513717651367,9.094969749450684,3.40837025642395
6_20251106_215308,1762437152543,6,0.01797918602824211,0.3438813090324402,0.4866991639137268,0.8028364181518555,0.5617125034332275,2.965362310409546,1.5996439456939697,8.333139419555664,8.781147003173828,2.2633354663848877,-0.7272345423698425,0.07483474910259247,0.37712880969047546,8.04033088684082,-39.48663330078125,27.5185546875,-0.41629886627197266,-0.25105762481689453,-0.9160277843475342,8.749438285827637,9.032204627990723,3.179363250732422
6_20251106_215308,1762437152563,6,0.018606213852763176,0.34529969096183777,0.47883230447769165,0.8069334030151367,0.6346770524978638,2.977179527282715,1.6260722875595093,7.974025249481201,8.820650100708008,2.6942732334136963,-1.1896589994430542,0.0003092506667599082,0.2323538362979889,7.199612617492676,-40.04835510253906,26.83960723876953,-0.6203303337097168,-0.16924381256103516,-0.38807201385498047,8.594355583190918,8.989893913269043,3.0823452472686768
6_20251106_215308,1762437152581,6,0.021108180284500122,0.3470025062561035,0.4686487019062042,0.8121035099029541,0.708743155002594,2.988381862640381,1.6555476188659668,7.623289585113525,8.571663856506348,3.6016366481781006,-1.471267580986023,0.008250491693615913,0.15782836079597473,6.55757999420166,-40.545928955078125,26.047916412353516,-0.776853084564209,-0.33458423614501953,0.4154331684112549,8.400142669677734,8.906248092651367,3.1862034797668457
6_20251106_215308,1762437152601,6,0.025029422715306282,0.34801334142684937,0.4565240144729614,0.8184412121772766,0.7724810242652893,2.9967856407165527,1.6847076416015625,7.267765998840332,8.284372329711914,4.118762016296387,-1.5097521543502808,0.02596556954085827,0.10957004129886627,6.159366607666016,-41.02748107910156,25.252517700195312,-0.9059009552001953,-0.4975004196166992,0.746046781539917,8.173666954040527,8.781872749328613,3.3727152347564697
6_20251106_215308,1762437152619,6,0.029331054538488388,0.3484015166759491,0.4441225230693817,0.8249310851097107,0.8302509784698486,3.003450393676758,1.7155271768569946,7.160031318664551,8.301130294799805,4.508999824523926,-1.4437787532806396,-0.02412533573806286,0.1541631668806076,5.875340461730957,-41.43775177001953,24.32769012451172,-0.810908317565918,-0.3845939636230469,0.9090275764465332,7.970939636230469,8.685724258422852,3.5999722480773926
6_20251106_215308,1762437152640,6,0.03331741690635681,0.34922605752944946,0.43195033073425293,0.8308730721473694,0.8878666162490845,3.0084290504455566,1.7512472867965698,7.063070297241211,8.083267211914062,4.60236930847168,-1.4437787532806396,-0.02412533573806286,0.1541631668806076,5.671781539916992,-41.93022918701172,23.390933990478516,-0.7262954711914062,-0.4819650650024414,0.801917552947998,7.789365768432617,8.565232276916504,3.8004517555236816
6_20251106_215308,1762437152659,6,0.036417823284864426,0.35020795464515686,0.42039063572883606,0.8362414836883545,0.9333239197731018,3.010674476623535,1.7819044589996338,7.197140216827393,7.830689907073975,4.438373565673828,-1.270293116569519,-0.06688587367534637,0.31176626682281494,5.5515947341918945,-42.466156005859375,22.33490753173828,-0.47378015518188477,-0.5876336097717285,0.5103373527526855,7.670920372009277,8.418323516845703,3.9280362129211426
6_20251106_215308,1762437152676,6,0.038731031119823456,0.3518383502960205,0.408954918384552,0.8411096930503845,0.9333239197731018,3.010674476623535,1.7819044589996338,7.197140216827393,7.830689907073975,4.438373565673828,-1.2415825128555298,-0.2196020483970642,0.42905229330062866,5.5515947341918945,-42.466156005859375,22.33490753173828,-0.47378015518188477,-0.5876336097717285,0.5103373527526855,7.670920372009277,8.418323516845703,3.9280362129211426
6_20251106_215308,1762437152696,6,0.04068471118807793,0.35519927740097046,0.39722326397895813,0.8452170491218567,1.0207971334457397,3.0124270915985107,1.8486802577972412,7.722644805908203,8.295145034790039,5.13864803314209,-1.2092067003250122,-0.35032710433006287,0.49136048555374146,5.5079498291015625,-42.934669494628906,21.296661376953125,0.09305191040039062,-0.025780677795410156,0.851402759552002,7.6295928955078125,8.32092571258545,4.287245273590088
6_20251106_215308,1762437152715,6,0.04255225509405136,0.3597779870033264,0.3854474425315857,0.8486338257789612,1.0598551034927368,3.013031482696533,1.8820565938949585,7.877063751220703,8.271203994750977,5.422348499298096,-1.1475093364715576,-0.3784268796443939,0.41255897283554077,5.451018333435059,-43.417076110839844,20.311725616455078,0.19797658920288086,-0.03977775573730469,0.9080824851989746,7.679087162017822,8.310981750488281,4.514266014099121
6_20251106_215308,1762437152734,6,0.04485983029007912,0.36417463421821594,0.37442150712013245,0.8515708446502686,1.0598551034927368,3.013031482696533,1.8820565938949585,7.877063751220703,8.271203994750977,5.422348499298096,-1.0900880098342896,-0.33016854524612427,0.2580101788043976,5.372211456298828,-43.874473571777344,19.177658081054688,0.19797658920288086,-0.03977775573730469,0.9080824851989746,7.679087162017822,8.310981750488281,4.514266014099121
6_20251106_215308,1762437152752,6,0.04805056005716324,0.3675743341445923,0.36436203122138977,0.8542953729629517,1.136921763420105,3.012188673019409,1.9524646997451782,7.692718505859375,7.9719414710998535,4.874100208282471,-1.0754272937774658,-0.29351669549942017,0.12056560069322586,5.352121353149414,-44.36570739746094,18.058765411376953,-0.0023851394653320312,-0.2338404655456543,0.16613245010375977,7.695103645324707,8.205781936645508,4.707967758178711
6_20251106_215308,1762437152772,6,0.051923539489507675,0.3700527250766754,0.35502997040748596,0.8569239377975464,1.136921763420105,3.012188673019409,1.9524646997451782,7.692718505859375,7.9719414710998535,4.874100208282471,-1.0876446962356567,-0.34605103731155396,0.02527070976793766,5.323073387145996,-44.79534912109375,16.981250762939453,-0.0023851394653320312,-0.2338404655456543,0.16613245010375977,7.695103645324707,8.205781936645508,4.707967758178711
6_20251106_215308,1762437152791,6,0.05710127204656601,0.37275996804237366,0.34581202268600464,0.8591877222061157,1.1769801378250122,3.0107457637786865,1.9893198013305664,7.917763710021973,8.030597686767578,4.896843433380127,-1.094364047050476,-0.4272960424423218,-0.07918716222047806,5.258172035217285,-45.214813232421875,15.9025297164917,0.17812824249267578,-0.14014720916748047,0.15110063552856445,7.739635467529297,8.170744895935059,4.7457427978515625
6_20251106_215308,1762437152810,6,0.06348130106925964,0.3757888376712799,0.33681946992874146,0.8609910011291504,1.2441737651824951,3.007002830505371,2.051785707473755,7.875866889953613,7.932438850402832,5.242791175842285,-1.124907374382019,-0.4938803017139435,-0.16898426413536072,5.322502136230469,-45.477134704589844,14.980559349060059,0.06516265869140625,-0.16343307495117188,0.36273717880249023,7.810704231262207,8.095871925354004,4.880053997039795
6_20251106_215308,1762437152830,6,0.0708770826458931,0.3789926767349243,0.32783815264701843,0.8624750375747681,1.277636170387268,3.004523515701294,2.0853090286254883,7.745388507843018,7.986306190490723,5.44509220123291,-1.1475093364715576,-0.4944911599159241,-0.2661117613315582,5.373125076293945,-45.77711486816406,13.976208686828613,-0.05225229263305664,-0.08765220642089844,0.45203065872192383,7.797640800476074,8.073958396911621,4.993061542510986
6_20251106_215308,1762437152850,6,0.07903296500444412,0.38171589374542236,0.3190253973007202,0.8638689517974854,1.277636170387268,3.004523515701294,2.0853090286254883,7.745388507843018,7.986306190490723,5.44509220123291,-1.14995276927948,-0.47555434703826904,-0.3919498920440674,3.9616003036499023,-45.28776550292969,11.759336471557617,-0.05225229263305664,-0.08765220642089844,0.45203065872192383,7.797640800476074,8.073958396911621,4.993061542510986
6_20251106_215308,1762437152869,6,0.08824826031923294,0.3838133215904236,0.3106096684932709,0.8651134371757507,1.3371790647506714,3.000213861465454,2.1514158248901367,7.552663803100586,8.127557754516602,5.819768905639648,-1.1401790380477905,-0.5073193311691284,-0.5110685229301453,4.209412574768066,-45.5372314453125,10.75010871887207,-0.184173583984375,0.04158210754394531,0.5639505386352539,7.736837387084961,8.085975646972656,5.2558183670043945
6_20251106_215308,1762437152887,6,0.0984475314617157,0.38572266697883606,0.3026794493198395,0.8659741878509521,1.3609263896942139,2.998607635498047,2.182863712310791,7.191154479980469,8.15269660949707,6.2112040519714355,-1.087033748626709,-0.5873426198959351,-0.5892592072486877,4.614938735961914,-45.78893280029297,9.746992111206055,-0.43654632568359375,0.05337715148925781,0.7643084526062012,7.6277008056640625,8.099319458007812,5.446895599365234
6_20251106_215308,1762437152906,6,0.10929282009601593,0.3879835307598114,0.29537802934646606,0.8661845326423645,1.3609263896942139,2.998607635498047,2.182863712310791,7.191154479980469,8.15269660949707,6.2112040519714355,-0.9318742156028748,-0.6618680953979492,-0.617969810962677,5.049461364746094,-45.963157653808594,8.692375183105469,-0.43654632568359375,0.05337715148925781,0.7643084526062012,7.6277008056640625,8.099319458007812,5.446895599365234
6_20251106_215308,1762437152926,6,0.12001369148492813,0.3907594680786133,0.28934362530708313,0.86555415391922,1.3830574750900269,2.996652364730835,2.219022750854492,6.6620588302612305,8.013838768005371,6.421884536743164,-0.7767145037651062,-0.6484290957450867,-0.6124719977378845,5.534249782562256,-46.09734344482422,7.721609115600586,-0.7725138664245605,-0.06838417053222656,0.7799911499023438,7.434572696685791,8.082222938537598,5.64189338684082
6_20251106_215308,1762437152943,6,0.13009963929653168,0.3934536278247833,0.28453874588012695,0.8644686341285706,1.4001214504241943,2.9944121837615967,2.2549843788146973,6.131765842437744,7.9563798904418945,6.171701431274414,-0.7070759534835815,-0.6013924479484558,-0.5874266028404236,6.154494285583496,-46.19767761230469,6.756767272949219,-1.0422453880310059,-0.10067462921142578,0.4238462448120117,7.17401123046875,8.05705451965332,5.747855186462402
6_20251106_215308,1762437152963,6,0.13957807421684265,0.3958134651184082,0.28031185269355774,0.8632930517196655,1.4183456897735596,2.9881465435028076,2.31559419631958,5.54281759262085,7.555368423461914,5.864059925079346,-0.7107411026954651,-0.559853732585907,-0.5373356938362122,6.748351097106934,-46.33714294433594,5.776636123657227,-1.0744171142578125,-0.3532557487487793,0.07935047149658203,6.617234706878662,7.908624172210693,5.784709453582764
6_20251106_215308,1762437152983,6,0.14859063923358917,0.39792826771736145,0.27590298652648926,0.8622363209724426,1.4220678806304932,2.9827306270599365,2.3474087715148926,5.34769868850708,7.380599021911621,5.953838348388672,-0.6777544617652893,-0.5629079937934875,-0.4731948971748352,7.479185581207275,-46.40589141845703,4.884317398071289,-1.0156288146972656,-0.4224205017089844,0.13530302047729492,6.363327503204346,7.8030195236206055,5.818535327911377
6_20251106_215308,1762437153002,6,0.15685439109802246,0.40018749237060547,0.2715111970901489,0.8611204028129578,1.422684669494629,2.976944923400879,2.375247001647949,5.32136344909668,7.333914279937744,6.077134132385254,-0.6062832474708557,-0.6105554699897766,-0.4127192795276642,8.23327922821045,-46.49775695800781,3.951902389526367,-0.8335714340209961,-0.37528467178344727,0.206878662109375,6.154934883117676,7.709198951721191,5.870255470275879
6_20251106_215308,1762437153020,6,0.16456405818462372,0.4030558168888092,0.2673115134239197,0.8596564531326294,1.422684669494629,2.976944923400879,2.375247001647949,5.32136344909668,7.333914279937744,6.077134132385254,-0.6062832474708557,-0.6105554699897766,-0.4127192795276642,8.869741439819336,-46.52222442626953,3.0161666870117188,-0.8335714340209961,-0.37528467178344727,0.206878662109375,6.154934883117676,7.709198951721191,5.870255470275879
6_20251106_215308,1762437153039,6,0.17185914516448975,0.4065392017364502,0.26353639364242554,0.8577522039413452,1.4164302349090576,2.9621284008026123,2.4328384399414062,5.137018203735352,7.229771137237549,6.281830310821533,-0.4419606328010559,-0.6123880743980408,-0.3675152659416199,9.4938325881958,-46.53614044189453,2.2018508911132812,-0.6602764129638672,-0.3118138313293457,0.2649397850036621,5.797294616699219,7.5415849685668945,6.016890525817871
6_20251106_215308,1762437153060,6,0.17850734293460846,0.4096403419971466,0.2604522109031677,0.8558589816093445,1.4104273319244385,2.95345139503479,2.461406946182251,5.204052925109863,7.238150119781494,6.044814109802246,-0.3998109698295593,-0.5543559193611145,-0.3540762662887573,10.05882453918457,-46.505149841308594,1.52130126953125,-0.4745936393737793,-0.24274778366088867,0.0223388671875,5.678646564483643,7.480897903442383,6.022475242614746
6_20251106_215308,1762437153079,6,0.1847347915172577,0.412335067987442,0.2577362358570099,0.8540637493133545,1.4038968086242676,2.944350004196167,2.488476514816284,5.406353950500488,7.198647499084473,5.999326229095459,-0.36804598569869995,-0.549468994140625,-0.34857848286628723,10.05882453918457,-46.505149841308594,1.52130126953125,-0.2178339958190918,-0.2258005142211914,-0.01851940155029297,5.62418794631958,7.424448013305664,6.017845630645752
6_20251106_215308,1762437153097,6,0.19079305231571198,0.41508954763412476,0.2552510201931,0.852141797542572,1.398618221282959,2.936352252960205,2.509742498397827,5.621823310852051,7.129218578338623,5.747945785522461,-0.32223111391067505,-0.5427494645118713,-0.3864520788192749,10.635199546813965,-46.486061096191406,0.8544940948486328,-0.00189208984375,-0.23618364334106445,-0.21591997146606445,5.623715400695801,7.3654022216796875,5.963865756988525
6_20251106_215308,1762437153116,6,0.19697993993759155,0.41780731081962585,0.25323614478111267,0.8500043749809265,1.398618221282959,2.936352252960205,2.509742498397827,5.621823310852051,7.129218578338623,5.747945785522461,-0.3179550766944885,-0.578179657459259,-0.46158844232559204,11.149248123168945,-46.48444366455078,0.2795848846435547,-0.00189208984375,-0.23618364334106445,-0.21591997146606445,5.623715400695801,7.3654022216796875,5.963865756988525
6_20251106_215308,1762437153135,6,0.2038138508796692,0.4206864833831787,0.2514524757862091,0.8474989533424377,1.3884968757629395,2.9155433177948,2.5514886379241943,5.733148574829102,6.833547592163086,5.518112659454346,-0.3179550766944885,-0.578179657459259,-0.46158844232559204,11.692193031311035,-46.405487060546875,-0.3333091735839844,0.06352519989013672,-0.3557090759277344,-0.2862396240234375,5.669623374938965,7.18925666809082,5.804352283477783
6_20251106_215308,1762437153155,6,0.21167781949043274,0.42330121994018555,0.24959179759025574,0.8448150753974915,1.3840118646621704,2.9039957523345947,2.5688743591308594,5.654143333435059,6.607305526733398,5.477412700653076,-0.36743515729904175,-0.5824556946754456,-0.563602864742279,12.184391975402832,-46.35563659667969,-0.8675947189331055,-0.012384414672851562,-0.4655609130859375,-0.2615513801574707,5.66652774810791,7.072866439819336,5.738964080810547
6_20251106_215308,1762437153174,6,0.22055037319660187,0.424906462430954,0.24770590662956238,0.8422908186912537,1.3840118646621704,2.9039957523345947,2.5688743591308594,5.654143333435059,6.607305526733398,5.477412700653076,-0.5158752799034119,-0.43768075108528137,-0.7254820466041565,12.66702651977539,-46.256622314453125,-1.3742828369140625,-0.012384414672851562,-0.4655609130859375,-0.2615513801574707,5.66652774810791,7.072866439819336,5.738964080810547
6_20251106_215308,1762437153193,6,0.22996148467063904,0.4256078898906708,0.24547569453716278,0.8400698304176331,1.3795379400253296,2.889784812927246,2.585498571395874,5.736739635467529,6.450491905212402,5.252367973327637,-0.581848680973053,-0.4926585555076599,-0.6845541000366211,13.220958709716797,-46.190101623535156,-1.9193687438964844,0.05616950988769531,-0.49789953231811523,-0.38927698135375977,5.680570125579834,6.948391437530518,5.6416449546813965
6_20251106_215308,1762437153211,6,0.23900106549263,0.42660269141197205,0.2425796091556549,0.8378804922103882,1.375205636024475,2.8633923530578613,2.6087534427642822,6.38434362411499,6.761724472045898,5.301445960998535,-0.581848680973053,-0.4926585555076599,-0.6845541000366211,13.728261947631836,-46.089088439941406,-2.4656238555908203,0.5126614570617676,-0.051666259765625,-0.19263744354248047,5.871682167053223,6.813390731811523,5.494083404541016
6_20251106_215308,1762437153232,6,0.24852211773395538,0.4288347363471985,0.23867183923721313,0.8350887894630432,1.376138687133789,2.85129976272583,2.620945453643799,6.641709327697754,7.301593780517578,5.6928815841674805,-0.6557633280754089,-0.724787175655365,-0.7560252547264099,14.345733642578125,-45.980255126953125,-3.0750465393066406,0.6160216331481934,0.3905625343322754,0.15903854370117188,6.0256876945495605,6.911031246185303,5.533843040466309
6_20251106_215308,1762437153250,6,0.25917139649391174,0.43142855167388916,0.2347017079591751,0.8316337466239929,1.3784245252609253,2.8418781757354736,2.633242130279541,6.5519304275512695,7.4548163414001465,6.005311489105225,-0.6881391406059265,-0.6637006998062134,-1.0009820461273193,14.97891616821289,-45.807838439941406,-3.682659149169922,0.4209938049316406,0.4350275993347168,0.37717485427856445,6.130936622619629,7.01978874206543,5.62813663482666
6_20251106_215308,1762437153269,6,0.27179160714149475,0.43283703923225403,0.23158758878707886,0.827737033367157,1.3784245252609253,2.8418781757354736,2.633242130279541,6.5519304275512695,7.4548163414001465,6.005311489105225,-0.693026065826416,-0.5079302191734314,-1.2331106662750244,15.663957595825195,-45.58161163330078,-4.327802658081055,0.4209938049316406,0.4350275993347168,0.37717485427856445,6.130936622619629,7.01978874206543,5.62813663482666
6_20251106_215308,1762437153290,6,0.28582313656806946,0.432343989610672,0.22977180778980255,0.823764979839325,1.3812453746795654,2.825974225997925,2.65763521194458,5.554788589477539,7.105278015136719,5.676123142242432,-0.6893609166145325,-0.4309612512588501,-1.3296273946762085,16.346168518066406,-45.41722869873047,-5.068880081176758,-0.45626306533813477,0.027324676513671875,-0.0037636756896972656,6.011051654815674,7.077953338623047,5.679886817932129
6_20251106_215308,1762437153307,6,0.3003142476081848,0.43091005086898804,0.22857637703418732,0.819683313369751,1.3793976306915283,2.8189470767974854,2.6692161560058594,5.137018203735352,7.175904273986816,5.799419403076172,-0.6869173645973206,-0.45967188477516174,-1.2795363664627075,17.18547821044922,-45.05455017089844,-5.840662002563477,-0.6992263793945312,0.07836103439331055,0.0956258773803711,5.836244583129883,7.097543239593506,5.703793525695801
6_20251106_215308,1762437153327,6,0.31440114974975586,0.4296947419643402,0.22709505259990692,0.8154398798942566,1.3793976306915283,2.8189470767974854,2.6692161560058594,5.137018203735352,7.175904273986816,5.799419403076172,-0.6227765679359436,-0.49571290612220764,-1.1335397958755493,18.035863876342773,-44.715789794921875,-6.6530303955078125,-0.6992263793945312,0.07836103439331055,0.0956258773803711,5.836244583129883,7.097543239593506,5.703793525695801
6_20251106_215308,1762437153345,6,0.3272149860858917,0.4291456937789917,0.22534865140914917,0.8111611008644104,1.3692598342895508,2.8082783222198486,2.6938183307647705,5.047239303588867,7.580506324768066,6.237539291381836,-0.5054905414581299,-0.5274778604507446,-0.9649409651756287,18.903579711914062,-44.276451110839844,-7.395215034484863,-0.48944950103759766,0.34625244140625,0.3714752197265625,5.536688804626465,7.234253883361816,5.866064071655273
6_20251106_215308,1762437153365,6,0.3382628262042999,0.4294455647468567,0.2237073928117752,0.8069137334823608,1.3631854057312012,2.805690050125122,2.707362174987793,5.315378189086914,7.878571510314941,6.4494171142578125,-0.3949240446090698,-0.5769578814506531,-0.8531527519226074,19.785385131835938,-43.81053161621094,-8.203962326049805,-0.1770486831665039,0.5154542922973633,0.46668243408203125,5.492426872253418,7.363117218017578,5.982734680175781
6_20251106_215308,1762437153383,6,0.3480157256126404,0.4306504428386688,0.22228865325450897,0.8025041818618774,1.3574708700180054,2.8053712844848633,2.7217915058135986,5.51289176940918,8.143119812011719,6.552363395690918,-0.30634862184524536,-0.5665732026100159,-0.8195552229881287,20.690956115722656,-43.355445861816406,-9.02550983428955,0.016372203826904297,0.6240019798278809,0.4557032585144043,5.496519565582275,7.519117832183838,6.096660137176514
6_20251106_215308,1762437153403,6,0.3571043610572815,0.4321160614490509,0.22138673067092896,0.7979599833488464,1.3522391319274902,2.8075244426727295,2.7375662326812744,5.655340194702148,8.332254409790039,6.539196014404297,-0.23915354907512665,-0.550079882144928,-0.8336051106452942,21.582733154296875,-42.926536560058594,-9.821043014526367,0.12705612182617188,0.6505088806152344,0.35402870178222656,5.528284072875977,7.681745529174805,6.18516731262207
6_20251106_215308,1762437153422,6,0.3660503029823303,0.43366262316703796,0.22101634740829468,0.7931554913520813,1.3479021787643433,2.811561107635498,2.752504825592041,5.6685075759887695,8.44477653503418,6.441037178039551,-0.168904110789299,-0.5769578814506531,-0.8800308108329773,22.43724822998047,-42.5125732421875,-10.618310928344727,0.11217880249023438,0.6104245185852051,0.2046957015991211,5.556328773498535,7.834352016448975,6.23634147644043
6_20251106_215308,1762437153441,6,0.37505021691322327,0.43554189801216125,0.22124475240707397,0.7878396511077881,1.3437680006027222,2.816847324371338,2.766322135925293,5.551197052001953,8.36337661743164,6.099878311157227,-0.09987637400627136,-0.5910077691078186,-0.9466150403022766,23.25482177734375,-42.08991241455078,-11.268106460571289,-0.004105567932128906,0.4232196807861328,-0.10917043685913086,5.555302619934082,7.940156936645508,6.209048748016357
6_20251106_215308,1762437153459,6,0.3842410743236542,0.43760812282562256,0.22218438982963562,0.7819795608520508,1.3437680006027222,2.816847324371338,2.766322135925293,5.551197052001953,8.36337661743164,6.099878311157227,-0.1078176200389862,-0.6068902611732483,-0.9655518531799316,23.94973373413086,-41.687889099121094,-11.909555435180664,-0.004105567932128906,0.4232196807861328,-0.10917043685913086,5.555302619934082,7.940156936645508,6.209048748016357
6_20251106_215308,1762437153480,6,0.3935091495513916,0.4396918714046478,0.2230944037437439,0.7759191393852234,1.3363728523254395,2.8292758464813232,2.7851009368896484,5.76187801361084,8.293949127197266,5.069218635559082,-0.26419901847839355,-0.7229545712471008,-0.9209586977958679,24.632457733154297,-41.286659240722656,-12.551494598388672,0.16821527481079102,0.2402172088623047,-0.7779474258422852,5.593662738800049,8.053731918334961,5.847166061401367
6_20251106_215308,1762437153499,6,0.40340811014175415,0.4422439932823181,0.22211608290672302,0.7696405649185181,1.3351625204086304,2.8374876976013184,2.79298734664917,6.26224422454834,8.855363845825195,6.122622489929199,-0.26419901847839355,-0.7229545712471008,-0.9209586977958679,23.052095413208008,-38.87562942504883,-12.996338844299316,0.5348653793334961,0.6413059234619141,0.22036504745483398,5.727378845214844,8.214057922363281,5.902257442474365
6_20251106_215308,1762437153518,6,0.41433173418045044,0.44450122117996216,0.21905766427516937,0.7633882164955139,1.3360943794250488,2.847944974899292,2.8040528297424316,6.486092567443848,9.182159423828125,7.204754829406738,-0.6276635527610779,-0.6288813948631287,-1.1628612279891968,23.052095413208008,-38.87562942504883,-12.996338844299316,0.606971263885498,0.7744808197021484,1.0419979095458984,5.87912130355835,8.407678604125977,6.16275691986084
6_20251106_215308,1762437153537,6,0.42708608508110046,0.4442983567714691,0.21670110523700714,0.7571241855621338,1.3375669717788696,2.859278440475464,2.817880392074585,6.13655424118042,9.18814468383789,7.733850955963135,-0.5684096813201904,-0.3069556951522827,-1.5898555517196655,23.712364196777344,-38.4385871887207,-13.611433982849121,0.2059464454650879,0.6243724822998047,1.2568750381469727,5.930607795715332,8.563772201538086,6.476975917816162
6_20251106_215308,1762437153555,6,0.44185954332351685,0.4409097135066986,0.21777498722076416,0.7502884864807129,1.3375669717788696,2.859278440475464,2.817880392074585,6.13655424118042,9.18814468383789,7.733850955963135,-0.44379323720932007,0.02535470761358738,-1.9985240697860718,24.472335815429688,-37.9573860168457,-14.235330581665039,0.2059464454650879,0.6243724822998047,1.2568750381469727,5.930607795715332,8.563772201538086,6.476975917816162
6_20251106_215308,1762437153577,6,0.4582502245903015,0.43461307883262634,0.22271475195884705,0.7426414489746094,1.332483172416687,2.88508939743042,2.858720541000366,4.363724231719971,8.507022857666016,7.624919414520264,-0.3094030022621155,0.2898591160774231,-2.2385940551757812,25.303598403930664,-37.29574203491211,-14.920660972595215,-1.1585183143615723,-0.10239696502685547,0.6923561096191406,5.522242546081543,8.609419822692871,6.932563304901123
6_20251106_215308,1762437153594,6,0.4748426675796509,0.42619678378105164,0.23077325522899628,0.7345913648605347,1.332483172416687,2.88508939743042,2.858720541000366,4.363724231719971,8.507022857666016,7.624919414520264,-0.12186751514673233,0.31673717498779297,-2.2337069511413574,26.28614044189453,-36.5249137878418,-15.51689624786377,-1.1585183143615723,-0.10239696502685547,0.6923561096191406,5.522242546081543,8.609419822692871,6.932563304901123
6_20251106_215308,1762437153613,6,0.49036118388175964,0.4182015061378479,0.24017128348350525,0.7259277701377869,1.308005928993225,2.90051531791687,2.8959264755249023,2.531041383743286,7.77083683013916,7.397480010986328,0.04978547617793083,0.15180370211601257,-2.0137956142425537,27.33544921875,-35.64938735961914,-16.135601043701172,-2.0472891330718994,-0.5721254348754883,0.32053041458129883,4.5783305168151855,8.342962265014648,7.076949596405029
6_20251106_215308,1762437153632,6,0.5036523342132568,0.41234323382377625,0.2491758167743683,0.7170905470848083,1.2858920097351074,2.905805826187134,2.915921211242676,2.046236515045166,7.857024669647217,7.565066814422607,0.2562577724456787,0.05223274976015091,-1.7327979803085327,28.57793617248535,-34.5622444152832,-16.621078491210938,-2.0256752967834473,-0.3887495994567871,0.39049386978149414,4.071911811828613,8.245774269104004,7.174572944641113
6_20251106_215308,1762437153651,6,0.5146450400352478,0.4086836576461792,0.25776633620262146,0.7082899212837219,1.2602940797805786,2.9095659255981445,2.9345831871032715,1.7589446306228638,7.839069366455078,7.445362091064453,0.5219839215278625,0.06750436872243881,-1.515330195426941,29.807249069213867,-33.47724533081055,-16.971885681152344,-1.8503738641738892,-0.3253641128540039,0.21663141250610352,3.609318494796753,8.164433479309082,7.22873067855835
6_20251106_215308,1762437153670,6,0.5230989456176758,0.4066336154937744,0.2672558128833771,0.6997077465057373,1.2273249626159668,2.912181854248047,2.9531137943267822,1.6524072885513306,7.719364166259766,6.844443321228027,0.7528907656669617,0.15424714982509613,-1.329627275466919,31.13485336303711,-32.37320327758789,-17.332019805908203,-1.5655289888381958,-0.35605525970458984,-0.3074302673339844,3.2179362773895264,8.075419425964355,7.151873588562012
6_20251106_215308,1762437153691,6,0.5290571451187134,0.4055294394493103,0.2779385447502136,0.6916607618331909,1.1887058019638062,2.913313150405884,2.9679558277130127,1.5075643062591553,7.634373664855957,6.065163612365723,0.8585703372955322,0.16707532107830048,-1.1817981004714966,32.43699645996094,-31.272235870361328,-17.544456481933594,-1.368297815322876,-0.35283660888671875,-0.8693680763244629,2.8758621215820312,7.987210273742676,6.9345316886901855
6_20251106_215308,1762437153710,6,0.5335341095924377,0.4053003191947937,0.2887071669101715,0.6839014291763306,1.1887058019638062,2.913313150405884,2.9679558277130127,1.5075643062591553,7.634373664855957,6.065163612365723,0.8768962621688843,0.12187132984399796,-1.0620685815811157,33.625587463378906,-30.206897735595703,-17.423927307128906,-1.368297815322876,-0.35283660888671875,-0.8693680763244629,2.8758621215820312,7.987210273742676,6.9345316886901855
6_20251106_215308,1762437153727,6,0.5372259020805359,0.40585532784461975,0.29883453249931335,0.6762896776199341,1.1159839630126953,2.9126951694488525,2.980297088623047,1.1783756017684937,7.667891025543213,4.915996551513672,0.8768962621688843,0.12187132984399796,-1.0620685815811157,34.74541091918945,-29.27218246459961,-17.200359344482422,-1.1024795770645142,-0.19746923446655273,-1.377284049987793,2.280855178833008,7.865360260009766,6.293280601501465
6_20251106_215308,1762437153747,6,0.5402272343635559,0.4059140980243683,0.3083191215991974,0.6695727109909058,1.1159839630126953,2.9126951694488525,2.980297088623047,1.1783756017684937,7.667891025543213,4.915996551513672,0.5647444128990173,0.32895445823669434,-0.8781982064247131,35.71135711669922,-28.473377227783203,-16.904220581054688,-1.1024795770645142,-0.19746923446655273,-1.377284049987793,2.280855178833008,7.865360260009766,6.293280601501465
6_20251106_215308,1762437153766,6,0.5431759357452393,0.40413588285446167,0.3167661726474762,0.6642990708351135,1.0356674194335938,2.913001775741577,2.976949453353882,1.8930140733718872,8.504629135131836,5.297855377197266,0.5647444128990173,0.32895445823669434,-0.8781982064247131,36.685569763183594,-27.737102508544922,-16.554845809936523,-0.17064940929412842,0.5127487182617188,-0.5487775802612305,2.0636634826660156,7.991880416870117,5.846632957458496
6_20251106_215308,1762437153785,6,0.5466805696487427,0.39931440353393555,0.32399946451187134,0.6608424186706543,0.998885989189148,2.9160854816436768,2.9745571613311768,1.9385020732879639,8.74763011932373,5.8640594482421875,0.21655155718326569,0.5329833030700684,-0.8733112812042236,37.50209045410156,-27.19992446899414,-16.09366798400879,-0.1001291275024414,0.6045999526977539,0.013940811157226562,2.0386312007904053,8.143030166625977,5.850118637084961
6_20251106_215308,1762437153804,6,0.5513061881065369,0.3919776380062103,0.3311031460762024,0.657864511013031,0.9644514322280884,2.9197278022766113,2.973729372024536,1.4979877471923828,8.495052337646484,6.388367652893066,0.03634645417332649,0.7742748856544495,-1.2184499502182007,38.33543014526367,-26.574459075927734,-15.589603424072266,-0.4325147867202759,0.2816181182861328,0.4305992126464844,1.9305025339126587,8.213434219360352,5.957768440246582
6_20251106_215308,1762437153822,6,0.5566513538360596,0.3835262060165405,0.3395208418369293,0.6540431976318359,0.9267279505729675,2.9234960079193115,2.9745962619781494,0.7665907144546509,8.25564193725586,6.576303958892822,0.03634645417332649,0.7742748856544495,-1.2184499502182007,39.0557861328125,-26.00704574584961,-15.023427963256836,-0.9311294555664062,0.03376579284667969,0.4948282241821289,1.6977201700210571,8.22187614440918,6.081475734710693
6_20251106_215308,1762437153842,6,0.5618129372596741,0.37497809529304504,0.34995514154434204,0.6490678191184998,0.8841614127159119,2.9267518520355225,2.975904941558838,0.10462236404418945,8.053340911865234,6.2267656326293945,0.507323145866394,0.9416517615318298,-1.3882702589035034,39.853187561035156,-25.359928131103516,-14.412177085876465,-1.2744781970977783,-0.1348276138305664,0.11623191833496094,1.3791005611419678,8.1881685256958,6.110533714294434
6_20251106_215308,1762437153861,6,0.5657284259796143,0.36702457070350647,0.3626503348350525,0.6432177424430847,0.8406851887702942,2.928699493408203,2.975289821624756,-0.4651731252670288,7.827098846435547,5.455865859985352,0.7761036157608032,0.9422626495361328,-1.3265730142593384,40.66741180419922,-24.624523162841797,-13.758038520812988,-1.4754189252853394,-0.28885555267333984,-0.5237345695495605,1.0102458000183105,8.115954399108887,5.979600429534912
6_20251106_215308,1762437153881,6,0.5682498216629028,0.36063915491104126,0.37670522928237915,0.6364940404891968,0.7913008332252502,2.929921865463257,2.9722418785095215,-0.9332195520401001,7.877374649047852,5.179347038269043,0.8524616360664368,0.7791617512702942,-1.1891283988952637,41.46826934814453,-23.891529083251953,-12.942195892333984,-1.5547723770141602,-0.19086360931396484,-0.640202522277832,0.6215527653694153,8.068238258361816,5.819549560546875
6_20251106_215308,1762437153904,6,0.5700966119766235,0.3560841679573059,0.389875590801239,0.6294369697570801,0.7302024364471436,2.930908679962158,2.966968536376953,-1.1558705568313599,7.981517791748047,5.336161136627197,0.8023707866668701,0.6453824043273926,-1.0278600454330444,42.224098205566406,-23.098651885986328,-12.154027938842773,-1.4219386577606201,-0.06937599182128906,-0.38671064376831055,0.26606810092926025,8.050893783569336,5.722871780395508
6_20251106_215308,1762437153923,6,0.571499764919281,0.3525591790676117,0.40145206451416016,0.622837245464325,0.6777512431144714,2.931252956390381,2.9615392684936523,-1.3749306201934814,7.894133567810059,5.2523674964904785,0.876896321773529,0.631332516670227,-0.9069088101387024,42.99685287475586,-22.217350006103516,-11.336488723754883,-1.3127989768981934,-0.12540817260742188,-0.3764033317565918,-0.06213162839412689,8.01954174041748,5.62877082824707
6_20251106_215308,1762437153939,6,0.5718951225280762,0.349892795085907,0.4128824770450592,0.6164730787277222,0.6777512431144714,2.931252956390381,2.9615392684936523,-1.3749306201934814,7.894133567810059,5.2523674964904785,1.041218876838684,0.6838668584823608,-0.7792381048202515,42.99685287475586,-22.217350006103516,-11.336488723754883,-1.3127989768981934,-0.12540817260742188,-0.3764033317565918,-0.06213162839412689,8.01954174041748,5.62877082824707
6_20251106_215308,1762437153957,6,0.5707212090492249,0.3482597768306732,0.42502933740615845,0.6101987361907959,0.5815351605415344,2.9300355911254883,2.947089910507202,-1.7292572259902954,7.734925270080566,4.340215682983398,1.041218876838684,0.6838668584823608,-0.7792381048202515,43.64372634887695,-21.407451629638672,-10.457592964172363,-1.0999032258987427,-0.17928123474121094,-0.9217801094055176,-0.6293540000915527,7.914206504821777,5.261995792388916
6_20251106_215308,1762437153976,6,0.5680831670761108,0.3471556603908539,0.4375792145729065,0.60439133644104,0.5266076326370239,2.9288759231567383,2.9345364570617676,-1.9100117683410645,7.818718910217285,3.912869453430176,1.1304051876068115,0.7504511475563049,-0.6521782279014587,44.28315734863281,-20.72366714477539,-9.527271270751953,-1.0245262384414673,-0.07638978958129883,-1.079300880432129,-0.8854855298995972,7.895108699798584,4.992170333862305
6_20251106_215308,1762437153996,6,0.5647689700126648,0.34641775488853455,0.4496620297431946,0.5990282297134399,0.4714250862598419,2.9278504848480225,2.9192585945129395,-1.9794405698776245,7.9228620529174805,3.770420551300049,1.116355299949646,0.7510619759559631,-0.5458877682685852,44.87446212768555,-20.019023895263672,-8.490253448486328,-0.8751640319824219,0.022202491760253906,-0.9773998260498047,-1.1042765378952026,7.900659561157227,4.7478203773498535
6_20251106_215308,1762437154014,6,0.5609651207923889,0.3457739055156708,0.4608542323112488,0.5944509506225586,0.4166301190853119,2.927016019821167,2.9018101692199707,-1.9686671495437622,7.951591491699219,3.6782479286193848,1.0399972200393677,0.7418990731239319,-0.4316560924053192,45.38722610473633,-19.407718658447266,-7.390444755554199,-0.6915124654769897,0.04074573516845703,-0.8556580543518066,-1.2771546840667725,7.910845756530762,4.533905982971191
6_20251106_215308,1762437154033,6,0.5566280484199524,0.34545594453811646,0.47128820419311523,0.5905191898345947,0.3628024756908417,2.926492691040039,2.8823347091674805,-1.923179268836975,8.009050369262695,3.4771435260772705,0.9996801018714905,0.7290708422660828,-0.3180352449417114,45.719810485839844,-18.982929229736328,-6.3417463302612305,-0.5168197154998779,0.07856369018554688,-0.8454101085662842,-1.4063595533370972,7.930486679077148,4.322553634643555
6_20251106_215308,1762437154054,6,0.5516415238380432,0.3456531763076782,0.4814462959766388,0.5868772864341736,0.3101300299167633,2.9263226985931396,2.8604724407196045,-1.9662730693817139,8.049750328063965,3.0976786613464355,1.0375537872314453,0.6814233660697937,-0.16348648071289062,45.95169448852539,-18.61526107788086,-5.243962287902832,-0.44793081283569336,0.09541082382202148,-0.9798998832702637,-1.5183422565460205,7.954339504241943,4.077578544616699
6_20251106_215308,1762437154071,6,0.5460508465766907,0.34619009494781494,0.49134042859077454,0.5835798978805542,0.25850099325180054,2.9265215396881104,2.8355534076690674,-2.0979485511779785,8.085660934448242,2.5649919509887695,0.9440913796424866,0.7076905965805054,-0.07979802042245865,46.18740463256836,-18.397350311279297,-4.162371635437012,-0.4636850357055664,0.1050572395324707,-1.210069179534912,-1.634263515472412,7.9806036949157715,3.7750611305236816
6_20251106_215308,1762437154091,6,0.5403687357902527,0.3467061519622803,0.5003731846809387,0.5808813571929932,0.20516395568847656,2.927203416824341,2.805940628051758,-2.196106433868408,8.13952922821045,2.231015205383301,0.6411024928092957,0.7932116389274597,0.06558778136968613,46.319889068603516,-18.286380767822266,-3.0732994079589844,-0.4494743347167969,0.12714099884033203,-1.235236644744873,-1.7466320991516113,8.012388229370117,3.466251850128174
6_20251106_215308,1762437154109,6,0.5344409346580505,0.3459259271621704,0.5076704621315002,0.5804988145828247,0.15852178633213043,2.9287421703338623,2.7780840396881104,-2.168574333190918,8.40048599243164,2.4357104301452637,0.15729767084121704,0.9080542325973511,0.26595139503479004,46.37694549560547,-18.218120574951172,-1.9609289169311523,-0.3375537395477295,0.31047821044921875,-0.8244330883026123,-1.8310205936431885,8.090007781982422,3.260143518447876
6_20251106_215308,1762437154130,6,0.5284284353256226,0.3430481255054474,0.512191116809845,0.5837308168411255,0.10940124094486237,2.932452917098999,2.7492775917053223,-1.7938979864120483,8.776359558105469,3.456793785095215,-0.34300053119659424,1.1041418313980103,0.432106614112854,46.31991195678711,-18.221012115478516,-0.7326459884643555,0.02969801425933838,0.5490818023681641,0.1573200225830078,-1.8235960006713867,8.227277755737305,3.299473762512207
6_20251106_215308,1762437154149,6,0.5220493674278259,0.3372613191604614,0.5143327116966248,0.5909155011177063,0.10940124094486237,2.932452917098999,2.7492775917053223,-1.7938979864120483,8.776359558105469,3.456793785095215,-0.5928442478179932,1.3771982192993164,0.4492108225822449,46.221458435058594,-18.337268829345703,0.2890462875366211,0.02969801425933838,0.5490818023681641,0.1573200225830078,-1.8235960006713867,8.227277755737305,3.299473762512207
6_20251106_215308,1762437154167,6,0.5147462487220764,0.32847994565963745,0.5162332057952881,0.6005335450172424,0.028625894337892532,2.9472405910491943,2.7118654251098633,-0.7656325101852417,9.349745750427246,5.419954299926758,-0.3637699484825134,1.6618613004684448,0.29527291655540466,46.020992279052734,-18.535633087158203,1.345780372619629,0.7420246601104736,0.7296791076660156,1.4409966468811035,-1.5076571702957153,8.62006664276123,3.9789576530456543
6_20251106_215308,1762437154187,6,0.5060877203941345,0.3183073103427887,0.5209379196166992,0.6092449426651001,-0.00553407147526741,2.956084966659546,2.698967456817627,-0.8147115111351013,8.917610168457031,4.706513404846191,0.3179550766944885,1.7510474920272827,0.02465984784066677,45.80343246459961,-18.79946517944336,2.589930534362793,0.5543565154075623,0.2380352020263672,0.5820446014404297,-1.3690680265426636,8.679574966430664,4.124468803405762
6_20251106_215308,1762437154205,6,0.4963212311267853,0.30946338176727295,0.530587911605835,0.6134933829307556,-0.00553407147526741,2.956084966659546,2.698967456817627,-0.8147115111351013,8.917610168457031,4.706513404846191,1.0381646156311035,1.6698025465011597,-0.1793689727783203,45.601470947265625,-19.011463165283203,3.754530906677246,0.5543565154075623,0.2380352020263672,0.5820446014404297,-1.3690680265426636,8.679574966430664,4.124468803405762
6_20251106_215308,1762437154224,6,0.4858204424381256,0.30338212847709656,0.5445894002914429,0.6126664876937866,-0.06969830393791199,2.968942165374756,2.663358211517334,-1.8633266687393188,7.9767303466796875,1.4182183742523193,1.4114030599594116,1.5091451406478882,-0.19280800223350525,45.3309440612793,-19.129253387451172,5.06697940826416,-0.40845048427581787,-0.5057468414306641,-2.0089497566223145,-1.454876184463501,8.482477188110352,3.427168130874634
6_20251106_215308,1762437154243,6,0.47504153847694397,0.299923300743103,0.5600513219833374,0.6088711619377136,-0.10213375091552734,2.9722583293914795,2.6345672607421875,-2.2200474739074707,7.831886291503906,0.1505432277917862,1.3955204486846924,1.3729223012924194,-0.06574813276529312,44.9903450012207,-19.178081512451172,6.5402631759643555,-0.6121370792388916,-0.520472526550293,-2.621299982070923,-1.607910394668579,8.3523588180542,2.771843194961548
6_20251106_215308,1762437154262,6,0.4641505181789398,0.29787397384643555,0.574472963809967,0.6048274040222168,-0.13499800860881805,2.9737706184387207,2.598053455352783,-2.355314254760742,7.755275726318359,-0.5676864385604858,1.1578940153121948,1.257468819618225,0.08635718375444412,44.526092529296875,-19.248897552490234,8.157057762145996,-0.5979231595993042,-0.47766685485839844,-2.671623706817627,-1.757391095161438,8.232942581176758,2.1039373874664307
6_20251106_215308,1762437154282,6,0.45354875922203064,0.29627183079719543,0.5865713357925415,0.6020386815071106,-0.16974908113479614,2.9737250804901123,2.5528392791748047,-2.3780579566955566,7.7205610275268555,-0.7580172419548035,0.8756745457649231,1.1578978300094604,0.21708223223686218,44.08034133911133,-19.229129791259766,9.586962699890137,-0.49653351306915283,-0.40990543365478516,-2.2895636558532715,-1.8815244436264038,8.13046646118164,1.5315464735031128
6_20251106_215308,1762437154302,6,0.44340023398399353,0.2946942150592804,0.5962127447128296,0.6009008884429932,-0.16974908113479614,2.9737250804901123,2.5528392791748047,-2.3780579566955566,7.7205610275268555,-0.7580172419548035,0.8756745457649231,1.1578978300094604,0.21708223223686218,43.60097885131836,-19.13815689086914,11.1926908493042,-0.49653351306915283,-0.40990543365478516,-2.2895636558532715,-1.8815244436264038,8.13046646118164,1.5315464735031128
6_20251106_215308,1762437154320,6,0.4336235225200653,0.2929283380508423,0.6039190888404846,0.6012032628059387,-0.2061617225408554,2.972342014312744,2.500622272491455,-2.403195858001709,7.731334686279297,-0.5916274189949036,0.4132499694824219,1.1670607328414917,0.42355453968048096,43.156864166259766,-19.069782257080078,12.785845756530762,-0.41733717918395996,-0.319305419921875,-1.6985392570495605,-1.985858678817749,8.050640106201172,1.1069117784500122
6_20251106_215308,1762437154340,6,0.4234786927700043,0.2904769480228424,0.6100995540618896,0.603380024433136,-0.2663712501525879,2.968095064163208,2.40844988822937,-2.186530113220215,7.792384147644043,-0.11639881134033203,0.4132499694824219,1.1670607328414917,0.42355453968048096,42.557743072509766,-18.960689544677734,14.292584419250488,-0.09606146812438965,-0.1555156707763672,-0.7559133172035217,-2.090468645095825,7.94789981842041,0.6395145058631897
6_20251106_215308,1762437154359,6,0.412563681602478,0.28754520416259766,0.6149086356163025,0.6074506640434265,-0.29701319336891174,2.9650778770446777,2.3579957485198975,-1.9471200704574585,7.757669448852539,0.02485302835702896,0.14630208909511566,1.228147268295288,0.68133944272995,42.557743072509766,-18.960689544677734,14.292584419250488,0.11467897891998291,-0.15218400955200195,-0.4917292296886444,-2.0617990493774414,7.909853458404541,0.5165822505950928
6_20251106_215308,1762437154378,6,0.4010445177555084,0.28487056493759155,0.618857204914093,0.612395167350769,-0.3238537311553955,2.9616189002990723,2.311220169067383,-1.7651686668395996,7.6415557861328125,0.06435565650463104,0.16890408098697662,1.1548434495925903,0.7320411801338196,41.279205322265625,-19.120769500732422,17.052398681640625,0.2373042106628418,-0.21463775634765625,-0.3617812395095825,-2.0024728775024414,7.856193542480469,0.42613691091537476
6_20251106_215308,1762437154395,6,0.38956722617149353,0.2830059230327606,0.6223508715629578,0.6171097159385681,-0.34611016511917114,2.9580206871032715,2.270440101623535,-1.7484099864959717,7.556565284729004,-0.03859059512615204,0.2464839071035385,1.09803307056427,0.7448693513870239,41.279205322265625,-19.120769500732422,17.052398681640625,0.20325028896331787,-0.23970270156860352,-0.37178200483322144,-1.9516602754592896,7.796267986297607,0.3331914246082306
6_20251106_215308,1762437154415,6,0.37811538577079773,0.2818329632282257,0.6259122490882874,0.6211544275283813,-0.34611016511917114,2.9580206871032715,2.270440101623535,-1.7484099864959717,7.556565284729004,-0.03859059512615204,0.3179550766944885,1.1206351518630981,0.8096210360527039,40.552337646484375,-19.379749298095703,18.222679138183594,0.20325028896331787,-0.23970270156860352,-0.37178200483322144,-1.9516602754592896,7.796267986297607,0.3331914246082306
6_20251106_215308,1762437154434,6,0.36589619517326355,0.2811068892478943,0.6297107338905334,0.624950647354126,-0.3715515434741974,2.952432870864868,2.2200255393981934,-1.7496070861816406,7.388978004455566,-0.43002575635910034,0.3179550766944885,1.1206351518630981,0.8096210360527039,39.77600860595703,-19.666072845458984,19.295856475830078,0.16164255142211914,-0.32583189010620117,-0.6105737686157227,-1.9112496376037598,7.714809894561768,0.18054798245429993
6_20251106_215308,1762437154453,6,0.3523848056793213,0.28103023767471313,0.6330572962760925,0.6293532252311707,-0.41002434492111206,2.939429759979248,2.126840829849243,-1.263604998588562,7.163933277130127,-1.759947657585144,0.19761472940444946,1.0314488410949707,1.2488327026367188,38.92263412475586,-20.032108306884766,20.323955535888672,0.46792876720428467,-0.3552422523498535,-1.3464914560317993,-1.7315337657928467,7.5191755294799805,-0.4134562015533447
6_20251106_215308,1762437154475,6,0.33819982409477234,0.2830190658569336,0.6345570683479309,0.6347113251686096,-0.42628008127212524,2.9308888912200928,2.0675618648529053,-0.6375482678413391,7.323141098022461,-1.9071847200393677,0.19761472940444946,1.0314488410949707,1.2488327026367188,37.95243835449219,-20.530994415283203,21.3585205078125,0.875188410282135,-0.15682744979858398,-1.1949827671051025,-1.5127366781234741,7.479968547821045,-0.7122018933296204
6_20251106_215308,1762437154491,6,0.3239270746707916,0.28793561458587646,0.63304603099823,0.6414179801940918,-0.4340711236000061,2.9251835346221924,2.0250048637390137,0.255450576543808,7.580506324768066,-1.5349023342132568,-0.0027488917112350464,0.777940034866333,1.5829757452011108,37.00457000732422,-21.089054107666016,22.19000244140625,1.4145498275756836,0.0804300308227539,-0.6581603288650513,-1.1590992212295532,7.5000762939453125,-0.8767420053482056
6_20251106_215308,1762437154510,6,0.31035783886909485,0.29601946473121643,0.6281828284263611,0.6491816639900208,-0.4364210367202759,2.9200778007507324,1.976660966873169,1.1879521608352661,7.985109329223633,-0.9986242055892944,-0.2165515273809433,0.4590686559677124,1.8731364011764526,35.94751739501953,-21.87814712524414,22.877643585205078,1.877641201019287,0.38802623748779297,-0.09750580787658691,-0.6896889805793762,7.59708309173584,-0.9011183977127075
6_20251106_215308,1762437154529,6,0.297916978597641,0.30643007159233093,0.6210140585899353,0.657029390335083,-0.4314361810684204,2.917983293533325,1.9317245483398438,1.9408961534500122,8.60158920288086,-0.5401542782783508,-0.3442222476005554,-0.003966801334172487,1.9152861833572388,34.84039306640625,-22.707012176513672,23.454402923583984,2.1044681072235107,0.8036046028137207,0.2887713313102722,-0.16357198357582092,7.797984600067139,-0.828925609588623
6_20251106_215308,1762437154549,6,0.2868359386920929,0.31715157628059387,0.6132232546806335,0.6641515493392944,-0.41920220851898193,2.9199182987213135,1.8887977600097656,2.221005439758301,9.123503684997559,-0.16787192225456238,-0.3442222476005554,-0.003966801334172487,1.9152861833572388,33.705162048339844,-23.612133026123047,23.961017608642578,1.9076619148254395,1.060415267944336,0.5288429260253906,0.31334346532821655,8.063088417053223,-0.6967148780822754
6_20251106_215308,1762437154569,6,0.27771514654159546,0.3260418772697449,0.6056978106498718,0.6705976128578186,-0.40182796120643616,2.925569772720337,1.8515281677246094,2.205443859100342,9.317425727844238,0.4581848978996277,-0.5684096217155457,0.1560797542333603,1.2854846715927124,32.58079528808594,-24.553050994873047,24.35919952392578,1.513680338859558,1.003469467163086,0.9239198565483093,0.6917635202407837,8.313956260681152,-0.46573495864868164
6_20251106_215308,1762437154587,6,0.27027174830436707,0.3313271403312683,0.5983559489250183,0.6776028871536255,-0.38329872488975525,2.9329729080200195,1.823594331741333,2.1838972568511963,9.358125686645508,1.1309266090393066,-0.7968730330467224,0.4547926187515259,0.9531742334365845,31.450551986694336,-25.629535675048828,24.497669219970703,1.19370698928833,0.8353357315063477,1.2773293256759644,0.9901902675628662,8.52278995513916,-0.14640267193317413
6_20251106_215308,1762437154606,6,0.26396244764328003,0.33200469613075256,0.5912234783172607,0.6859675645828247,-0.38329872488975525,2.9329729080200195,1.823594331741333,2.1838972568511963,9.358125686645508,1.1309266090393066,-0.9385936856269836,0.7840487360954285,0.6489636301994324,30.368236541748047,-26.72714614868164,24.556476593017578,1.19370698928833,0.8353357315063477,1.2773293256759644,0.9901902675628662,8.52278995513916,-0.14640267193317413
6_20251106_215308,1762437154625,6,0.2581195533275604,0.3282182514667511,0.5848525762557983,0.6954096555709839,-0.33907195925712585,2.9532415866851807,1.7820909023284912,1.9696253538131714,9.256376266479492,1.6157315969467163,-0.9880737662315369,1.0143446922302246,0.4999126195907593,29.386314392089844,-27.779659271240234,24.51186752319336,0.6115163564682007,0.4635581970214844,1.1344693899154663,1.3581089973449707,8.792818069458008,0.4812621772289276
6_20251106_215308,1762437154644,6,0.2521582245826721,0.3218589723110199,0.57904052734375,0.7053616642951965,-0.3153999149799347,2.96480393409729,1.767685055732727,2.1647443771362305,9.311439514160156,1.534332275390625,-0.9807433485984802,1.0430552959442139,0.5377861857414246,28.321613311767578,-28.787906646728516,24.505428314208984,0.6453083753585815,0.41489696502685547,0.8424561023712158,1.519436001777649,8.8965425491333,0.6918761730194092
6_20251106_215308,1762437154663,6,0.24570806324481964,0.3154427409172058,0.5731574296951294,0.7152720093727112,-0.3153999149799347,2.96480393409729,1.767685055732727,2.1647443771362305,9.311439514160156,1.534332275390625,-0.950810968875885,0.8671262860298157,0.6294159293174744,27.388713836669922,-29.635501861572266,24.304317474365234,0.6453083753585815,0.41489696502685547,0.8424561023712158,1.519436001777649,8.8965425491333,0.6918761730194092
6_20251106_215308,1762437154683,6,0.23945927619934082,0.3108077645301819,0.5667018294334412,0.7245045304298401,-0.2634820342063904,2.99204421043396,1.7481963634490967,2.7465105056762695,9.93869400024414,1.826412320137024,-0.9239329695701599,0.5757438540458679,0.6892806887626648,26.50778579711914,-30.417537689208984,24.147037506103516,0.826697587966919,0.7334375381469727,0.7695800065994263,1.9198129177093506,9.205256462097168,1.0568323135375977
6_20251106_215308,1762437154702,6,0.23447875678539276,0.30877000093460083,0.5594021677970886,0.7326322793960571,-0.23528705537319183,3.008878707885742,1.7440191507339478,2.9488115310668945,10.307385444641113,2.350719928741455,-0.8787289261817932,0.3619411587715149,0.7045522928237915,25.458393096923828,-29.350730895996094,20.713653564453125,0.8231987953186035,0.8817033767700195,1.0351101160049438,2.125612735748291,9.425682067871094,1.3156098127365112
6_20251106_215308,1762437154721,6,0.23037469387054443,0.30837249755859375,0.5518118143081665,0.7398226857185364,-0.2056225687265396,3.027615785598755,1.7441716194152832,3.1750540733337402,10.42589282989502,2.8175692558288574,-0.7706058621406555,0.2837504744529724,0.6569048762321472,24.570098876953125,-30.057411193847656,20.476367950439453,0.8395531177520752,0.8001680374145508,1.2015676498413086,2.335500955581665,9.625724792480469,1.6160016059875488
6_20251106_215308,1762437154740,6,0.22665908932685852,0.308417946100235,0.5448604226112366,0.7460771799087524,-0.17485874891281128,3.0478410720825195,1.7483224868774414,3.276803493499756,10.509687423706055,3.076131820678711,-0.6606501936912537,0.27703097462654114,0.5756598114967346,23.841835021972656,-30.72838592529297,20.218955993652344,0.7530419826507568,0.7071704864501953,1.1681041717529297,2.523761510848999,9.80251693725586,1.9080276489257812
6_20251106_215308,1762437154759,6,0.2231684923171997,0.3082444965839386,0.5388357639312744,0.7515565156936646,-0.14194396138191223,3.0702998638153076,1.7563810348510742,3.2313153743743896,10.53721809387207,3.1934428215026855,-0.5995637774467468,0.2782526910305023,0.4993017315864563,23.115386962890625,-31.362091064453125,20.002883911132812,0.5660429000854492,0.5877609252929688,1.028332233428955,2.6652724742889404,9.949457168579102,2.1651105880737305
6_20251106_215308,1762437154779,6,0.22001448273658752,0.30774834752082825,0.5334334373474121,0.7565271854400635,-0.14194396138191223,3.0702998638153076,1.7563810348510742,3.2313153743743896,10.53721809387207,3.1934428215026855,-0.5849030017852783,0.27092230319976807,0.4620389938354492,22.378753662109375,-31.970664978027344,19.705753326416016,0.5660429000854492,0.5877609252929688,1.028332233428955,2.6652724742889404,9.949457168579102,2.1651105880737305
6_20251106_215308,1762437154799,6,0.21713146567344666,0.3071013391017914,0.5282191634178162,0.761266827583313,-0.07552816718816757,3.1166319847106934,1.7814379930496216,3.336655616760254,10.51806640625,3.5238282680511475,-0.562300980091095,0.22877265512943268,0.42477625608444214,21.754531860351562,-32.51038360595703,19.522483825683594,0.44098520278930664,0.3696565628051758,0.9084594249725342,2.8956704139709473,10.148409843444824,2.6153688430786133
6_20251106_215308,1762437154817,6,0.2146313637495041,0.306577205657959,0.5231837630271912,0.7656517028808594,-0.07552816718816757,3.1166319847106934,1.7814379930496216,3.336655616760254,10.51806640625,3.5238282680511475,-0.49082982540130615,0.20067287981510162,0.3759070634841919,21.754531860351562,-32.51038360595703,19.522483825683594,0.44098520278930664,0.3696565628051758,0.9084594249725342,2.8956704139709473,10.148409843444824,2.6153688430786133
6_20251106_215308,1762437154836,6,0.2123619019985199,0.306092232465744,0.5187405347824097,0.7694922089576721,-0.01438145712018013,3.159126043319702,1.812719464302063,3.5210013389587402,10.47497272491455,3.64473032951355,-0.3875936269760132,0.16218839585781097,0.30077069997787476,21.218416213989258,-33.00592803955078,19.248825073242188,0.4049999713897705,0.19808292388916016,0.6584081649780273,3.1160013675689697,10.27688980102539,2.9863221645355225
6_20251106_215308,1762437154855,6,0.21057851612567902,0.3057703375816345,0.5151470899581909,0.7725183963775635,0.016225401312112808,3.180504322052002,1.8302866220474243,3.445587158203125,10.594676971435547,3.583681106567383,-0.3081812262535095,0.15424714982509613,0.22502347826957703,20.6629638671875,-33.41503143310547,18.96251678466797,0.2636685371398926,0.2542295455932617,0.4778871536254883,3.1819186210632324,10.340447425842285,3.1057939529418945
6_20251106_215308,1762437154874,6,0.20913372933864594,0.30527791380882263,0.5123542547225952,0.7749590873718262,0.04441198706626892,3.200364828109741,1.847191333770752,3.4419960975646973,10.592283248901367,3.5501632690429688,-0.2770271301269531,0.19395336508750916,0.15599575638771057,20.217098236083984,-33.805503845214844,18.789016723632812,0.20806217193603516,0.20146846771240234,0.3554954528808594,3.233933925628662,10.390814781188965,3.1946678161621094
6_20251106_215308,1762437154893,6,0.20789778232574463,0.3041849732398987,0.51011723279953,0.7771939635276794,0.0731491819024086,3.2202980518341064,1.8649179935455322,3.4060845375061035,10.397164344787598,3.4771432876586914,-0.23915354907512665,0.22877265512943268,0.06803124397993088,19.798423767089844,-34.14415740966797,18.6175537109375,0.13772034645080566,0.005080223083496094,0.22598028182983398,3.268364191055298,10.392084121704102,3.2511630058288574
6_20251106_215308,1762437154912,6,0.20700915157794952,0.30246981978416443,0.5085071325302124,0.7791532278060913,0.10190839320421219,3.2395880222320557,1.8832660913467407,3.275606155395508,10.180498123168945,3.455596685409546,-0.2055559903383255,0.23060525953769684,-0.015046361833810806,19.495262145996094,-34.37493896484375,18.425582885742188,0.005793571472167969,-0.16926860809326172,0.16354680061340332,3.26981258392334,10.349766731262207,3.2920498847961426
6_20251106_215308,1762437154931,6,0.20656713843345642,0.30037540197372437,0.5074170231819153,0.7807897329330444,0.1273474395275116,3.255833148956299,1.900382399559021,3.081684112548828,9.92552661895752,3.4950990676879883,-0.2000582069158554,0.2275509387254715,-0.08040888607501984,19.195425033569336,-34.54320526123047,18.261966705322266,-0.15050292015075684,-0.33939266204833984,0.16243934631347656,3.232187032699585,10.26491928100586,3.3326597213745117
6_20251106_215308,1762437154951,6,0.20675420761108398,0.29807761311531067,0.5064970850944519,0.7822167873382568,0.15193229913711548,3.2704062461853027,1.9177122116088867,2.9512057304382324,9.714845657348633,3.402926445007324,-0.19761474430561066,0.26603540778160095,-0.1078977957367897,18.995994567871094,-34.654754638671875,18.089813232421875,-0.22478508949279785,-0.4400596618652344,0.05621337890625,3.1759908199310303,10.154905319213867,3.346713066101074
6_20251106_215308,1762437154970,6,0.2069268524646759,0.2953120470046997,0.5057569146156311,0.7836976647377014,0.17344757914543152,3.281773090362549,1.9331355094909668,2.930856227874756,9.504165649414062,3.267659902572632,-0.17806707322597504,0.2697005867958069,-0.10606520622968674,18.797666549682617,-34.753204345703125,17.86385726928711,-0.1961076259613037,-0.5205917358398438,-0.06324267387390137,3.1269638538360596,10.024757385253906,3.330902576446533
6_20251106_215308,1762437154990,6,0.2070503979921341,0.2925867438316345,0.5051620602607727,0.7850697040557861,0.17344757914543152,3.281773090362549,1.9331355094909668,2.930856227874756,9.504165649414062,3.267659902572632,-0.12003491818904877,0.20372720062732697,-0.10178915411233902,18.68465232849121,-34.83448028564453,17.73621368408203,-0.1961076259613037,-0.5205917358398438,-0.06324267387390137,3.1269638538360596,10.024757385253906,3.330902576446533
6_20251106_215308,1762437155009,6,0.20727844536304474,0.2905060350894928,0.504869282245636,0.7859700322151184,0.2117106318473816,3.298051595687866,1.961084246635437,2.6387758255004883,9.28630256652832,3.1946399211883545,-0.12003491818904877,0.20372720062732697,-0.10178915411233902,18.58513641357422,-34.889984130859375,17.623104095458984,-0.3446168899536133,-0.4888906478881836,-0.07744026184082031,2.9833927154541016,9.775193214416504,3.272080183029175
6_20251106_215308,1762437155027,6,0.2079058438539505,0.28934794664382935,0.5047239661216736,0.7863247394561768,0.22618190944194794,3.3027091026306152,1.9725741147994995,2.4664008617401123,9.167794227600098,3.155137062072754,-0.03207039833068848,0.057730533182621,-0.07124591618776321,18.48501205444336,-34.957908630371094,17.4962158203125,-0.4135935306549072,-0.4859189987182617,-0.09355449676513672,2.8799943923950195,9.65371322631836,3.2486915588378906
6_20251106_215308,1762437155046,6,0.2083764523267746,0.2886420786380768,0.5047412514686584,0.7864485383033752,0.23945683240890503,3.306016683578491,1.9836881160736084,2.4292922019958496,9.157020568847656,3.1000728607177734,-0.03207039833068848,0.057730533182621,-0.07124591618776321,18.510074615478516,-34.95537567138672,17.402584075927734,-0.3605618476867676,-0.3973541259765625,-0.11889505386352539,2.789854049682617,9.554374694824219,3.218967914581299
6_20251106_215308,1762437155066,6,0.20838436484336853,0.28814688324928284,0.5049413442611694,0.786499559879303,0.2510623633861542,3.307950496673584,1.9935392141342163,2.423306941986084,9.113926887512207,2.9612152576446533,0.003970621153712273,0.06017399579286575,-0.027874520048499107,18.48660659790039,-34.94413757324219,17.374835968017578,-0.29323768615722656,-0.3523578643798828,-0.20620203018188477,2.7165446281433105,9.46628475189209,3.167417287826538
6_20251106_215308,1762437155084,6,0.2080642133951187,0.28783008456230164,0.505132257938385,0.7865777015686035,0.26128965616226196,3.30892276763916,2.002213716506958,2.425701141357422,9.15103530883789,2.918121337890625,0.003970621153712273,0.02596556954085827,0.03504454717040062,18.450244903564453,-34.946250915527344,17.346332550048828,-0.23267459869384766,-0.2522001266479492,-0.19943666458129883,2.6583757400512695,9.40323543548584,3.117558002471924
6_20251106_215308,1762437155104,6,0.20780439674854279,0.2879332900047302,0.5051073431968689,0.7866246104240417,0.27018657326698303,3.309088706970215,2.010226011276245,2.35986328125,9.127094268798828,3.0342350006103516,-0.013133591040968895,-0.030844850465655327,0.03137935698032379,18.412277221679688,-34.97374725341797,17.34433364868164,-0.23881006240844727,-0.22091293334960938,-0.06665849685668945,2.5986733436584473,9.348007202148438,3.100893497467041
6_20251106_215308,1762437155123,6,0.2078647017478943,0.2883959710597992,0.5048720836639404,0.7865902185440063,0.2781173288822174,3.3086013793945312,2.0182249546051025,2.280858278274536,9.133079528808594,3.0964818000793457,-0.013133591040968895,-0.030844850465655327,0.03137935698032379,18.375507354736328,-34.988014221191406,17.27501678466797,-0.25425219535827637,-0.17194175720214844,-0.0035293102264404297,2.5351104736328125,9.305021286010742,3.100011110305786
6_20251106_215308,1762437155142,6,0.20810630917549133,0.2889331579208374,0.5045259594917297,0.786551296710968,0.2846725285053253,3.307936191558838,2.0253653526306152,2.315572738647461,9.222858428955078,3.0713436603546143,-0.04673115164041519,-0.06016635522246361,0.02160552330315113,18.325366973876953,-35.00469207763672,17.36740493774414,-0.1756300926208496,-0.06573009490966797,-0.0229339599609375,2.4912028312683105,9.288588523864746,3.0942776203155518
6_20251106_215308,1762437155160,6,0.20851603150367737,0.28946635127067566,0.5039843320846558,0.7865939736366272,0.2903401553630829,3.307405471801758,2.0319650173187256,2.3969719409942627,9.316228866577148,3.1647136211395264,-0.04673115164041519,-0.06016635522246361,0.02160552330315113,18.34601593017578,-35.06615447998047,17.394100189208984,-0.07538461685180664,0.022111892700195312,0.05634880065917969,2.4723565578460693,9.294116973876953,3.1083648204803467
6_20251106_215308,1762437155181,6,0.20900018513202667,0.28991594910621643,0.5032707452774048,0.7867567539215088,0.2903401553630829,3.307405471801758,2.0319650173187256,2.3969719409942627,9.316228866577148,3.1647136211395264,-0.06872227787971497,-0.065664142370224,-0.022376736626029015,18.3935489654541,-35.08782196044922,17.36850357055664,-0.07538461685180664,0.022111892700195312,0.05634880065917969,2.4723565578460693,9.294116973876953,3.1083648204803467
6_20251106_215308,1762437155200,6,0.20979715883731842,0.29023274779319763,0.502679705619812,0.7868056893348694,0.3009847104549408,3.3070013523101807,2.0464816093444824,2.310784339904785,9.397627830505371,3.249704360961914,-0.03756818175315857,-0.06383154541254044,-0.07979802042245865,18.419021606445312,-35.07313537597656,17.315685272216797,-0.11815381050109863,0.07103538513183594,0.08835029602050781,2.428938150405884,9.326592445373535,3.1613540649414062
6_20251106_215308,1762437155220,6,0.2109449803829193,0.2903231084346771,0.5024675726890564,0.7866009473800659,0.3049832582473755,3.3072028160095215,2.0537803173065186,2.10968017578125,9.407204627990723,3.138378620147705,-0.016798779368400574,-0.03573176637291908,-0.13538670539855957,18.421829223632812,-35.034523010253906,17.22186279296875,-0.25540637969970703,0.06448936462402344,-0.018380403518676758,2.365086555480957,9.3427152633667,3.156759023666382
6_20251106_215308,1762437155238,6,0.2123495489358902,0.2899795472621918,0.5026236772537231,0.7862499356269836,0.3049832582473755,3.3072028160095215,2.0537803173065186,2.10968017578125,9.407204627990723,3.138378620147705,-0.056504987180233,0.008250491693615913,-0.16776254773139954,18.421829223632812,-35.034523010253906,17.22186279296875,-0.25540637969970703,0.06448936462402344,-0.018380403518676758,2.365086555480957,9.3427152633667,3.156759023666382
6_20251106_215308,1762437155257,6,0.21389763057231903,0.28903928399086,0.5027002692222595,0.7861275672912598,0.3073405623435974,3.3075265884399414,2.0600223541259766,1.9504724740982056,9.38924789428711,3.0378262996673584,-0.15118901431560516,0.06078485772013664,-0.1640973538160324,18.48244857788086,-35.042572021484375,17.169986724853516,-0.3316911458969116,0.03722667694091797,-0.09514617919921875,2.282163619995117,9.352021217346191,3.132972478866577
6_20251106_215308,1762437155275,6,0.2154013067483902,0.28749337792396545,0.5022054314613342,0.7865999937057495,0.30861765146255493,3.3087761402130127,2.069455623626709,1.8858318328857422,9.505361557006836,3.1347875595092773,-0.2635881304740906,0.1090431734919548,-0.153712660074234,18.58133316040039,-35.02271270751953,17.079559326171875,-0.25441861152648926,0.10771369934082031,0.0264434814453125,2.1402504444122314,9.397647857666016,3.108344078063965
6_20251106_215308,1762437155295,6,0.2169671207666397,0.2854471802711487,0.5009360313415527,0.7877234816551208,0.30861765146255493,3.3087761402130127,2.069455623626709,1.8858318328857422,9.505361557006836,3.1347875595092773,-0.33750277757644653,0.12431478500366211,-0.16592994332313538,18.630979537963867,-35.00670623779297,17.054752349853516,-0.25441861152648926,0.10771369934082031,0.0264434814453125,2.1402504444122314,9.397647857666016,3.108344078063965
6_20251106_215308,1762437155314,6,0.21867509186267853,0.28301841020584106,0.4991849660873413,0.7892377376556396,0.3075602352619171,3.3109290599823,2.082845687866211,1.921743392944336,9.360518455505371,3.7464797496795654,-0.33750277757644653,0.12431478500366211,-0.16592994332313538,18.67023277282715,-34.977455139160156,16.881038665771484,-0.14559054374694824,-0.04712867736816406,0.44556331634521484,2.067333936691284,9.407647132873535,3.3009164333343506
6_20251106_215308,1762437155332,6,0.22016797959804535,0.28027841448783875,0.49785271286964417,0.7906407117843628,0.3062720000743866,3.311781406402588,2.0899415016174316,1.8211911916732788,9.411992073059082,3.578892707824707,-0.18600831925868988,0.19822941720485687,-0.1793689727783203,18.74846839904785,-34.89613342285156,16.763919830322266,-0.19691407680511475,0.0034761428833007812,0.2223811149597168,2.0181052684783936,9.408515930175781,3.3565115928649902
6_20251106_215308,1762437155351,6,0.22108864784240723,0.2774369716644287,0.4973614513874054,0.7916944622993469,0.3040721118450165,3.3126654624938965,2.0974767208099365,1.6871216297149658,9.419174194335938,3.5094637870788574,-0.18600831925868988,0.19822941720485687,-0.1793689727783203,18.810400009155273,-34.87920379638672,16.726085662841797,-0.26478683948516846,0.008526802062988281,0.12236166000366211,1.9519084692001343,9.41064739227295,3.3871021270751953
6_20251106_215308,1762437155371,6,0.22195306420326233,0.2749103903770447,0.49714532494544983,0.792469322681427,0.3009544610977173,3.313633680343628,2.105602264404297,1.6500130891799927,9.43832778930664,3.581286907196045,-0.15851940214633942,0.1658535897731781,-0.12561286985874176,18.89609718322754,-34.87310028076172,16.675453186035156,-0.24151623249053955,0.022144317626953125,0.1553478240966797,1.8915293216705322,9.416183471679688,3.4259390830993652
6_20251106_215308,1762437155390,6,0.2226283699274063,0.2726687490940094,0.4966873526573181,0.7933410406112671,0.3009544610977173,3.313633680343628,2.105602264404297,1.6500130891799927,9.43832778930664,3.581286907196045,-0.15851940214633942,0.1658535897731781,-0.12561286985874176,18.955703735351562,-34.905723571777344,16.568981170654297,-0.24151623249053955,0.022144317626953125,0.1553478240966797,1.8915293216705322,9.416183471679688,3.4259390830993652
6_20251106_215308,1762437155410,6,0.22347277402877808,0.2703549563884735,0.49659982323646545,0.793950080871582,0.29351508617401123,3.3155436515808105,2.123159170150757,1.5889636278152466,9.374883651733398,4.00623893737793,-0.14569123089313507,0.12614738941192627,-0.09629137068986893,19.018537521362305,-34.87596130371094,16.504379272460938,-0.20494234561920166,-0.04156303405761719,0.4075908660888672,1.7939059734344482,9.416446685791016,3.5986480712890625
6_20251106_215308,1762437155428,6,0.223932683467865,0.2682848274707794,0.49672189354896545,0.7944461703300476,0.2892009913921356,3.3159899711608887,2.1330857276916504,1.5961458683013916,9.282711029052734,4.018209457397461,0.019242240116000175,0.13408862054347992,-0.021765870973467827,19.017635345458984,-34.88878631591797,16.531147003173828,-0.15820801258087158,-0.10698890686035156,0.3356492519378662,1.7543538808822632,9.389699935913086,3.6825602054595947
6_20251106_215308,1762437155449,6,0.2235811948776245,0.266222208738327,0.4972914159297943,0.7948826551437378,0.2847115993499756,3.3160817623138428,2.1429810523986816,1.6966979503631592,9.273134231567383,3.67226243019104,0.13469566404819489,0.10843230783939362,0.03748800605535507,19.10243034362793,-34.89551544189453,16.507282257080078,-0.046124815940856934,-0.09325313568115234,-0.00823831558227539,1.7428227663040161,9.366387367248535,3.6805007457733154
6_20251106_215308,1762437155466,6,0.2225428819656372,0.2648790776729584,0.49844592809677124,0.794899582862854,0.2807566523551941,3.3158040046691895,2.1508285999298096,1.6955009698867798,9.221662521362305,3.4316558837890625,0.21288634836673737,0.030852487310767174,0.0771942064166069,19.165771484375,-34.85346984863281,16.46997833251953,-0.03785741329193115,-0.11577987670898438,-0.19907569885253906,1.733358383178711,9.337442398071289,3.6307315826416016
6_20251106_215308,1762437155485,6,0.22149033844470978,0.2649778723716736,0.5001236200332642,0.7941064834594727,0.2764471173286438,3.314964771270752,2.1581881046295166,1.6081162691116333,9.133079528808594,3.4448232650756836,0.23060142993927002,0.007639627438038588,0.11201349645853043,19.18663215637207,-34.903053283691406,16.564517974853516,-0.10019361972808838,-0.16349029541015625,-0.1487267017364502,1.7083098888397217,9.29656982421875,3.593549966812134
6_20251106_215308,1762437155505,6,0.22031190991401672,0.26564112305641174,0.5019516944885254,0.7930586338043213,0.27169719338417053,3.3127598762512207,2.1653857231140137,1.4692585468292236,8.783541679382324,3.6686716079711914,0.20677770674228668,0.08277598768472672,0.1749325692653656,19.165685653686523,-34.84198760986328,16.578372955322266,-0.19124114513397217,-0.41042232513427734,0.06009721755981445,1.6604996919631958,9.193964004516602,3.608574390411377
6_20251106_215308,1762437155523,6,0.21830739080905914,0.2657450735569,0.5035845041275024,0.7925428152084351,0.26648929715156555,3.310061454772949,2.1712093353271484,1.4070121049880981,8.973873138427734,3.2389307022094727,0.20677770674228668,0.08277598768472672,0.1749325692653656,19.08159637451172,-34.82270050048828,16.602500915527344,-0.20279014110565186,-0.1760730743408203,-0.2957150936126709,1.60980224609375,9.149946212768555,3.5346457958221436
6_20251106_215308,1762437155542,6,0.21453212201595306,0.2647230923175812,0.504690945148468,0.7932116389274597,0.261451780796051,3.3079442977905273,2.1747283935546875,1.5769931077957153,9.312637329101562,2.8008105754852295,0.1444695144891739,0.23549216985702515,0.36246806383132935,19.019182205200195,-34.828697204589844,16.802791595458984,-0.026247262954711914,0.13015270233154297,-0.5870680809020996,1.6032403707504272,9.18248462677002,3.387878656387329
6_20251106_215308,1762437155562,6,0.21069148182868958,0.2642286419868469,0.5059335827827454,0.7936142683029175,0.25708675384521484,3.3061752319335938,2.1766576766967773,1.7565505504608154,9.270740509033203,2.872633457183838,0.06933315098285675,0.09499327838420868,0.37285274267196655,18.919395446777344,-34.86138153076172,16.919986724853516,0.12264823913574219,0.07060432434082031,-0.41219615936279297,1.6339023113250732,9.200136184692383,3.284829616546631
6_20251106_215308,1762437155581,6,0.20773133635520935,0.2652601897716522,0.5068055987358093,0.7934940457344055,0.25376415252685547,3.3044204711914062,2.1779308319091797,1.9768075942993164,9.204902648925781,3.0689496994018555,0.014966186136007309,-0.060777220875024796,0.38934609293937683,18.810537338256836,-34.84422302246094,16.99720001220703,0.2743241786956787,0.0038137435913085938,-0.17270374298095703,1.7024834156036377,9.201088905334473,3.2416534423828125
6_20251106_215308,1762437155600,6,0.20548473298549652,0.26757127046585083,0.5066981315612793,0.7933716773986816,0.2520107924938202,3.3030049800872803,2.1793415546417236,2.156364917755127,9.262361526489258,3.3370885848999023,0.014966186136007309,-0.060777220875024796,0.38934609293937683,18.63763427734375,-34.881675720214844,17.111454010009766,0.3631051778793335,0.049017906188964844,0.07634806632995605,1.7932597398757935,9.213343620300293,3.2607405185699463
6_20251106_215308,1762437155620,6,0.2035883069038391,0.2707647979259491,0.5059669017791748,0.7932438254356384,0.2518569231033325,3.3018341064453125,2.1809964179992676,2.344301700592041,9.276725769042969,3.375394344329834,0.038789909332990646,-0.19761091470718384,0.3746853470802307,18.428678512573242,-34.909217834472656,17.251529693603516,0.44083356857299805,0.050705909729003906,0.09172296524047852,1.903468132019043,9.226019859313965,3.2836713790893555
6_20251106_215308,1762437155639,6,0.20182394981384277,0.2740263044834137,0.5051120519638062,0.793119490146637,0.2534070909023285,3.3011231422424316,2.1828572750091553,2.4640069007873535,9.377277374267578,3.3514533042907715,0.05222893878817558,-0.17256546020507812,0.33253568410873413,18.147891998291016,-34.93977355957031,17.21295166015625,0.44843101501464844,0.12100601196289062,0.05422544479370117,2.015575885772705,9.256271362304688,3.2972278594970703
6_20251106_215308,1762437155658,6,0.20014867186546326,0.2770456075668335,0.5043831467628479,0.7929589152336121,0.2562991678714752,3.3009612560272217,2.1845641136169434,2.5597705841064453,9.431144714355469,3.3071625232696533,0.018631374463438988,-0.12186369299888611,0.27939045429229736,17.899646759033203,-35.031402587890625,17.242107391357422,0.43535566329956055,0.13989830017089844,0.007947683334350586,2.1244149208068848,9.29124641418457,3.2992148399353027
6_20251106_215308,1762437155677,6,0.19873471558094025,0.2794710099697113,0.5036525130271912,0.7929278612136841,0.26028650999069214,3.301280975341797,2.1862642765045166,2.6866579055786133,9.480224609375,3.3658180236816406,-0.03207039833068848,-0.07543797791004181,0.22258001565933228,17.899646759033203,-35.031402587890625,17.242107391357422,0.4497945308685303,0.1511821746826172,0.05328249931335449,2.236863374710083,9.329042434692383,3.312535524368286
6_20251106_215308,1762437155696,6,0.1976463496685028,0.28127536177635193,0.5028187036514282,0.7930910587310791,0.2660738229751587,3.3020851612091064,2.1884756088256836,2.756086826324463,9.48261833190918,3.4496114253997803,-0.04978547245264053,-0.03939695656299591,0.15538489818572998,17.62381362915039,-35.175392150878906,17.323291778564453,0.4153788089752197,0.12286090850830078,0.10966062545776367,2.340708017349243,9.359757423400879,3.3399507999420166
6_20251106_215308,1762437155717,6,0.19686461985111237,0.2825152575969696,0.5020179152488708,0.7933520674705505,0.27305829524993896,3.3034114837646484,2.1913416385650635,2.7022197246551514,9.516136169433594,3.5369958877563477,-0.04489855468273163,-0.0027450728230178356,0.08574631810188293,17.42662239074707,-35.22590637207031,17.328166961669922,0.28920936584472656,0.12510299682617188,0.15763616561889648,2.413010358810425,9.391033172607422,3.379359722137451
6_20251106_215308,1762437155735,6,0.19642046093940735,0.28317776322364807,0.5013883709907532,0.7936239838600159,0.27305829524993896,3.3034114837646484,2.1913416385650635,2.7022197246551514,9.516136169433594,3.5369958877563477,-0.04489855840802193,0.03879372775554657,0.04420752078294754,17.21542739868164,-35.314483642578125,17.291213989257812,0.28920936584472656,0.12510299682617188,0.15763616561889648,2.413010358810425,9.391033172607422,3.379359722137451
6_20251106_215308,1762437155753,6,0.19609437882900238,0.28314587473869324,0.5009442567825317,0.7939963936805725,0.28588902950286865,3.305819272994995,2.196748733520508,2.6710963249206543,9.366504669189453,3.468764305114746,-0.020463967695832253,0.04978929087519646,0.027103306725621223,17.040088653564453,-35.413230895996094,17.25546646118164,0.16651582717895508,-0.03178596496582031,0.04898333549499512,2.504580497741699,9.398290634155273,3.419780969619751
6_20251106_215308,1762437155772,6,0.19570516049861908,0.2828991115093231,0.5008096694946289,0.7942652106285095,0.29274606704711914,3.306807279586792,2.1993844509124756,2.626805305480957,9.348548889160156,3.390955924987793,0.009468402713537216,0.012526544742286205,0.023438116535544395,16.87874984741211,-35.47392272949219,17.261550903320312,0.09777975082397461,-0.03979301452636719,-0.023060083389282227,2.5290255546569824,9.388341903686523,3.414016008377075
6_20251106_215308,1762437155792,6,0.19553601741790771,0.2830999791622162,0.5007938146591187,0.7942453026771545,0.2997075021266937,3.3075106143951416,2.2024524211883545,2.563361883163452,9.294681549072266,3.5561485290527344,0.025350887328386307,-0.029012253507971764,0.019162064418196678,16.75023651123047,-35.606895446777344,17.199939727783203,0.02746891975402832,-0.07492828369140625,0.11370611190795898,2.535892963409424,9.369609832763672,3.4424424171447754
6_20251106_215308,1762437155810,6,0.19552083313465118,0.28350815176963806,0.5008723735809326,0.7940539121627808,0.30565640330314636,3.307729959487915,2.2054173946380615,2.534632682800293,9.214479446411133,3.581286907196045,0.025350887328386307,-0.029012253507971764,0.019162064418196678,16.663129806518555,-35.63810729980469,17.250041961669922,-0.0010082721710205078,-0.12410449981689453,0.11107563972473145,2.5356409549713135,9.338583946228027,3.4702112674713135
6_20251106_215308,1762437155830,6,0.19535984098911285,0.28383463621139526,0.5010243058204651,0.7938809990882874,0.31202736496925354,3.307624101638794,2.2081422805786133,2.56575608253479,9.227646827697754,3.3370885848999023,0.03817904740571976,-0.012518908828496933,0.027103306725621223,16.61136817932129,-35.69178009033203,17.27405548095703,0.02409219741821289,-0.08874988555908203,-0.10649824142456055,2.541663885116577,9.316396713256836,3.443586826324463
6_20251106_215308,1762437155849,6,0.1949732005596161,0.28394779562950134,0.5013006925582886,0.7937610745429993,0.31775128841400146,3.3073277473449707,2.2098331451416016,2.532238483428955,9.243207931518555,3.1635165214538574,0.0461202897131443,0.0009201153879985213,0.017329469323158264,16.54912757873535,-35.720726013183594,17.25756072998047,-0.007540225982666016,-0.05855083465576172,-0.22405624389648438,2.539778709411621,9.301758766174316,3.387572765350342
6_20251106_215308,1762437155868,6,0.19477927684783936,0.2841513752937317,0.5015972852706909,0.7935484647750854,0.32305994629859924,3.3070335388183594,2.2108213901519775,2.4927358627319336,9.297075271606445,3.1623196601867676,0.0461202897131443,0.0009201153879985213,0.017329469323158264,16.47620964050293,-35.7252197265625,17.227584838867188,-0.03763413429260254,-0.0037469863891601562,-0.18020248413085938,2.530369997024536,9.300822257995605,3.342522144317627
6_20251106_215308,1762437155887,6,0.1947515457868576,0.284318745136261,0.5018019080162048,0.7933659553527832,0.3278488516807556,3.3066976070404053,2.2113840579986572,2.437671661376953,9.280317306518555,3.205413341522217,0.004581485874950886,0.008250491693615913,0.0014469875022768974,16.41558837890625,-35.71717071533203,17.279460906982422,-0.0741586685180664,-0.016404151916503906,-0.10968685150146484,2.5118303298950195,9.296721458435059,3.3151001930236816
6_20251106_215308,1762437155906,6,0.19484546780586243,0.2843676805496216,0.5018495917320251,0.7932952046394348,0.3278488516807556,3.3066976070404053,2.2113840579986572,2.437671661376953,9.280317306518555,3.205413341522217,-0.014966185204684734,0.04184804856777191,0.026492441073060036,16.34186553955078,-35.73435974121094,17.262737274169922,-0.0741586685180664,-0.016404151916503906,-0.10968685150146484,2.5118303298950195,9.296721458435059,3.3151001930236816
6_20251106_215308,1762437155925,6,0.19500452280044556,0.28433072566986084,0.5019393563270569,0.7932125329971313,0.33256879448890686,3.3063337802886963,2.2115843296051025,2.489144802093506,9.287498474121094,3.1958370208740234,-0.032681263983249664,0.019856920465826988,0.04848357290029526,16.316083908081055,-35.76106262207031,17.261226654052734,-0.018148422241210938,-0.007378578186035156,-0.09541058540344238,2.507293224334717,9.294877052307129,3.291247606277466
6_20251106_215308,1762437155944,6,0.1953498125076294,0.2847518026828766,0.5016958117485046,0.7931305766105652,0.33710718154907227,3.306027889251709,2.211766004562378,2.60884952545166,9.303060531616211,3.2916007041931152,-0.022296562790870667,0.033906809985637665,0.06742037832736969,16.291217803955078,-35.763328552246094,17.32782745361328,0.08124494552612305,0.006546974182128906,0.00028228759765625,2.527604579925537,9.296513557434082,3.291318416595459
6_20251106_215308,1762437155964,6,0.19503507018089294,0.28503257036209106,0.501470148563385,0.7932499051094055,0.34803685545921326,3.306305408477783,2.219257354736328,2.957190990447998,9.493391990661621,4.740030288696289,0.09987637400627136,0.2171662300825119,0.029546763747930527,16.279539108276367,-35.75183868408203,17.354633331298828,0.2984933853149414,0.14630413055419922,1.0474553108215332,2.6586976051330566,9.347087860107422,3.692574977874756
6_20251106_215308,1762437155982,6,0.19331635534763336,0.28348803520202637,0.5019141435623169,0.7939430475234985,0.3545263111591339,3.306932210922241,2.226243257522583,3.1594924926757812,9.458677291870117,4.526955604553223,0.3491091728210449,0.45540347695350647,-0.09873483330011368,16.27077865600586,-35.689979553222656,17.368980407714844,0.4006359577178955,0.08927154541015625,0.6675045490264893,2.7588565349578857,9.369405746459961,3.8594510555267334
6_20251106_215308,1762437156001,6,0.19090873003005981,0.28012892603874207,0.5054317116737366,0.7934862375259399,0.3545263111591339,3.306932210922241,2.226243257522583,3.1594924926757812,9.458677291870117,4.526955604553223,0.5757399201393127,0.47250768542289734,-0.2612248361110687,16.260622024536133,-35.641624450683594,17.477676391601562,0.4006359577178955,0.08927154541015625,0.6675045490264893,2.7588565349578857,9.369405746459961,3.8594510555267334
6_20251106_215308,1762437156021,6,0.1890917420387268,0.2763851284980774,0.5110705494880676,0.791620135307312,0.3705441653728485,3.308755397796631,2.2373807430267334,2.9655704498291016,9.455085754394531,3.203019142150879,0.6704240441322327,0.27642011642456055,-0.41455185413360596,16.21683692932129,-35.53367614746094,17.667316436767578,0.09494876861572266,0.05847358703613281,-0.48810887336730957,2.870621681213379,9.396612167358398,3.6911280155181885
6_20251106_215308,1762437156039,6,0.188798725605011,0.27438345551490784,0.5167506337165833,0.7886935472488403,0.3768174350261688,3.3092405796051025,2.2401115894317627,2.582514762878418,9.239617347717285,3.1910486221313477,0.663093626499176,0.16524271667003632,-0.5049598813056946,16.24738121032715,-35.3961181640625,17.887462615966797,-0.2304854393005371,-0.1255960464477539,-0.40006351470947266,2.813000202178955,9.365213394165039,3.5911121368408203
6_20251106_215308,1762437156061,6,0.18984241783618927,0.27277904748916626,0.5227981805801392,0.7850054502487183,0.3818357288837433,3.3095266819000244,2.240877151489258,2.1970646381378174,9.28989315032959,2.937274217605591,0.6294960379600525,0.1768491566181183,-0.5336704850196838,16.30634307861328,-35.17028045654297,18.23208236694336,-0.492748498916626,-0.060256004333496094,-0.5230703353881836,2.6898131370544434,9.350149154663086,3.4603445529937744
6_20251106_215308,1762437156079,6,0.19114241003990173,0.27034324407577515,0.5286571979522705,0.7816013693809509,0.3838155269622803,3.309718608856201,2.2394444942474365,1.9097727537155151,9.337775230407715,2.636815071105957,0.6294960379600525,0.1768491566181183,-0.5336704850196838,16.40387725830078,-34.90452575683594,18.592479705810547,-0.6240321397781372,-0.009899139404296875,-0.6588237285614014,2.5338048934936523,9.347674369812012,3.2956387996673584
6_20251106_215308,1762437156099,6,0.1926375776529312,0.26755741238594055,0.5345343351364136,0.778188169002533,0.3832775354385376,3.309499740600586,2.2361345291137695,1.6141016483306885,9.197720527648926,2.6128737926483154,0.5189295411109924,0.15730148553848267,-0.4695297181606293,16.40387725830078,-34.90452575683594,18.592479705810547,-0.7357628345489502,-0.11996269226074219,-0.5462119579315186,2.3498644828796387,9.317683219909668,3.159085750579834
6_20251106_215308,1762437156116,6,0.1940944790840149,0.26492321491241455,0.5400285720825195,0.7749271988868713,0.38039207458496094,3.3088128566741943,2.2311208248138428,1.3746917247772217,9.118715286254883,2.3327643871307373,0.44012802839279175,0.12797997891902924,-0.33758291602134705,16.530336380004883,-34.5382080078125,19.10464859008789,-0.7801382541656494,-0.15917491912841797,-0.6610572338104248,2.154829978942871,9.2778902053833,2.993821620941162
6_20251106_215308,1762437156135,6,0.1947917491197586,0.2629518508911133,0.5444153547286987,0.7723499536514282,0.3748064637184143,3.30812406539917,2.223297595977783,1.173587441444397,9.277923583984375,1.974846363067627,0.44012802839279175,0.12797997891902924,-0.33758291602134705,16.680152893066406,-34.19487762451172,19.56320571899414,-0.7849940061569214,2.6702880859375e-05,-0.8151803016662598,1.9585814476013184,9.277896881103516,2.7900266647338867
6_20251106_215308,1762437156155,6,0.19528211653232574,0.26278454065322876,0.5475767254829407,0.77004474401474,0.3748064637184143,3.30812406539917,2.223297595977783,1.173587441444397,9.277923583984375,1.974846363067627,0.28557926416397095,-0.2770233154296875,0.019162064418196678,16.86572265625,-33.861854553222656,20.036487579345703,-0.7849940061569214,2.6702880859375e-05,-0.8151803016662598,1.9585814476013184,9.277896881103516,2.7900266647338867
6_20251106_215308,1762437156174,6,0.19599610567092896,0.26539885997772217,0.5492387413978577,0.7677797675132751,0.35642576217651367,3.3084301948547363,2.203260898590088,0.9988182783126831,9.622673034667969,2.4548635482788086,0.28557926416397095,-0.2770233154296875,0.019162064418196678,17.1509952545166,-33.48467254638672,20.50096893310547,-0.6138653755187988,0.25379085540771484,-0.14478826522827148,1.612683653831482,9.368882179260254,2.59965181350708
6_20251106_215308,1762437156193,6,0.1964319944381714,0.27023497223854065,0.5499708652496338,0.7654538154602051,0.35642576217651367,3.3084301948547363,2.203260898590088,0.9988182783126831,9.622673034667969,2.4548635482788086,0.29107701778411865,-0.4370698928833008,0.2989380955696106,17.394563674926758,-33.20965576171875,20.894287109375,-0.6138653755187988,0.25379085540771484,-0.14478826522827148,1.612683653831482,9.368882179260254,2.59965181350708
