session_id,timestamp,label,quaternion_w,quaternion_x,quaternion_y,quaternion_z,position_x,position_y,position_z,accelerometer_x,accelerometer_y,accelerometer_z,gyroscope_x,gyroscope_y,gyroscope_z,magnetometer_x,magnetometer_y,magnetometer_z,linear_acceleration_x,linear_acceleration_y,linear_acceleration_z,gravity_x,gravity_y,gravity_z
5_20251106_145820,1762412263107,5,0.1499701887369156,0.30472978949546814,0.6733391880989075,0.6567062139511108,1.4382460117340088,2.1226511001586914,-1.255500078201294,2.11087703704834,9.890811920166016,-0.6538739204406738,0.03822104260325432,0.015588504262268543,0.07750727981328964,13.141043663024902,-23.696678161621094,25.08023452758789,0.202803373336792,0.07084941864013672,0.18830722570419312,1.9080736637115479,9.819962501525879,-0.8421811461448669
5_20251106_145820,1762412263127,5,0.14934788644313812,0.3047475218772888,0.6732931733131409,0.6568869948387146,1.4388508796691895,2.1233320236206055,-1.2545744180679321,2.2245969772338867,9.986576080322266,-0.5916274189949036,0.07304033637046814,-0.007624355144798756,0.08605938404798508,13.153229713439941,-23.695884704589844,25.08072280883789,0.2532186508178711,0.13329124450683594,0.20044296979904175,1.9713783264160156,9.85328483581543,-0.7920703887939453
5_20251106_145820,1762412263147,5,0.1485689878463745,0.3051447570323944,0.6732075214385986,0.6569669246673584,1.4404717683792114,2.1242713928222656,-1.2532240152359009,2.315572738647461,9.949467658996582,-0.6371152997016907,0.10236182808876038,-0.006402625702321529,0.07811814546585083,13.223328590393066,-23.741615295410156,25.109642028808594,0.27535557746887207,0.07694625854492188,0.12396407127380371,2.040217161178589,9.87252140045166,-0.7610793709754944
5_20251106_145820,1762412263167,5,0.14769287407398224,0.3057016134262085,0.6731463670730591,0.6569682359695435,1.4429032802581787,2.125175714492798,-1.2521755695343018,2.3335282802581787,9.876447677612305,-0.8382196426391602,0.15062013268470764,-0.023506836965680122,0.06223566085100174,13.148110389709473,-23.772438049316406,25.200786590576172,0.2346489429473877,0.0031404495239257812,-0.06171220541000366,2.098879337310791,9.873307228088379,-0.7765074372291565
5_20251106_145820,1762412263188,5,0.1468067169189453,0.3063419759273529,0.6732416152954102,0.6567710041999817,1.4460469484329224,2.126108407974243,-1.2520828247070312,2.313178539276123,9.88243293762207,-1.0608707666397095,0.1781090497970581,-0.05649352818727493,0.05979219824075699,13.075896263122559,-23.764381408691406,25.17107391357422,0.17143940925598145,0.007300376892089844,-0.22749066352844238,2.1417391300201416,9.87513256072998,-0.8333801031112671
5_20251106_145820,1762412263205,5,0.14596445858478546,0.307305246591568,0.673721969127655,0.6560156941413879,1.4485301971435547,2.126783609390259,-1.2526376247406006,2.24853777885437,9.875249862670898,-1.1530436277389526,0.16100484132766724,-0.05466093495488167,0.05490528792142868,13.027758598327637,-23.75513458251953,25.182891845703125,0.08543896675109863,9.441375732421875e-05,-0.2557308077812195,2.1630988121032715,9.875155448913574,-0.8973128199577332
5_20251106_145820,1762412263223,5,0.14535371959209442,0.30863285064697266,0.6743344068527222,0.6548978090286255,1.451677680015564,2.127295970916748,-1.2538535594940186,2.2892374992370605,9.78427505493164,-1.1123439073562622,0.11335739493370056,-0.014954731799662113,0.04635317623615265,12.96825122833252,-23.722373962402344,25.27584457397461,0.10091090202331543,-0.07270431518554688,-0.17202484607696533,2.188326597213745,9.856979370117188,-0.9403190612792969
5_20251106_145820,1762412263242,5,0.14483606815338135,0.3097250759601593,0.6749346852302551,0.6538777351379395,1.4551219940185547,2.1272943019866943,-1.2553492784500122,2.3538782596588135,9.678934097290039,-1.0644619464874268,0.08098156750202179,0.0033712098374962807,0.04329885542392731,12.969475746154785,-23.68592071533203,25.39828109741211,0.13244128227233887,-0.14243602752685547,-0.09931433200836182,2.2214369773864746,9.821370124816895,-0.9651476144790649
5_20251106_145820,1762412263260,5,0.1441856473684311,0.3103967308998108,0.6753575205802917,0.6532660722732544,1.4586570262908936,2.126974582672119,-1.2567955255508423,2.3981690406799316,9.692102432250977,-1.005806565284729,0.07304033637046814,-0.008235219866037369,0.034135885536670685,12.934426307678223,-23.663047790527344,25.38382339477539,0.14138579368591309,-0.10341453552246094,-0.03252720832824707,2.2567832469940186,9.795516967773438,-0.9732793569564819
5_20251106_145820,1762412263280,5,0.14363352954387665,0.311130553483963,0.675579845905304,0.6528086066246033,1.4625707864761353,2.126188039779663,-1.258297324180603,2.316769599914551,9.647810935974121,-0.9651068449020386,0.07975983619689941,-0.014954730868339539,0.00970129482448101,12.886696815490723,-23.64165496826172,25.43645477294922,0.0479891300201416,-0.1181650161743164,0.006538033485412598,2.268780469894409,9.765975952148438,-0.9716448783874512
5_20251106_145820,1762412263299,5,0.14321660995483398,0.31187382340431213,0.6757072806358337,0.6524134874343872,1.4625707864761353,2.126188039779663,-1.258297324180603,2.316769599914551,9.647810935974121,-0.9651068449020386,0.07975983619689941,-0.014954730868339539,0.00970129482448101,12.790617942810059,-23.622886657714844,25.433059692382812,0.0479891300201416,-0.1181650161743164,0.006538033485412598,2.268780469894409,9.765975952148438,-0.9716448783874512
5_20251106_145820,1762412263318,5,0.1428813487291336,0.31235000491142273,0.6759231090545654,0.6520355939865112,1.4683672189712524,2.1234567165374756,-1.26199471950531,2.0737686157226562,9.566411972045898,-1.22606360912323,0.07609465718269348,0.011312451213598251,0.01458821352571249,12.79565143585205,-23.53484344482422,25.421390533447266,-0.1403214931488037,-0.12982749938964844,-0.18581128120422363,2.21409010887146,9.696239471435547,-1.0402523279190063
5_20251106_145820,1762412263338,5,0.14243842661380768,0.31249624490737915,0.6763007044792175,0.6516707539558411,1.470597505569458,2.1212780475616455,-1.2651840448379517,2.047433614730835,9.542470932006836,-1.3146452903747559,0.0650990903377533,-0.00457003153860569,0.0646791160106659,12.799286842346191,-23.46031951904297,25.504070281982422,-0.13332509994506836,-0.1230154037475586,-0.2195143699645996,2.1807587146759033,9.665486335754395,-1.0951309204101562
5_20251106_145820,1762412263356,5,0.14198635518550873,0.31283339858055115,0.6766815781593323,0.6512120962142944,1.4722208976745605,2.11926007270813,-1.2683688402175903,2.1024978160858154,9.566411972045898,-1.3337980508804321,0.0650990903377533,-0.04488709941506386,0.1257655918598175,12.763445854187012,-23.43852996826172,25.597740173339844,-0.06260871887207031,-0.07925891876220703,-0.1909337043762207,2.1651065349578857,9.645670890808105,-1.1428643465042114
5_20251106_145820,1762412263376,5,0.14143553376197815,0.3136928081512451,0.676967203617096,0.6506214141845703,1.4722208976745605,2.11926007270813,-1.2683688402175903,2.1024978160858154,9.566411972045898,-1.3337980508804321,0.06937514245510101,-0.08642590045928955,0.1673043966293335,12.763445854187012,-23.43852996826172,25.597740173339844,-0.06260871887207031,-0.07925891876220703,-0.1909337043762207,2.1651065349578857,9.645670890808105,-1.1428643465042114
5_20251106_145820,1762412263396,5,0.14082153141498566,0.3152119219303131,0.6770766973495483,0.6499060988426208,1.4765783548355103,2.1147959232330322,-1.275484323501587,2.3957748413085938,9.646614074707031,-1.154240608215332,0.08342503011226654,-0.1047518402338028,0.18074342608451843,12.715096473693848,-23.44116973876953,25.54171371459961,0.17386698722839355,0.009413719177246094,0.005551576614379883,2.2219078540802,9.637200355529785,-1.159792184829712
5_20251106_145820,1762412263418,5,0.1401585340499878,0.31709322333335876,0.6770061254501343,0.649207353591919,1.4803718328475952,2.1127514839172363,-1.2791056632995605,2.5549826622009277,9.693299293518066,-1.163817048072815,0.09991838037967682,-0.11208222061395645,0.16913698613643646,12.629385948181152,-23.458885192871094,25.497467041015625,0.26645994186401367,0.04487895965576172,-0.0032199621200561523,2.288522720336914,9.648420333862305,-1.1605970859527588
5_20251106_145820,1762412263436,5,0.13942888379096985,0.3191639482975006,0.6768317818641663,0.6485311985015869,1.484209418296814,2.1112170219421387,-1.2819637060165405,2.6495494842529297,9.670555114746094,-1.1781816482543945,0.09625318646430969,-0.11819086223840714,0.14470240473747253,12.620230674743652,-23.39757537841797,25.565876007080078,0.2888214588165283,0.01770782470703125,-0.014067649841308594,2.3607280254364014,9.652847290039062,-1.164113998413086
5_20251106_145820,1762412263452,5,0.13879336416721344,0.3212957978248596,0.6766086220741272,0.6478473544120789,1.4882471561431885,2.110069751739502,-1.2844371795654297,2.770451545715332,9.729209899902344,-1.1949403285980225,0.07975985109806061,-0.10291925072669983,0.1257655918598175,12.608452796936035,-23.38622283935547,25.606197357177734,0.32777881622314453,0.061089515686035156,-0.02466106414794922,2.4426727294921875,9.668120384216309,-1.1702792644500732
5_20251106_145820,1762412263472,5,0.1382346749305725,0.32336896657943726,0.676302969455719,0.6472541689872742,1.4882471561431885,2.110069751739502,-1.2844371795654297,2.770451545715332,9.729209899902344,-1.1949403285980225,0.06693167984485626,-0.09070195257663727,0.1056070551276207,12.598282814025879,-23.34947967529297,25.620014190673828,0.32777881622314453,0.061089515686035156,-0.02466106414794922,2.4426727294921875,9.668120384216309,-1.1702792644500732
5_20251106_145820,1762412263490,5,0.13763825595378876,0.3252390921115875,0.6759388446807861,0.6468244791030884,1.5028736591339111,2.1077327728271484,-1.2902469635009766,3.476710319519043,9.669357299804688,-1.218881368637085,0.046162284910678864,-0.08703676611185074,0.060403063893318176,12.608254432678223,-23.386497497558594,25.633228302001953,0.7267119884490967,-0.0045719146728515625,-0.03167986869812012,2.7499983310699463,9.673929214477539,-1.1872014999389648
5_20251106_145820,1762412263509,5,0.13719040155410767,0.3271905183792114,0.6754593849182129,0.6464362144470215,1.5028736591339111,2.1077327728271484,-1.2902469635009766,3.476710319519043,9.669357299804688,-1.218881368637085,-0.011869864538311958,-0.10169751942157745,-0.006792051717638969,12.59525203704834,-23.411598205566406,25.55111312866211,0.7267119884490967,-0.0045719146728515625,-0.03167986869812012,2.7499983310699463,9.673929214477539,-1.1872014999389648
5_20251106_145820,1762412263529,5,0.1370895355939865,0.3293331563472748,0.6746072173118591,0.6462594270706177,1.5289462804794312,2.1047861576080322,-1.2941160202026367,4.308659553527832,9.605914115905762,-0.9519392848014832,-0.06684768944978714,-0.1200234591960907,-0.0898696556687355,12.57138729095459,-23.400901794433594,25.57742691040039,1.0666847229003906,-0.037209510803222656,0.15861207246780396,3.2419748306274414,9.643123626708984,-1.110551357269287
5_20251106_145820,1762412263549,5,0.13749608397483826,0.33151739835739136,0.6732304096221924,0.6464919447898865,1.5461970567703247,2.103550672531128,-1.2946761846542358,4.591163158416748,9.699283599853516,-0.7783671021461487,-0.08639535307884216,-0.19332721829414368,-0.17844504117965698,12.584179878234863,-23.38768768310547,25.591697692871094,1.079350471496582,0.04492759704589844,0.2657473683357239,3.511812686920166,9.654356002807617,-1.0441144704818726
5_20251106_145820,1762412263568,5,0.13939307630062103,0.3318038284778595,0.6727219820022583,0.6464680433273315,1.565750241279602,2.1020798683166504,-1.294525146484375,4.665380477905273,9.546061515808105,-0.7951258420944214,-0.036304451525211334,-0.27762657403945923,-0.2584683299064636,12.635039329528809,-23.346839904785156,25.594451904296875,0.9228544235229492,-0.08663558959960938,0.19919085502624512,3.742526054382324,9.632697105407715,-0.9943166971206665
5_20251106_145820,1762412263587,5,0.14225314557552338,0.3321099877357483,0.6724112629890442,0.6460108757019043,1.565750241279602,2.1020798683166504,-1.294525146484375,4.665380477905273,9.546061515808105,-0.7951258420944214,-0.036304451525211334,-0.27762657403945923,-0.2584683299064636,12.697279930114746,-23.317893981933594,25.610946655273438,0.9228544235229492,-0.08663558959960938,0.19919085502624512,3.742526054382324,9.632697105407715,-0.9943166971206665
5_20251106_145820,1762412263606,5,0.14575789868831635,0.3328474462032318,0.6724589467048645,0.6447993516921997,1.6111880540847778,2.1004929542541504,-1.2964210510253906,5.178915023803711,9.78666877746582,-1.2643691301345825,-0.02103283628821373,-0.5580134987831116,-0.24625101685523987,12.830609321594238,-23.33332061767578,25.521198272705078,0.9769392013549805,0.09988212585449219,-0.17072677612304688,4.2019758224487305,9.686786651611328,-1.0936423540115356
5_20251106_145820,1762412263625,5,0.15021517872810364,0.3346670866012573,0.6723512411117554,0.6429440975189209,1.6111880540847778,2.1004929542541504,-1.2964210510253906,5.178915023803711,9.78666877746582,-1.2643691301345825,-0.12732329964637756,-0.6936255097389221,-0.19677098095417023,13.00180721282959,-23.321388244628906,25.44696807861328,0.9769392013549805,0.09988212585449219,-0.17072677612304688,4.2019758224487305,9.686786651611328,-1.0936423540115356
5_20251106_145820,1762412263644,5,0.15557299554347992,0.3375718891620636,0.6713767647743225,0.6411672830581665,1.6678358316421509,2.1030678749084473,-1.2984365224838257,6.160495281219482,10.392375946044922,-0.8442047834396362,-0.16275346279144287,-0.9080390334129333,-0.16989293694496155,13.209759712219238,-23.30681610107422,25.34717559814453,1.3250842094421387,0.502140998840332,0.2086712121963501,4.835411071777344,9.89023494720459,-1.0528759956359863
5_20251106_145820,1762412263662,5,0.16192542016506195,0.3417217433452606,0.6693738698959351,0.6394881010055542,1.7009186744689941,2.1069934368133545,-1.2973074913024902,6.5674920082092285,10.586297988891602,-0.4276316463947296,-0.16275346279144287,-0.9080390334129333,-0.16989293694496155,13.550040245056152,-23.32062530517578,25.197921752929688,1.385664939880371,0.5568504333496094,0.5001955032348633,5.181827068328857,10.029447555541992,-0.9278271794319153
5_20251106_145820,1762412263681,5,0.16968771815299988,0.34743621945381165,0.6669966578483582,0.6368748545646667,1.7363625764846802,2.112713575363159,-1.2947213649749756,6.645299911499023,10.755082130432129,-0.3761585056781769,0.03089066967368126,-1.3252595663070679,-0.2859572172164917,13.938445091247559,-23.35529327392578,24.941970825195312,1.1707782745361328,0.5805072784423828,0.44133493304252625,5.474521636962891,10.174574851989746,-0.8174934387207031
5_20251106_145820,1762412263699,5,0.17864109575748444,0.35416093468666077,0.6649050712585449,0.6328970193862915,1.770673394203186,2.1189050674438477,-1.2916048765182495,6.45377254486084,10.598268508911133,-0.49706047773361206,0.16894608736038208,-1.4730887413024902,-0.4490581154823303,14.511544227600098,-23.352256774902344,24.626323699951172,0.7834010124206543,0.3389549255371094,0.25634634494781494,5.6703715324401855,10.259313583374023,-0.753406822681427
5_20251106_145820,1762412263719,5,0.18891657888889313,0.36127281188964844,0.663621187210083,0.6272156238555908,1.8078343868255615,2.125441074371338,-1.2882636785507202,5.980937957763672,10.259503364562988,-0.7364703416824341,0.25691062211990356,-1.5702162981033325,-0.6335391998291016,15.160975456237793,-23.29369354248047,24.260608673095703,0.24845314025878906,0.00015163421630859375,0.01354914903640747,5.732484817504883,10.25935173034668,-0.7500194907188416
5_20251106_145820,1762412263738,5,0.20046424865722656,0.3679984509944916,0.6633657813072205,0.6199492812156677,1.8403230905532837,2.1303648948669434,-1.2858942747116089,5.350092887878418,9.903980255126953,-0.9854567050933838,0.25202369689941406,-1.6258049011230469,-0.8009161949157715,15.930237770080566,-23.276329040527344,23.790611267089844,-0.30591392517089844,-0.28429698944091797,-0.18834978342056274,5.656006813049316,10.188277244567871,-0.797106921672821
5_20251106_145820,1762412263759,5,0.21346116065979004,0.3741385042667389,0.6636806130409241,0.6115412712097168,1.8403230905532837,2.1303648948669434,-1.2858942747116089,5.350092887878418,9.903980255126953,-0.9854567050933838,0.14512236416339874,-1.676506757736206,-0.9194239377975464,16.75348663330078,-23.15587615966797,23.378753662109375,-0.30591392517089844,-0.28429698944091797,-0.18834978342056274,5.656006813049316,10.188277244567871,-0.797106921672821
5_20251106_145820,1762412263777,5,0.22776100039482117,0.3793712258338928,0.6639278531074524,0.6028285026550293,1.8928622007369995,2.1361494064331055,-1.282552719116211,3.932786226272583,9.633445739746094,-0.6383122801780701,0.04066450148820877,-1.7345389127731323,-1.0086102485656738,17.776622772216797,-22.958045959472656,22.786834716796875,-1.2218000888824463,-0.3792257308959961,0.16502434015274048,5.154586315155029,10.01267147064209,-0.8033366203308105
5_20251106_145820,1762412263796,5,0.24343575537204742,0.3838311731815338,0.663564920425415,0.5942173004150391,1.8928622007369995,2.1361494064331055,-1.282552719116211,3.932786226272583,9.633445739746094,-0.6383122801780701,0.005845212377607822,-1.7540864944458008,-1.02876877784729,17.776622772216797,-22.958045959472656,22.786834716796875,-1.2218000888824463,-0.3792257308959961,0.16502434015274048,5.154586315155029,10.01267147064209,-0.8033366203308105
5_20251106_145820,1762412263815,5,0.25984373688697815,0.38765326142311096,0.662811815738678,0.5855652689933777,1.918265700340271,2.136199712753296,-1.2741916179656982,2.5298447608947754,9.488603591918945,0.05597631633281708,0.016229912638664246,-1.8151730298995972,-0.9774560928344727,18.852420806884766,-22.69371795654297,22.14413070678711,-1.7813444137573242,-0.3413410186767578,0.6009067893028259,4.3111891746521,9.829944610595703,-0.5449304580688477
5_20251106_145820,1762412263834,5,0.2765055000782013,0.3915729522705078,0.6615114212036133,0.5767304301261902,1.9206187725067139,2.134767770767212,-1.267232060432434,1.9696252346038818,9.506559371948242,0.21877503395080566,0.10236182808876038,-1.9226852655410767,-0.8833829164505005,19.932559967041016,-22.34229278564453,21.584373474121094,-1.87325119972229,-0.25870800018310547,0.6109644174575806,3.842876434326172,9.765267372131348,-0.3921893835067749
5_20251106_145820,1762412263855,5,0.2929950952529907,0.39622846245765686,0.6597735285758972,0.5673233270645142,1.9150499105453491,2.1321563720703125,-1.257571816444397,1.4441206455230713,9.434736251831055,0.3097507953643799,0.24591505527496338,-2.043025493621826,-0.8076356649398804,21.150245666503906,-21.94257354736328,20.841575622558594,-1.9190046787261963,-0.26442527770996094,0.5615521669387817,3.3631253242492676,9.699161529541016,-0.25180137157440186
5_20251106_145820,1762412263873,5,0.3091673254966736,0.4020892381668091,0.6578075289726257,0.55680251121521,1.904492974281311,2.129157781600952,-1.2487974166870117,0.9174188375473022,9.34495735168457,0.11702582240104675,0.3748075067996979,-2.1248812675476074,-0.7691512107849121,22.45966339111328,-21.435752868652344,19.996192932128906,-1.956565260887146,-0.28336334228515625,0.29506176710128784,2.8739840984344482,9.628320693969727,-0.1780359297990799
5_20251106_145820,1762412263891,5,0.3250800371170044,0.40908369421958923,0.6558179259300232,0.5448636412620544,1.888136863708496,2.1256585121154785,-1.240342378616333,0.30452960729599,9.364110946655273,-0.12956634163856506,0.39863121509552,-2.179859161376953,-0.7654860019683838,23.78246307373047,-20.91490936279297,19.083984375,-2.0555636882781982,-0.21136760711669922,0.038775667548179626,2.360093355178833,9.575478553771973,-0.1683420091867447
5_20251106_145820,1762412263911,5,0.34100615978240967,0.41676065325737,0.6535744071006775,0.5318513512611389,1.86257803440094,2.1212785243988037,-1.2314344644546509,-0.36821216344833374,9.349745750427246,-0.1738571673631668,0.3540381193161011,-2.1994071006774902,-0.7917531728744507,25.10938262939453,-20.330467224121094,18.091995239257812,-2.1826446056365967,-0.1805858612060547,-0.004412129521369934,1.8144323825836182,9.5303316116333,-0.16944503784179688
5_20251106_145820,1762412263930,5,0.3572338819503784,0.4242752194404602,0.6508750915527344,0.5183976292610168,1.86257803440094,2.1212785243988037,-1.2314344644546509,-0.36821216344833374,9.349745750427246,-0.1738571673631668,0.28745386004447937,-2.1560354232788086,-0.8503962159156799,26.39922332763672,-19.772315979003906,16.976364135742188,-2.1826446056365967,-0.1805858612060547,-0.004412129521369934,1.8144323825836182,9.5303316116333,-0.16944503784179688
5_20251106_145820,1762412263948,5,0.3736785650253296,0.43101152777671814,0.6478193998336792,0.5048994421958923,1.7973514795303345,2.1116394996643066,-1.21540105342865,-1.5269558429718018,9.105547904968262,-0.002679109573364258,0.23247601091861725,-2.109609842300415,-0.9182021617889404,27.619346618652344,-19.17951202392578,15.682866096496582,-2.23003888130188,-0.30231475830078125,0.12166936695575714,0.7030830383300781,9.407862663269043,-0.1243484765291214
5_20251106_145820,1762412263969,5,0.3902633488178253,0.43652409315109253,0.6446491479873657,0.4914964437484741,1.7491780519485474,2.104793071746826,-1.2053112983703613,-2.281097173690796,9.03372573852539,0.3133419156074524,0.22331304848194122,-2.1047229766845703,-0.9756234884262085,28.90140151977539,-18.56977081298828,14.351536750793457,-2.3873441219329834,-0.29930973052978516,0.35015231370925903,0.10624703764915466,9.333035469055176,-0.03681040555238724
5_20251106_145820,1762412263987,5,0.4071868062019348,0.4414213001728058,0.6411833167076111,0.4777343273162842,1.7491780519485474,2.104793071746826,-1.2053112983703613,-2.281097173690796,9.03372573852539,0.3133419156074524,0.22331304848194122,-2.1047229766845703,-0.9756234884262085,30.122600555419922,-17.987083435058594,12.814484596252441,-2.3873441219329834,-0.29930973052978516,0.35015231370925903,0.10624703764915466,9.333035469055176,-0.03681040555238724
5_20251106_145820,1762412264007,5,0.4240157902240753,0.44570061564445496,0.6377946734428406,0.46344316005706787,1.6409845352172852,2.0894367694854736,-1.1836817264556885,-4.083853244781494,8.716506958007812,0.5527517795562744,0.274625688791275,-2.061962366104126,-1.0134971141815186,31.239070892333984,-17.312034606933594,11.369742393493652,-2.8228201866149902,-0.4202432632446289,0.37080785632133484,-1.2610329389572144,9.136750221252441,0.18194392323493958
5_20251106_145820,1762412264026,5,0.4400784969329834,0.4495387375354767,0.6347732543945312,0.44867444038391113,1.5765262842178345,2.0799810886383057,-1.172769546508789,-4.8164472579956055,8.532160758972168,0.29059797525405884,0.4132919907569885,-1.8640422821044922,-0.9273651838302612,32.27103042602539,-16.64147186279297,9.813437461853027,-2.8443315029144287,-0.4836711883544922,0.08692324161529541,-1.9721157550811768,9.01583194732666,0.20367473363876343
5_20251106_145820,1762412264045,5,0.45478755235671997,0.45310816168785095,0.6321278214454651,0.43390747904777527,1.505904197692871,2.0692312717437744,-1.1625947952270508,-5.393425464630127,8.371756553649902,0.13378453254699707,0.4132919907569885,-1.8640422821044922,-0.9273651838302612,33.26893997192383,-15.935081481933594,8.202387809753418,-2.7370476722717285,-0.5152597427368164,-0.055912166833877563,-2.6563777923583984,8.887016296386719,0.18969669938087463
5_20251106_145820,1762412264064,5,0.4684278666973114,0.4569378197193146,0.6293891668319702,0.4191090762615204,1.4294975996017456,2.056807041168213,-1.1533875465393066,-6.051802635192871,8.080873489379883,0.022458922117948532,0.4511656165122986,-1.760195255279541,-0.8589483499526978,34.10612106323242,-15.276954650878906,6.611203193664551,-2.7163400650024414,-0.6449136734008789,-0.13379022479057312,-3.3354625701904297,8.725787162780762,0.15624915063381195
5_20251106_145820,1762412264082,5,0.4809087812900543,0.4605259895324707,0.6268760561943054,0.40456023812294006,1.3524659872055054,2.04311466217041,-1.146238088607788,-6.69222354888916,7.7061967849731445,-0.3055326044559479,0.4707132577896118,-1.4865278005599976,-0.8058030605316162,34.8861083984375,-14.548133850097656,5.086731910705566,-2.6854090690612793,-0.8156728744506836,-0.3694254159927368,-4.006814479827881,8.521869659423828,0.06389280408620834
5_20251106_145820,1762412264101,5,0.49224022030830383,0.46343836188316345,0.6248161792755127,0.390549898147583,1.2659379243850708,2.0259673595428467,-1.1405125856399536,-7.390103340148926,7.276455879211426,-0.46234607696533203,0.4707132577896118,-1.4865278005599976,-0.8058030605316162,35.50557327270508,-13.855705261230469,3.649970054626465,-2.7066311836242676,-0.9963312149047852,-0.42099112272262573,-4.683472156524658,8.272787094116211,-0.041354965418577194
5_20251106_145820,1762412264121,5,0.5022708177566528,0.46559274196624756,0.6234859824180603,0.37711089849472046,1.168918251991272,2.004877805709839,-1.1369402408599854,-8.134668350219727,6.975996494293213,-0.7496379017829895,0.5574560165405273,-1.3203725814819336,-0.7245581150054932,35.97759246826172,-13.197639465332031,2.179762840270996,-2.7609567642211914,-1.0374321937561035,-0.5666263699531555,-5.373711585998535,8.013428688049316,-0.18301154673099518
5_20251106_145820,1762412264141,5,0.5117388367652893,0.4684278964996338,0.6219568848609924,0.36313676834106445,1.0663293600082397,1.9808810949325562,-1.1361970901489258,-8.801424980163574,6.710251331329346,-1.0548855066299438,0.50125652551651,-1.0631985664367676,-0.6518651843070984,36.47822952270508,-12.451042175292969,0.8069982528686523,-2.742170810699463,-1.0425419807434082,-0.69749915599823,-6.059254169464111,7.752793312072754,-0.35738635063171387
5_20251106_145820,1762412264159,5,0.5200011134147644,0.47096726298332214,0.6207923293113708,0.3498650789260864,0.9707434177398682,1.9572219848632812,-1.137986660003662,-9.256303787231445,6.4768266677856445,-1.342177391052246,0.37541836500167847,-0.7461598515510559,-0.509533703327179,36.90958786010742,-11.847343444824219,-0.4900245666503906,-2.5576395988464355,-1.0207734107971191,-0.7878328561782837,-6.69866418838501,7.497600078582764,-0.5543445348739624
5_20251106_145820,1762412264178,5,0.5264761447906494,0.47255468368530273,0.620258629322052,0.3388128876686096,0.873040497303009,1.931978702545166,-1.142189621925354,-9.49930477142334,6.373880386352539,-1.5708138942718506,0.21537180244922638,-0.46455118060112,-0.28290289640426636,37.08083724975586,-11.312446594238281,-1.6091747283935547,-2.2405123710632324,-0.8989758491516113,-0.8131754994392395,-7.258792400360107,7.27285623550415,-0.7576383948326111
5_20251106_145820,1762412264197,5,0.5311827063560486,0.47354039549827576,0.6198896169662476,0.3306679427623749,0.763404130935669,1.902905821800232,-1.1492509841918945,-9.398752212524414,6.474432945251465,-1.6210899353027344,0.032723262906074524,-0.247694194316864,-0.015955021604895592,37.22279357910156,-10.855415344238281,-2.636275291442871,-1.711967945098877,-0.6387386322021484,-0.6907612085342407,-7.686784267425537,7.113171577453613,-0.9303287267684937
5_20251106_145820,1762412264216,5,0.5343074798583984,0.474292129278183,0.6191520094871521,0.32590389251708984,0.763404130935669,1.902905821800232,-1.1492509841918945,-9.398752212524414,6.474432945251465,-1.6210899353027344,-0.12671244144439697,-0.04183277487754822,0.24244076013565063,37.22279357910156,-10.855415344238281,-2.636275291442871,-1.711967945098877,-0.6387386322021484,-0.6907612085342407,-7.686784267425537,7.113171577453613,-0.9303287267684937
5_20251106_145820,1762412264235,5,0.5360603928565979,0.47480759024620056,0.6178863644599915,0.3246743679046631,0.6497002243995667,1.872515082359314,-1.157799482345581,-8.982179641723633,6.698281288146973,-1.3792860507965088,-0.21528783440589905,0.15364393591880798,0.44952392578125,37.32600402832031,-10.415351867675781,-3.462367057800293,-1.0363163948059082,-0.3319125175476074,-0.35916590690612793,-7.945863246917725,7.03019380569458,-1.0201201438903809
5_20251106_145820,1762412264256,5,0.536404013633728,0.47545987367630005,0.6161797642707825,0.3263910412788391,0.45811939239501953,1.8235142230987549,-1.1741795539855957,-7.682184219360352,7.487136363983154,-1.2547928094863892,-0.2745416760444641,0.2874232828617096,0.5881901979446411,37.420162200927734,-10.126777648925781,-4.210528373718262,0.2685413360595703,0.34281492233276367,-0.14080560207366943,-7.950725555419922,7.144321441650391,-1.1139872074127197
5_20251106_145820,1762412264276,5,0.5354227423667908,0.47622212767601013,0.6143302917480469,0.3303532600402832,0.367445707321167,1.8018510341644287,-1.1818526983261108,-7.23089599609375,7.6726789474487305,-0.9315894842147827,-0.30386319756507874,0.388826847076416,0.6621048450469971,37.502079010009766,-10.017234802246094,-4.637994766235352,0.5758638381958008,0.4226856231689453,0.1459181308746338,-7.806759834289551,7.249993324279785,-1.0775076150894165
5_20251106_145820,1762412264293,5,0.5336726903915405,0.4770897328853607,0.6122828722000122,0.3356911540031433,0.2961803674697876,1.78615140914917,-1.1876152753829956,-6.917269229888916,8.066509246826172,-0.8801162838935852,-0.30386319756507874,0.388826847076416,0.6621048450469971,37.51755142211914,-9.988761901855469,-4.89378547668457,0.7115926742553711,0.6532125473022461,0.15791314840316772,-7.628861904144287,7.413296699523926,-1.038029432296753
5_20251106_145820,1762412264311,5,0.5313032865524292,0.47824808955192566,0.610165536403656,0.34160447120666504,0.2961803674697876,1.78615140914917,-1.1876152753829956,-6.917269229888916,8.066509246826172,-0.8801162838935852,-0.2598809599876404,0.598964273929596,0.6932589411735535,37.41270446777344,-10.132713317871094,-4.954677581787109,0.7115926742553711,0.6532125473022461,0.15791314840316772,-7.628861904144287,7.413296699523926,-1.038029432296753
5_20251106_145820,1762412264331,5,0.5282334089279175,0.4792346954345703,0.6085035800933838,0.34788933396339417,0.21935279667377472,1.771653175354004,-1.1929680109024048,-6.700603485107422,8.416048049926758,-0.6802090406417847,-0.24522018432617188,0.7632868885993958,0.7152500748634338,37.31501007080078,-10.363899230957031,-5.003410339355469,0.7426071166992188,0.8022012710571289,0.2862563133239746,-7.443210601806641,7.613846778869629,-0.9664653539657593
5_20251106_145820,1762412264350,5,0.5240938067436218,0.4798622131347656,0.607546865940094,0.3548869788646698,0.14968672394752502,1.7612611055374146,-1.1973029375076294,-6.351064682006836,8.726083755493164,-0.7197117209434509,-0.22200733423233032,0.8506405353546143,0.7134174704551697,37.229549407958984,-10.772392272949219,-4.743983745574951,0.8737163543701172,0.8897895812988281,0.1974029541015625,-7.224781036376953,7.836294174194336,-0.9171146750450134
5_20251106_145820,1762412264369,5,0.5190126299858093,0.4801684021949768,0.607154905796051,0.3625287711620331,0.04246664419770241,1.7508995532989502,-1.2022854089736938,-5.726204872131348,8.867334365844727,-0.43840503692626953,-0.17985767126083374,0.9074509739875793,0.6944806575775146,37.07593536376953,-11.287467956542969,-4.272860527038574,0.9985432624816895,0.6617813110351562,0.34142380952835083,-6.724748134613037,8.20555305480957,-0.7798288464546204
5_20251106_145820,1762412264388,5,0.5134299993515015,0.48027536273002625,0.6071773171424866,0.37021738290786743,-0.0046166107058525085,1.7488510608673096,-1.2028307914733887,-5.394622325897217,8.921201705932617,-0.28877389430999756,-0.13770800828933716,1.0491716861724854,0.6559962034225464,36.94709014892578,-11.800422668457031,-3.85482120513916,1.064100742340088,0.5725193023681641,0.39284396171569824,-6.458723068237305,8.348682403564453,-0.6816178560256958
5_20251106_145820,1762412264407,5,0.5070578455924988,0.4799945056438446,0.6079174876213074,0.37806612253189087,-0.045831792056560516,1.7484625577926636,-1.2023959159851074,-5.177956581115723,8.916414260864258,-0.33426177501678467,-0.10777562856674194,1.2342636585235596,0.6010183691978455,36.804264068603516,-12.328208923339844,-3.2888574600219727,1.0246129035949707,0.45418548583984375,0.277884840965271,-6.202569484710693,8.462228775024414,-0.6121466159820557
5_20251106_145820,1762412264426,5,0.49968379735946655,0.4788703918457031,0.6097594499588013,0.3862546682357788,-0.08133432269096375,1.7504103183746338,-1.202008605003357,-4.871511936187744,9.306652069091797,-0.6215535998344421,-0.0998343825340271,1.3943102359771729,0.6016292572021484,36.54887390136719,-12.890281677246094,-2.525092124938965,1.0648460388183594,0.6755390167236328,-0.0075255632400512695,-5.9363579750061035,8.631113052368164,-0.6140280365943909
5_20251106_145820,1762412264446,5,0.4911739230155945,0.47686249017715454,0.6126178503036499,0.39503124356269836,-0.11216230690479279,1.7558817863464355,-1.201815128326416,-4.398677825927734,9.790260314941406,-0.6778149604797363,-0.12793415784835815,1.5158722400665283,0.6004074811935425,36.30860137939453,-13.389579772949219,-1.6784181594848633,1.2301440238952637,0.9273176193237305,-0.05102956295013428,-5.628821849822998,8.862942695617676,-0.626785397529602
5_20251106_145820,1762412264466,5,0.4816538393497467,0.47420379519462585,0.6160013675689697,0.40457719564437866,-0.13636645674705505,1.7641825675964355,-1.200199842453003,-3.9569661617279053,9.88362979888916,-0.15590143203735352,-0.22139647603034973,1.7009642124176025,0.5350449681282043,36.03057098388672,-13.904487609863281,-0.7658987045288086,1.33748459815979,0.8165493011474609,0.37670713663101196,-5.294450759887695,9.0670804977417,-0.5326085686683655
5_20251106_145820,1762412264484,5,0.471567839384079,0.47050032019615173,0.619777262210846,0.4148847758769989,-0.152995303273201,1.7728660106658936,-1.1969008445739746,-3.643339157104492,9.711254119873047,0.2463071644306183,-0.2849264144897461,1.9685230255126953,0.44646957516670227,35.740875244140625,-14.396293640136719,0.26830482482910156,1.3208894729614258,0.5153388977050781,0.623132586479187,-4.964228630065918,9.195915222167969,-0.3768254518508911
5_20251106_145820,1762412264503,5,0.46062469482421875,0.4646996557712555,0.6244656443595886,0.4265229403972626,-0.16541250050067902,1.7823963165283203,-1.190342664718628,-3.412308692932129,9.495786666870117,0.807723343372345,-0.29775455594062805,2.182325839996338,0.40554165840148926,35.39350128173828,-14.806465148925781,1.5316801071166992,1.2415356636047363,0.2398967742919922,0.9476390480995178,-4.653844356536865,9.255889892578125,-0.13991568982601166
5_20251106_145820,1762412264522,5,0.4485406279563904,0.4570767879486084,0.6301636099815369,0.43907397985458374,-0.17272861301898956,1.7918291091918945,-1.1817325353622437,-3.020873546600342,9.394036293029785,0.7275210022926331,-0.29775455594062805,2.182325839996338,0.40554165840148926,34.963050842285156,-15.172782897949219,2.873776435852051,1.3063769340515137,0.11051654815673828,0.6939493417739868,-4.3272504806518555,9.283519744873047,0.03357163816690445
5_20251106_145820,1762412264541,5,0.43465325236320496,0.4482990503311157,0.6365063786506653,0.4527297019958496,-0.17328721284866333,1.8006319999694824,-1.1731117963790894,-1.8800853490829468,9.410795211791992,0.3875589966773987,-0.2030705213546753,2.392463207244873,0.853305459022522,34.467159271240234,-15.607200622558594,4.347264289855957,1.957732081413269,0.10181999206542969,0.28318989276885986,-3.837817430496216,9.308975219726562,0.10436910390853882
5_20251106_145820,1762412264560,5,0.4183413088321686,0.4400809109210968,0.6424286365509033,0.46755191683769226,-0.17328721284866333,1.8006319999694824,-1.1731117963790894,-1.8800853490829468,9.410795211791992,0.3875589966773987,-0.14015145599842072,2.2592945098876953,1.1850050687789917,33.910648345947266,-16.03356170654297,5.872628211975098,1.957732081413269,0.10181999206542969,0.28318989276885986,-3.837817430496216,9.308975219726562,0.10436910390853882
5_20251106_145820,1762412264579,5,0.4006368815898895,0.4347460865974426,0.6462419629096985,0.4825528860092163,-0.14090223610401154,1.8204318284988403,-1.155274510383606,2.0390541553497314,9.699283599853516,0.10026714205741882,0.015008185058832169,2.0393834114074707,1.4403464794158936,33.192405700683594,-16.521156311035156,7.458142280578613,4.101925849914551,0.26320362091064453,-0.030779853463172913,-2.0628719329833984,9.436079978942871,0.13104699552059174
5_20251106_145820,1762412264597,5,0.3819248080253601,0.43254366517066956,0.6480116248130798,0.49711206555366516,-0.10129359364509583,1.8302669525146484,-1.1496626138687134,4.4618821144104,9.531697273254395,-0.8058992624282837,0.24652591347694397,1.7504444122314453,1.525256633758545,32.28543472290039,-17.12152862548828,9.074736595153809,5.219803333282471,0.07649421691894531,-0.7495570182800293,-0.7579211592674255,9.45520305633545,-0.056342244148254395
5_20251106_145820,1762412264617,5,0.36256277561187744,0.4333714544773102,0.6486380696296692,0.5099079012870789,-0.10129359364509583,1.8302669525146484,-1.1496626138687134,4.4618821144104,9.531697273254395,-0.8058992624282837,0.24652591347694397,1.7504444122314453,1.525256633758545,31.315914154052734,-17.76287078857422,10.620505332946777,5.219803333282471,0.07649421691894531,-0.7495570182800293,-0.7579211592674255,9.45520305633545,-0.056342244148254395
5_20251106_145820,1762412264638,5,0.3440812826156616,0.4365241825580597,0.6486515998840332,0.5199093818664551,0.04502929002046585,1.8518811464309692,-1.1516733169555664,7.484431743621826,9.742378234863281,-1.5049760341644287,0.39068999886512756,1.0766605138778687,1.0127410888671875,31.315914154052734,-17.76287078857422,10.620505332946777,5.429094314575195,0.2000713348388672,-0.9142932891845703,2.055337429046631,9.542306900024414,-0.5906827449798584
5_20251106_145820,1762412264656,5,0.32855960726737976,0.4404109716415405,0.6483743786811829,0.5269700288772583,0.12183168530464172,1.8607097864151,-1.1571218967437744,7.488022804260254,9.640628814697266,-2.049633502960205,0.418178915977478,1.1059820652008057,0.490451842546463,30.29694366455078,-18.419944763183594,12.164048194885254,4.346148490905762,0.07865715026855469,-1.1671606302261353,3.141874313354492,9.561971664428711,-0.8824728727340698
5_20251106_145820,1762412264675,5,0.31563428044319153,0.44206881523132324,0.6496325731277466,0.5319094657897949,0.21853476762771606,1.8706343173980713,-1.1688921451568604,6.715926170349121,9.58077621459961,-2.7511043548583984,0.34976208209991455,1.1414122581481934,0.061013929545879364,29.191741943359375,-19.118629455566406,13.541171073913574,2.859241485595703,0.015043258666992188,-1.4949052333831787,3.856684684753418,9.565732955932617,-1.2561991214752197
5_20251106_145820,1762412264695,5,0.3048539459705353,0.4402134120464325,0.6530135869979858,0.5355833172798157,0.21853476762771606,1.8706343173980713,-1.1688921451568604,6.715926170349121,9.58077621459961,-2.7511043548583984,0.26240837574005127,1.0381760597229004,-0.14912351965904236,28.11501693725586,-19.763755798339844,14.74461841583252,2.859241485595703,0.015043258666992188,-1.4949052333831787,3.856684684753418,9.565732955932617,-1.2561991214752197
5_20251106_145820,1762412264713,5,0.2962161898612976,0.43612363934516907,0.6572121381759644,0.5386319756507874,0.40171679854393005,1.885480523109436,-1.2039328813552856,4.767129898071289,8.815861701965332,-3.0383963584899902,0.25324541330337524,0.8274276852607727,-0.15584304928779602,27.11894989013672,-20.277870178222656,15.886067390441895,0.43923044204711914,-0.5661048889160156,-1.1300722360610962,4.32789945602417,9.381966590881348,-1.908324122428894
5_20251106_145820,1762412264731,5,0.2895731031894684,0.4320111870765686,0.6611751317977905,0.5407043695449829,0.40171679854393005,1.885480523109436,-1.2039328813552856,4.767129898071289,8.815861701965332,-3.0383963584899902,0.3228840231895447,0.5525385737419128,-0.018398480489850044,26.088626861572266,-20.768028259277344,16.904926300048828,0.43923044204711914,-0.5661048889160156,-1.1300722360610962,4.32789945602417,9.381966590881348,-1.908324122428894
5_20251106_145820,1762412264751,5,0.28399044275283813,0.42951929569244385,0.6644240617752075,0.541667103767395,0.4906434118747711,1.8884460926055908,-1.2263771295547485,4.095584869384766,8.305919647216797,-3.0635342597961426,0.38091617822647095,0.32163169980049133,0.16974785923957825,25.27187728881836,-20.94182586669922,17.70819091796875,-0.1858515739440918,-0.8608379364013672,-0.9241681098937988,4.281436443328857,9.166757583618164,-2.1393661499023438
5_20251106_145820,1762412264770,5,0.2790052890777588,0.4296375811100006,0.6666971445083618,0.5413709282875061,0.5691319108009338,1.8883042335510254,-1.249290108680725,3.637115001678467,8.13952922821045,-3.10782527923584,0.3515946567058563,0.24710622429847717,0.2845904231071472,24.56539535522461,-21.10765838623047,18.434768676757812,-0.5154571533203125,-0.821782112121582,-0.7747673988342285,4.152572154998779,8.961311340332031,-2.3330578804016113
5_20251106_145820,1762412264790,5,0.2741285264492035,0.43147364258766174,0.6680610179901123,0.5407204031944275,0.6452346444129944,1.884659767150879,-1.2745838165283203,3.367779016494751,7.80914306640625,-3.116204261779785,0.2141500860452652,0.3332381546497345,0.29314255714416504,23.988922119140625,-21.12688446044922,19.115093231201172,-0.6278345584869385,-0.9217348098754883,-0.6265170574188232,3.9956135749816895,8.730877876281738,-2.489687204360962
5_20251106_145820,1762412264809,5,0.2691660225391388,0.43329328298568726,0.6688463091850281,0.5407875776290894,0.7114328742027283,1.8786282539367676,-1.29936683177948,3.0900635719299316,7.731334686279297,-3.2023918628692627,0.005845211446285248,0.4602980315685272,0.2241148054599762,23.464298248291016,-21.103904724121094,19.663005828857422,-0.7244400978088379,-0.7996349334716797,-0.5701637268066406,3.8145036697387695,8.530969619750977,-2.632228136062622
5_20251106_145820,1762412264828,5,0.26445844769477844,0.43370211124420166,0.669179379940033,0.5423681735992432,0.8228037357330322,1.8591718673706055,-1.3472875356674194,2.5238590240478516,7.052607536315918,-3.070716381072998,-0.13770800828933716,0.5458189845085144,0.24610595405101776,23.127086639404297,-20.993141174316406,20.165794372558594,-0.8601047992706299,-1.0147180557250977,-0.28235626220703125,3.3839638233184814,8.067325592041016,-2.788360118865967
5_20251106_145820,1762412264847,5,0.260101318359375,0.4326823651790619,0.6689969897270203,0.5455055236816406,0.8228037357330322,1.8591718673706055,-1.3472875356674194,2.5238590240478516,7.052607536315918,-3.070716381072998,-0.16519692540168762,0.4309765100479126,0.37927448749542236,22.790565490722656,-20.881431579589844,20.573970794677734,-0.8601047992706299,-1.0147180557250977,-0.28235626220703125,3.3839638233184814,8.067325592041016,-2.788360118865967
5_20251106_145820,1762412264866,5,0.25554969906806946,0.43188655376434326,0.6680915951728821,0.549383282661438,0.9159352779388428,1.8273638486862183,-1.3931210041046143,2.7489044666290283,6.342757225036621,-2.838488817214966,-0.12732329964637756,0.1884632259607315,0.4794562757015228,22.386463165283203,-20.898719787597656,20.922988891601562,-0.39992618560791016,-1.1494989395141602,0.006223201751708984,3.1488306522369385,7.492256164550781,-2.844712018966675
5_20251106_145820,1762412264885,5,0.2515900433063507,0.4330981969833374,0.6661704182624817,0.5525806546211243,0.9594131112098694,1.804871678352356,-1.4148389101028442,2.3957748413085938,5.94413948059082,-2.474586009979248,-0.05646298825740814,-0.03633499518036842,0.458686888217926,22.019611358642578,-20.912681579589844,21.178863525390625,-0.6024446487426758,-1.2384934425354004,0.2961008548736572,2.9982194900512695,7.182632923126221,-2.7706868648529053
5_20251106_145820,1762412264905,5,0.24867476522922516,0.43602702021598816,0.6637364625930786,0.5545225143432617,0.9594131112098694,1.804871678352356,-1.4148389101028442,2.3957748413085938,5.94413948059082,-2.474586009979248,0.012564726173877716,-0.12246692180633545,0.3585050702095032,21.680843353271484,-21.086570739746094,21.338165283203125,-0.6024446487426758,-1.2384934425354004,0.2961008548736572,2.9982194900512695,7.182632923126221,-2.7706868648529053
5_20251106_145820,1762412264925,5,0.24693410098552704,0.4394860565662384,0.6616077423095703,0.5551132559776306,1.0239444971084595,1.7485018968582153,-1.4498704671859741,0.3392440676689148,5.435393810272217,-2.1094861030578613,-0.004539487883448601,0.07117719203233719,0.2913099527359009,21.468860626220703,-21.176231384277344,21.409343719482422,-1.8789074420928955,-1.1203398704528809,0.43217039108276367,2.218151569366455,6.555733680725098,-2.541656494140625
5_20251106_145820,1762412264943,5,0.24541075527668,0.4420841336250305,0.6602101922035217,0.5553897023200989,1.0239444971084595,1.7485018968582153,-1.4498704671859741,0.3392440676689148,5.435393810272217,-2.1094861030578613,-0.15297962725162506,0.4828999936580658,0.3255183696746826,21.216693878173828,-21.33118438720703,21.49124526977539,-1.8789074420928955,-1.1203398704528809,0.43217039108276367,2.218151569366455,6.555733680725098,-2.541656494140625
5_20251106_145820,1762412264962,5,0.24232947826385498,0.4423604905605316,0.65937340259552,0.557512640953064,1.0558044910430908,1.6880842447280884,-1.4787997007369995,0.11539580672979355,5.047550201416016,-2.837291955947876,-0.39671462774276733,0.7211372256278992,0.49289530515670776,20.91497802734375,-21.50200653076172,21.58443832397461,-1.3246955871582031,-1.0050749778747559,-0.2225325107574463,1.4400913715362549,6.0526251792907715,-2.6147594451904297
5_20251106_145820,1762412264981,5,0.23753489553928375,0.4407835006713867,0.6579139232635498,0.5625267624855042,1.0661201477050781,1.6562319993972778,-1.492893934249878,0.6349152326583862,4.786592960357666,-2.912705898284912,-0.5934131145477295,0.656385600566864,0.7567888498306274,20.502166748046875,-21.716712951660156,21.57781219482422,-0.6441409587860107,-1.0128254890441895,-0.2383570671081543,1.279056191444397,5.7994184494018555,-2.674348831176758
5_20251106_145820,1762412265000,5,0.23177146911621094,0.43956467509269714,0.6544612050056458,0.5698643922805786,1.0751680135726929,1.624374508857727,-1.5048896074295044,0.9736802577972412,5.150496482849121,-2.1082887649536133,-0.6563321948051453,0.3179665207862854,0.955319881439209,20.082618713378906,-22.04497528076172,21.622875213623047,-0.2443007230758667,-0.5191378593444824,0.4528481960296631,1.217980980873108,5.6696343421936035,-2.5611369609832764
5_20251106_145820,1762412265018,5,0.2266974151134491,0.4410376250743866,0.6485713720321655,0.5774506330490112,1.0831971168518066,1.590402603149414,-1.5136277675628662,0.7175116539001465,5.556295871734619,-1.2703545093536377,-0.5628698468208313,0.07850757241249084,1.0047999620437622,19.665775299072266,-22.334754943847656,21.587631225585938,-0.40037548542022705,-0.09067058563232422,1.0326259136199951,1.1178871393203735,5.646966457366943,-2.302980422973633
5_20251106_145820,1762412265038,5,0.22274036705493927,0.44490987062454224,0.6415004134178162,0.5838828682899475,1.088446855545044,1.5580391883850098,-1.517508864402771,0.3356528878211975,5.617345809936523,-0.8489930629730225,-0.3576192855834961,0.1377614438533783,1.0860450267791748,19.282062530517578,-22.684791564941406,21.539024353027344,-0.6257873773574829,-0.0236968994140625,1.1631898880004883,0.9614402651786804,5.641042709350586,-2.0121829509735107
5_20251106_145820,1762412265057,5,0.21849867701530457,0.4496658742427826,0.6348071694374084,0.5891339182853699,1.0918718576431274,1.5295289754867554,-1.5199702978134155,0.5295748710632324,5.3001275062561035,-1.6641836166381836,-0.1261015683412552,0.26848649978637695,1.3310017585754395,18.867748260498047,-23.13768768310547,21.56842041015625,-0.34549230337142944,-0.2727322578430176,0.2783994674682617,0.8750671744346619,5.572859764099121,-1.9425830841064453
5_20251106_145820,1762412265077,5,0.21142491698265076,0.45461133122444153,0.6291011571884155,0.5940200686454773,1.0969514846801758,1.49848210811615,-1.5235962867736816,1.3567359447479248,5.259427547454834,-2.2806639671325684,-0.10349957644939423,0.14936788380146027,1.7494440078735352,18.315555572509766,-23.67412567138672,21.536773681640625,0.3853350281715393,-0.2507457733154297,-0.2704646587371826,0.9714009165763855,5.510173320770264,-2.0101993083953857
5_20251106_145820,1762412265096,5,0.20172826945781708,0.46190696954727173,0.6227201223373413,0.5984708070755005,1.106220006942749,1.4711837768554688,-1.526498556137085,2.4328832626342773,6.23262882232666,-1.831770658493042,-0.10349957644939423,0.14936788380146027,1.7494440078735352,18.315555572509766,-23.67412567138672,21.536773681640625,1.1691858768463135,0.5779643058776855,0.14274287223815918,1.2636973857879639,5.654664516448975,-1.9745135307312012
5_20251106_145820,1762412265116,5,0.19130833446979523,0.4727722108364105,0.6130588054656982,0.6033626198768616,1.122323989868164,1.4522258043289185,-1.5256630182266235,3.664647340774536,7.949197769165039,-0.7927317023277283,-0.7699530124664307,-0.17866647243499756,2.3309872150421143,17.700103759765625,-24.26409149169922,21.434036254882812,1.920759916305542,1.8356266021728516,0.9454254508018494,1.7438874244689941,6.1135711669921875,-1.7381571531295776
5_20251106_145820,1762412265134,5,0.18191197514533997,0.48565781116485596,0.5990858674049377,0.6100332736968994,1.145076036453247,1.4423141479492188,-1.5207902193069458,5.391989707946777,8.671018600463867,-0.049364037811756134,-0.7699530124664307,-0.17866647243499756,2.3309872150421143,17.020694732666016,-24.920143127441406,21.259944915771484,2.9184818267822266,2.045957565307617,1.35103440284729,2.473507881164551,6.62506103515625,-1.4003984928131104
5_20251106_145820,1762412265153,5,0.17315497994422913,0.49882370233535767,0.5827682018280029,0.6177163124084473,1.1796358823776245,1.4387370347976685,-1.513264536857605,6.754231929779053,8.943946838378906,-0.4384050965309143,-0.35395410656929016,-0.3093915283679962,2.3786346912384033,16.157882690429688,-25.82508087158203,20.992877960205078,3.42457914352417,1.8551087379455566,0.7695947289466858,3.329652786254883,7.08883810043335,-1.2079998254776
5_20251106_145820,1762412265172,5,0.16314487159252167,0.5124227404594421,0.5672425031661987,0.6237328052520752,1.223347783088684,1.4423366785049438,-1.5067230463027954,7.295298099517822,9.63943099975586,-1.4295620918273926,-0.09861265122890472,-0.30206117033958435,2.2387468814849854,15.199891090393066,-26.69843292236328,20.69564437866211,3.172516345977783,2.0404744148254395,-0.17724990844726562,4.122781753540039,7.59895658493042,-1.252312183380127
5_20251106_145820,1762412265191,5,0.15166904032230377,0.52638179063797,0.5539548993110657,0.6269391179084778,1.274422287940979,1.453334927558899,-1.5022724866867065,7.602939605712891,10.361251831054688,-1.8952142000198364,-0.2751525640487671,-0.08703677356243134,2.05121111869812,14.226387977600098,-27.635093688964844,20.36956787109375,2.7841262817382812,2.209836006164551,-0.5143216848373413,4.818813323974609,8.151415824890137,-1.3808925151824951
5_20251106_145820,1762412265210,5,0.14047051966190338,0.5387325286865234,0.5416643023490906,0.6297897100448608,1.3290902376174927,1.470543622970581,-1.498336672782898,8.352293014526367,11.120182037353516,-1.4092121124267578,-0.7009252905845642,0.27826032042503357,1.8422954082489014,13.15439510345459,-28.59107208251953,20.079853057861328,2.8267836570739746,2.3750133514404297,-0.022655725479125977,5.525509357452393,8.745168685913086,-1.3865563869476318
5_20251106_145820,1762412265229,5,0.13073356449604034,0.5477074980735779,0.5286146402359009,0.6352100372314453,1.3290902376174927,1.470543622970581,-1.498336672782898,8.352293014526367,11.120182037353516,-1.4092121124267578,-1.157852053642273,0.6551638245582581,1.5667954683303833,11.849642753601074,-29.598594665527344,19.658382415771484,2.8267836570739746,2.3750133514404297,-0.022655725479125977,5.525509357452393,8.745168685913086,-1.3865563869476318
5_20251106_145820,1762412265248,5,0.12292428314685822,0.5522980690002441,0.5142979621887207,0.6444796919822693,1.4751473665237427,1.5346806049346924,-1.4757437705993652,10.653021812438965,12.933712005615234,1.2410551309585571,-1.3282833099365234,0.8420884013175964,1.196000576019287,10.460688591003418,-30.598594665527344,19.17967987060547,3.429084300994873,2.800564765930176,1.8670704364776611,7.223937511444092,10.133147239685059,-0.6260152459144592
5_20251106_145820,1762412265268,5,0.11735764145851135,0.5525285601615906,0.4997378885746002,0.6566593050956726,1.5603179931640625,1.5783107280731201,-1.4546998739242554,10.459098815917969,12.840341567993164,1.675584077835083,-1.1175349950790405,0.8072691559791565,0.881405234336853,9.110406875610352,-31.55854034423828,18.703235626220703,2.5881290435791016,2.165755271911621,1.8412795066833496,7.870969772338867,10.674586296081543,-0.1656954288482666
5_20251106_145820,1762412265287,5,0.11348211020231247,0.5502507090568542,0.4871988594532013,0.6685680150985718,1.6430044174194336,1.6217437982559204,-1.432597041130066,9.992250442504883,12.153234481811523,0.968127965927124,-1.1175349950790405,0.8072691559791565,0.881405234336853,7.77342414855957,-32.49297332763672,18.268360137939453,1.6970243453979492,1.1829185485839844,0.9070587158203125,8.295226097106934,10.970315933227539,0.06106923520565033
5_20251106_145820,1762412265306,5,0.10961691290140152,0.5475536584854126,0.47767385840415955,0.6782306432723999,1.7263702154159546,1.6654361486434937,-1.4108251333236694,10.049708366394043,11.856367111206055,0.34326815605163574,-0.47124016284942627,0.4419720768928528,0.8441425561904907,6.495745658874512,-33.24748992919922,17.744529724121094,1.4035863876342773,0.7088413238525391,0.2257591336965561,8.646121978759766,11.147525787353516,0.11750902235507965
5_20251106_145820,1762412265325,5,0.10482007265090942,0.5463775396347046,0.4701629877090454,0.6851503849029541,1.8093429803848267,1.709269642829895,-1.3904058933258057,10.022176742553711,11.995224952697754,0.021261878311634064,-0.3362390398979187,0.2519931495189667,0.8392555713653564,5.342437744140625,-33.955848693847656,17.17232894897461,1.1008434295654297,0.6781587600708008,-0.07699771225452423,8.921333312988281,11.317066192626953,0.0982595905661583
5_20251106_145820,1762412265345,5,0.09975197166204453,0.547480583190918,0.4634467661380768,0.6895880699157715,1.8093429803848267,1.709269642829895,-1.3904058933258057,10.022176742553711,11.995224952697754,0.021261878311634064,-0.36922571063041687,0.28314724564552307,0.6828742027282715,4.19427490234375,-34.564430236816406,16.669818878173828,1.1008434295654297,0.6781587600708008,-0.07699771225452423,8.921333312988281,11.317066192626953,0.0982595905661583
5_20251106_145820,1762412265363,5,0.09557313472032547,0.5489647388458252,0.45732036232948303,0.693081259727478,1.9695065021514893,1.7942793369293213,-1.3522446155548096,9.653484344482422,11.480493545532227,0.29778027534484863,-0.36922571063041687,0.28314724564552307,0.6828742027282715,3.0482139587402344,-35.146949768066406,16.073226928710938,0.4565105438232422,0.03660106658935547,0.1656157672405243,9.19697380065918,11.443892478942871,0.13216450810432434
5_20251106_145820,1762412265382,5,0.09258492290973663,0.5485668778419495,0.4519190788269043,0.6973317861557007,2.0458688735961914,1.8318228721618652,-1.3334531784057617,9.810298919677734,10.804161071777344,0.46177607774734497,-0.3826647400856018,0.471293568611145,0.337735652923584,2.1664319038391113,-35.550621032714844,15.598492622375488,0.4906597137451172,-0.5117855072021484,0.2636892795562744,9.319639205932617,11.315946578979492,0.19808681309223175
5_20251106_145820,1762412265401,5,0.09048223495483398,0.5465432405471802,0.44735750555992126,0.7021215558052063,2.119959592819214,1.8654019832611084,-1.3144738674163818,9.883317947387695,10.555173873901367,0.6090130805969238,-0.1865771859884262,0.32529690861701965,0.27359485626220703,1.3824477195739746,-35.93592071533203,15.182011604309082,0.4509429931640625,-0.6086177825927734,0.32874101400375366,9.432374954223633,11.16379165649414,0.28027206659317017
5_20251106_145820,1762412265420,5,0.08825942873954773,0.5446719527244568,0.4443231225013733,0.7057759761810303,2.1910641193389893,1.8953334093093872,-1.295311689376831,9.694184303283691,10.446243286132812,0.692806601524353,0.02417115494608879,0.15181134641170502,0.22228221595287323,0.7734088897705078,-36.22301483154297,14.85534381866455,0.20944786071777344,-0.5740385055541992,0.33002763986587524,9.484736442565918,11.020281791687012,0.3627789616584778
5_20251106_145820,1762412265439,5,0.08614609390497208,0.5440235137939453,0.44261279702186584,0.7076094746589661,2.258100986480713,1.9212737083435059,-1.2765403985977173,9.297962188720703,10.111068725585938,0.5695104598999023,0.02417115494608879,0.15181134641170502,0.22228221595287323,0.21522903442382812,-36.469261169433594,14.531428337097168,-0.14941883087158203,-0.7273712158203125,0.1653851866722107,9.447381019592285,10.83843994140625,0.40412527322769165
5_20251106_145820,1762412265458,5,0.08396711945533752,0.5445414185523987,0.4424077868461609,0.7076012492179871,2.32027268409729,1.942604422569275,-1.2589764595031738,8.895753860473633,9.631052017211914,0.306159645318985,0.39068999886512756,-0.09803232550621033,0.19479331374168396,-0.17635726928710938,-36.54328155517578,14.352482795715332,-0.4413013458251953,-0.9659109115600586,-0.07837250828742981,9.337055206298828,10.596962928771973,0.3845321536064148
5_20251106_145820,1762412265478,5,0.08145224303007126,0.5460258722305298,0.44344422221183777,0.7061008810997009,2.3804259300231934,1.9594413042068481,-1.2425386905670166,8.673101425170898,9.118715286254883,0.014079578220844269,0.48293057084083557,-0.1401819884777069,0.20639973878860474,-0.5044779777526855,-36.551902770996094,14.312472343444824,-0.531163215637207,-1.1825981140136719,-0.2963620722293854,9.204264640808105,10.301313400268555,0.31044164299964905
5_20251106_145820,1762412265497,5,0.07853256165981293,0.5480009913444519,0.4452049732208252,0.7037898302078247,2.4331583976745605,1.970298409461975,-1.2287794351577759,8.637190818786621,8.720098495483398,-0.08168436586856842,0.5189715623855591,-0.20004674792289734,0.21250838041305542,-0.7620906829833984,-36.59410858154297,14.342194557189941,-0.4536590576171875,-1.2649717330932617,-0.313700795173645,9.090849876403809,9.98507022857666,0.2320164442062378
5_20251106_145820,1762412265515,5,0.07539792358875275,0.5504261255264282,0.4472711682319641,0.7009242177009583,2.4793295860290527,1.9763712882995605,-1.2168620824813843,8.567761421203613,8.483081817626953,0.042808763682842255,0.5482930541038513,-0.26113322377204895,0.17402391135692596,-0.7620906829833984,-36.59410858154297,14.342194557189941,-0.4184703826904297,-1.2015905380249023,-0.15136614441871643,8.986231803894043,9.684672355651855,0.1941749006509781
5_20251106_145820,1762412265535,5,0.07246566563844681,0.5533095598220825,0.44944146275520325,0.6975669264793396,2.5262041091918945,1.9781461954116821,-1.2049683332443237,8.373839378356934,8.159878730773926,-0.031408295035362244,0.5947187542915344,-0.2678527534008026,0.0744529590010643,-0.9406261444091797,-36.50745391845703,14.526177406311035,-0.4899139404296875,-1.219834327697754,-0.18046656250953674,8.863753318786621,9.37971305847168,0.1490582674741745
5_20251106_145820,1762412265554,5,0.06991574168205261,0.5561093091964722,0.4522296190261841,0.6937885880470276,2.566349744796753,1.9754718542099,-1.1956260204315186,8.076971054077148,7.821113586425781,-0.3582027554512024,0.6075469255447388,-0.26174411177635193,-0.010457240045070648,-1.0708255767822266,-36.429771423339844,14.671309471130371,-0.6294260025024414,-1.2468795776367188,-0.40580883622169495,8.70639705657959,9.0679931640625,0.04760607331991196
5_20251106_145820,1762412265574,5,0.06772634387016296,0.558344304561615,0.4557882845401764,0.6898708939552307,2.566349744796753,1.9754718542099,-1.1956260204315186,8.076971054077148,7.821113586425781,-0.3582027554512024,0.5886101126670837,-0.28190264105796814,-0.037335291504859924,-1.1219472885131836,-36.223243713378906,14.970702171325684,-0.6294260025024414,-1.2468795776367188,-0.40580883622169495,8.70639705657959,9.0679931640625,0.04760607331991196
5_20251106_145820,1762412265592,5,0.06609746068716049,0.5604802966117859,0.45949864387512207,0.6858235597610474,2.634352445602417,1.9577966928482056,-1.1821497678756714,7.814817428588867,7.2632880210876465,-0.5114250779151917,0.5672298669815063,-0.2855677902698517,-0.041000477969646454,-1.2757880687713623,-36.111366271972656,15.3048734664917,-0.5778894424438477,-1.1915926933288574,-0.3700377345085144,8.392706871032715,8.454880714416504,-0.14138734340667725
5_20251106_145820,1762412265611,5,0.06461461633443832,0.5626068115234375,0.46314099431037903,0.681761622428894,2.634352445602417,1.9577966928482056,-1.1821497678756714,7.814817428588867,7.2632880210876465,-0.5114250779151917,0.5672298669815063,-0.2855677902698517,-0.041000477969646454,-1.315415859222412,-35.904991149902344,15.699370384216309,-0.5778894424438477,-1.1915926933288574,-0.3700377345085144,8.392706871032715,8.454880714416504,-0.14138734340667725
5_20251106_145820,1762412265632,5,0.06331532448530197,0.5647581815719604,0.4666147530078888,0.6777241826057434,2.6915645599365234,1.9270079135894775,-1.1751415729522705,7.952478408813477,7.185480117797852,-0.780761182308197,0.5244693160057068,-0.39002570509910583,-0.07276544719934464,-1.2466802597045898,-35.71643829345703,16.08423614501953,-0.27542591094970703,-0.8022651672363281,-0.43505552411079407,8.227904319763184,7.98774528503418,-0.34570565819740295
5_20251106_145820,1762412265649,5,0.0624580942094326,0.5672088861465454,0.46992024779319763,0.6734597086906433,2.6915645599365234,1.9270079135894775,-1.1751415729522705,7.952478408813477,7.185480117797852,-0.780761182308197,0.5372974872589111,-0.42179062962532043,-0.11491511017084122,-1.1658573150634766,-35.52722930908203,16.483112335205078,-0.27542591094970703,-0.8022651672363281,-0.43505552411079407,8.227904319763184,7.98774528503418,-0.34570565819740295
5_20251106_145820,1762412265669,5,0.062166571617126465,0.56991046667099,0.47331005334854126,0.668816089630127,2.717473268508911,1.9080256223678589,-1.1744107007980347,7.996768474578857,7.0143022537231445,-0.9411659240722656,0.5281345248222351,-0.4425600469112396,-0.11858030408620834,-1.083216667175293,-35.300743103027344,16.923324584960938,-0.18490839004516602,-0.7787542343139648,-0.4763682186603546,8.181676864624023,7.793056488037109,-0.464797705411911
5_20251106_145820,1762412265688,5,0.06198528781533241,0.5725036859512329,0.47690796852111816,0.6640452742576599,2.741264820098877,1.8879988193511963,-1.176082730293274,8.330745697021484,6.737783432006836,-1.3146452903747559,0.4566633701324463,-0.5085334777832031,-0.11674771457910538,-0.853848934173584,-35.064064025878906,17.30184555053711,0.11925506591796875,-0.8442182540893555,-0.6798780560493469,8.211490631103516,7.582001686096191,-0.6347672343254089
5_20251106_145820,1762412265706,5,0.06210782751441002,0.5754909515380859,0.48013776540756226,0.6591058373451233,2.766747236251831,1.865838646888733,-1.1794140338897705,8.767668724060059,6.880232810974121,-1.1805757284164429,0.4041290283203125,-0.517085611820221,-0.20532308518886566,-0.6606311798095703,-34.817604064941406,17.719703674316406,0.4449424743652344,-0.5614151954650879,-0.43664681911468506,8.322726249694824,7.441648006439209,-0.7439289093017578
5_20251106_145820,1762412265725,5,0.06304806470870972,0.5785719752311707,0.4829126298427582,0.6542742252349854,2.815345525741577,1.8275002241134644,-1.186309576034546,9.708549499511719,7.02387809753418,-1.1099498271942139,0.4603285789489746,-0.5329680442810059,-0.37636518478393555,-0.3964247703552246,-34.61566925048828,18.044837951660156,0.9491729736328125,-0.27848148345947266,-0.26681315898895264,8.759376525878906,7.302359580993652,-0.8431366682052612
5_20251106_145820,1762412265745,5,0.06477504223585129,0.5809178948402405,0.4863864481449127,0.6494357585906982,2.8444483280181885,1.8044546842575073,-1.192983627319336,9.378164291381836,6.535482406616211,-1.6977009773254395,0.5397409796714783,-0.609326183795929,-0.5052576065063477,-0.05507040023803711,-34.333900451660156,18.401527404785156,0.49503040313720703,-0.613502025604248,-0.6836514472961426,8.883133888244629,7.148984432220459,-1.0140495300292969
5_20251106_145820,1762412265765,5,0.06727235019207001,0.5828578472137451,0.49119797348976135,0.6437978744506836,2.872607469558716,1.7789496183395386,-1.2033017873764038,9.051368713378906,5.960898399353027,-2.3225607872009277,0.49392610788345337,-0.7070645093917847,-0.4808230698108673,0.3235468864440918,-34.03717803955078,18.75995635986328,0.13458824157714844,-0.9504690170288086,-1.0468089580535889,8.916780471801758,6.911367416381836,-1.2757518291473389
5_20251106_145820,1762412265783,5,0.07023711502552032,0.5850350856781006,0.49639517068862915,0.6374892592430115,2.897197723388672,1.754366159439087,-1.2151318788528442,9.125585556030273,5.783735275268555,-2.4973299503326416,0.37114232778549194,-0.8805500864982605,-0.3696456849575043,0.7116293907165527,-33.789756774902344,19.10430145263672,0.16704463958740234,-0.9021058082580566,-0.9772624969482422,8.958540916442871,6.685841083526611,-1.5200674533843994
5_20251106_145820,1762412265802,5,0.07388773560523987,0.5885046720504761,0.5003591775894165,0.6307483911514282,2.9211819171905518,1.7286814451217651,-1.228405475616455,9.211773872375488,5.739444732666016,-2.346501588821411,0.3063906729221344,-1.0638093948364258,-0.3384915888309479,1.183393955230713,-33.57378387451172,19.383705139160156,0.20258617401123047,-0.7571172714233398,-0.6611473560333252,9.009187698364258,6.4965620040893555,-1.685354232788086
5_20251106_145820,1762412265822,5,0.07853744924068451,0.593511164188385,0.502911388874054,0.6234232187271118,2.945115327835083,1.700201153755188,-1.2441571950912476,8.966379165649414,5.503625869750977,-2.5751380920410156,0.29234078526496887,-1.1823172569274902,-0.4105736017227173,1.7070188522338867,-33.303993225097656,19.625579833984375,-0.03424644470214844,-0.794349193572998,-0.7118270397186279,9.000625610351562,6.297975063323975,-1.8633110523223877
5_20251106_145820,1762412265841,5,0.08403237909078598,0.599089503288269,0.5053891539573669,0.6153147220611572,2.967543601989746,1.6689748764038086,-1.2622474431991577,8.505515098571777,5.3946943283081055,-2.632596492767334,0.1787199079990387,-1.279444694519043,-0.4967055320739746,2.352095603942871,-33.038414001464844,19.831546783447266,-0.3960886001586914,-0.7226247787475586,-0.6154284477233887,8.901603698730469,6.117319107055664,-2.0171680450439453
5_20251106_145820,1762412265859,5,0.09095839411020279,0.6048652529716492,0.5077561140060425,0.6066698431968689,2.9850759506225586,1.6389878988265991,-1.2801541090011597,7.914172172546387,5.4593353271484375,-2.5930938720703125,-0.00453948974609375,-1.316096544265747,-0.5773396492004395,3.1197242736816406,-32.763954162597656,19.947803497314453,-0.7899456024169922,-0.5263872146606445,-0.4607405662536621,8.704117774963379,5.985722541809082,-2.1323533058166504
5_20251106_145820,1762412265878,5,0.09947600960731506,0.6102872490882874,0.5096341371536255,0.598270058631897,2.997915744781494,1.6088032722473145,-1.298353910446167,7.313253402709961,5.367161750793457,-2.5655617713928223,-0.00453948974609375,-1.316096544265747,-0.5773396492004395,3.862276077270508,-32.503639221191406,20.062816619873047,-1.112691879272461,-0.49484872817993164,-0.34656667709350586,8.425945281982422,5.862010478973389,-2.2189950942993164
5_20251106_145820,1762412265897,5,0.10954438149929047,0.6151129603385925,0.5108527541160583,0.5904790759086609,3.0056419372558594,1.5783038139343262,-1.3169262409210205,6.796128273010254,5.19718074798584,-2.6864638328552246,-0.1609208583831787,-1.3087661266326904,-0.639037013053894,4.674393653869629,-32.324562072753906,19.989696502685547,-1.303853988647461,-0.5318641662597656,-0.3739750385284424,8.099982261657715,5.7290449142456055,-2.3124887943267822
5_20251106_145820,1762412265917,5,0.12067808210849762,0.6194213628768921,0.5114530324935913,0.5832407474517822,3.0075995922088623,1.5456088781356812,-1.3367301225662231,6.202392101287842,5.006850242614746,-2.7175869941711426,-0.39610376954078674,-1.473699688911438,-0.6249871253967285,5.583874702453613,-32.162498474121094,19.744258880615234,-1.5180721282958984,-0.5777559280395508,-0.3240785598754883,7.72046422958374,5.584606170654297,-2.3935084342956543
5_20251106_145820,1762412265936,5,0.1328044980764389,0.6238938570022583,0.5112090706825256,0.5760075449943542,3.0030698776245117,1.5148088932037354,-1.3546613454818726,5.425506591796875,5.113387584686279,-2.414733409881592,-0.4816248416900635,-1.6209180355072021,-0.5913895964622498,6.527700424194336,-32.035850524902344,19.513015747070312,-1.8359661102294922,-0.37697505950927734,-0.01697993278503418,7.261472702026367,5.490362644195557,-2.3977534770965576
5_20251106_145820,1762412265955,5,0.1461334526538849,0.6292776465415955,0.5098817348480225,0.5680451393127441,2.9917359352111816,1.4844062328338623,-1.3720382452011108,4.698897838592529,5.073884963989258,-2.522468090057373,-0.5219419002532959,-1.6215288639068604,-0.6005525588989258,6.527700424194336,-32.035850524902344,19.513015747070312,-2.0500597953796387,-0.33318233489990234,-0.09977173805236816,6.748957633972168,5.40706729888916,-2.422696352005005
5_20251106_145820,1762412265975,5,0.1601746678352356,0.6348100900650024,0.507918119430542,0.5598030090332031,2.972477674484253,1.452419400215149,-1.3911120891571045,4.142270088195801,4.885948181152344,-2.980937957763672,-0.5219419002532959,-1.6215288639068604,-0.6005525588989258,7.49788761138916,-31.89331817626953,19.10730743408203,-2.0853500366210938,-0.41689538955688477,-0.4465932846069336,6.2276201248168945,5.3028435707092285,-2.5343446731567383
5_20251106_145820,1762412265994,5,0.17427612841129303,0.6396690607070923,0.5058783888816833,0.5518500208854675,2.9478321075439453,1.422335147857666,-1.410017967224121,3.5796566009521484,4.859612941741943,-3.150918960571289,-0.5921913981437683,-1.5714380741119385,-0.5956656336784363,8.548529624938965,-31.84459686279297,18.594791412353516,-2.11837100982666,-0.3545842170715332,-0.4932594299316406,5.698027610778809,5.214197158813477,-2.6576595306396484
5_20251106_145820,1762412266012,5,0.18889819085597992,0.6442233324050903,0.5030109286308289,0.5443103909492493,2.9186131954193115,1.3943833112716675,-1.4281151294708252,2.8398802280426025,4.858416557312012,-3.0970516204833984,-0.8780760765075684,-1.6080899238586426,-0.5248053073883057,9.607708930969238,-31.88123321533203,17.90520477294922,-2.286517858505249,-0.2846240997314453,-0.3515136241912842,5.126398086547852,5.143040657043457,-2.7455379962921143
5_20251106_145820,1762412266032,5,0.2044115513563156,0.6486308574676514,0.49899613857269287,0.5371189713478088,2.8789095878601074,1.36351478099823,-1.4477404356002808,2.2114291191101074,4.694420337677002,-2.917494297027588,-0.938551664352417,-1.62152898311615,-0.4392842650413513,10.632628440856934,-31.89392852783203,17.093029022216797,-2.3319754600524902,-0.35889673233032227,-0.13756513595581055,4.543404579162598,5.053317070007324,-2.7799291610717773
5_20251106_145820,1762412266050,5,0.22044749557971954,0.6531099677085876,0.49374616146087646,0.530155599117279,2.838371753692627,1.3357079029083252,-1.4651683568954468,1.866679072380066,4.478951454162598,-3.043184280395508,-0.9434385895729065,-1.5641076564788818,-0.33055034279823303,11.727931022644043,-31.96355438232422,16.174346923828125,-2.1413803100585938,-0.45949220657348633,-0.21060395240783691,4.008059501647949,4.938443660736084,-2.832580327987671
5_20251106_145820,1762412266070,5,0.23600779473781586,0.6576676368713379,0.48766419291496277,0.5234093070030212,2.7884933948516846,1.304464340209961,-1.484386682510376,1.6763482093811035,4.316152572631836,-3.103036880493164,-0.9434385895729065,-1.5641076564788818,-0.33055034279823303,12.714066505432129,-32.028038024902344,15.278548240661621,-1.8653690814971924,-0.4978327751159668,-0.21636509895324707,3.541717290878296,4.813985347747803,-2.886671781539917
5_20251106_145820,1762412266090,5,0.25088122487068176,0.6621817946434021,0.48080942034721375,0.5171036124229431,2.7346959114074707,1.2743213176727295,-1.5021518468856812,1.43215012550354,4.662099838256836,-2.724769115447998,-1.1719019412994385,-1.5054645538330078,-0.15401044487953186,13.651022911071777,-32.131080627441406,14.15021800994873,-1.6876537799835205,-0.12150859832763672,0.12952208518981934,3.1198039054870605,4.783608436584473,-2.8542912006378174
5_20251106_145820,1762412266107,5,0.265839546918869,0.6665321588516235,0.4726685583591461,0.5115159749984741,2.6867141723632812,1.250597357749939,-1.5144985914230347,1.0526854991912842,5.0643086433410645,-1.9442932605743408,-1.3313376903533936,-1.3295356035232544,-0.1729472577571869,14.53810977935791,-32.27362823486328,12.883971214294434,-1.6536948680877686,0.22456026077270508,0.7279982566833496,2.7063803672790527,4.839748382568359,-2.6722915172576904
5_20251106_145820,1762412266127,5,0.28144097328186035,0.670077919960022,0.46339547634124756,0.5070021748542786,2.627474546432495,1.225616455078125,-1.5247637033462524,0.8599604964256287,5.344418048858643,-1.509764313697815,-1.3313376903533936,-1.3295356035232544,-0.1729472577571869,15.337483406066895,-32.459815979003906,11.654047966003418,-1.4771358966827393,0.4037356376647949,0.9300218820571899,2.3370964527130127,4.940682411193848,-2.439786195755005
5_20251106_145820,1762412266147,5,0.2970508933067322,0.6715072393417358,0.4543040990829468,0.5044270157814026,2.627474546432495,1.225616455078125,-1.5247637033462524,0.8599604964256287,5.344418048858643,-1.509764313697815,-1.5628553628921509,-0.9190345406532288,-0.2028796374797821,16.005008697509766,-32.62854766845703,10.311127662658691,-1.4771358966827393,0.4037356376647949,0.9300218820571899,2.3370964527130127,4.940682411193848,-2.439786195755005
5_20251106_145820,1762412266166,5,0.31248825788497925,0.6711602210998535,0.44541263580322266,0.5034904479980469,2.559532403945923,1.2009525299072266,-1.531153917312622,0.6959647536277771,5.332447528839111,-1.2607779502868652,-1.7241235971450806,-0.8542829155921936,-0.060548149049282074,16.528392791748047,-32.79236602783203,8.773358345031738,-1.3129053115844727,0.3134121894836426,0.9432065486907959,2.0088701248168945,5.019035339355469,-2.203984498977661
5_20251106_145820,1762412266190,5,0.32789725065231323,0.6697922348976135,0.4356527030467987,0.5040521025657654,2.4292984008789062,1.163923740386963,-1.5283987522125244,0.4146581292152405,6.019554138183594,-0.2624388337135315,-1.83163583278656,-0.8463416695594788,0.10988310724496841,16.989944458007812,-32.972984313964844,7.259905815124512,-1.0427045822143555,0.743565559387207,1.3423752784729004,1.4573626518249512,5.275988578796387,-1.6048141717910767
5_20251106_145820,1762412266205,5,0.34343206882476807,0.668502688407898,0.423649400472641,0.5056478977203369,2.388279676437378,1.1556010246276855,-1.5234918594360352,0.33445584774017334,6.561817169189453,0.30017438530921936,-1.7980382442474365,-0.7058427929878235,0.1923498511314392,17.343032836914062,-33.135902404785156,5.769598960876465,-0.8983254432678223,1.0286626815795898,1.5239908695220947,1.2327812910079956,5.533154487609863,-1.2238165140151978
5_20251106_145820,1762412266222,5,0.358228862285614,0.6669852137565613,0.4107475280761719,0.5080248713493347,2.388279676437378,1.1556010246276855,-1.5234918594360352,0.33445584774017334,6.561817169189453,0.30017438530921936,-1.7882643938064575,-0.4425600469112396,0.21678443253040314,17.638294219970703,-33.263771057128906,4.142468452453613,-0.8983254432678223,1.0286626815795898,1.5239908695220947,1.2327812910079956,5.533154487609863,-1.2238165140151978
5_20251106_145820,1762412266241,5,0.371489942073822,0.6642380952835083,0.39870795607566833,0.5116785168647766,2.3258092403411865,1.148088812828064,-1.5118402242660522,0.4038847088813782,7.063381195068359,0.24989831447601318,-1.9379262924194336,-0.19271637499332428,0.28336870670318604,17.72708511352539,-33.404197692871094,2.412386894226074,-0.6631173491477966,1.2241811752319336,1.178971767425537,1.0670020580291748,5.839200019836426,-0.9290735125541687
5_20251106_145820,1762412266259,5,0.383586585521698,0.6595562100410461,0.3872840106487274,0.5175500512123108,2.219600200653076,1.1459519863128662,-1.4808307886123657,1.0275473594665527,7.484742164611816,1.2015525102615356,-2.079035997390747,0.005814669653773308,0.356672465801239,17.792816162109375,-33.52123260498047,0.695368766784668,0.0312497615814209,1.0820679664611816,1.467217206954956,0.9962975978851318,6.402674198150635,-0.2656647562980652
5_20251106_145820,1762412266278,5,0.39559313654899597,0.6533019542694092,0.37500032782554626,0.5254306793212891,2.1694693565368652,1.1505916118621826,-1.4583377838134766,1.591357707977295,7.852236747741699,1.5762289762496948,-2.1108009815216064,0.14142663776874542,0.42631107568740845,17.801040649414062,-33.57958221435547,-1.0092649459838867,0.4760481119155884,1.1596498489379883,1.4735150337219238,1.1153095960617065,6.692586898803711,0.10271397233009338
5_20251106_145820,1762412266298,5,0.40726277232170105,0.6460711359977722,0.3619430661201477,0.5345337390899658,2.120596408843994,1.159131407737732,-1.4305065870285034,1.5291111469268799,7.975532531738281,1.8587327003479004,-2.1138551235198975,0.11393772810697556,0.5344340801239014,17.752056121826172,-33.57884979248047,-2.742063522338867,0.33104121685028076,1.0263566970825195,1.4048149585723877,1.1980699300765991,6.949175834655762,0.4539176821708679
5_20251106_145820,1762412266317,5,0.4181261658668518,0.6382309794425964,0.3486088216304779,0.5443377494812012,2.0767135620117188,1.1695525646209717,-1.400470495223999,1.2801247835159302,7.938424110412598,2.2465767860412598,-2.0246689319610596,0.030249254778027534,0.8062689304351807,17.54568099975586,-33.552268981933594,-4.3317670822143555,0.06564390659332275,0.7913985252380371,1.4341273307800293,1.2144808769226074,7.1470255851745605,0.8124494552612305
5_20251106_145820,1762412266337,5,0.4278276860713959,0.6313663125038147,0.33378180861473083,0.5540124177932739,2.0353665351867676,1.1840462684631348,-1.3640077114105225,2.048630714416504,8.486673355102539,2.9265007972717285,-1.9092156887054443,0.10416389256715775,1.0469496250152588,17.21483612060547,-33.57196807861328,-5.859585762023926,0.6673198938369751,1.0717182159423828,1.6912410259246826,1.3813108205795288,7.414955139160156,1.235259771347046
5_20251106_145820,1762412266356,5,0.43520206212997437,0.6256367564201355,0.317681223154068,0.5641422271728516,2.0353665351867676,1.1840462684631348,-1.3640077114105225,2.048630714416504,8.486673355102539,2.9265007972717285,-1.8346900939941406,0.27398428320884705,1.0255693197250366,17.21483612060547,-33.57196807861328,-5.859585762023926,0.6673198938369751,1.0717182159423828,1.6912410259246826,1.3813108205795288,7.414955139160156,1.235259771347046
5_20251106_145820,1762412266375,5,0.44077035784721375,0.6196094751358032,0.3018294870853424,0.5750691294670105,2.002558469772339,1.2014925479888916,-1.3265650272369385,3.0242257118225098,9.006193161010742,2.888195276260376,-1.9654152393341064,0.32529690861701965,0.8667445182800293,16.887603759765625,-33.540367126464844,-7.494479179382324,1.3143320083618164,1.2729902267456055,1.3223483562469482,1.7098937034606934,7.733202934265137,1.5658469200134277
5_20251106_145820,1762412266394,5,0.44642117619514465,0.6122034788131714,0.2870510518550873,0.5861030220985413,1.9507399797439575,1.2461988925933838,-1.2420612573623657,2.629199504852295,9.684919357299805,4.427600383758545,-2.072927236557007,0.3472880423069,0.7702279090881348,16.499042510986328,-33.513267517089844,-9.077759742736816,0.5247683525085449,1.3270511627197266,2.04067063331604,2.10443115234375,8.357868194580078,2.386929750442505
5_20251106_145820,1762412266414,5,0.45372337102890015,0.6035077571868896,0.27181142568588257,0.5966842174530029,1.9275304079055786,1.2757673263549805,-1.188917875289917,2.4604153633117676,10.164936065673828,5.168574333190918,-1.9128808975219727,0.5421538352966309,0.6779873371124268,16.031352996826172,-33.35576629638672,-10.445308685302734,0.2847874164581299,1.4456539154052734,2.225315570831299,2.1756279468536377,8.719282150268555,2.943258762359619
5_20251106_145820,1762412266432,5,0.4608425796031952,0.5937252640724182,0.2578325569629669,0.6071547269821167,1.9275304079055786,1.2757673263549805,-1.188917875289917,2.4604153633117676,10.164936065673828,5.168574333190918,-1.7412278652191162,0.7700063586235046,0.6755439043045044,15.491562843322754,-33.178443908691406,-11.761207580566406,0.2847874164581299,1.4456539154052734,2.225315570831299,2.1756279468536377,8.719282150268555,2.943258762359619
5_20251106_145820,1762412266451,5,0.46670401096343994,0.5827704071998596,0.24635262787342072,0.6179614663124084,1.8877737522125244,1.33473539352417,-1.082130789756775,2.333528518676758,10.033260345458984,5.558812141418457,-1.6563177108764648,0.9202790856361389,0.7952733039855957,14.942912101745605,-32.93939971923828,-13.049245834350586,0.14261794090270996,0.8784847259521484,1.7781453132629395,2.190910577774048,9.154775619506836,3.7806668281555176
5_20251106_145820,1762412266470,5,0.4707629978656769,0.5712360143661499,0.2360786348581314,0.6295542120933533,1.8697261810302734,1.3671356439590454,-1.020865797996521,2.420912981033325,10.220001220703125,6.542786598205566,-1.511542797088623,0.987474262714386,0.9150028228759766,14.391257286071777,-32.73925018310547,-14.21642780303955,0.18400192260742188,0.8521804809570312,2.209695816040039,2.2369110584259033,9.367820739746094,4.333090782165527
5_20251106_145820,1762412266490,5,0.4732268452644348,0.5594858527183533,0.22611334919929504,0.6417980194091797,1.852001428604126,1.4007765054702759,-0.952897846698761,2.343104839324951,9.775896072387695,6.537998676300049,-1.2226037979125977,0.9929720163345337,1.0787146091461182,13.84485912322998,-32.42755889892578,-15.232556343078613,0.08495497703552246,0.3264608383178711,1.7639265060424805,2.2581498622894287,9.449435234069824,4.774072170257568
5_20251106_145820,1762412266509,5,0.4732884168624878,0.54851233959198,0.217031791806221,0.6542396545410156,1.8375334739685059,1.4290876388549805,-0.8914527893066406,2.5370266437530518,9.265952110290527,6.127410888671875,-0.9965837597846985,1.0009132623672485,1.2741912603378296,13.290827751159668,-32.01769256591797,-16.098384857177734,0.22310137748718262,-0.14678668975830078,1.0826711654663086,2.313925266265869,9.412738800048828,5.044739723205566
5_20251106_145820,1762412266528,5,0.47060683369636536,0.538988471031189,0.20863446593284607,0.6667025089263916,1.824548363685608,1.458718180656433,-0.8225932121276855,3.066122531890869,9.329397201538086,6.360835075378418,-0.8970128893852234,1.0412304401397705,1.4281291961669922,12.731886863708496,-31.67249298095703,-16.776304244995117,0.6017577648162842,-0.06667327880859375,1.0528764724731445,2.464364767074585,9.39607048034668,5.307958602905273
5_20251106_145820,1762412266547,5,0.4656766951084137,0.5302306413650513,0.20041602849960327,0.6795837879180908,1.8164135217666626,1.484757661819458,-0.75898277759552,3.669435501098633,9.682525634765625,7.231090068817139,-0.7852246165275574,1.1230862140655518,1.519758939743042,12.135794639587402,-31.33049774169922,-17.374597549438477,0.9640564918518066,0.22916412353515625,1.5385050773620605,2.705379009246826,9.453361511230469,5.692584991455078
5_20251106_145820,1762412266567,5,0.45911532640457153,0.5216420292854309,0.19233277440071106,0.6929003000259399,1.811784029006958,1.5140691995620728,-0.6822535395622253,4.014185428619385,9.587959289550781,7.550702095031738,-0.578752338886261,1.280078411102295,1.5179262161254883,11.4827241897583,-31.118858337402344,-17.815298080444336,1.0470452308654785,0.10767841339111328,1.4864935874938965,2.9671401977539062,9.480280876159668,6.064208507537842
5_20251106_145820,1762412266586,5,0.4510590732097626,0.5127604007720947,0.1855337768793106,0.7065406441688538,1.8119057416915894,1.5392236709594727,-0.6128649711608887,4.461882591247559,9.465859413146973,7.317277908325195,-0.36983656883239746,1.40164053440094,1.4653918743133545,10.769244194030762,-30.887290954589844,-18.136276245117188,1.195793867111206,-0.011536598205566406,1.002455711364746,3.2660887241363525,9.477396011352539,6.314822196960449
5_20251106_145820,1762412266606,5,0.44164279103279114,0.5036144256591797,0.1810736507177353,0.7200947403907776,1.8172602653503418,1.5645723342895508,-0.5406764149665833,4.987386703491211,9.541274070739746,7.2358784675598145,-0.3527323603630066,1.5128179788589478,1.3645992279052734,10.036442756652832,-30.770606994628906,-18.35198974609375,1.3770384788513184,0.051102638244628906,0.7368450164794922,3.6103482246398926,9.490171432495117,6.499033451080322
5_20251106_145820,1762412266626,5,0.43168556690216064,0.49391481280326843,0.17820273339748383,0.733443558216095,1.8267333507537842,1.5885941982269287,-0.46848171949386597,5.053224563598633,9.470647811889648,7.688363075256348,-0.3423476815223694,1.5849000215530396,1.2265437841415405,9.278070449829102,-30.66875457763672,-18.501365661621094,1.1543011665344238,-0.015619277954101562,0.9514636993408203,3.898923397064209,9.48626708984375,6.736899375915527
5_20251106_145820,1762412266644,5,0.42240890860557556,0.48324069380760193,0.17606769502162933,0.7463573813438416,1.8267333507537842,1.5885941982269287,-0.46848171949386597,5.053224563598633,9.470647811889648,7.688363075256348,-0.22139647603034973,1.6001715660095215,1.1685116291046143,8.465130805969238,-30.65918731689453,-18.53290557861328,1.1543011665344238,-0.015619277954101562,0.9514636993408203,3.898923397064209,9.48626708984375,6.736899375915527
5_20251106_145820,1762412266662,5,0.4133029580116272,0.47217074036598206,0.17512868344783783,0.7586602568626404,1.8510793447494507,1.627919316291809,-0.33998528122901917,5.364457607269287,9.467056274414062,8.01994514465332,-0.06501509249210358,1.5897868871688843,1.194167971611023,7.6471452713012695,-30.74925994873047,-18.647655487060547,0.9900374412536621,0.010497093200683594,0.8558158874511719,4.374420166015625,9.456559181213379,7.164129257202148
5_20251106_145820,1762412266681,5,0.4034014344215393,0.4615657329559326,0.17519031465053558,0.7704107165336609,1.8681480884552002,1.6472725868225098,-0.2738545835018158,5.710404396057129,9.522120475769043,7.966078758239746,0.08953367173671722,1.6001715660095215,1.1801180839538574,6.830680847167969,-30.80248260498047,-18.68051528930664,1.0687875747680664,0.05244922637939453,0.6415596008300781,4.6416168212890625,9.469671249389648,7.324519157409668
5_20251106_145820,1762412266700,5,0.39194998145103455,0.451325386762619,0.1766509860754013,0.7819686532020569,1.888228416442871,1.6654999256134033,-0.20823241770267487,6.0503668785095215,9.411992073059082,8.344346046447754,0.21109575033187866,1.681416630744934,1.0927643775939941,6.099729537963867,-30.83824920654297,-18.6420955657959,1.126999855041504,-0.046143531799316406,0.815861701965332,4.923367023468018,9.458135604858398,7.528484344482422
5_20251106_145820,1762412266719,5,0.38069644570350647,0.44133567810058594,0.1790538728237152,0.7926113605499268,1.909332275390625,1.6802198886871338,-0.14783848822116852,6.154509544372559,8.773965835571289,8.070221900939941,0.38763564825057983,1.7858744859695435,0.9999130368232727,5.390132904052734,-30.922935485839844,-18.576719284057617,0.9849138259887695,-0.5473356246948242,0.43339014053344727,5.169595718383789,9.321301460266113,7.636831760406494
5_20251106_145820,1762412266737,5,0.3692823052406311,0.4306793212890625,0.1832980364561081,0.8028373122215271,1.93332839012146,1.6917548179626465,-0.08839656412601471,6.202392101287842,8.145514488220215,7.228695869445801,0.5372975468635559,1.7321183681488037,1.037786602973938,4.726559638977051,-31.054527282714844,-18.52395248413086,0.8262367248535156,-0.9406299591064453,-0.3265085220336914,5.376155376434326,9.08614444732666,7.555204391479492
5_20251106_145820,1762412266758,5,0.35713738203048706,0.42022013664245605,0.18914151191711426,0.8124613165855408,1.9627057313919067,1.700810194015503,-0.027482077479362488,6.623753547668457,8.174243927001953,7.107794284820557,0.5372975468635559,1.7321183681488037,1.037786602973938,4.099347114562988,-31.18401336669922,-18.442684173583984,0.9980783462524414,-0.7295207977294922,-0.3579282760620117,5.625675201416016,8.903764724731445,7.465722560882568
5_20251106_145820,1762412266779,5,0.34405866265296936,0.41113123297691345,0.19458401203155518,0.8214206099510193,1.9922808408737183,1.7072815895080566,0.025492776185274124,7.20192813873291,8.425623893737793,7.6907572746276855,0.5427952408790588,1.5659631490707397,1.0457278490066528,3.4572277069091797,-31.36438751220703,-18.376476287841797,1.261002540588379,-0.38251304626464844,0.18002796173095703,5.940925598144531,8.808136940002441,7.5107293128967285
5_20251106_145820,1762412266796,5,0.33096542954444885,0.40280935168266296,0.19934070110321045,0.8297408223152161,1.9922808408737183,1.7072815895080566,0.025492776185274124,7.20192813873291,8.425623893737793,7.6907572746276855,0.618542492389679,1.6276605129241943,0.8068797588348389,3.4572277069091797,-31.36438751220703,-18.376476287841797,1.261002540588379,-0.38251304626464844,0.18002796173095703,5.940925598144531,8.808136940002441,7.5107293128967285
5_20251106_145820,1762412266815,5,0.3189997971057892,0.39396727085113525,0.2051185518503189,0.8372307419776917,2.0575273036956787,1.7134655714035034,0.12688679993152618,7.222278118133545,7.694226264953613,7.9409403800964355,0.6997874975204468,1.6362125873565674,0.6291181445121765,2.9538965225219727,-31.661338806152344,-18.252958297729492,0.8003382682800293,-0.7954511642456055,0.27993154525756836,6.421939849853516,8.489677429199219,7.661008834838867
5_20251106_145820,1762412266835,5,0.3083478808403015,0.38443055748939514,0.21247859299182892,0.8437935709953308,2.0934298038482666,1.7113310098648071,0.17820271849632263,7.328815460205078,7.256106376647949,8.15281867980957,0.8005802035331726,1.5690175294876099,0.605294406414032,2.5346689224243164,-31.965965270996094,-18.05868911743164,0.7255005836486816,-0.9868564605712891,0.3934478759765625,6.6033148765563965,8.242962837219238,7.759370803833008
5_20251106_145820,1762412266853,5,0.29805129766464233,0.37513670325279236,0.2206813097000122,0.8495514392852783,2.1263668537139893,1.70652174949646,0.22257502377033234,7.5131611824035645,7.031060695648193,7.96129035949707,0.8940424919128418,1.4401249885559082,0.7012001872062683,2.150787353515625,-32.293052673339844,-17.89051055908203,0.727877140045166,-0.9695219993591309,0.16153573989868164,6.785284042358398,8.000582695007324,7.799754619598389
5_20251106_145820,1762412266873,5,0.28703436255455017,0.3668786585330963,0.22917285561561584,0.8546877503395081,2.164721965789795,1.69900381565094,0.2701946496963501,7.965645790100098,7.197450637817383,8.05705451965332,0.9410790801048279,1.3234498500823975,0.7555671334266663,1.7970342636108398,-32.71929168701172,-17.614839553833008,0.9442892074584961,-0.6425056457519531,0.2058401107788086,7.021356582641602,7.839956283569336,7.851214408874512
5_20251106_145820,1762412266891,5,0.2751951515674591,0.3601662516593933,0.23730112612247467,0.8592066764831543,2.2010111808776855,1.6907875537872314,0.31134554743766785,8.440874099731445,7.113656997680664,8.028325080871582,0.9838396310806274,1.2922956943511963,0.6602722406387329,1.5732097625732422,-33.20038604736328,-17.253997802734375,1.1356139183044434,-0.5810394287109375,0.14168834686279297,7.305260181427002,7.694696426391602,7.886636734008789
5_20251106_145820,1762412266911,5,0.2634676694869995,0.354040265083313,0.2455281764268875,0.8631084561347961,2.2440531253814697,1.6795223951339722,0.3552970290184021,8.863431930541992,6.841926574707031,8.055856704711914,1.0400391817092896,1.2244898080825806,0.490451842546463,1.423924446105957,-33.639991760253906,-16.79480743408203,1.246537208557129,-0.6822161674499512,0.1353759765625,7.616894721984863,7.524142742156982,7.920480728149414
5_20251106_145820,1762412266929,5,0.2527400553226471,0.3480486571788788,0.25449228286743164,0.8661513924598694,2.2440531253814697,1.6795223951339722,0.3552970290184021,8.863431930541992,6.841926574707031,8.055856704711914,1.0626411437988281,1.12675142288208,0.35056382417678833,1.2578153610229492,-34.167884826660156,-16.378503799438477,1.246537208557129,-0.6822161674499512,0.1353759765625,7.616894721984863,7.524142742156982,7.920480728149414
5_20251106_145820,1762412266949,5,0.2433937042951584,0.3424456715583801,0.2638973295688629,0.8682445883750916,2.2867519855499268,1.6666791439056396,0.3948781490325928,9.021444320678711,6.548649787902832,7.889467239379883,1.1389992237091064,0.9734243750572205,0.25282546877861023,1.2621259689331055,-34.673316955566406,-15.833422660827637,1.1236395835876465,-0.7803945541381836,-0.024810791015625,7.8978047370910645,7.329044342041016,7.914278030395508
5_20251106_145820,1762412266968,5,0.23518019914627075,0.33781948685646057,0.27356940507888794,0.8693261742591858,2.33457350730896,1.6488169431686401,0.43540433049201965,8.789215087890625,6.0231451988220215,7.605766296386719,1.1750402450561523,0.8402557969093323,0.1978476345539093,1.2648425102233887,-35.19251251220703,-15.166959762573242,0.7131280899047852,-1.0447192192077637,-0.2468090057373047,8.07608699798584,7.067864418029785,7.852575302124023
5_20251106_145820,1762412266987,5,0.22771884500980377,0.33433809876441956,0.2835986018180847,0.8694446682929993,2.4112634658813477,1.609609842300415,0.49472180008888245,7.908186912536621,5.170845985412598,6.8420491218566895,1.1750402450561523,0.8402557969093323,0.1978476345539093,1.3052301406860352,-35.68462371826172,-14.457948684692383,-0.17774677276611328,-1.288404941558838,-0.7139630317687988,8.085933685302734,6.4592509269714355,7.556012153625488
5_20251106_145820,1762412267005,5,0.22067199647426605,0.33162784576416016,0.29349562525749207,0.8690150380134583,2.445495843887329,1.5860646963119507,0.5180288553237915,7.681944847106934,5.051140785217285,6.306967735290527,1.1591578722000122,0.7406849265098572,0.17463476955890656,1.3569011688232422,-36.188758850097656,-13.721678733825684,-0.32319164276123047,-1.126488208770752,-0.9992356300354004,8.005136489868164,6.177628993988037,7.306203365325928
5_20251106_145820,1762412267025,5,0.21406079828739166,0.3295082747936249,0.3028430938720703,0.8682674169540405,2.480374574661255,1.558743953704834,0.5389198660850525,7.592166423797607,5.365964889526367,6.085514068603516,0.9465768337249756,0.5085563063621521,0.1673043966293335,1.4229717254638672,-36.65428924560547,-12.997642517089844,-0.33037614822387695,-0.6493315696716309,-0.9765510559082031,7.922542572021484,6.015296459197998,7.062065124511719
5_20251106_145820,1762412267045,5,0.2081942856311798,0.32817021012306213,0.3109388053417206,0.8673387765884399,2.5108673572540283,1.5334057807922363,0.5548812747001648,7.563436985015869,5.766976356506348,6.0077056884765625,0.8512819409370422,0.4260895848274231,0.0903354361653328,1.5255274772644043,-37.09435272216797,-12.068863868713379,-0.28728437423706055,-0.1986560821533203,-0.8434872627258301,7.85072135925293,5.965632438659668,6.851192951202393
5_20251106_145820,1762412267064,5,0.20336800813674927,0.32739710807800293,0.31782054901123047,0.8662809729576111,2.5391440391540527,1.5077255964279175,0.5673105120658875,7.121726036071777,5.853164196014404,5.689290523529053,0.8512819409370422,0.4260895848274231,0.0903354361653328,1.6787314414978027,-37.505455017089844,-11.20517635345459,-0.5831961631774902,-0.08997488021850586,-0.9295220375061035,7.704922199249268,5.94313907623291,6.618812561035156
5_20251106_145820,1762412267083,5,0.19962820410728455,0.32662829756736755,0.324629008769989,0.8649153113365173,2.560938835144043,1.484220266342163,0.5742599964141846,6.347234725952148,5.823237895965576,5.063233852386475,0.8353994488716125,0.2611561119556427,-0.08131755143404007,1.9347662925720215,-37.810142517089844,-10.294904708862305,-1.0861501693725586,-0.09592103958129883,-1.2444629669189453,7.433384895324707,5.919158935546875,6.30769681930542
5_20251106_145820,1762412267101,5,0.19701755046844482,0.32628941535949707,0.3315654993057251,0.8630084991455078,2.576894998550415,1.463377594947815,0.5769726634025574,5.947420597076416,6.045888900756836,4.869311332702637,0.7333850264549255,0.2409975826740265,-0.07887408882379532,2.167344570159912,-38.09198760986328,-9.3175048828125,-1.1887717247009277,0.10138416290283203,-1.1507081985473633,7.136192321777344,5.944504737854004,6.02001953125
5_20251106_145820,1762412267120,5,0.19445227086544037,0.32616573572158813,0.33837318420410156,0.8609923720359802,2.5893023014068604,1.4430475234985352,0.5764339566230774,5.8265180587768555,6.152426719665527,4.832203388214111,0.6099904179573059,0.24893882870674133,-0.06910025328397751,2.394871234893799,-38.260520935058594,-8.44635009765625,-1.0477395057678223,0.1663374900817871,-0.9502530097961426,6.874257564544678,5.98608922958374,5.782456398010254
5_20251106_145820,1762412267138,5,0.19285160303115845,0.32585784792900085,0.3438819348812103,0.8592846393585205,2.5975027084350586,1.4253722429275513,0.5731317400932312,5.669704914093018,6.238614082336426,4.638280868530273,0.5635647177696228,0.19823706150054932,-0.03611356019973755,2.611114501953125,-38.417030334472656,-7.60245418548584,-0.9636425971984863,0.20202016830444336,-0.9153404235839844,6.633347511291504,6.036593914031982,5.553621292114258
5_20251106_145820,1762412267157,5,0.1912807673215866,0.32553839683532715,0.34876784682273865,0.8577863574028015,2.6024844646453857,1.4083958864212036,0.5671250820159912,5.451841831207275,6.309239864349365,4.571246147155762,0.5122520327568054,0.09744437038898468,0.034135885536670685,2.7802209854125977,-38.55133819580078,-6.78702449798584,-0.9452047348022461,0.21811676025390625,-0.7859001159667969,6.3970465660095215,6.091123104095459,5.357146263122559
5_20251106_145820,1762412267177,5,0.18961527943611145,0.32590344548225403,0.3529774248600006,0.8562942743301392,2.6040396690368652,1.3925811052322388,0.5597845911979675,5.269890308380127,6.473235607147217,4.918390274047852,0.4829305410385132,0.017421098425984383,0.10072013735771179,2.9529380798339844,-38.63433074951172,-6.078669548034668,-0.9017248153686523,0.30568981170654297,-0.35100460052490234,6.171615123748779,6.167545795440674,5.269394874572754
5_20251106_145820,1762412267196,5,0.18782635033130646,0.3272656500339508,0.35645148158073425,0.8547284603118896,2.602325439453125,1.3792093992233276,0.5524529814720154,5.035268783569336,6.4959797859191895,5.011760711669922,0.500645637512207,-0.008846084587275982,0.13920462131500244,3.0812253952026367,-38.656639099121094,-5.479086875915527,-0.9090771675109863,0.26274728775024414,-0.20610761642456055,5.944345951080322,6.233232498168945,5.217868328094482
5_20251106_145820,1762412267216,5,0.1856977790594101,0.3290567100048065,0.3596423864364624,0.8531678318977356,2.602325439453125,1.3792093992233276,0.5524529814720154,5.035268783569336,6.4959797859191895,5.011760711669922,0.500645637512207,-0.008846084587275982,0.13920462131500244,3.0812253952026367,-38.656639099121094,-5.479086875915527,-0.9090771675109863,0.26274728775024414,-0.20610761642456055,5.944345951080322,6.233232498168945,5.217868328094482
5_20251106_145820,1762412267234,5,0.1832670420408249,0.33097898960113525,0.3629697859287262,0.8515391945838928,2.59020733833313,1.3557507991790771,0.535983145236969,4.642636775970459,6.297269344329834,4.787912368774414,0.4859848618507385,0.07239893078804016,0.20578888058662415,5.003290176391602,-40.11552429199219,-2.7715816497802734,-0.8643131256103516,0.015127182006835938,-0.2883872985839844,5.5069499015808105,6.282142162322998,5.076299667358398
5_20251106_145820,1762412267255,5,0.18029795587062836,0.33243852853775024,0.3662641644477844,0.8501928448677063,2.5796263217926025,1.3431391716003418,0.5255274176597595,4.664183616638184,6.08180046081543,4.620325088500977,0.4859848618507385,0.07239893078804016,0.20578888058662415,4.9720458984375,-40.17286682128906,-2.2194509506225586,-0.6742129325866699,-0.16027355194091797,-0.3647799491882324,5.3383965492248535,6.242074012756348,4.985105037689209
5_20251106_145820,1762412267274,5,0.17678116261959076,0.33361178636550903,0.3691512942314148,0.8492225408554077,2.569892644882202,1.3320565223693848,0.5157202482223511,4.8844404220581055,5.9118194580078125,4.459920883178711,0.4444460868835449,0.09500092267990112,0.29253166913986206,4.843992233276367,-40.24723815917969,-1.8607358932495117,-0.36316490173339844,-0.2642040252685547,-0.4201474189758301,5.247605323791504,6.176023483276367,4.880068302154541
5_20251106_145820,1762412267292,5,0.1727220118045807,0.3352299928665161,0.37118786573410034,0.8485325574874878,2.569892644882202,1.3320565223693848,0.5157202482223511,4.8844404220581055,5.9118194580078125,4.459920883178711,0.32471662759780884,-0.09558887034654617,0.43241971731185913,4.7044572830200195,-40.309844970703125,-1.5022468566894531,-0.36316490173339844,-0.2642040252685547,-0.4201474189758301,5.247605323791504,6.176023483276367,4.880068302154541
5_20251106_145820,1762412267311,5,0.16670972108840942,0.3372020721435547,0.3729959726333618,0.8481607437133789,2.5498383045196533,1.309767246246338,0.49410805106163025,5.079559326171875,6.201505661010742,4.558078765869141,0.32471662759780884,-0.09558887034654617,0.43241971731185913,0.3342423439025879,-28.76409912109375,-1.9109430313110352,-0.11578559875488281,0.04331398010253906,-0.20588207244873047,5.195344924926758,6.158191680908203,4.763960838317871
5_20251106_145820,1762412267330,5,0.16277603805065155,0.34016671776771545,0.3737143576145172,0.8474243879318237,2.5395169258117676,1.2999643087387085,0.4827335476875305,4.886835098266602,6.318816184997559,4.3892951011657715,0.19521325826644897,-0.03511326387524605,0.2815361022949219,0.11080217361450195,-28.818756103515625,-1.6502370834350586,-0.24680805206298828,0.12849998474121094,-0.29973268508911133,5.13364315032959,6.190316200256348,4.689027786254883
5_20251106_145820,1762412267349,5,0.1593686193227768,0.3422054946422577,0.3744319677352905,0.8469343185424805,2.5395169258117676,1.2999643087387085,0.4827335476875305,4.886835098266602,6.318816184997559,4.3892951011657715,0.062044765800237656,-0.007624355144798756,0.2338886559009552,-0.1599593162536621,-28.839874267578125,-1.2960872650146484,-0.24680805206298828,0.12849998474121094,-0.29973268508911133,5.13364315032959,6.190316200256348,4.689027786254883
5_20251106_145820,1762412267369,5,0.15679329633712769,0.3435964286327362,0.37447336316108704,0.8468335270881653,2.5188934803009033,1.2864474058151245,0.459105908870697,5.025691986083984,7.0478196144104,4.483861923217773,-0.03752618283033371,-0.03633499518036842,0.14348067343235016,-0.39418840408325195,-28.8818359375,-1.1302223205566406,-0.06391763687133789,0.6039624214172363,-0.11847352981567383,5.089609622955322,6.443857192993164,4.602335453033447
5_20251106_145820,1762412267388,5,0.15497320890426636,0.34446921944618225,0.3738487958908081,0.847089946269989,2.5088391304016113,1.2838681936264038,0.4481325149536133,4.856908798217773,7.349475860595703,4.562867164611816,-0.11144080758094788,-0.06748909503221512,0.04696404188871384,-0.6283187866210938,-28.923660278320312,-0.9778738021850586,-0.18616056442260742,0.7244949340820312,-0.03157472610473633,5.043069362640381,6.624980926513672,4.594441890716553
5_20251106_145820,1762412267407,5,0.15451277792453766,0.3452228307723999,0.3728450536727905,0.8473095893859863,2.498399019241333,1.2840559482574463,0.43835026025772095,4.719247817993164,7.586491584777832,4.828612327575684,-0.16764037311077118,-0.03511326387524605,-0.03244837373495102,-0.8359494209289551,-28.91461181640625,-0.7288742065429688,-0.25905752182006836,0.7692084312438965,0.18733644485473633,4.978305339813232,6.8172831535339355,4.641275882720947
5_20251106_145820,1762412267426,5,0.15492665767669678,0.34551742672920227,0.37163224816322327,0.8476467132568359,2.498399019241333,1.2840559482574463,0.43835026025772095,4.719247817993164,7.586491584777832,4.828612327575684,-0.14809271693229675,0.012534180656075478,-0.09231311827898026,-1.0069231986999512,-28.903045654296875,-0.49191951751708984,-0.25905752182006836,0.7692084312438965,0.18733644485473633,4.978305339813232,6.8172831535339355,4.641275882720947
5_20251106_145820,1762412267446,5,0.15556177496910095,0.34493714570999146,0.37072789669036865,0.8481625914573669,2.475661277770996,1.2918927669525146,0.42099854350090027,4.53131103515625,7.772034168243408,4.699330806732178,-0.1254906952381134,0.043077416718006134,-0.115525983273983,-1.1031861305236816,-28.872940063476562,-0.37340450286865234,-0.3075275421142578,0.6169781684875488,0.013788700103759766,4.838838577270508,7.155055999755859,4.685542106628418
5_20251106_145820,1762412267465,5,0.1562793105840683,0.34387147426605225,0.3703220784664154,0.8486405611038208,2.4642624855041504,1.2978273630142212,0.4135885238647461,4.348162651062012,7.804354667663574,4.6717987060546875,-0.12915588915348053,0.04185568913817406,-0.07032198458909988,-1.1843581199645996,-28.80328369140625,-0.3617372512817383,-0.39254093170166016,0.5194387435913086,-0.010994911193847656,4.740703582763672,7.284915924072266,4.682793617248535
5_20251106_145820,1762412267485,5,0.1570909172296524,0.34281331300735474,0.36989903450012207,0.8491031527519226,2.4502971172332764,1.3062742948532104,0.40547531843185425,4.343374252319336,7.842659950256348,4.712498664855957,-0.10899735987186432,0.013755910098552704,0.02008599415421486,-1.158958911895752,-28.7655029296875,-0.21128559112548828,-0.31786346435546875,0.446195125579834,0.02376413345336914,4.661237716674805,7.396464824676514,4.688734531402588
5_20251106_145820,1762412267503,5,0.15725024044513702,0.342106431722641,0.36929410696029663,0.8496219515800476,2.4385879039764404,1.3144044876098633,0.39878883957862854,4.5241289138793945,7.904906272888184,4.65623664855957,-0.06440422683954239,-0.0015157080488279462,0.07506381720304489,-1.111525535583496,-28.787307739257812,-0.22336769104003906,-0.10968732833862305,0.4067530632019043,-0.025998592376708984,4.633816242218018,7.498153209686279,4.682235240936279
5_20251106_145820,1762412267522,5,0.15677286684513092,0.3419543504714966,0.36868712306022644,0.8500348925590515,2.4268767833709717,1.3236337900161743,0.3916708827018738,4.645030975341797,7.890542030334473,4.53174352645874,-0.038747914135456085,0.0070363981649279594,0.07506381720304489,-1.0973105430603027,-28.73736572265625,-0.11369132995605469,0.008971691131591797,0.31391096115112305,-0.12039327621459961,4.636059284210205,7.57663106918335,4.65213680267334
5_20251106_145820,1762412267540,5,0.15608154237270355,0.3420459032058716,0.36829012632369995,0.8502973318099976,2.4165592193603516,1.332754373550415,0.38500070571899414,4.726430416107178,7.90730094909668,4.5449113845825195,-0.058906447142362595,0.030249254778027534,0.05857047438621521,-1.0977187156677246,-28.74951171875,-0.15450382232666016,0.0722966194152832,0.26453590393066406,-0.08578014373779297,4.6541337966918945,7.642765045166016,4.6306915283203125
5_20251106_145820,1762412267560,5,0.15571077167987823,0.34208640456199646,0.3678455650806427,0.8505414128303528,2.4059903621673584,1.3433823585510254,0.37846338748931885,4.759947776794434,7.9719414710998535,4.796292304992676,-0.06257163733243942,0.039412230253219604,0.053683556616306305,-1.0574517250061035,-28.6956787109375,-0.2736234664916992,0.08465099334716797,0.26334142684936523,0.13248062133789062,4.675296783447266,7.708600044250488,4.663811683654785
5_20251106_145820,1762412267579,5,0.1550140678882599,0.34178847074508667,0.3674607574939728,0.8509547114372253,2.396799087524414,1.3534601926803589,0.3729761838912964,4.801844120025635,7.885754108428955,4.814247131347656,-0.011258999817073345,0.045520879328250885,0.05551615357398987,-1.005183219909668,-28.629714965820312,-0.2703418731689453,0.10123777389526367,0.1417231559753418,0.12034845352172852,4.700606346130371,7.744030952453613,4.693898677825928
5_20251106_145820,1762412267598,5,0.15437141060829163,0.34148484468460083,0.3672208786010742,0.8512969017028809,2.3889617919921875,1.3624399900436401,0.3677121102809906,4.87725830078125,7.707393646240234,4.561670303344727,0.048605743795633316,0.027194933965802193,0.07567469030618668,-1.0415434837341309,-28.6318359375,-0.2988452911376953,0.14132165908813477,-0.029309749603271484,-0.10578298568725586,4.735936641693115,7.736703395843506,4.667453289031982
5_20251106_145820,1762412267617,5,0.15351128578186035,0.3413483202457428,0.3674297332763672,0.851417064666748,2.381100654602051,1.371360182762146,0.36136820912361145,4.871273040771484,7.552973747253418,4.408447742462158,0.057768721133470535,-0.03083721734583378,0.11782435327768326,-1.0909924507141113,-28.647567749023438,-0.3010711669921875,0.10826921463012695,-0.14698410034179688,-0.20720434188842773,4.763003826141357,7.699957847595215,4.615652084350586
5_20251106_145820,1762412267638,5,0.15224246680736542,0.3417024314403534,0.3678353726863861,0.851327657699585,2.3742783069610596,1.3794275522232056,0.35510095953941345,4.97541618347168,7.5661420822143555,4.536531448364258,0.015619046986103058,-0.061991315335035324,0.14531326293945312,-1.1413569450378418,-28.687744140625,-0.37140655517578125,0.16992998123168945,-0.10705280303955078,-0.06329679489135742,4.80548620223999,7.673194885253906,4.599828243255615
5_20251106_145820,1762412267655,5,0.15100984275341034,0.3426576852798462,0.3678015470504761,0.8511778712272644,2.3690640926361084,1.3862324953079224,0.3499550521373749,5.0568156242370605,7.635570526123047,4.686162948608398,-0.02164370007812977,-0.0528283417224884,0.12210040539503098,-1.1413569450378418,-28.687744140625,-0.37140655517578125,0.2010636329650879,-0.03009939193725586,0.06906747817993164,4.855751991271973,7.665669918060303,4.617095470428467
5_20251106_145820,1762412267675,5,0.14984232187271118,0.3436334729194641,0.3673924505710602,0.8511675000190735,2.3645243644714355,1.3936551809310913,0.3451044261455536,5.172929763793945,7.744502067565918,4.808261871337891,-0.058906447142362595,-0.0131221367046237,0.047574907541275024,-1.2235302925109863,-28.631057739257812,-0.3194551467895508,0.2537422180175781,0.0630655288696289,0.15293312072753906,4.919187545776367,7.681436538696289,4.655328750610352
5_20251106_145820,1762412267695,5,0.14928032457828522,0.3442413806915283,0.3668406903743744,0.8512585759162903,2.3612232208251953,1.4008656740188599,0.3417108654975891,5.251935005187988,7.733728408813477,5.054854393005371,-0.09678006172180176,0.02780579961836338,-0.05810468643903732,-1.2832484245300293,-28.610183715820312,-0.29434680938720703,0.26619815826416016,0.04183387756347656,0.31962060928344727,4.985736846923828,7.69189453125,4.735233783721924
5_20251106_145820,1762412267713,5,0.14929330348968506,0.34399038553237915,0.3663511276245117,0.8515685200691223,2.358914613723755,1.406835913658142,0.33945196866989136,5.194476127624512,7.612826824188232,4.996198654174805,-0.06806941330432892,0.02475147508084774,-0.1259106695652008,-1.342261791229248,-28.576751708984375,-0.26897430419921875,0.1669912338256836,-0.06325435638427734,0.2087717056274414,5.027484893798828,7.67608118057251,4.787426948547363
5_20251106_145820,1762412267731,5,0.1498897671699524,0.34313252568244934,0.3661896288394928,0.8518792390823364,2.3567848205566406,1.4121602773666382,0.33767274022102356,5.053224563598633,7.535018444061279,4.936346530914307,-0.042413100600242615,-0.04671969637274742,-0.14301487803459167,-1.3929100036621094,-28.605712890625,-0.20388221740722656,0.02059173583984375,-0.11284971237182617,0.11913585662841797,5.032632827758789,7.6478681564331055,4.817210674285889
5_20251106_145820,1762412267752,5,0.1509278565645218,0.3425880968570709,0.36634257435798645,0.8518493175506592,2.3567848205566406,1.4121602773666382,0.33767274022102356,5.053224563598633,7.535018444061279,4.936346530914307,-0.042413100600242615,-0.04671969637274742,-0.14301487803459167,-1.4449939727783203,-28.683013916015625,-0.3290739059448242,0.02059173583984375,-0.11284971237182617,0.11913585662841797,5.032632827758789,7.6478681564331055,4.817210674285889
5_20251106_145820,1762412267770,5,0.15216445922851562,0.3427923917770386,0.3664008677005768,0.8515220284461975,2.3506317138671875,1.421301245689392,0.33579716086387634,4.6785478591918945,7.523047924041748,5.054854393005371,-0.0014851642772555351,-0.1811099350452423,-0.05505036562681198,-1.4567713737487793,-28.671661376953125,-0.28875160217285156,-0.24806547164916992,-0.07050037384033203,0.15841245651245117,4.9266133308410645,7.59354829788208,4.89644193649292
5_20251106_145820,1762412267789,5,0.15325559675693512,0.3438938558101654,0.36631813645362854,0.850917637348175,2.346071720123291,1.4253145456314087,0.33504971861839294,4.548069953918457,7.494318962097168,4.860932350158691,0.0009582946076989174,-0.13224075734615326,-0.05199604481458664,-1.410649299621582,-28.71844482421875,-0.3148784637451172,-0.30283451080322266,-0.07938337326049805,-0.028407573699951172,4.85090446472168,7.573702335357666,4.889339923858643
5_20251106_145820,1762412267808,5,0.15385308861732483,0.3448788821697235,0.36644428968429565,0.8503566384315491,2.341059684753418,1.4285774230957031,0.3343300521373749,4.5241289138793945,7.442845344543457,4.872902870178223,-0.03080667182803154,-0.06993255019187927,-0.07032198458909988,-1.4198050498962402,-28.657135009765625,-0.24646759033203125,-0.26142072677612305,-0.10468578338623047,-0.013149738311767578,4.785549640655518,7.5475311279296875,4.88605260848999
5_20251106_145820,1762412267828,5,0.1544979065656662,0.3450605571269989,0.36681610345840454,0.8500056266784668,2.3353803157806396,1.4317150115966797,0.3340143859386444,4.566025733947754,7.506289005279541,5.018942832946777,-0.049132611602544785,-0.032669804990291595,-0.09842175990343094,-1.3752045631408691,-28.74078369140625,-0.35448360443115234,-0.17561912536621094,-0.03299379348754883,0.10631227493286133,4.741644859313965,7.53928279876709,4.912630558013916
5_20251106_145820,1762412267846,5,0.15519115328788757,0.34471437335014343,0.36720508337020874,0.8498518466949463,2.3353803157806396,1.4317150115966797,0.3340143859386444,4.566025733947754,7.506289005279541,5.018942832946777,-0.03508272394537926,-0.03144807741045952,-0.13263019919395447,-1.34006929397583,-28.775131225585938,-0.44841766357421875,-0.17561912536621094,-0.03299379348754883,0.10631227493286133,4.741644859313965,7.53928279876709,4.912630558013916
5_20251106_145820,1762412267866,5,0.1562134474515915,0.3440801203250885,0.36754316091537476,0.8497754335403442,2.322911262512207,1.436179280281067,0.3332989811897278,4.317039489746094,7.373416900634766,4.775941848754883,-0.042413100600242615,-0.03816758841276169,-0.1210237517952919,-1.2460064888000488,-28.8314208984375,-0.45932960510253906,-0.2956881523132324,-0.11228322982788086,-0.11486959457397461,4.612727642059326,7.4857001304626465,4.890811443328857
5_20251106_145820,1762412267885,5,0.15715284645557404,0.3433556854724884,0.3680448830127716,0.849678099155426,2.322911262512207,1.436179280281067,0.3332989811897278,4.317039489746094,7.373416900634766,4.775941848754883,-0.07356719672679901,-0.024728568270802498,-0.07581976801156998,-1.2076430320739746,-28.803375244140625,-0.5113954544067383,-0.2956881523132324,-0.11228322982788086,-0.11486959457397461,4.612727642059326,7.4857001304626465,4.890811443328857
5_20251106_145820,1762412267906,5,0.1579986810684204,0.3427397608757019,0.3682681620121002,0.8496731519699097,2.308607339859009,1.4406777620315552,0.3324908912181854,4.494202136993408,7.622403144836426,5.009366512298584,-0.0692911446094513,-0.025950297713279724,-0.04344393312931061,-1.1201143264770508,-28.748397827148438,-0.4258089065551758,-0.06321573257446289,0.10185432434082031,0.09656000137329102,4.557417869567871,7.5205488204956055,4.912806510925293
5_20251106_145820,1762412267924,5,0.1585795283317566,0.342128187417984,0.3683813810348511,0.8497623205184937,2.308607339859009,1.4406777620315552,0.3324908912181854,4.494202136993408,7.622403144836426,5.009366512298584,-0.0381370484828949,-0.018619921058416367,-0.04222220927476883,-1.058690071105957,-28.743743896484375,-0.4909381866455078,-0.06321573257446289,0.10185432434082031,0.09656000137329102,4.557417869567871,7.5205488204956055,4.912806510925293
5_20251106_145820,1762412267942,5,0.15892469882965088,0.34173718094825745,0.36857858300209045,0.849769651889801,2.2962212562561035,1.4454494714736938,0.3324025273323059,4.367315292358398,7.633176803588867,4.852553367614746,-0.0381370484828949,-0.018619921058416367,-0.04222220927476883,-0.9957571029663086,-28.713851928710938,-0.5690555572509766,-0.13411474227905273,0.06633615493774414,-0.06097078323364258,4.501430034637451,7.566840648651123,4.913524150848389
5_20251106_145820,1762412267962,5,0.15918152034282684,0.34095945954322815,0.36893004179000854,0.8498814702033997,2.288966655731201,1.4481350183486938,0.3319261372089386,4.452305793762207,7.5457916259765625,4.816641807556152,-0.04424569383263588,0.04124482348561287,-0.05749382823705673,-0.9467291831970215,-28.721893310546875,-0.7025203704833984,-0.03929948806762695,-0.016839027404785156,-0.07750558853149414,4.491605281829834,7.562630653381348,4.8941473960876465
5_20251106_145820,1762412267980,5,0.15966615080833435,0.3397068977355957,0.36936628818511963,0.8501026034355164,2.2830450534820557,1.4501389265060425,0.33107027411460876,4.485823631286621,7.488333225250244,4.704118728637695,-0.05463039129972458,0.10233129560947418,-0.06848939508199692,-0.9442062377929688,-28.672073364257812,-0.6609153747558594,-0.0046253204345703125,-0.059438228607177734,-0.1520228385925293,4.490448951721191,7.547771453857422,4.856141567230225
5_20251106_145820,1762412267999,5,0.16004079580307007,0.33822566270828247,0.36979764699935913,0.850435197353363,2.2830450534820557,1.4501389265060425,0.33107027411460876,4.485823631286621,7.488333225250244,4.704118728637695,-0.07051287591457367,0.11210513114929199,-0.02023107372224331,-0.831514835357666,-28.614425659179688,-0.6824779510498047,-0.0046253204345703125,-0.059438228607177734,-0.1520228385925293,4.490448951721191,7.547771453857422,4.856141567230225
5_20251106_145820,1762412268018,5,0.16029934585094452,0.3371003568172455,0.36999809741973877,0.8507460951805115,2.2719972133636475,1.4541183710098267,0.3286062777042389,4.677350997924805,7.701408386230469,4.899238109588623,-0.08761708438396454,0.062014222145080566,0.03535761311650276,-0.8288073539733887,-28.575942993164062,-0.7627840042114258,0.14509057998657227,0.1312704086303711,0.060141563415527344,4.532260417938232,7.570137977600098,4.839096546173096
5_20251106_145820,1762412268038,5,0.16020601987838745,0.33645662665367126,0.3698680102825165,0.8510749936103821,2.267638921737671,1.45720636844635,0.328442245721817,4.781494140625,7.874980449676514,5.1446332931518555,-0.05401952937245369,0.04063395783305168,0.05246182531118393,-0.7919526100158691,-28.573150634765625,-0.8018617630004883,0.1993870735168457,0.24387407302856445,0.2444295883178711,4.582107067108154,7.631106376647949,4.900203704833984
5_20251106_145820,1762412268057,5,0.16012299060821533,0.33651605248451233,0.3694799542427063,0.8512356281280518,2.2643706798553467,1.4607181549072266,0.32851818203926086,4.824587821960449,7.895330429077148,4.981834411621094,0.00340175349265337,0.058959901332855225,0.034135885536670685,-0.7818942070007324,-28.62164306640625,-0.8970413208007812,0.1939845085144043,0.2113790512084961,0.06530475616455078,4.630603313446045,7.683951377868652,4.916529655456543
5_20251106_145820,1762412268076,5,0.15968787670135498,0.3363143801689148,0.3694765269756317,0.8513985872268677,2.2618606090545654,1.4646408557891846,0.3285987079143524,4.847332000732422,7.897724151611328,4.9195876121521,0.017451642081141472,0.05101865902543068,0.034135885536670685,-0.7818942070007324,-28.62164306640625,-0.8970413208007812,0.17338275909423828,0.1710186004638672,0.0024466514587402344,4.673949241638184,7.726705551147461,4.917140960693359
5_20251106_145820,1762412268097,5,0.15928274393081665,0.33619454503059387,0.3698744475841522,0.8513489961624146,2.2600886821746826,1.4692254066467285,0.3290287256240845,4.91676139831543,7.944409370422363,5.032110691070557,0.026003751903772354,0.055294714868068695,0.02924896590411663,-0.8055610656738281,-28.610671997070312,-0.8977584838867188,0.19424962997436523,0.1741628646850586,0.09197568893432617,4.7225117683410645,7.770246505737305,4.9401350021362305
