session_id,timestamp,label,quaternion_w,quaternion_x,quaternion_y,quaternion_z,position_x,position_y,position_z,accelerometer_x,accelerometer_y,accelerometer_z,gyroscope_x,gyroscope_y,gyroscope_z,magnetometer_x,magnetometer_y,magnetometer_z,linear_acceleration_x,linear_acceleration_y,linear_acceleration_z,gravity_x,gravity_y,gravity_z
3_20251106_182811,1762424854196,3,0.008212994784116745,-0.15961259603500366,-0.823113739490509,-0.5449221134185791,0.8682307600975037,1.8701492547988892,-2.039583683013916,1.7397918701171875,8.631516456604004,-4.169608116149902,0.021296273916959763,0.09065613895654678,-0.05191968381404877,5.0792155265808105,-13.312660217285156,44.60835647583008,-0.07859468460083008,-0.12572383880615234,-0.06081676483154297,1.8183865547180176,8.757240295410156,-4.108791351318359
3_20251106_182811,1762424854214,3,0.008450268767774105,-0.15932580828666687,-0.8236028552055359,-0.5442630052566528,0.8682307600975037,1.8701492547988892,-2.039583683013916,1.7397918701171875,8.631516456604004,-4.169608116149902,0.06344594061374664,0.04972820729017258,-0.023819904774427414,5.045687675476074,-13.2529296875,44.675785064697266,-0.07859468460083008,-0.12572383880615234,-0.06081676483154297,1.8183865547180176,8.757240295410156,-4.108791351318359
3_20251106_182811,1762424854234,3,0.008536633104085922,-0.15964044630527496,-0.8241108655929565,-0.5433998107910156,0.8688713312149048,1.8661775588989258,-2.0514492988586426,1.8894230127334595,8.819453239440918,-4.122923374176025,0.08360447734594345,-0.04067976772785187,0.0684206634759903,5.0654296875,-13.114280700683594,44.70621109008789,0.06806361675262451,0.05169105529785156,0.0034046173095703125,1.821359395980835,8.767762184143066,-4.126327991485596
3_20251106_182811,1762424854253,3,0.008484140038490295,-0.16044074296951294,-0.8245851397514343,-0.5424445867538452,0.8699567317962646,1.8648488521575928,-2.057220697402954,2.0677833557128906,8.921201705932617,-4.233051300048828,0.09826523065567017,-0.09810105711221695,0.07636190205812454,5.107316970825195,-13.023460388183594,44.65546417236328,0.19713926315307617,0.12275123596191406,-0.08537864685058594,1.8706440925598145,8.798450469970703,-4.147672653198242
3_20251106_182811,1762424854272,3,0.008177528157830238,-0.1617344617843628,-0.8249703645706177,-0.5414785742759705,0.8699567317962646,1.8648488521575928,-2.057220697402954,2.0677833557128906,8.921201705932617,-4.233051300048828,0.08971312642097473,-0.18606556951999664,0.054370779544115067,5.121222496032715,-12.98553466796875,44.710811614990234,0.19713926315307617,0.12275123596191406,-0.08537864685058594,1.8706440925598145,8.798450469970703,-4.147672653198242
3_20251106_182811,1762424854291,3,0.007117038127034903,-0.16368468105793,-0.8252918124198914,-0.5404165983200073,0.87391597032547,1.863977313041687,-2.0699574947357178,2.1036949157714844,9.116321563720703,-4.278539657592773,0.031070109456777573,-0.24287597835063934,0.005501599982380867,5.156976699829102,-12.995841979980469,44.72553634643555,0.14378976821899414,0.22910213470458984,-0.05157804489135742,1.9599051475524902,8.887219429016113,-4.226961612701416
3_20251106_182811,1762424854310,3,0.0053094252943992615,-0.16572684049606323,-0.8255203366279602,-0.5394651293754578,0.8759625554084778,1.8645514249801636,-2.0755200386047363,1.951669454574585,9.104351043701172,-4.07743501663208,-0.0373467393219471,-0.12864428758621216,-0.08001945912837982,5.170164108276367,-12.982086181640625,44.68574142456055,-0.006588578224182129,0.1737051010131836,0.11962127685546875,1.958258032798767,8.930645942687988,-4.197056293487549
3_20251106_182811,1762424854330,3,0.003888811683282256,-0.1662658154964447,-0.8253403902053833,-0.5395866632461548,0.8759625554084778,1.8645514249801636,-2.0755200386047363,1.951669454574585,9.104351043701172,-4.07743501663208,-0.0935462936758995,0.018574107438325882,-0.15087978541851044,5.24378776550293,-12.965034484863281,44.715980529785156,-0.006588578224182129,0.1737051010131836,0.11962127685546875,1.958258032798767,8.930645942687988,-4.197056293487549
3_20251106_182811,1762424854349,3,0.0030956969130784273,-0.16520260274410248,-0.8249004483222961,-0.5405901670455933,0.8786622285842896,1.867087721824646,-2.082948684692383,1.7769004106521606,9.09238052368164,-3.665649890899658,-0.08682678639888763,0.10653863102197647,-0.16004274785518646,5.242378234863281,-12.990150451660156,44.7154541015625,-0.12353837490081787,0.0994882583618164,0.37189340591430664,1.9004387855529785,8.992892265319824,-4.037543296813965
3_20251106_182811,1762424854369,3,0.0029067371506243944,-0.1633354127407074,-0.8244101405143738,-0.5419049859046936,0.8791146278381348,1.8687567710876465,-2.084622621536255,1.699092149734497,9.123502731323242,-3.6596648693084717,0.014576760120689869,0.07538451999425888,-0.12644518911838531,5.33140230178833,-12.921531677246094,44.693172454833984,-0.16107726097106934,0.10448837280273438,0.30230259895324707,1.8601694107055664,9.019014358520508,-3.9619674682617188
3_20251106_182811,1762424854388,3,0.002798301400616765,-0.16180320084095,-0.8242637515068054,-0.5425875186920166,0.8788857460021973,1.8705437183380127,-2.0855345726013184,1.620086908340454,9.09238052368164,-3.7147293090820312,0.1330845206975937,-0.0046387529000639915,-0.04458930715918541,5.379230976104736,-12.942794799804688,44.62702560424805,-0.19206607341766357,0.05869293212890625,0.19779062271118164,1.8121529817581177,9.033687591552734,-3.912519931793213
3_20251106_182811,1762424854407,3,0.002585758687928319,-0.16122198104858398,-0.8246073126792908,-0.5422394275665283,0.8788857460021973,1.8705437183380127,-2.0855345726013184,1.620086908340454,9.09238052368164,-3.7147293090820312,0.22715769708156586,-0.07122301310300827,0.07391845434904099,5.356367111206055,-12.919136047363281,44.61305618286133,-0.19206607341766357,0.05869293212890625,0.19779062271118164,1.8121529817581177,9.033687591552734,-3.912519931793213
3_20251106_182811,1762424854425,3,0.0025739120319485664,-0.16173838078975677,-0.8253287672996521,-0.5409865975379944,0.8786292672157288,1.8741055727005005,-2.088085174560547,2.030674934387207,9.066045761108398,-4.193549156188965,0.2919093668460846,-0.1274225413799286,0.21014127135276794,5.3568878173828125,-12.895233154296875,44.7352294921875,0.18275630474090576,0.01802825927734375,-0.21433377265930176,1.8479186296463013,9.048017501831055,-3.979215383529663
3_20251106_182811,1762424854444,3,0.0029996272642165422,-0.16388297080993652,-0.8262903094291687,-0.5388670563697815,0.8809897899627686,1.8765852451324463,-2.0917468070983887,2.565755844116211,9.269542694091797,-4.647231101989746,0.30901357531547546,-0.15613320469856262,0.3457532823085785,5.38568639755249,-12.818031311035156,44.71076202392578,0.5742697715759277,0.17722034454345703,-0.5344128608703613,1.9914860725402832,9.09232234954834,-4.112818241119385
3_20251106_182811,1762424854463,3,0.004074161872267723,-0.1676866114139557,-0.8271397948265076,-0.5363807678222656,0.8868206143379211,1.8802387714385986,-2.097092390060425,3.3402469158172607,9.608308792114258,-4.856714248657227,0.23937498033046722,-0.1982828676700592,0.4129483997821808,5.390422821044922,-12.730400085449219,44.73964309692383,1.0790088176727295,0.41278934478759766,-0.5951166152954102,2.2612380981445312,9.19551944732666,-4.261597633361816
3_20251106_182811,1762424854483,3,0.005321227479726076,-0.17311079800128937,-0.8275287747383118,-0.5340416431427002,0.8980714082717896,1.8859987258911133,-2.102860689163208,4.044112205505371,9.888418197631836,-4.400638580322266,0.13430623710155487,-0.21721966564655304,0.36407920718193054,5.410968780517578,-12.579055786132812,44.75681686401367,1.4262993335723877,0.5543193817138672,-0.11123275756835938,2.6178128719329834,9.334098815917969,-4.289405822753906
3_20251106_182811,1762424854502,3,0.006484059616923332,-0.17932945489883423,-0.8271377682685852,-0.532580554485321,0.9134126901626587,1.892997145652771,-2.1072912216186523,4.508566856384277,9.990167617797852,-4.006809234619141,0.13980402052402496,-0.2043915092945099,0.22052597999572754,5.528706073760986,-12.421760559082031,44.81846237182617,1.5126030445098877,0.5248556137084961,0.22607707977294922,2.9959638118743896,9.465312004089355,-4.23288631439209
3_20251106_182811,1762424854521,3,0.0063798679038882256,-0.1826295256614685,-0.8272781372070312,-0.5312406420707703,0.9327477812767029,1.9006717205047607,-2.1112117767333984,4.731218338012695,9.839339256286621,-4.127711296081543,0.13980402052402496,-0.2043915092945099,0.22052597999572754,5.528706073760986,-12.421760559082031,44.81846237182617,1.3882036209106445,0.2992219924926758,0.08413982391357422,3.343014717102051,9.540117263793945,-4.211851119995117
3_20251106_182811,1762424854540,3,0.005566186737269163,-0.18473799526691437,-0.8279346227645874,-0.5294951796531677,0.9551776647567749,1.9086357355117798,-2.1153786182403564,4.823390960693359,9.78547191619873,-4.373106479644775,0.23937498033046722,-0.29296690225601196,-0.10323231667280197,5.532625675201416,-12.358436584472656,44.765716552734375,1.1843011379241943,0.19628334045410156,-0.12900447845458984,3.639089822769165,9.589188575744629,-4.2441020011901855
3_20251106_182811,1762424854559,3,0.0033637480810284615,-0.18612699210643768,-0.8290342092514038,-0.5273023247718811,0.979071855545044,1.9167007207870483,-2.119431734085083,4.581587314605713,9.771106719970703,-4.278539657592773,0.2540357708930969,-0.42674627900123596,-0.2779396176338196,5.626399040222168,-12.190574645996094,44.86719512939453,0.7539980411529541,0.14553451538085938,-0.027550220489501953,3.827589273452759,9.625572204589844,-4.2509894371032715
3_20251106_182811,1762424854579,3,0.0007016781019046903,0.1868124157190323,0.830527663230896,0.5247136354446411,0.979071855545044,1.9167007207870483,-2.119431734085083,4.581587314605713,9.771106719970703,-4.278539657592773,0.2699182331562042,-0.4658416211605072,-0.4587555527687073,5.828832626342773,-12.040145874023438,44.918495178222656,0.7539980411529541,0.14553451538085938,-0.027550220489501953,3.827589273452759,9.625572204589844,-4.2509894371032715
3_20251106_182811,1762424854597,3,0.006001969799399376,0.1862756609916687,0.8323767781257629,0.5219331979751587,1.0064029693603516,1.9247205257415771,-2.1234233379364014,4.112343788146973,9.394037246704102,-4.124120235443115,0.25342488288879395,-0.4298006296157837,-0.5821502208709717,6.0582475662231445,-11.849777221679688,44.903987884521484,0.22780346870422363,-0.1852283477783203,0.10149526596069336,3.884540319442749,9.579265594482422,-4.225615501403809
3_20251106_182811,1762424854616,3,0.011663882061839104,0.1844647079706192,0.8343580365180969,0.519310474395752,1.0440161228179932,1.9325441122055054,-2.130560874938965,3.1846303939819336,8.727280616760254,-4.520343780517578,0.25281402468681335,-0.4707285463809967,-0.6407933235168457,6.3339948654174805,-11.694313049316406,44.93119812011719,-0.5163178443908691,-0.6010046005249023,-0.2129502296447754,3.7009482383728027,9.328285217285156,-4.307393550872803
3_20251106_182811,1762424854636,3,0.017906591296195984,0.1822039633989334,0.8364782929420471,0.5165125131607056,1.0603419542312622,1.9329739809036255,-2.1356418132781982,2.8063628673553467,8.429215431213379,-4.624486923217773,0.27847033739089966,-0.5531952381134033,-0.6352955102920532,6.613181114196777,-11.464584350585938,45.06812286376953,-0.7156684398651123,-0.7192564010620117,-0.2536745071411133,3.522031307220459,9.14847183227539,-4.37081241607666
3_20251106_182811,1762424854654,3,0.024809371680021286,0.18042053282260895,0.8386791348457336,0.5132740139961243,1.0716687440872192,1.9309720993041992,-2.1410233974456787,2.453233242034912,8.186214447021484,-4.792073726654053,0.33039385080337524,-0.6539879441261292,-0.587037205696106,6.98854398727417,-11.25347900390625,45.19492721557617,-0.8550384044647217,-0.769805908203125,-0.3370089530944824,3.308271646499634,8.95602035522461,-4.45506477355957
3_20251106_182811,1762424854674,3,0.03213028609752655,0.17934468388557434,0.8410302996635437,0.5093830823898315,1.0716687440872192,1.9309720993041992,-2.1410233974456787,2.453233242034912,8.186214447021484,-4.792073726654053,0.3731543719768524,-0.7743282914161682,-0.51312255859375,7.369335651397705,-10.95379638671875,45.25599670410156,-0.8550384044647217,-0.769805908203125,-0.3370089530944824,3.308271646499634,8.95602035522461,-4.45506477355957
3_20251106_182811,1762424854693,3,0.04002309963107109,0.1794435977935791,0.843384861946106,0.5048763751983643,1.0855467319488525,1.919354796409607,-2.156644582748413,2.124044895172119,7.973138809204102,-5.166749954223633,0.3951455056667328,-0.8922252058982849,-0.4465382695198059,7.885398864746094,-10.608924865722656,45.44490051269531,-0.7761003971099854,-0.6382379531860352,-0.4821009635925293,2.9001452922821045,8.611376762390137,-4.6846489906311035
3_20251106_182811,1762424854712,3,0.048511113971471786,0.18064270913600922,0.8456287980079651,0.4999268352985382,1.0880080461502075,1.9108197689056396,-2.165532350540161,2.0019454956054688,7.8019609451293945,-5.0626068115234375,0.4146931767463684,-0.9942395687103271,-0.4049994647502899,8.448263168334961,-10.321502685546875,45.41818618774414,-0.718559741973877,-0.6475324630737305,-0.3023662567138672,2.7205052375793457,8.449493408203125,-4.76024055480957
3_20251106_182811,1762424854730,3,0.05755568668246269,0.18263059854507446,0.8477704524993896,0.49458935856819153,1.0881974697113037,1.9012136459350586,-2.1743288040161133,1.8978023529052734,7.667891025543213,-5.08415412902832,0.41835838556289673,-1.0321131944656372,-0.3738453686237335,9.02926254272461,-9.920814514160156,45.448402404785156,-0.6581623554229736,-0.625281810760498,-0.25913095474243164,2.555964708328247,8.293172836303711,-4.825023174285889
3_20251106_182811,1762424854751,3,0.06673436611890793,0.18502673506736755,0.8497419953346252,0.4891321063041687,1.0859707593917847,1.8884596824645996,-2.1845364570617676,1.7577475309371948,7.433269023895264,-5.128444671630859,0.4208018183708191,-1.0638781785964966,-0.36162808537483215,9.758001327514648,-9.485343933105469,45.47151565551758,-0.6385737657546997,-0.6879229545593262,-0.2427372932434082,2.3963212966918945,8.12119197845459,-4.885707378387451
3_20251106_182811,1762424854769,3,0.07607167959213257,0.18762536346912384,0.8515827655792236,0.48354586958885193,1.0816673040390015,1.874782681465149,-2.1949007511138916,1.5602344274520874,7.331520080566406,-5.305607795715332,0.4208018183708191,-1.0638781785964966,-0.36162808537483215,10.473652839660645,-9.063491821289062,45.520904541015625,-0.6688693761825562,-0.631737232208252,-0.3359203338623047,2.2291038036346436,7.963257312774658,-4.969687461853027
3_20251106_182811,1762424854789,3,0.0857982188463211,0.19048084318637848,0.8532752394676208,0.4777835011482239,1.0816673040390015,1.874782681465149,-2.1949007511138916,1.5602344274520874,7.331520080566406,-5.305607795715332,0.4104171395301819,-1.178109884262085,-0.35613030195236206,11.325945854187012,-8.606170654296875,45.41402053833008,-0.6688693761825562,-0.631737232208252,-0.3359203338623047,2.2291038036346436,7.963257312774658,-4.969687461853027
3_20251106_182811,1762424854807,3,0.09601546078920364,0.1935659646987915,0.8547652363777161,0.47189998626708984,1.0742207765579224,1.8572453260421753,-2.207242250442505,1.355539083480835,7.015499114990234,-5.404963493347168,0.3474980592727661,-1.2239247560501099,-0.33108481764793396,12.279548645019531,-8.079307556152344,45.27183151245117,-0.6988518238067627,-0.7582063674926758,-0.3482208251953125,2.0543909072875977,7.77370548248291,-5.0567426681518555
3_20251106_182811,1762424854826,3,0.10658816993236542,0.19696274399757385,0.8557794690132141,0.466354101896286,1.0557177066802979,1.8221032619476318,-2.228605031967163,0.8779162168502808,6.621669769287109,-5.199070930480957,0.3474980592727661,-1.2239247560501099,-0.33108481764793396,13.218343734741211,-7.6031951904296875,45.10106658935547,-0.8004426956176758,-0.7585620880126953,-0.06465911865234375,1.6783589124679565,7.380231857299805,-5.134411811828613
3_20251106_182811,1762424854846,3,0.1174187883734703,0.200140580534935,0.8562208414077759,0.4615652561187744,1.0423438549041748,1.8009278774261475,-2.2388789653778076,0.5535159111022949,6.346348285675049,-5.043454170227051,0.14408008754253387,-1.176888108253479,-0.3707910478115082,14.19318962097168,-7.136985778808594,44.904476165771484,-0.8998744487762451,-0.8271069526672363,0.07276630401611328,1.45339035987854,7.173455238342285,-5.116220474243164
3_20251106_182811,1762424854865,3,0.12817126512527466,0.20270687341690063,0.8562129139900208,0.4575822651386261,1.0262107849121094,1.7774516344070435,-2.2480783462524414,0.20397746562957764,5.948927879333496,-4.911778926849365,0.04084394499659538,-1.1084712743759155,-0.368958443403244,15.227568626403809,-6.680305480957031,44.8046875,-0.9995303153991699,-0.9796218872070312,0.16355323791503906,1.2035077810287476,6.928549766540527,-5.075332164764404
3_20251106_182811,1762424854883,3,0.138543501496315,0.20474447309970856,0.8557469844818115,0.45451343059539795,1.0262107849121094,1.7774516344070435,-2.2480783462524414,0.20397746562957764,5.948927879333496,-4.911778926849365,-0.044066254049539566,-1.0834258794784546,-0.368958443403244,16.31903076171875,-6.3060760498046875,44.55682373046875,-0.9995303153991699,-0.9796218872070312,0.16355323791503906,1.2035077810287476,6.928549766540527,-5.075332164764404
3_20251106_182811,1762424854904,3,0.14888975024223328,0.20648609101772308,0.8548696637153625,0.45209863781929016,0.9844756722450256,1.722366213798523,-2.2612128257751465,-0.6806420087814331,5.084658622741699,-4.249810218811035,-0.10087667405605316,-1.067543387413025,-0.3634606897830963,17.31451416015625,-5.9129486083984375,44.292049407958984,-1.284956932067871,-1.2586164474487305,0.5980501174926758,0.604314923286438,6.34327507019043,-4.847860336303711
3_20251106_182811,1762424854924,3,0.15926918387413025,0.20812365412712097,0.8536565899848938,0.45009809732437134,0.9531248807907104,1.6851986646652222,-2.2642312049865723,-1.1881909370422363,4.895524978637695,-4.070252895355225,-0.13569596409797668,-1.0522717237472534,-0.33108481764793396,18.344327926635742,-5.566856384277344,43.946590423583984,-1.4340046644210815,-1.1582002639770508,0.6220860481262207,0.2458137571811676,6.053725242614746,-4.692338943481445
3_20251106_182811,1762424854941,3,0.16945487260818481,0.20968309044837952,0.8521928191184998,0.4484254717826843,0.9260038733482361,1.6558252573013306,-2.2652699947357178,-1.6239168643951416,5.102614402770996,-4.156440734863281,-0.15768709778785706,-1.1017518043518066,-0.31031545996665955,18.344327926635742,-5.566856384277344,43.946590423583984,-1.4957845211029053,-0.7608890533447266,0.42871856689453125,-0.12813234329223633,5.863503456115723,-4.5851593017578125
3_20251106_182811,1762424854960,3,0.18003810942173004,0.21145272254943848,0.8504350781440735,0.4468044638633728,0.8914059400558472,1.6223235130310059,-2.265511989593506,-2.242791175842285,5.020017623901367,-4.271357536315918,-0.16135229170322418,-1.140236258506775,-0.350021630525589,19.306869506835938,-5.3377532958984375,43.59630584716797,-1.6917271614074707,-0.6747889518737793,0.2510414123535156,-0.5510640740394592,5.6948065757751465,-4.522398948669434
3_20251106_182811,1762424854980,3,0.19109700620174408,0.21289923787117004,0.84859699010849,0.44501572847366333,0.8914059400558472,1.6223235130310059,-2.265511989593506,-2.242791175842285,5.020017623901367,-4.271357536315918,-0.16807179152965546,-1.1371818780899048,-0.4111081063747406,20.216632843017578,-5.186897277832031,43.2154426574707,-1.6917271614074707,-0.6747889518737793,0.2510414123535156,-0.5510640740394592,5.6948065757751465,-4.522398948669434
3_20251106_182811,1762424855000,3,0.2024681121110916,0.21373917162418365,0.8467757701873779,0.4430496394634247,0.8468203544616699,1.5832279920578003,-2.264575719833374,-3.014888286590576,4.525636672973633,-4.167214393615723,-0.2542037069797516,-0.9966831207275391,-0.41232985258102417,21.128414154052734,-4.998504638671875,42.8488883972168,-1.9710593223571777,-0.9353361129760742,0.2841477394104004,-1.0438289642333984,5.460972785949707,-4.451362133026123
3_20251106_182811,1762424855019,3,0.2129218429327011,0.2135608047246933,0.8448293805122375,0.4419495463371277,0.7512702941894531,1.513361930847168,-2.2633771896362305,-4.702727794647217,4.629779815673828,-4.64244270324707,-0.3763766288757324,-0.8696231842041016,-0.3701801896095276,22.025585174560547,-4.860595703125,42.426719665527344,-2.4650392532348633,-0.5350279808044434,-0.15561771392822266,-2.2376885414123535,5.1648077964782715,-4.486824989318848
3_20251106_182811,1762424855037,3,0.22248859703540802,0.21273043751716614,0.8425105214118958,0.4420640170574188,0.6937927007675171,1.477555751800537,-2.262941360473633,-5.218656539916992,4.507680416107178,-4.443732738494873,-0.5608577728271484,-0.7743282914161682,-0.2052467316389084,22.863632202148438,-4.7010040283203125,41.94856262207031,-2.3847744464874268,-0.5257019996643066,0.03447389602661133,-2.8338820934295654,5.033382415771484,-4.478206634521484
3_20251106_182811,1762424855056,3,0.23112308979034424,0.2124628722667694,0.8392109274864197,0.44403451681137085,0.631903886795044,1.4423537254333496,-2.2607579231262207,-5.489189147949219,4.60105037689209,-3.8332371711730957,-0.5608577728271484,-0.7743282914161682,-0.2052467316389084,23.585376739501953,-4.650367736816406,41.59904479980469,-2.1242456436157227,-0.34586572647094727,0.5159754753112793,-3.364943504333496,4.946916103363037,-4.349212646484375
3_20251106_182811,1762424855075,3,0.23801572620868683,0.213006392121315,0.8349069356918335,0.44822677969932556,0.631903886795044,1.4423537254333496,-2.2607579231262207,-5.489189147949219,4.60105037689209,-3.8332371711730957,-0.8485751152038574,-0.5782407522201538,0.340255469083786,24.249805450439453,-4.765342712402344,41.16303634643555,-2.1242456436157227,-0.34586572647094727,0.5159754753112793,-3.364943504333496,4.946916103363037,-4.349212646484375
3_20251106_182811,1762424855094,3,0.243202805519104,0.21495941281318665,0.8296492099761963,0.454232394695282,0.5006504058837891,1.382058024406433,-2.247170925140381,-5.492780685424805,6.215869903564453,-2.788212776184082,-0.8485751152038574,-0.5782407522201538,0.340255469083786,24.939311981201172,-4.866172790527344,40.728271484375,-1.353771686553955,0.9567337036132812,1.0718204975128174,-4.13900899887085,5.259136199951172,-3.8600332736968994
3_20251106_182811,1762424855113,3,0.24737820029258728,0.217961385846138,0.8237959742546082,0.4611475467681885,0.43317466974258423,1.3586560487747192,-2.2336907386779785,-5.800422191619873,6.306845664978027,-1.8856377601623535,-0.8864487409591675,-0.4707285165786743,0.5687189102172852,25.575347900390625,-5.046195983886719,40.357540130615234,-1.3291306495666504,0.8381671905517578,1.5795164108276367,-4.471291542053223,5.4686784744262695,-3.4651541709899902
3_20251106_182811,1762424855133,3,0.2507701814174652,0.22106681764125824,0.8178125619888306,0.46842968463897705,0.3609742224216461,1.3376455307006836,-2.2143607139587402,-6.025467395782471,6.255373001098633,-1.5408875942230225,-0.8864487409591675,-0.4707285165786743,0.5687189102172852,26.065357208251953,-5.44842529296875,39.9769287109375,-1.2433409690856934,0.6293554306030273,1.5394132137298584,-4.782126426696777,5.6260175704956055,-3.080300807952881
3_20251106_182811,1762424855151,3,0.2520420551300049,0.22359396517276764,0.8119195103645325,0.4767255485057831,0.3609742224216461,1.3376455307006836,-2.2143607139587402,-6.025467395782471,6.255373001098633,-1.5408875942230225,-0.9114941358566284,-0.2508172392845154,0.6658463478088379,26.447616577148438,-6.033348083496094,39.642765045166016,-1.2433409690856934,0.6293554306030273,1.5394132137298584,-4.782126426696777,5.6260175704956055,-3.080300807952881
3_20251106_182811,1762424855170,3,0.25102952122688293,0.22683534026145935,0.8057940602302551,0.4860306680202484,0.23018579185009003,1.3155957460403442,-2.174781560897827,-5.503553867340088,8.19459342956543,-2.3572750091552734,-0.9334852695465088,-0.07366646826267242,0.8796490430831909,26.756755828857422,-6.623039245605469,39.30565643310547,-0.4117250442504883,1.789449691772461,0.42653799057006836,-5.0918288230896,6.405143737792969,-2.783812999725342
3_20251106_182811,1762424855189,3,0.24904733896255493,0.2307969480752945,0.7995966672897339,0.4953315556049347,0.1670137345790863,1.3137727975845337,-2.153275728225708,-5.262947082519531,8.50103759765625,-2.0388600826263428,-0.9041638374328613,-0.034571126103401184,0.9816634058952332,26.959247589111328,-7.38232421875,38.9611930847168,-0.13689470291137695,1.6767148971557617,0.5959625244140625,-5.126052379608154,6.824322700500488,-2.6348226070404053
3_20251106_182811,1762424855210,3,0.24625828862190247,0.23389628529548645,0.7933279275894165,0.5052525997161865,0.10111892968416214,1.321053147315979,-2.1291344165802,-4.996005058288574,9.567608833312988,-2.1693384647369385,-1.073984146118164,0.32522818446159363,0.9138574004173279,26.972305297851562,-8.266944885253906,38.647544860839844,0.10403776168823242,2.1946287155151367,0.3723874092102051,-5.100042819976807,7.372980117797852,-2.5417258739471436
3_20251106_182811,1762424855229,3,0.24210426211357117,0.2352953851222992,0.7870131134986877,0.5163641571998596,0.0482514351606369,1.335291862487793,-2.108851432800293,-4.779338836669922,10.747900009155273,-2.287846088409424,-1.083757996559143,0.5384199619293213,0.8075669407844543,26.959793090820312,-9.1663818359375,38.40023422241211,0.2565631866455078,2.6999359130859375,0.20310378074645996,-5.03590202331543,8.047964096069336,-2.490949869155884
3_20251106_182811,1762424855247,3,0.23673303425312042,0.23474740982055664,0.7812493443489075,0.5277315974235535,-0.003073744475841522,1.358402967453003,-2.0886378288269043,-4.420224189758301,11.267419815063477,-2.536832571029663,-1.0391649007797241,0.7088512182235718,0.7141046524047852,26.74959945678711,-10.11700439453125,38.22538375854492,0.4925422668457031,2.5755653381347656,-0.03670620918273926,-4.912766456604004,8.691854476928711,-2.500126361846924
3_20251106_182811,1762424855266,3,0.23041130602359772,0.23280741274356842,0.7761236429214478,0.5388352274894714,-0.04952889680862427,1.3886991739273071,-2.0685338973999023,-4.073080062866211,11.731874465942383,-2.1717326641082764,-1.0171737670898438,0.7448922395706177,0.6762310266494751,26.439800262451172,-11.111656188964844,38.04581832885742,0.6717491149902344,2.432016372680664,0.26271486282348633,-4.744829177856445,9.299858093261719,-2.4344475269317627
3_20251106_182811,1762424855285,3,0.22386646270751953,0.2305094450712204,0.7711538076400757,0.549609899520874,-0.04952889680862427,1.3886991739273071,-2.0685338973999023,-4.073080062866211,11.731874465942383,-2.1717326641082764,-1.0128977298736572,0.8469066619873047,0.6597377061843872,25.964645385742188,-12.230453491210938,37.9385986328125,0.6717491149902344,2.432016372680664,0.26271486282348633,-4.744829177856445,9.299858093261719,-2.4344475269317627
3_20251106_182811,1762424855304,3,0.2165568768978119,0.22753393650054932,0.7662725448608398,0.5604978203773499,-0.1244807094335556,1.467105507850647,-2.025820255279541,-3.1477608680725098,12.919347763061523,-1.208107829093933,-1.009232521057129,1.0008445978164673,0.6090359687805176,25.45766830444336,-13.264007568359375,37.858787536621094,1.1033310890197754,2.3988304138183594,0.8645330667495728,-4.251091957092285,10.520517349243164,-2.072640895843506
3_20251106_182811,1762424855323,3,0.2082851380109787,0.22334212064743042,0.761613130569458,0.5715601444244385,-0.15532749891281128,1.5179977416992188,-1.9983192682266235,-2.703655481338501,13.043840408325195,-0.5245926380157471,-1.009232521057129,1.0008445978164673,0.6090359687805176,24.730751037597656,-14.312660217285156,37.85124588012695,1.2379491329193115,2.018657684326172,1.238438606262207,-3.9416046142578125,11.025182723999023,-1.763031244277954
3_20251106_182811,1762424855344,3,0.19913874566555023,0.2178676426410675,0.7572045922279358,0.5826822519302368,-0.15532749891281128,1.5179977416992188,-1.9983192682266235,-2.703655481338501,13.043840408325195,-0.5245926380157471,-0.8950008153915405,1.2512991428375244,0.49724772572517395,24.004749298095703,-15.336875915527344,37.91181182861328,1.2379491329193115,2.018657684326172,1.238438606262207,-3.9416046142578125,11.025182723999023,-1.763031244277954
3_20251106_182811,1762424855363,3,0.18918201327323914,0.2116207480430603,0.7533996105194092,0.5931406617164612,-0.19872522354125977,1.6237906217575073,-1.9291309118270874,-2.212864875793457,12.408206939697266,1.1129708290100098,-0.6744786500930786,1.3148289918899536,0.5601667165756226,23.173301696777344,-16.29290008544922,37.969547271728516,1.1485295295715332,0.8226966857910156,1.9496207237243652,-3.3613944053649902,11.58551025390625,-0.8366498947143555
3_20251106_182811,1762424855380,3,0.1779794543981552,0.20585185289382935,0.7505223155021667,0.602216362953186,-0.21084678173065186,1.6715474128723145,-1.8933582305908203,-1.522167682647705,12.153236389160156,0.4653671681880951,-0.3525528907775879,1.3319332599639893,0.7489239573478699,23.173301696777344,-16.29290008544922,37.969547271728516,1.471381425857544,0.4541807174682617,1.0416136980056763,-2.993549108505249,11.699055671691895,-0.5762465000152588
3_20251106_182811,1762424855400,3,0.1648130565881729,0.20172184705734253,0.748934268951416,0.6092966794967651,-0.21663236618041992,1.7227740287780762,-1.853905439376831,-0.6878242492675781,11.967693328857422,-0.019437797367572784,-0.10087667405605316,1.155393362045288,0.9169117212295532,22.196338653564453,-17.234283447265625,38.11654281616211,1.8445799350738525,0.21491050720214844,0.4454469680786133,-2.5324041843414307,11.752782821655273,-0.46488475799560547
3_20251106_182811,1762424855421,3,0.1513666808605194,0.20038573443889618,0.7481179237365723,0.6142094731330872,-0.21427534520626068,1.7741354703903198,-1.8119510412216187,-0.10725535452365875,11.831230163574219,0.31094783544540405,-0.019020799547433853,1.0491029024124146,0.9004184007644653,21.209796905517578,-18.13811492919922,38.19625473022461,1.9401191473007202,0.06275749206542969,0.6206660866737366,-2.0473744869232178,11.768472671508789,-0.3097182512283325
3_20251106_182811,1762424855438,3,0.13862982392311096,0.19997452199459076,0.7475206851959229,0.618065357208252,-0.20761772990226746,1.8132705688476562,-1.7778338193893433,0.15848958492279053,11.602592468261719,0.5335990190505981,0.015187625773251057,1.2311404943466187,0.6890591979026794,20.255088806152344,-18.902633666992188,38.32040023803711,1.7646913528442383,-0.1327047348022461,0.6746538281440735,-1.6062017679214478,11.735297203063965,-0.14105480909347534
3_20251106_182811,1762424855457,3,0.12576249241828918,0.19713358581066132,0.7475505471229553,0.6216834783554077,-0.20761772990226746,1.8132705688476562,-1.7778338193893433,0.15848958492279053,11.602592468261719,0.5335990190505981,0.054282963275909424,1.5646727085113525,0.5589450597763062,19.218101501464844,-19.39765167236328,38.48698043823242,1.7646913528442383,-0.1327047348022461,0.6746538281440735,-1.6062017679214478,11.735297203063965,-0.14105480909347534
3_20251106_182811,1762424855476,3,0.11116766184568405,0.19139672815799713,0.7482673525810242,0.6253838539123535,-0.1924258917570114,1.8572434186935425,-1.7389694452285767,0.5954126119613647,11.152502059936523,-0.4910752773284912,0.054282963275909424,1.5646727085113525,0.5589450597763062,18.096923828125,-19.87352752685547,38.69120407104492,1.76129150390625,-0.4662361145019531,-0.28001636266708374,-1.1658788919448853,11.618738174438477,-0.21105889976024628
3_20251106_182811,1762424855496,3,0.09586241096258163,0.18595872819423676,0.7489899396896362,0.6286842226982117,-0.14945589005947113,1.9193733930587769,-1.68471097946167,2.3095874786376953,10.354070663452148,-1.5875725746154785,0.08910225331783295,1.5133601427078247,0.7922953367233276,17.014617919921875,-20.30907440185547,38.87065887451172,2.3945670127868652,-0.8386907577514648,-0.9453221559524536,-0.08497941493988037,11.192761421203613,-0.6422504186630249
3_20251106_182811,1762424855514,3,0.08022718876600266,0.18270593881607056,0.7492402791976929,0.6315228343009949,-0.11429491639137268,1.9461554288864136,-1.6629455089569092,3.71492338180542,10.388784408569336,-1.8138148784637451,0.08910225331783295,1.5133601427078247,0.7922953367233276,15.854959487915039,-20.611785888671875,39.02254867553711,3.0399222373962402,-0.6431818008422852,-0.9372515678405762,0.6750011444091797,11.031966209411621,-0.876563310623169
3_20251106_182811,1762424855533,3,0.06480883061885834,0.18217262625694275,0.7490188479423523,0.6337063908576965,-0.0687321126461029,1.9708584547042847,-1.6447248458862305,5.107091903686523,10.762264251708984,-1.7719180583953857,0.11964549124240875,1.3209377527236938,0.9688352346420288,14.660364151000977,-20.8798828125,39.24134063720703,3.545672655105591,-0.2157611846923828,-0.7162837982177734,1.5614192485809326,10.978025436401367,-1.0556342601776123
3_20251106_182811,1762424855553,3,0.05024903640151024,0.18386274576187134,0.7485647201538086,0.6350750923156738,-0.0687321126461029,1.9708584547042847,-1.6447248458862305,5.107091903686523,10.762264251708984,-1.7719180583953857,0.1947818547487259,1.0087858438491821,0.9498984217643738,13.4714937210083,-21.058998107910156,39.353851318359375,3.545672655105591,-0.2157611846923828,-0.7162837982177734,1.5614192485809326,10.978025436401367,-1.0556342601776123
3_20251106_182811,1762424855572,3,0.036828380078077316,0.18564273416996002,0.7481694221496582,0.6359425783157349,0.055874280631542206,2.0174355506896973,-1.6132454872131348,6.712335109710693,10.850845336914062,-1.3996357917785645,0.23204459249973297,0.9782425761222839,0.7519782781600952,12.29985523223877,-21.137672424316406,39.5500602722168,3.4013519287109375,-0.0969085693359375,-0.20694565773010254,3.310983180999756,10.94775390625,-1.192690134048462
3_20251106_182811,1762424855591,3,0.024718783795833588,0.18636351823806763,0.7480989694595337,0.6364004611968994,0.055874280631542206,2.0174355506896973,-1.6132454872131348,6.712335109710693,10.850845336914062,-1.3996357917785645,0.2705290913581848,0.942201554775238,0.5448951125144958,11.136977195739746,-21.27820587158203,39.73192596435547,3.4013519287109375,-0.0969085693359375,-0.20694565773010254,3.310983180999756,10.94775390625,-1.192690134048462
3_20251106_182811,1762424855612,3,0.014048597775399685,0.18597440421581268,0.7484567761421204,0.6364185810089111,0.20601512491703033,2.053582191467285,-1.5893685817718506,7.161228656768799,10.07515811920166,-1.7384006977081299,0.28396812081336975,0.8621782660484314,0.4062288701534271,9.991825103759766,-21.317626953125,39.929908752441406,2.4764151573181152,-0.6222410202026367,-0.38009071350097656,4.684813499450684,10.697399139404297,-1.3583099842071533
3_20251106_182811,1762424855630,3,0.004817128647118807,0.18523573875427246,0.7490348219871521,0.6360906958580017,0.29036903381347656,2.067387819290161,-1.580681324005127,7.0235676765441895,9.816595077514648,-2.099909543991089,0.3059592545032501,0.7155707478523254,0.3298707902431488,8.957645416259766,-21.336532592773438,40.05147171020508,1.8710036277770996,-0.7046432495117188,-0.5932796001434326,5.15256404876709,10.521238327026367,-1.5066299438476562
3_20251106_182811,1762424855648,3,0.0030496695544570684,-0.1847216635942459,-0.7498748898506165,-0.6352607607841492,0.36667728424072266,2.0769729614257812,-1.574976921081543,6.852389812469482,9.620279312133789,-2.206447124481201,0.3059592545032501,0.7155707478523254,0.3298707902431488,7.950447082519531,-21.31549835205078,40.10722732543945,1.359860897064209,-0.7207679748535156,-0.5598536729812622,5.492528915405273,10.341047286987305,-1.646593451499939
3_20251106_182811,1762424855668,3,0.009069995954632759,-0.1853780895471573,-0.7510234117507935,-0.6336533427238464,0.450947642326355,2.084451913833618,-1.571134328842163,6.717123031616211,9.473041534423828,-2.363260507583618,0.4091953933238983,0.2635308504104614,0.29627320170402527,7.092820167541504,-21.21080780029297,40.29209899902344,0.97967529296875,-0.6944046020507812,-0.5733336210250854,5.737447738647461,10.16744613647461,-1.7899268865585327
3_20251106_182811,1762424855687,3,0.013615584000945091,-0.18727733194828033,-0.7525798082351685,-0.6311619877815247,0.5251488089561462,2.0891895294189453,-1.5699533224105835,6.610585689544678,9.494588851928711,-2.6445670127868652,0.43729516863822937,0.11203640699386597,0.2883319854736328,6.435190200805664,-21.016983032226562,40.37826919555664,0.6985106468200684,-0.5382862091064453,-0.6837121248245239,5.912075042724609,10.032875061035156,-1.9608548879623413
3_20251106_182811,1762424855706,3,0.017030887305736542,-0.19001637399196625,-0.7543272972106934,-0.6281672120094299,0.6056575775146484,2.091960906982422,-1.5715967416763306,6.6309356689453125,9.299468994140625,-2.9115090370178223,0.45256680250167847,-0.015634318813681602,0.25534528493881226,5.887543678283691,-20.803993225097656,40.5231819152832,0.5750885009765625,-0.5867252349853516,-0.7605233192443848,6.05584716796875,9.886194229125977,-2.1509857177734375
3_20251106_182811,1762424855725,3,0.019373126327991486,-0.19319871068000793,-0.756266713142395,-0.6247876286506653,0.6796975135803223,2.0927011966705322,-1.575659155845642,6.559112548828125,9.244405746459961,-3.091066360473633,0.44401466846466064,-0.1414724439382553,0.2131955921649933,5.425002098083496,-20.585716247558594,40.69856262207031,0.40261220932006836,-0.5134305953979492,-0.7520644664764404,6.156500339508057,9.75783634185791,-2.3390018939971924
3_20251106_182811,1762424855743,3,0.02055678889155388,-0.19682194292545319,-0.7582600116729736,-0.6211925745010376,0.7470477819442749,2.092017889022827,-1.5814294815063477,6.446589469909668,9.209692001342773,-3.197603940963745,0.4159148931503296,-0.2636454105377197,0.16432641446590424,4.9791717529296875,-20.29090118408203,40.83546829223633,0.2320709228515625,-0.43851566314697266,-0.6868817806243896,6.2145185470581055,9.648207664489746,-2.5107221603393555
3_20251106_182811,1762424855763,3,0.02052348293364048,-0.20077738165855408,-0.7601985931396484,-0.6175478100776672,0.8149821162223816,2.090395450592041,-1.5890346765518188,6.35920524597168,9.306652069091797,-3.1736626625061035,0.3676565885543823,-0.37054672837257385,0.09835303574800491,4.811703681945801,-20.015213012695312,40.95582962036133,0.11574935913085938,-0.27324485778808594,-0.5303523540496826,6.24345588684082,9.579896926879883,-2.643310308456421
3_20251106_182811,1762424855782,3,0.01926933415234089,-0.2048039734363556,-0.7619971036911011,-0.614039421081543,0.8828352689743042,2.0881388187408447,-1.5976371765136719,6.216756820678711,9.371293067932129,-2.9713613986968994,0.2980180084705353,-0.4407961964607239,-0.022598177194595337,4.669411659240723,-19.725250244140625,41.06391906738281,-0.02135944366455078,-0.16688251495361328,-0.26244091987609863,6.238116264343262,9.538175582885742,-2.708920478820801
3_20251106_182811,1762424855801,3,0.016646219417452812,-0.20834636688232422,-0.7635965943336487,-0.610929548740387,0.9430813789367676,2.0854835510253906,-1.6053557395935059,5.876794815063477,9.312637329101562,-2.6924490928649902,0.25342488288879395,-0.5067695379257202,-0.18508820235729218,4.669411659240723,-19.725250244140625,41.06391906738281,-0.28905725479125977,-0.18043041229248047,0.013177156448364258,6.165852069854736,9.493067741394043,-2.7056262493133545
3_20251106_182811,1762424855821,3,0.012537739239633083,-0.21100249886512756,-0.7652238607406616,-0.608073353767395,1.0010987520217896,2.081719398498535,-1.612404704093933,5.4326887130737305,9.128292083740234,-2.4853594303131104,0.25342488288879395,-0.5067695379257202,-0.18508820235729218,4.709811210632324,-19.423500061035156,41.1928825378418,-0.5865306854248047,-0.2918205261230469,0.17621350288391113,6.019219398498535,9.420112609863281,-2.6615729331970215
3_20251106_182811,1762424855839,3,0.006868688855320215,-0.21294920146465302,-0.7670938372612,-0.6051218509674072,1.048056721687317,2.077125072479248,-1.6175525188446045,4.944293022155762,8.861349105834961,-2.304605007171631,0.2467053383588791,-0.6845312118530273,-0.47585979104042053,4.758266448974609,-19.1961669921875,41.30723571777344,-0.8599414825439453,-0.44701099395751953,0.28557443618774414,5.804234504699707,9.30836009979248,-2.590179443359375
3_20251106_182811,1762424855859,3,0.00022230955073609948,0.21426616609096527,0.7691981792449951,0.6020166873931885,1.0932223796844482,2.069890260696411,-1.6223729848861694,4.356541633605957,8.523781776428223,-2.3883986473083496,0.25281402468681335,-0.7260700464248657,-0.5626025795936584,5.004010200500488,-18.918190002441406,41.403194427490234,-1.1581544876098633,-0.6276626586914062,0.1614246368408203,5.51469612121582,9.151444435119629,-2.54982328414917
3_20251106_182811,1762424855878,3,0.008145377039909363,0.2151137888431549,0.7714563608169556,0.5987610816955566,1.1294406652450562,2.060732364654541,-1.6267567873001099,3.8585691452026367,8.193395614624023,-2.5619704723358154,0.25220316648483276,-0.7712739706039429,-0.5907024145126343,5.3217573165893555,-18.66015625,41.46101760864258,-1.3249015808105469,-0.7664394378662109,-0.009717702865600586,5.183470726013184,8.959835052490234,-2.552252769470215
3_20251106_182811,1762424855896,3,0.016562798991799355,0.21586860716342926,0.773760974407196,0.5953322052955627,1.1577223539352417,2.0496597290039062,-1.6312419176101685,3.431222677230835,7.81033992767334,-2.771454334259033,0.24975968897342682,-0.8384690880775452,-0.5760416388511658,5.725102424621582,-18.396156311035156,41.481727600097656,-1.4017984867095947,-0.9195957183837891,-0.17536139488220215,4.83302116394043,8.729935646057129,-2.596092939376831
3_20251106_182811,1762424855916,3,0.025331441313028336,0.21691322326660156,0.7760264277458191,0.5916839838027954,1.182021975517273,2.0341429710388184,-1.6370952129364014,3.006270170211792,7.4703779220581055,-2.964179039001465,0.25770094990730286,-0.9539225101470947,-0.5253398418426514,6.256967544555664,-18.212127685546875,41.58708190917969,-1.4614007472991943,-1.0076465606689453,-0.29446887969970703,4.467670917510986,8.47802448272705,-2.669710159301758
3_20251106_182811,1762424855935,3,0.034672811627388,0.21893087029457092,0.7781744003295898,0.5876322984695435,1.1988590955734253,2.0166618824005127,-1.6438852548599243,2.611243724822998,7.210618019104004,-3.2191507816314697,0.23876412212848663,-1.0657107830047607,-0.4630316197872162,6.925290107727051,-17.981285095214844,41.65807342529297,-1.4851417541503906,-1.013925552368164,-0.43955254554748535,4.096385478973389,8.224543571472168,-2.7795982360839844
3_20251106_182811,1762424855954,3,0.04453740641474724,0.22194012999534607,0.7800126075744629,0.5833860635757446,1.1988590955734253,2.0166618824005127,-1.6438852548599243,2.611243724822998,7.210618019104004,-3.2191507816314697,0.1636277437210083,-1.1145800352096558,-0.4257688820362091,7.634993076324463,-17.671905517578125,41.651023864746094,-1.4851417541503906,-1.013925552368164,-0.43955254554748535,4.096385478973389,8.224543571472168,-2.7795982360839844
3_20251106_182811,1762424855973,3,0.054774317890405655,0.22545355558395386,0.7812718152999878,0.5794694423675537,1.2101988792419434,1.9954725503921509,-1.652266263961792,2.2880403995513916,7.004725456237793,-3.3029441833496094,0.07871755957603455,-1.1121364831924438,-0.4104972779750824,8.450450897216797,-17.41870880126953,41.701133728027344,-1.4466760158538818,-0.9758548736572266,-0.41867685317993164,3.7347164154052734,7.9805803298950195,-2.8842673301696777
3_20251106_182811,1762424855993,3,0.06504499912261963,0.2288816124200821,0.7819794416427612,0.5760993957519531,1.2159186601638794,1.9719903469085693,-1.6625890731811523,2.0725715160369873,6.877838134765625,-3.6608619689941406,0.07871755957603455,-1.1121364831924438,-0.4104972779750824,9.275768280029297,-17.214271545410156,41.6830940246582,-1.3297159671783447,-0.8821935653686523,-0.6212759017944336,3.402287483215332,7.760031700134277,-3.039586067199707
3_20251106_182811,1762424856011,3,0.07583857327699661,0.23237250745296478,0.7821056246757507,0.5732035040855408,1.2140522003173828,1.9263041019439697,-1.6860021352767944,1.4860174655914307,7.013105392456055,-3.7877492904663086,-0.150356724858284,-1.1304625272750854,-0.4465382695198059,10.135135650634766,-17.04566192626953,41.71979904174805,-1.284637451171875,-0.4372377395629883,-0.44703078269958496,2.7706549167633057,7.450343132019043,-3.3407185077667236
3_20251106_182811,1762424856032,3,0.08691967278718948,0.23539209365844727,0.7815328240394592,0.5711759328842163,1.205557107925415,1.9014270305633545,-1.699070692062378,0.9844536781311035,7.209421157836914,-3.448984146118164,-0.25603631138801575,-1.0541043281555176,-0.5540505051612854,11.01795768737793,-16.89990234375,41.68937683105469,-1.4289610385894775,-0.19273757934570312,-0.08661270141601562,2.413414716720581,7.402158737182617,-3.3623714447021484
3_20251106_182811,1762424856050,3,0.09826221317052841,0.23697082698345184,0.7805799841880798,0.5699862241744995,1.205557107925415,1.9014270305633545,-1.699070692062378,0.9844536781311035,7.209421157836914,-3.448984146118164,-0.2847469449043274,-0.9233793020248413,-0.6389607191085815,11.972684860229492,-16.774215698242188,41.63433837890625,-1.4289610385894775,-0.19273757934570312,-0.08661270141601562,2.413414716720581,7.402158737182617,-3.3623714447021484
3_20251106_182811,1762424856070,3,0.10915672034025192,0.23697353899478912,0.7796887159347534,0.5692221522331238,1.1911520957946777,1.8756940364837646,-1.7108138799667358,0.3296676576137543,6.711448669433594,-3.1413424015045166,-0.27558398246765137,-0.8286952972412109,-0.6090283393859863,12.93152904510498,-16.584938049316406,41.49951934814453,-1.6669975519180298,-0.5525684356689453,0.17682337760925293,1.9966652393341064,7.264017105102539,-3.3181657791137695
3_20251106_182811,1762424856088,3,0.11921482533216476,0.2365516573190689,0.7788128852844238,0.5685786008834839,1.1691498756408691,1.8479406833648682,-1.7233352661132812,-0.28082752227783203,6.642019748687744,-3.559112548828125,-0.345222532749176,-0.7908216714859009,-0.5106791257858276,13.776357650756836,-16.489898681640625,41.27734375,-1.8219943046569824,-0.49759817123413086,-0.19275736808776855,1.5411667823791504,7.139617919921875,-3.3663551807403564
3_20251106_182811,1762424856108,3,0.12863683700561523,0.2364419400691986,0.7774081826210022,0.5684930086135864,1.1153247356414795,1.8011329174041748,-1.7453958988189697,-1.663419485092163,6.803621292114258,-3.6895911693573,-0.4796127676963806,-0.6973593235015869,-0.35613030195236206,14.72492504119873,-16.488571166992188,41.098018646240234,-2.155317783355713,-0.1977996826171875,-0.20725417137145996,0.49189838767051697,7.001420974731445,-3.48233699798584
3_20251106_182811,1762424856126,3,0.1368992030620575,0.23665115237236023,0.7750424146652222,0.5697052478790283,1.1153247356414795,1.8011329174041748,-1.7453958988189697,-1.663419485092163,6.803621292114258,-3.6895911693573,-0.6078944206237793,-0.7071331739425659,-0.1893642544746399,15.490999221801758,-16.498756408691406,40.87078857421875,-2.155317783355713,-0.1977996826171875,-0.20725417137145996,0.49189838767051697,7.001420974731445,-3.48233699798584
3_20251106_182811,1762424856144,3,0.14471007883548737,0.23787029087543488,0.7715640068054199,0.571984052658081,1.0762029886245728,1.776557207107544,-1.757140874862671,-2.090765953063965,6.943675994873047,-3.500457286834717,-0.7593888640403748,-0.690639853477478,0.05375991761684418,16.220304489135742,-16.523208618164062,40.574241638183594,-2.066131591796875,-0.04619598388671875,-0.014496326446533203,-0.024634450674057007,6.989871978759766,-3.4859609603881836
3_20251106_182811,1762424856164,3,0.1513599455356598,0.24033309519290924,0.7667150497436523,0.5757414102554321,0.9968934059143066,1.7372571229934692,-1.772697925567627,-1.9399378299713135,7.457210540771484,-2.4817681312561035,-0.8791183233261108,-0.6637617945671082,0.29138627648353577,16.88132095336914,-16.68921661376953,40.2182731628418,-1.1844241619110107,0.3544483184814453,0.7457253932952881,-0.7555136680603027,7.102762222290039,-3.2274935245513916
3_20251106_182811,1762424856183,3,0.15673643350601196,0.24408301711082458,0.7606151700019836,0.5807940363883972,0.9541962146759033,1.720855712890625,-1.7754065990447998,-1.5125912427902222,7.918074607849121,-1.8748643398284912,-0.9487569332122803,-0.6283316612243652,0.40073108673095703,17.465103149414062,-16.92359161376953,39.93914031982422,-0.6056621074676514,0.652249813079834,1.0821032524108887,-0.9069291353225708,7.265824794769287,-2.95696759223938
3_20251106_182811,1762424856204,3,0.16137990355491638,0.24831508100032806,0.7537439465522766,0.5866568088531494,0.9106876254081726,1.7079910039901733,-1.7732317447662354,-1.1738264560699463,8.429214477539062,-1.35055673122406,-0.9793001413345337,-0.6210012435913086,0.3671335279941559,17.945758819580078,-17.2647705078125,39.65397262573242,-0.21351784467697144,0.9307117462158203,1.2851287126541138,-0.9603086113929749,7.498502731323242,-2.635685443878174
3_20251106_182811,1762424856223,3,0.16609373688697815,0.2521362006664276,0.7466257810592651,0.5927817225456238,0.8688763976097107,1.7000290155410767,-1.7657195329666138,-1.1175650358200073,8.89965534210205,-0.844204843044281,-0.9377613067626953,-0.6155034303665161,0.19425879418849945,18.385009765625,-17.70771026611328,39.2570915222168,-0.12580513954162598,1.1209220886230469,1.4331843852996826,-0.9917598962783813,7.778733253479004,-2.2773892879486084
3_20251106_182811,1762424856241,3,0.1715669333934784,0.25473469495773315,0.7399985194206238,0.5983955264091492,0.8318011164665222,1.6967391967773438,-1.7549009323120117,-1.5305471420288086,9.207296371459961,-0.4922723174095154,-0.8919464945793152,-0.5006608963012695,-0.06474784016609192,18.385009765625,-17.70771026611328,39.2570915222168,-0.4310297966003418,1.1428508758544922,1.428093671798706,-1.0995173454284668,8.064445495605469,-1.9203659296035767
3_20251106_182811,1762424856260,3,0.17758502066135406,0.25488656759262085,0.7343007326126099,0.6035717129707336,0.7920017838478088,1.6968713998794556,-1.740341067314148,-2.0548548698425293,9.315031051635742,-0.5676863789558411,-0.8919464945793152,-0.5006608963012695,-0.06474784016609192,18.803613662719727,-18.30213165283203,38.85655212402344,-0.7642700672149658,1.0004682540893555,1.082143783569336,-1.2905848026275635,8.314562797546387,-1.6498301029205322
3_20251106_182811,1762424856278,3,0.18377166986465454,0.25244858860969543,0.729403018951416,0.6086615920066833,0.7528119087219238,1.699238657951355,-1.7245371341705322,-2.659364700317383,9.227646827697754,-0.5533217787742615,-0.880340039730072,-0.3375600278377533,-0.28893518447875977,19.086071014404297,-18.931350708007812,38.54470443725586,-1.0950238704681396,0.7304668426513672,0.8772067427635193,-1.5643408298492432,8.497179985046387,-1.4305285215377808
3_20251106_182811,1762424856298,3,0.19001109898090363,0.2492104172706604,0.7245017290115356,0.6139113903045654,0.7069332599639893,1.7041255235671997,-1.7041404247283936,-3.048405647277832,9.282711029052734,-0.20857158303260803,-0.9188245534896851,-0.31495803594589233,-0.19241857528686523,19.419471740722656,-19.53119659423828,38.12721633911133,-1.1872518062591553,0.6284246444702148,0.9775656461715698,-1.8611538410186768,8.65428638458252,-1.1861371994018555
3_20251106_182811,1762424856317,3,0.19553878903388977,0.24691703915596008,0.7192001938819885,0.6193122267723083,0.6624937653541565,1.7100006341934204,-1.681848406791687,-2.967006206512451,9.18814468383789,0.22954846918582916,-0.9188245534896851,-0.31495803594589233,-0.19241857528686523,19.78691864013672,-20.1668701171875,37.76447296142578,-0.8846819400787354,0.42708683013916016,1.1325485706329346,-2.082324266433716,8.76105785369873,-0.9030000567436218
3_20251106_182811,1762424856337,3,0.1998317837715149,0.24654336273670197,0.7135972380638123,0.624549925327301,0.616449236869812,1.7172722816467285,-1.6548652648925781,-2.610285758972168,9.220464706420898,0.6401363611221313,-0.8485751152038574,-0.32961881160736084,0.04093175381422043,20.117599487304688,-20.816810607910156,37.33241271972656,-0.42236924171447754,0.3675251007080078,1.2345092296600342,-2.1879165172576904,8.85293960571289,-0.5943728089332581
3_20251106_182811,1762424856356,3,0.20205582678318024,0.2473883479833603,0.7080304026603699,0.6298137903213501,0.5747763514518738,1.725841760635376,-1.6273623704910278,-2.230820655822754,9.584367752075195,0.5539488792419434,-0.6604287624359131,-0.23126956820487976,0.39401158690452576,20.43790054321289,-21.44189453125,36.8463249206543,-0.03432345390319824,0.5851421356201172,0.9186573624610901,-2.1964972019195557,8.999225616455078,-0.36470848321914673
3_20251106_182811,1762424856374,3,0.20280490815639496,0.2489207535982132,0.702799916267395,0.6348077654838562,0.5747763514518738,1.725841760635376,-1.6273623704910278,-2.230820655822754,9.584367752075195,0.5539488792419434,-0.5742968320846558,-0.1005445197224617,0.3646900951862335,20.737564086914062,-21.993896484375,36.42842102050781,-0.03432345390319824,0.5851421356201172,0.9186573624610901,-2.1964972019195557,8.999225616455078,-0.36470848321914673
3_20251106_182811,1762424856393,3,0.20259596407413483,0.2497207373380661,0.6983753442764282,0.6394265294075012,0.5011812448501587,1.7464573383331299,-1.5741115808486938,-1.8980412483215332,9.650205612182617,-0.08527551591396332,-0.5742968320846558,-0.1005445197224617,0.3646900951862335,20.95102310180664,-22.564285278320312,36.033851623535156,0.2048017978668213,0.4037952423095703,0.13095514476299286,-2.1028430461883545,9.246410369873047,-0.21623066067695618
3_20251106_182811,1762424856413,3,0.2018497884273529,0.24914851784706116,0.694465696811676,0.6441265940666199,0.466063529253006,1.7596063613891602,-1.5475648641586304,-1.68137526512146,9.960241317749023,-0.30313849449157715,-0.6860851049423218,0.2592548131942749,0.22174769639968872,21.02147674560547,-23.081825256347656,35.67526626586914,0.3371741771697998,0.5710649490356445,-0.06952627003192902,-2.0185494422912598,9.389176368713379,-0.23361222445964813
3_20251106_182811,1762424856432,3,0.20035876333713531,0.2467627376317978,0.6904137134552002,0.6498410701751709,0.43593528866767883,1.7733620405197144,-1.5242964029312134,-1.4479506015777588,10.07755184173584,-0.4850899577140808,-0.8253622651100159,0.4046406149864197,0.18815013766288757,21.11599349975586,-23.60979461669922,35.26333236694336,0.4564790725708008,0.5507001876831055,-0.20118218660354614,-1.9044296741485596,9.526851654052734,-0.28390777111053467
3_20251106_182811,1762424856451,3,0.1984066367149353,0.2430610954761505,0.685838520526886,0.6566442251205444,0.40934422612190247,1.7873594760894775,-1.5022934675216675,-1.1642498970031738,9.865674018859863,-0.321094274520874,-0.871787965297699,0.38020598888397217,0.2693951725959778,21.09661865234375,-24.208641052246094,34.94028091430664,0.5921437740325928,0.2710580825805664,-0.02974921464920044,-1.7563936710357666,9.594615936279297,-0.2913450598716736
3_20251106_182811,1762424856471,3,0.19622164964675903,0.2400842159986496,0.6806914806365967,0.6637136340141296,0.3857323229312897,1.8023992776870728,-1.479140043258667,-0.7764059901237488,9.937498092651367,0.087099589407444,-0.871787965297699,0.38020598888397217,0.2693951725959778,20.94711685180664,-24.752899169921875,34.559085845947266,0.783990204334259,0.2743053436279297,0.3027557134628296,-1.5603961944580078,9.663192749023438,-0.2156561315059662
3_20251106_182811,1762424856490,3,0.19372618198394775,0.23879165947437286,0.6754329800605774,0.6702529191970825,0.36759164929389954,1.8174511194229126,-1.4569109678268433,-0.4053206741809845,10.202045440673828,0.2702481746673584,-0.6848633289337158,0.202444389462471,0.452043741941452,20.748275756835938,-25.30113983154297,34.25702667236328,0.9240604639053345,0.43108272552490234,0.3887234628200531,-1.3293811082839966,9.770962715148926,-0.1184752807021141
3_20251106_182811,1762424856509,3,0.190972238779068,0.23851624131202698,0.6705493330955505,0.6760201454162598,0.36759164929389954,1.8174511194229126,-1.4569109678268433,-0.4053206741809845,10.202045440673828,0.2702481746673584,-0.6152247786521912,0.20855304598808289,0.3934006989002228,20.522655487060547,-25.88904571533203,33.993743896484375,0.9240604639053345,0.43108272552490234,0.3887234628200531,-1.3293811082839966,9.770962715148926,-0.1184752807021141
3_20251106_182811,1762424856528,3,0.18840184807777405,0.2380511462688446,0.6661704778671265,0.6812145709991455,0.34147655963897705,1.8523542881011963,-1.4116092920303345,-0.4831288754940033,10.764657974243164,0.6604862213134766,-0.5920119285583496,0.28307852149009705,0.20830868184566498,20.21111297607422,-26.506546020507812,33.618370056152344,0.5075094699859619,0.6539688110351562,0.5563768148422241,-0.9906383752822876,10.110689163208008,0.10410942137241364
3_20251106_182811,1762424856546,3,0.18648944795131683,0.23598240315914154,0.662474513053894,0.6860477328300476,0.34147655963897705,1.8523542881011963,-1.4116092920303345,-0.4831288754940033,10.764657974243164,0.6604862213134766,-0.632939875125885,0.43274039030075073,0.04642953723669052,19.90350341796875,-27.049110412597656,33.28512954711914,0.5075094699859619,0.6539688110351562,0.5563768148422241,-0.9906383752822876,10.110689163208008,0.10410942137241364
3_20251106_182811,1762424856565,3,0.18478979170322418,0.23174747824668884,0.6590913534164429,0.6911905407905579,0.3212794065475464,1.887241005897522,-1.3631356954574585,-0.8865344524383545,10.400754928588867,1.1596558094024658,-0.7239587306976318,0.5573567748069763,0.04032088816165924,19.573932647705078,-27.555191040039062,32.91115188598633,0.053602635860443115,0.1827688217163086,0.6975754499435425,-0.9401370882987976,10.217986106872559,0.46208035945892334
3_20251106_182811,1762424856585,3,0.18255744874477386,0.22638674080371857,0.6552833914756775,0.6971552968025208,0.3122975826263428,1.9049882888793945,-1.3363149166107178,-0.7488738298416138,10.538415908813477,1.4325830936431885,-0.7997059226036072,0.5610219836235046,0.11912243813276291,19.193500518798828,-28.10211944580078,32.534420013427734,0.15301060676574707,0.2563438415527344,0.7764022350311279,-0.9018844366073608,10.282072067260742,0.6561808586120605
3_20251106_182811,1762424856604,3,0.1799245923757553,0.2213277518749237,0.6507592797279358,0.7036714553833008,0.30445724725723267,1.9238914251327515,-1.3067245483398438,-0.6495187282562256,11.026812553405762,2.1544039249420166,-0.8449099063873291,0.48771822452545166,0.17776544392108917,18.863014221191406,-28.63263702392578,32.09233093261719,0.20189255475997925,0.5957927703857422,1.1985784769058228,-0.8514112830162048,10.43101978302002,0.9558254480361938
3_20251106_182811,1762424856623,3,0.17743313312530518,0.21706746518611908,0.6455904245376587,0.710360586643219,0.2970559895038605,1.9451334476470947,-1.2723078727722168,-0.706977128982544,11.200384140014648,2.543445110321045,-0.7850451469421387,0.5439177751541138,0.2076978087425232,18.59165382385254,-29.184837341308594,31.706233978271484,0.1155472993850708,0.6154909133911133,1.2700958251953125,-0.8225244283676147,10.584893226623535,1.2733492851257324
3_20251106_182811,1762424856643,3,0.1742754578590393,0.21268349885940552,0.6407029628753662,0.7168636918067932,0.29039061069488525,1.9675228595733643,-1.236547827720642,-0.7021889090538025,11.311710357666016,2.2812910079956055,-0.657374382019043,0.6819732189178467,0.31643176078796387,18.203861236572266,-29.656410217285156,31.249496459960938,0.0962684154510498,0.5814533233642578,0.8063533306121826,-0.7984573245048523,10.730257034301758,1.4749376773834229
3_20251106_182811,1762424856662,3,0.16925907135009766,0.20816847681999207,0.636610209941864,0.7230108380317688,0.28558510541915894,1.9887794256210327,-1.2021573781967163,-0.35743868350982666,11.11299991607666,2.2465767860412598,-0.539477527141571,0.748557448387146,0.5106867551803589,18.203861236572266,-29.656410217285156,31.249496459960938,0.3528149127960205,0.3061943054199219,0.6173113584518433,-0.7102535963058472,10.806805610656738,1.6292654275894165
3_20251106_182811,1762424856680,3,0.16225849092006683,0.20457594096660614,0.6330602169036865,0.728735625743866,0.2835850417613983,2.008307695388794,-1.1695120334625244,0.233903706073761,10.968156814575195,2.317202568054199,-0.539477527141571,0.748557448387146,0.5106867551803589,17.814361572265625,-30.15349578857422,30.832782745361328,0.7553258538246155,0.12908077239990234,0.5503497123718262,-0.5214221477508545,10.839076042175293,1.766852855682373
3_20251106_182811,1762424856700,3,0.15359105169773102,0.20228537917137146,0.6301312446594238,0.7337745428085327,0.28611722588539124,2.0288002490997314,-1.1344971656799316,1.0060005187988281,10.799372673034668,1.949708342552185,-0.2432081550359726,0.7925397157669067,0.7910736203193665,17.40311050415039,-30.602218627929688,30.44317626953125,1.221938133239746,-0.031762123107910156,0.14628446102142334,-0.21593761444091797,10.831134796142578,1.8034238815307617
3_20251106_182811,1762424856719,3,0.14379318058490753,0.20075969398021698,0.6279649138450623,0.7380238175392151,0.2932690382003784,2.046741247177124,-1.103930115699768,1.5578402280807495,10.629390716552734,1.4265978336334229,-0.2432081550359726,0.7925397157669067,0.7910736203193665,16.90465545654297,-31.08228302001953,30.1171875,1.4190223217010498,-0.16139602661132812,-0.301460862159729,0.1388179212808609,10.790786743164062,1.7280586957931519
3_20251106_182811,1762424856738,3,0.13452108204364777,0.20021136105060577,0.6264322996139526,0.7412165999412537,0.3043276071548462,2.0631256103515625,-1.0756264925003052,1.6931068897247314,10.550386428833008,1.4601151943206787,-0.1301981806755066,0.6874709725379944,0.7703042030334473,16.358173370361328,-31.541358947753906,29.884380340576172,1.2434312105178833,-0.1923198699951172,-0.21435487270355225,0.44967567920684814,10.742706298828125,1.674470067024231
3_20251106_182811,1762424856756,3,0.12712596356868744,0.1993408501148224,0.6252472996711731,0.743752658367157,0.3163134455680847,2.0766875743865967,-1.05008864402771,1.2753366231918335,10.261897087097168,1.700722098350525,-0.18761946260929108,0.666090726852417,0.25595614314079285,15.730518341064453,-31.9307861328125,29.663238525390625,0.6605287790298462,-0.3846473693847656,0.021001577377319336,0.6148078441619873,10.646544456481934,1.6797205209732056
3_20251106_182811,1762424856776,3,0.12167959660291672,0.19596518576145172,0.6242167949676514,0.7464215755462646,0.32906994223594666,2.088829278945923,-1.0228097438812256,0.6492798328399658,9.931511878967285,1.785712718963623,-0.3464442491531372,0.8462958335876465,-0.020765580236911774,15.113764762878418,-32.3211669921875,29.618301391601562,0.027577579021453857,-0.572026252746582,0.0847938060760498,0.621702253818512,10.503538131713867,1.7009189128875732
3_20251106_182811,1762424856795,3,0.11750870198011398,0.18940488994121552,0.6227189302444458,0.750025749206543,0.32906994223594666,2.088829278945923,-1.0228097438812256,0.6492798328399658,9.931511878967285,1.785712718963623,-0.5791837573051453,0.9831295013427734,-0.1368298977613449,14.514019966125488,-32.634605407714844,29.494338989257812,0.027577579021453857,-0.572026252746582,0.0847938060760498,0.621702253818512,10.503538131713867,1.7009189128875732
3_20251106_182811,1762424856814,3,0.11378543078899384,0.18074654042720795,0.6198991537094116,0.7550553679466248,0.34660428762435913,2.1025798320770264,-0.970829427242279,-0.32152724266052246,9.372489929199219,2.5805535316467285,-0.7477824687957764,1.0307769775390625,-0.07329995185136795,13.952651023864746,-32.90839385986328,29.413188934326172,-0.6699355840682983,-0.7535591125488281,0.6480045318603516,0.3484083116054535,10.126049041748047,1.932548999786377
3_20251106_182811,1762424856834,3,0.10968521982431412,0.17182818055152893,0.6157115697860718,0.7611461877822876,0.3515538275241852,2.1057755947113037,-0.9412826895713806,-0.4436262249946594,9.409598350524902,2.9743828773498535,-0.7508367300033569,1.069872260093689,0.1197332963347435,13.396710395812988,-33.093605041503906,29.26630401611328,-0.6336276531219482,-0.5731611251831055,0.8334670066833496,0.19000142812728882,9.982759475708008,2.140915870666504
3_20251106_182811,1762424856853,3,0.10393479466438293,0.1635817438364029,0.6110910773277283,0.7674674391746521,0.3515538275241852,2.1057755947113037,-0.9412826895713806,-0.4436262249946594,9.409598350524902,2.9743828773498535,-0.6976915597915649,1.118741512298584,0.391568124294281,12.84972858428955,-33.34040832519531,29.078041076660156,-0.6336276531219482,-0.5731611251831055,0.8334670066833496,0.19000142812728882,9.982759475708008,2.140915870666504
3_20251106_182811,1762424856872,3,0.095843106508255,0.15655794739723206,0.6063433289527893,0.773725688457489,0.3578093945980072,2.108315944671631,-0.883748471736908,0.28537681698799133,9.695693969726562,3.0258560180664062,-0.6005640029907227,1.1541715860366821,0.702498197555542,12.339205741882324,-33.5849609375,28.904766082763672,0.15393127501010895,-0.15633296966552734,0.554295539855957,0.13144554197788239,9.85202693939209,2.471560478210449
3_20251106_182811,1762424856890,3,0.08514589071273804,0.15120142698287964,0.6017605662345886,0.7795976996421814,0.36353275179862976,2.1094706058502197,-0.8538293242454529,1.0455031394958496,9.92552661895752,3.103663921356201,-0.48877573013305664,1.148063063621521,0.9248529672622681,11.802690505981445,-33.86810302734375,28.66213607788086,0.7312461137771606,0.05879974365234375,0.5056827068328857,0.31425705552101135,9.866726875305176,2.5979812145233154
3_20251106_182811,1762424856910,3,0.07267925888299942,0.14740167558193207,0.5975679755210876,0.7847948670387268,0.36353275179862976,2.1094706058502197,-0.8538293242454529,1.0455031394958496,9.92552661895752,3.103663921356201,-0.48877573013305664,1.148063063621521,0.9248529672622681,11.265568733215332,-34.163665771484375,28.40572738647461,0.7312461137771606,0.05879974365234375,0.5056827068328857,0.31425705552101135,9.866726875305176,2.5979812145233154
3_20251106_182811,1762424856930,3,0.059413328766822815,0.1441972851753235,0.5933171510696411,0.789716362953186,0.37516459822654724,2.1123571395874023,-0.8191550374031067,1.7649298906326294,10.306188583374023,3.077329158782959,-0.46128684282302856,1.1547824144363403,1.0134284496307373,10.1293306350708,-35.74835968017578,27.864408493041992,1.1605383157730103,0.35156917572021484,0.38347816467285156,0.6043915748596191,9.954619407653809,2.6938509941101074
3_20251106_182811,1762424856948,3,0.04667592793703079,0.1409856528043747,0.589181125164032,0.7942354679107666,0.3901320695877075,2.1170287132263184,-0.7874938249588013,2.2233996391296387,10.67128849029541,3.2580833435058594,-0.4405174255371094,1.2231992483139038,0.8069560527801514,9.341631889343262,-35.97216033935547,27.54548454284668,1.2952064275741577,0.5733356475830078,0.4513859748840332,0.928193211555481,10.097952842712402,2.806697368621826
3_20251106_182811,1762424856967,3,0.034602150321006775,0.1363491714000702,0.5851373672485352,0.7986400127410889,0.4052576422691345,2.1224968433380127,-0.7608833909034729,2.311981678009033,10.869998931884766,3.282024383544922,-0.520540714263916,1.3264354467391968,0.7079960107803345,8.465206146240234,-36.26417541503906,27.20829200744629,1.1070307493209839,0.6176366806030273,0.3802614212036133,1.2049509286880493,10.252362251281738,2.9017629623413086
3_20251106_182811,1762424856986,3,0.02285165898501873,0.13034696877002716,0.5805551409721375,0.8033947944641113,0.4443715512752533,2.137591600418091,-0.7013066411018372,2.550194263458252,10.872392654418945,4.1510820388793945,-0.520540714263916,1.3264354467391968,0.7079960107803345,7.477398872375488,-36.58885192871094,26.906705856323242,0.8969628810882568,0.4100351333618164,0.9039468765258789,1.6532313823699951,10.462357521057129,3.2471351623535156
3_20251106_182811,1762424857005,3,0.010890564881265163,0.12399718165397644,0.5754934549331665,0.8082780241966248,0.4443715512752533,2.137591600418091,-0.7013066411018372,2.550194263458252,10.872392654418945,4.1510820388793945,-0.5333688855171204,1.411956548690796,0.7440370321273804,6.449602127075195,-36.76561737060547,26.56577491760254,0.8969628810882568,0.4100351333618164,0.9039468765258789,1.6532313823699951,10.462357521057129,3.2471351623535156
3_20251106_182811,1762424857024,3,0.0016190801979973912,-0.11744269728660583,-0.5704265236854553,-0.8129072785377502,0.4946245551109314,2.1569125652313232,-0.6310858130455017,3.461148738861084,11.004068374633789,5.026125431060791,-0.4643411636352539,1.4058479070663452,0.786186695098877,5.409224510192871,-36.94371795654297,26.278417587280273,1.2392327785491943,0.3514833450317383,1.186819076538086,2.2219159603118896,10.65258502960205,3.839306354522705
3_20251106_182811,1762424857043,3,0.014452115632593632,-0.11123434454202652,-0.5656236410140991,-0.8169993758201599,0.5241947770118713,2.1665399074554443,-0.5930119156837463,3.8011107444763184,10.700017929077148,5.190120697021484,-0.3165118992328644,1.2971140146255493,0.8063452243804932,4.315459728240967,-36.999542236328125,25.92366600036621,1.2633557319641113,0.03794670104980469,1.0806512832641602,2.537755012512207,10.662071228027344,4.109469413757324
3_20251106_182811,1762424857063,3,0.026954632252454758,-0.1060829758644104,-0.5617904663085938,-0.8200069069862366,0.5576092004776001,2.174838066101074,-0.5527663826942444,3.8023080825805664,10.224788665771484,4.823823928833008,-0.10209840536117554,1.2244211435317993,0.7648064494132996,3.190380573272705,-36.95783233642578,25.623620986938477,1.0116424560546875,-0.3498268127441406,0.5714836120605469,2.790665626525879,10.574615478515625,4.252340316772461
3_20251106_182811,1762424857081,3,0.03902902081608772,-0.10123080015182495,-0.5595515966415405,-0.8216635584831238,0.5884515047073364,2.1796979904174805,-0.5187855958938599,3.713726282119751,9.666963577270508,4.078062057495117,0.03290270268917084,1.2500773668289185,0.6872266530990601,3.190380573272705,-36.95783233642578,25.623620986938477,0.7384486198425293,-0.7261219024658203,-0.13942289352416992,2.9752776622772217,10.393085479736328,4.217484951019287
3_20251106_182811,1762424857101,3,0.05075874179601669,-0.09571094065904617,-0.5583840012550354,-0.822478175163269,0.6231902837753296,2.18107008934021,-0.4854150712490082,3.6933765411376953,9.157020568847656,3.3957440853118896,0.040233079344034195,1.2885619401931763,0.6438552141189575,2.192899227142334,-36.807586669921875,25.317075729370117,0.5744791030883789,-0.9888515472412109,-0.6573927402496338,3.1188974380493164,10.145872116088867,4.053136825561523
3_20251106_182811,1762424857119,3,0.062239278107881546,-0.0897260382771492,-0.5572987794876099,-0.8230999708175659,0.6231902837753296,2.18107008934021,-0.4854150712490082,3.6933765411376953,9.157020568847656,3.3957440853118896,0.0017486009746789932,1.2244211435317993,0.6792854070663452,1.1947129964828491,-36.669898986816406,25.01026725769043,0.5744791030883789,-0.9888515472412109,-0.6573927402496338,3.1188974380493164,10.145872116088867,4.053136825561523
3_20251106_182811,1762424857140,3,0.07358414679765701,-0.08448491990566254,-0.5559263229370117,-0.8236464858055115,0.6906610727310181,2.1741061210632324,-0.43369483947753906,4.174590110778809,8.855363845825195,3.056979179382324,0.007246383465826511,1.1071349382400513,0.7733585834503174,0.19281220436096191,-36.37071228027344,24.80101203918457,0.7309949398040771,-0.8395242691040039,-0.6528632640838623,3.4435951709747314,9.6948881149292,3.7098424434661865
3_20251106_182811,1762424857158,3,0.08509949594736099,-0.08064032346010208,-0.5545607209205627,-0.823843240737915,0.6906610727310181,2.1741061210632324,-0.43369483947753906,4.174590110778809,8.855363845825195,3.056979179382324,0.03168097138404846,0.9800751805305481,0.8704860210418701,-0.7494747638702393,-35.87958526611328,24.557130813598633,0.7309949398040771,-0.8395242691040039,-0.6528632640838623,3.4435951709747314,9.6948881149292,3.7098424434661865
3_20251106_182811,1762424857178,3,0.09669996052980423,-0.07836315035820007,-0.5533443093299866,-0.8236008882522583,0.7661368250846863,2.1586625576019287,-0.3918154239654541,5.115471363067627,9.060059547424316,3.29878306388855,0.04573085904121399,0.8462958335876465,0.9236312508583069,-1.6498558521270752,-35.49897003173828,24.380414962768555,1.154656171798706,-0.3754539489746094,-0.24679827690124512,3.960815191268921,9.435513496398926,3.545581340789795
3_20251106_182811,1762424857196,3,0.10843530297279358,-0.07718820124864578,-0.5522569417953491,-0.8229799866676331,0.8038004040718079,2.151214361190796,-0.37410375475883484,5.431492328643799,9.33059310913086,3.6483216285705566,0.0756632387638092,0.6758645176887512,0.8484948873519897,-2.466264009475708,-34.936439514160156,24.075178146362305,1.176541805267334,-0.08393669128417969,0.08219218254089355,4.254950523376465,9.414529800415039,3.566129446029663
3_20251106_182811,1762424857215,3,0.11803978681564331,-0.07745301723480225,-0.5514986515045166,-0.8221416473388672,0.8447636961936951,2.1441457271575928,-0.3544161319732666,5.419521331787109,9.560426712036133,4.268392562866211,0.0756632387638092,0.6758645176887512,0.8484948873519897,-3.1738741397857666,-34.356361389160156,23.990877151489258,0.9316568374633789,0.11671733856201172,0.5618104934692383,4.4878644943237305,9.443709373474121,3.7065820693969727
3_20251106_182811,1762424857234,3,0.12529641389846802,-0.07792647927999496,-0.5511575937271118,-0.8212512135505676,0.8850690126419067,2.137819766998291,-0.333593487739563,4.994568824768066,9.585563659667969,4.479073524475098,0.1526321917772293,0.5139853954315186,0.3775182366371155,-3.794278383255005,-33.74493408203125,23.842954635620117,0.4053635597229004,0.11348342895507812,0.6179931163787842,4.589205265045166,9.47208023071289,3.8610804080963135
3_20251106_182811,1762424857254,3,0.13040213286876678,-0.07686631381511688,-0.5513117909431458,-0.8204523921012878,0.9246124625205994,2.1311655044555664,-0.31135794520378113,4.33858585357666,9.364110946655273,4.3258514404296875,0.1526321917772293,0.5139853954315186,0.3775182366371155,-4.357573509216309,-33.192726135253906,23.73671531677246,-0.20049571990966797,-0.08637523651123047,0.37181687355041504,4.539081573486328,9.450486183166504,3.9540345668792725
3_20251106_182811,1762424857273,3,0.13395461440086365,-0.07361854612827301,-0.5517961382865906,-0.8198521137237549,0.9583873748779297,2.1240463256835938,-0.2916463613510132,3.841810703277588,9.044498443603516,3.8242878913879395,0.1734015792608261,0.6379909515380859,0.022605812177062035,-4.828807830810547,-32.722740173339844,23.700132369995117,-0.5578169822692871,-0.32479000091552734,-0.10379743576049805,4.399627685546875,9.369288444519043,3.9280853271484375
3_20251106_182811,1762424857292,3,0.13691189885139465,-0.06942938268184662,-0.5521724820137024,-0.8194755911827087,0.9881910085678101,2.1157448291778564,-0.27363863587379456,3.567686080932617,8.808679580688477,3.6662774085998535,0.19050578773021698,0.5005463361740112,0.16799160838127136,-5.116350173950195,-32.22801208496094,23.644136428833008,-0.665553092956543,-0.4484872817993164,-0.20944619178771973,4.23323917388916,9.257166862487793,3.8757236003875732
3_20251106_182811,1762424857310,3,0.1402522772550583,-0.06697367876768112,-0.5528272986412048,-0.8186731934547424,1.0133135318756104,2.1076583862304688,-0.2584485113620758,3.542548179626465,9.007389068603516,3.4627790451049805,0.2509814202785492,0.3166760802268982,0.381794273853302,-5.289079666137695,-31.850914001464844,23.59040641784668,-0.5525527000427246,-0.19982242584228516,-0.3303556442260742,4.0951008796691895,9.2072114944458,3.7931346893310547
3_20251106_182811,1762424857329,3,0.14430788159370422,-0.06694801896810532,-0.5540593266487122,-0.8171361088752747,1.0133135318756104,2.1076583862304688,-0.2584485113620758,3.542548179626465,9.007389068603516,3.4627790451049805,0.2564792037010193,0.17617720365524292,0.45998498797416687,-5.40983772277832,-31.40825653076172,23.580507278442383,-0.5525527000427246,-0.19982242584228516,-0.3303556442260742,4.0951008796691895,9.2072114944458,3.7931346893310547
3_20251106_182811,1762424857350,3,0.1481616497039795,-0.06843189895153046,-0.5555043816566467,-0.8153404593467712,1.040031909942627,2.0989129543304443,-0.2425234317779541,3.759214162826538,9.27193832397461,3.5214343070983887,0.2558683454990387,0.1511317491531372,0.3451423943042755,-5.534614562988281,-31.02906036376953,23.636869430541992,-0.2687094211578369,0.051781654357910156,-0.217360258102417,4.027923583984375,9.2201566696167,3.7387945652008057
3_20251106_182811,1762424857369,3,0.15097565948963165,-0.06953585147857666,-0.5570385456085205,-0.813682496547699,1.0822361707687378,2.0851666927337646,-0.2169451266527176,3.528183698654175,9.34256362915039,3.498690605163574,0.22227077186107635,0.23298762738704681,0.15210913121700287,-5.566132545471191,-30.718849182128906,23.69556999206543,-0.3560323715209961,0.07834053039550781,-0.17473435401916504,3.884216070175171,9.264223098754883,3.6734249591827393
3_20251106_182811,1762424857387,3,0.152699276804924,-0.06901800632476807,-0.5582907199859619,-0.8125459551811218,1.0822361707687378,2.0851666927337646,-0.2169451266527176,3.528183698654175,9.34256362915039,3.498690605163574,0.13003018498420715,0.3203412890434265,-0.015267801471054554,-5.579424858093262,-30.519790649414062,23.72584342956543,-0.3560323715209961,0.07834053039550781,-0.17473435401916504,3.884216070175171,9.264223098754883,3.6734249591827393
3_20251106_182811,1762424857406,3,0.1535288393497467,-0.06700895726680756,-0.5588326454162598,-0.8121851682662964,1.113627314567566,2.0727694034576416,-0.19580420851707458,3.1726598739624023,8.952325820922852,3.4735522270202637,0.11598029732704163,0.3453867435455322,-0.06474784016609192,-5.563311576843262,-30.231109619140625,23.745431900024414,-0.4745490550994873,-0.2561149597167969,-0.15051889419555664,3.6472089290618896,9.208440780639648,3.6240711212158203
3_20251106_182811,1762424857425,3,0.15411075949668884,-0.06449943035840988,-0.5592365264892578,-0.8120001554489136,1.113627314567566,2.0727694034576416,-0.19580420851707458,3.1726598739624023,8.952325820922852,3.4735522270202637,0.1746233105659485,0.21466168761253357,0.05009472742676735,-5.570456504821777,-29.9193115234375,23.805112838745117,-0.4745490550994873,-0.2561149597167969,-0.15051889419555664,3.6472089290618896,9.208440780639648,3.6240711212158203
3_20251106_182811,1762424857445,3,0.15489792823791504,-0.0635467916727066,-0.5602096319198608,-0.8112543225288391,1.1365110874176025,2.0563242435455322,-0.18002593517303467,3.05056095123291,8.706930160522461,3.1982312202453613,0.2045556753873825,0.04728475213050842,0.2022000402212143,-5.5799150466918945,-29.64545440673828,23.891035079956055,-0.37668347358703613,-0.3133058547973633,-0.2694730758666992,3.4272444248199463,9.020236015319824,3.4677042961120605
3_20251106_182811,1762424857463,3,0.1560046672821045,-0.06462541222572327,-0.561595618724823,-0.8099978566169739,1.1458760499954224,2.0480637550354004,-0.173000305891037,3.2169508934020996,8.964296340942383,3.535799026489258,0.18806234002113342,-0.027240749448537827,0.25717785954475403,-5.614845275878906,-29.38628387451172,24.0297794342041,-0.16823482513427734,-0.04475212097167969,0.05447578430175781,3.385185718536377,9.009048461914062,3.4813232421875
3_20251106_182811,1762424857483,3,0.15711984038352966,-0.06660081446170807,-0.5629162192344666,-0.8087045550346375,1.1458760499954224,2.0480637550354004,-0.173000305891037,3.2169508934020996,8.964296340942383,3.535799026489258,0.16973640024662018,-0.0021952949464321136,0.19853483140468597,-5.6654863357543945,-29.190689086914062,24.166711807250977,-0.16823482513427734,-0.04475212097167969,0.05447578430175781,3.385185718536377,9.009048461914062,3.4813232421875
3_20251106_182811,1762424857503,3,0.15789635479450226,-0.06811665743589401,-0.5640343427658081,-0.8076472282409668,1.1638015508651733,2.033221960067749,-0.15542201697826385,3.352217435836792,9.2731351852417,4.160658836364746,0.14957787096500397,0.03690004348754883,0.0781945064663887,-5.6654863357543945,-29.190689086914062,24.166711807250977,-0.01880168914794922,0.19544696807861328,0.48725318908691406,3.371019124984741,9.077688217163086,3.673405647277832
3_20251106_182811,1762424857521,3,0.15796542167663574,-0.06871606409549713,-0.5649620890617371,-0.8069342374801636,1.170789122581482,2.027679443359375,-0.14558494091033936,3.193009853363037,9.202507972717285,4.370141983032227,0.10987165570259094,0.08760181814432144,-0.049476224929094315,-5.691755294799805,-28.993507385253906,24.304624557495117,-0.14240741729736328,0.09985542297363281,0.5573892593383789,3.3354172706604004,9.102652549743652,3.8127527236938477
3_20251106_182811,1762424857541,3,0.15730226039886475,-0.06828658282756805,-0.5655368566513062,-0.8066975474357605,1.176967740058899,2.0213866233825684,-0.1330665796995163,2.941629409790039,8.957113265991211,4.514985084533691,0.11659117043018341,0.10714948922395706,-0.11300615221261978,-5.620028495788574,-28.777687072753906,24.4737606048584,-0.3150300979614258,-0.11643123626708984,0.5617859363555908,3.256659507751465,9.0735445022583,3.9531991481781006
3_20251106_182811,1762424857560,3,0.156187042593956,-0.06737366318702698,-0.5661227703094482,-0.8065800666809082,1.1809275150299072,2.0150070190429688,-0.12076276540756226,2.6675050258636475,8.818256378173828,4.319866180419922,0.17156898975372314,0.09615392237901688,-0.10750836879014969,-5.535510063171387,-28.54864501953125,24.657163619995117,-0.47132349014282227,-0.20423030853271484,0.2933335304260254,3.1388285160064697,9.022486686706543,4.0265326499938965
3_20251106_182811,1762424857579,3,0.15511634945869446,-0.0664345771074295,-0.5670984387397766,-0.8061791062355042,1.1829659938812256,2.009519100189209,-0.10946480929851532,2.5106916427612305,9.231237411499023,3.8841404914855957,0.17156898975372314,0.09615392237901688,-0.10750836879014969,-5.493287086486816,-28.422576904296875,24.85050392150879,-0.502509593963623,0.16700077056884766,-0.11391377449035645,3.0132012367248535,9.064236640930176,3.998054265975952
3_20251106_182811,1762424857598,3,0.1543777585029602,-0.0656077042222023,-0.5680665969848633,-0.805706799030304,1.1834352016448975,2.0058836936950684,-0.09942525625228882,2.4783713817596436,9.63943099975586,3.7452826499938965,0.05489383637905121,0.13708186149597168,-0.029317688196897507,-5.412304878234863,-28.26793670654297,24.937711715698242,-0.42786383628845215,0.4601554870605469,-0.20221710205078125,2.9062352180480957,9.179275512695312,3.9474997520446777
3_20251106_182811,1762424857616,3,0.1540622115135193,-0.06481674313545227,-0.568178117275238,-0.8057525753974915,1.182865858078003,2.0039541721343994,-0.09051619470119476,2.503509283065796,9.724422454833984,3.896111011505127,0.03840048238635063,0.15724040567874908,-0.020765583962202072,-5.2873029708862305,-28.186134338378906,25.092878341674805,-0.32218074798583984,0.43611717224121094,-0.041110992431640625,2.8256900310516357,9.288305282592773,3.9372220039367676
3_20251106_182811,1762424857637,3,0.15477944910526276,-0.06328922510147095,-0.5682560205459595,-0.8056816458702087,1.1811449527740479,2.002798557281494,-0.08254579454660416,2.406548261642456,9.572397232055664,3.5860748291015625,0.12147808074951172,0.19939006865024567,-0.03237201273441315,-5.185276031494141,-28.092422485351562,25.1527156829834,-0.3353135585784912,0.22727298736572266,-0.2809176445007324,2.7418618202209473,9.345124244689941,3.866992473602295
3_20251106_182811,1762424857655,3,0.15472835302352905,-0.06193407624959946,-0.5688164830207825,-0.8054012060165405,1.1779170036315918,2.0021228790283203,-0.07680130004882812,2.2461438179016113,9.502967834472656,3.1347873210906982,0.12147808074951172,0.19939006865024567,-0.03237201273441315,-5.031079292297363,-27.932876586914062,25.22934913635254,-0.3965744972229004,0.12627506256103516,-0.5857641696929932,2.6427183151245117,9.376692771911621,3.7205514907836914
3_20251106_182811,1762424857673,3,0.155021533370018,-0.060413703322410583,-0.5697775483131409,-0.8047807216644287,1.1779170036315918,2.0021228790283203,-0.07680130004882812,2.2461438179016113,9.502967834472656,3.1347873210906982,0.13613882660865784,0.20733129978179932,0.06353374570608139,-4.917471885681152,-27.850791931152344,25.275896072387695,-0.3965744972229004,0.12627506256103516,-0.5857641696929932,2.6427183151245117,9.376692771911621,3.7205514907836914
3_20251106_182811,1762424857692,3,0.1557704210281372,-0.05944964662194252,-0.5705080628395081,-0.8041902184486389,1.1741554737091064,2.001892328262329,-0.07266896218061447,2.3335282802581787,9.514938354492188,3.3370885848999023,0.13613882660865784,0.20733129978179932,0.06353374570608139,-4.828263282775879,-27.79351806640625,25.131704330444336,-0.24735188484191895,0.1105966567993164,-0.30677032470703125,2.5808801651000977,9.404341697692871,3.6438589096069336
3_20251106_182811,1762424857711,3,0.1568976491689682,-0.05911065638065338,-0.5711582899093628,-0.803534209728241,1.1679083108901978,2.000985860824585,-0.062467753887176514,2.7429192066192627,9.160612106323242,4.237269401550293,0.1837862879037857,0.18534018099308014,0.1557743102312088,-4.737644195556641,-27.711135864257812,24.9880428314209,0.12477302551269531,-0.1986980438232422,0.4313035011291504,2.6181461811065674,9.359310150146484,3.8059659004211426
3_20251106_182811,1762424857730,3,0.15822041034698486,-0.05888566002249718,-0.5720607042312622,-0.8026489615440369,1.1656928062438965,1.9987677335739136,-0.05635235086083412,2.818333625793457,8.825438499450684,4.013421535491943,0.2460944801568985,0.22077032923698425,0.16738073527812958,-4.611172676086426,-27.63892364501953,24.8455867767334,0.16015005111694336,-0.4270973205566406,0.16596436500549316,2.6581835746765137,9.252535820007324,3.84745717048645
3_20251106_182811,1762424857750,3,0.1598735749721527,-0.05841038376092911,-0.5732885599136353,-0.801479160785675,1.1643463373184204,1.9949710369110107,-0.05059850588440895,2.944023609161377,8.733264923095703,3.7285239696502686,0.2460944801568985,0.22077032923698425,0.16738073527812958,-4.472613334655762,-27.566055297851562,24.717138290405273,0.22867202758789062,-0.4154167175292969,-0.09514641761779785,2.7153515815734863,9.148681640625,3.8236703872680664
3_20251106_182811,1762424857769,3,0.16160036623477936,-0.05805874615907669,-0.5744279026985168,-0.8003418445587158,1.1640605926513672,1.990273356437683,-0.045837484300136566,3.054152250289917,8.685383796691895,3.6662774085998535,0.23693151772022247,0.2293224334716797,0.18081976473331451,-4.320372581481934,-27.478759765625,24.481313705444336,0.271040678024292,-0.3706378936767578,-0.1259143352508545,2.783111572265625,9.056021690368652,3.792191743850708
3_20251106_182811,1762424857788,3,0.16349388659000397,-0.05763237923383713,-0.5748897790908813,-0.7996561527252197,1.164670705795288,1.9846360683441162,-0.04272734373807907,3.104428291320801,8.627925872802734,3.277236223220825,0.15141044557094574,0.26780688762664795,0.18509580194950104,-4.110627174377441,-27.45013427734375,24.23310661315918,0.2570533752441406,-0.34247684478759766,-0.41196441650390625,2.84737491607666,8.970402717590332,3.6892006397247314
3_20251106_182811,1762424857808,3,0.16548462212085724,-0.05681093409657478,-0.5749559998512268,-0.799257755279541,1.1657493114471436,1.9776592254638672,-0.04232882708311081,3.0014820098876953,8.529766082763672,2.7972192764282227,0.11170424520969391,0.33011510968208313,0.16921332478523254,-3.976508378982544,-27.464492797851562,24.03523063659668,0.12328577041625977,-0.3525094985961914,-0.7135848999023438,2.8781962394714355,8.882275581359863,3.5108041763305664
3_20251106_182811,1762424857826,3,0.1674896776676178,-0.05608557537198067,-0.57474285364151,-0.7990446090698242,1.1671254634857178,1.9710972309112549,-0.043907344341278076,3.0625314712524414,8.639896392822266,2.73138165473938,-0.011690422892570496,0.3111782968044281,0.24679316580295563,-3.808452844619751,-27.52642059326172,23.81073570251465,0.14746809005737305,-0.19390296936035156,-0.6235380172729492,2.9150633811950684,8.833799362182617,3.354919672012329
3_20251106_182811,1762424857845,3,0.1698482632637024,-0.056051161140203476,-0.5740057229995728,-0.7990790009498596,1.169478178024292,1.964563012123108,-0.04697109013795853,3.269620895385742,8.850576400756836,2.8151750564575195,-0.03612501174211502,0.26780688762664795,0.3365902900695801,-3.7288153171539307,-27.644546508789062,23.62230110168457,0.2836458683013916,0.013422012329101562,-0.4317958354949951,2.9859750270843506,8.837154388427734,3.2469708919525146
3_20251106_182811,1762424857864,3,0.17257483303546906,-0.056916624307632446,-0.5731164216995239,-0.7990719676017761,1.1731549501419067,1.9595943689346313,-0.05088569223880768,3.511425018310547,9.2886962890625,2.8810129165649414,-0.01046869345009327,0.22138120234012604,0.37873998284339905,-3.626215696334839,-27.78619384765625,23.4343204498291,0.42036008834838867,0.3612337112426758,-0.2927665710449219,3.091064929962158,8.927462577819824,3.1737794876098633
3_20251106_182811,1762424857883,3,0.1753745824098587,-0.05834891274571419,-0.5724661946296692,-0.7988251447677612,1.1781262159347534,1.9568636417388916,-0.05513192340731621,3.6299328804016113,9.652599334716797,2.981564998626709,-0.01963166519999504,0.20122265815734863,0.3622466027736664,-3.610327959060669,-27.958518981933594,23.24237632751465,0.4310944080352783,0.5801095962524414,-0.15377163887023926,3.198838472366333,9.072489738464355,3.1353366374969482
3_20251106_182811,1762424857902,3,0.17788474261760712,-0.059901829808950424,-0.5717950463294983,-0.7986358404159546,1.1842321157455444,1.9558085203170776,-0.059699393808841705,3.7029528617858887,9.633445739746094,2.9408655166625977,-0.004360046237707138,0.19939006865024567,0.2883319854736328,-3.659092664718628,-28.19786834716797,23.073694229125977,0.4032914638519287,0.4487648010253906,-0.1555769443511963,3.29966139793396,9.184680938720703,3.096442461013794
3_20251106_182811,1762424857922,3,0.17983102798461914,-0.06101951375603676,-0.5712859034538269,-0.7984797358512878,1.1914985179901123,1.9555898904800415,-0.06516558676958084,3.681406021118164,9.459874153137207,2.8008108139038086,0.04878518357872963,0.14991003274917603,0.20891954004764557,-3.659092664718628,-28.19786834716797,23.073694229125977,0.30539560317993164,0.2201547622680664,-0.23650527000427246,3.3760104179382324,9.23971939086914,3.037316083908081
3_20251106_182811,1762424857941,3,0.18094336986541748,-0.061994027346372604,-0.5713135004043579,-0.7981335520744324,1.1987727880477905,1.9558422565460205,-0.07110568135976791,3.637115001678467,9.40361213684082,2.670332193374634,0.09460003674030304,0.08760181814432144,0.13622663915157318,-3.7831008434295654,-28.49126434326172,22.806398391723633,0.20888376235961914,0.13111400604248047,-0.29358720779418945,3.4282312393188477,9.27249813079834,2.9639194011688232
3_20251106_182811,1762424857960,3,0.18116800487041473,-0.06298869103193283,-0.5718461275100708,-0.7976230978965759,1.1987727880477905,1.9558422565460205,-0.07110568135976791,3.637115001678467,9.40361213684082,2.670332193374634,0.11598029732704163,0.04484128952026367,0.061701156198978424,-3.9646995067596436,-28.714508056640625,22.659883499145508,0.20888376235961914,0.13111400604248047,-0.29358720779418945,3.4282312393188477,9.27249813079834,2.9639194011688232
3_20251106_182811,1762424857980,3,0.18063049018383026,-0.06384027004241943,-0.5726760029792786,-0.797081708908081,1.213054895401001,1.9559906721115112,-0.086516834795475,3.4240403175354004,9.111534118652344,2.4668335914611816,0.11048251390457153,-0.018077777698636055,-0.007326559163630009,-4.038330078125,-28.95612335205078,22.557802200317383,-0.017238140106201172,-0.13212871551513672,-0.31373000144958496,3.4412784576416016,9.24366283416748,2.7805635929107666
3_20251106_182811,1762424858000,3,0.17914237082004547,-0.06483933329582214,-0.5736374258995056,-0.79664546251297,1.2194007635116577,1.9549990892410278,-0.09519030898809433,3.3103206157684326,8.972675323486328,2.5183069705963135,0.08971311897039413,-0.04006890952587128,-0.07696513831615448,-4.085758209228516,-29.147262573242188,22.592920303344727,-0.1047663688659668,-0.21679019927978516,-0.20980525016784668,3.4150869846343994,9.189465522766113,2.72811222076416
3_20251106_182811,1762424858019,3,0.17694497108459473,-0.06569276750087738,-0.5744919776916504,-0.7964507937431335,1.2243150472640991,1.9529314041137695,-0.10337698459625244,3.1187925338745117,8.761995315551758,2.5973122119903564,0.0555046945810318,-0.04495582729578018,-0.12644518911838531,-4.038930892944336,-29.181488037109375,22.56705665588379,-0.23703575134277344,-0.3419761657714844,-0.10464000701904297,3.355828285217285,9.103971481323242,2.7019522190093994
3_20251106_182811,1762424858037,3,0.17433881759643555,-0.06634843349456787,-0.5751014947891235,-0.7965313196182251,1.227847695350647,1.9499012231826782,-0.11027754098176956,2.9942994117736816,8.629121780395508,2.891786575317383,0.0555046945810318,-0.04495582729578018,-0.12644518911838531,-3.9431488513946533,-29.200653076171875,22.61100196838379,-0.28922295570373535,-0.3798799514770508,0.15186762809753418,3.283522367477417,9.009001731872559,2.7399189472198486
3_20251106_182811,1762424858056,3,0.17307908833026886,-0.06608004122972488,-0.5753704905509949,-0.7966340780258179,1.230757474899292,1.9457907676696777,-0.11620914936065674,3.052955150604248,8.618349075317383,3.1000728607177734,-0.03673587739467621,-0.04495582729578018,-0.11789307743310928,-3.7847301959991455,-29.190330505371094,22.61737632751465,-0.18445372581481934,-0.31252193450927734,0.28812313079833984,3.2374088764190674,8.93087100982666,2.8119497299194336
3_20251106_182811,1762424858075,3,0.1704537719488144,-0.06690789759159088,-0.5751722455024719,-0.7972739338874817,1.2328810691833496,1.9413634538650513,-0.1203344315290451,3.003876209259033,8.740447998046875,3.362226963043213,-0.07094429433345795,-0.051064468920230865,-0.10873010009527206,-3.5846216678619385,-29.089454650878906,22.600038528442383,-0.18682622909545898,-0.15233802795410156,0.44022178649902344,3.190702438354492,8.892786026000977,2.9220051765441895
3_20251106_182811,1762424858095,3,0.1678510457277298,-0.06790121644735336,-0.5746756792068481,-0.7980998158454895,1.2341601848602295,1.9365785121917725,-0.12241547554731369,2.912900447845459,8.775161743164062,3.594454288482666,-0.0935463011264801,-0.0596165806055069,-0.0867389664053917,-3.3293135166168213,-28.860641479492188,22.66840171813965,-0.22224164009094238,-0.09409904479980469,0.537959098815918,3.1351420879364014,8.869260787963867,3.056495189666748
3_20251106_182811,1762424858114,3,0.16541099548339844,-0.0690484270453453,-0.5739700198173523,-0.7990180850028992,1.2345701456069946,1.9315979480743408,-0.12226592004299164,2.863821506500244,8.627925872802734,3.795558452606201,-0.06178133189678192,-0.07733165472745895,-0.053141411393880844,-3.0426909923553467,-28.72936248779297,22.682058334350586,-0.2170562744140625,-0.1930685043334961,0.5912506580352783,3.0808777809143066,8.82099437713623,3.204307794570923
3_20251106_182811,1762424858133,3,0.16315142810344696,-0.07043185085058212,-0.573469877243042,-0.7997207045555115,1.2340750694274902,1.9257357120513916,-0.12093192338943481,2.758481025695801,8.408864974975586,3.638745069503784,0.03595702350139618,-0.04678841680288315,-0.02198731154203415,-2.789016008377075,-28.549156188964844,22.587167739868164,-0.2579174041748047,-0.32970333099365234,0.3475496768951416,3.0163984298706055,8.738568305969238,3.2911953926086426
3_20251106_182811,1762424858152,3,0.16135174036026,-0.07160678505897522,-0.573593258857727,-0.7998930215835571,1.2340750694274902,1.9257357120513916,-0.12093192338943481,2.758481025695801,8.408864974975586,3.638745069503784,0.09032398462295532,0.017352376133203506,0.02077321708202362,-2.5953691005706787,-28.360092163085938,22.463056564331055,-0.2579174041748047,-0.32970333099365234,0.3475496768951416,3.0163984298706055,8.738568305969238,3.2911953926086426
3_20251106_182811,1762424858171,3,0.1602753847837448,-0.07242892682552338,-0.5740152597427368,-0.7997326850891113,1.232430100440979,1.91817045211792,-0.12072143703699112,2.6806726455688477,8.317890167236328,2.936077117919922,0.03656788915395737,0.023461023345589638,0.0788053646683693,-2.515711545944214,-28.242042541503906,22.441343307495117,-0.26858067512512207,-0.33654212951660156,-0.28409457206726074,2.9492533206939697,8.65443229675293,3.2201716899871826
3_20251106_182811,1762424858190,3,0.15965300798416138,-0.0735824778676033,-0.5741051435470581,-0.7996873259544373,1.2306296825408936,1.9116029739379883,-0.12236084789037704,2.7620720863342285,8.489067077636719,2.4847896099090576,-0.06178133189678192,-0.009525671601295471,0.11606811732053757,-2.508267641067505,-28.115928649902344,22.389917373657227,-0.14974498748779297,-0.1322917938232422,-0.5883057117462158,2.9118170738220215,8.621358871459961,3.0730953216552734
3_20251106_182811,1762424858209,3,0.15913911163806915,-0.07529222220182419,-0.5735719799995422,-0.8000131249427795,1.2270177602767944,1.89983069896698,-0.12822584807872772,2.894944667816162,8.821847915649414,2.828342914581299,-0.08438332378864288,-0.024186424911022186,0.08980093151330948,-2.524589776992798,-27.978981018066406,22.351289749145508,-0.009074687957763672,0.15033912658691406,-0.1261887550354004,2.904019355773926,8.6715087890625,2.954531669616699
3_20251106_182811,1762424858229,3,0.1583506315946579,-0.07699565589427948,-0.572891116142273,-0.8004951477050781,1.2250475883483887,1.8953564167022705,-0.1324763000011444,2.8542449474334717,9.049286842346191,2.590129852294922,-0.08316159248352051,-0.023575559258461,0.03421224281191826,-2.5684988498687744,-27.894393920898438,22.36469078063965,-0.03981947898864746,0.30222225189208984,-0.2915213108062744,2.894064426422119,8.747064590454102,2.8816511631011963
3_20251106_182811,1762424858247,3,0.15715932846069336,-0.07835858315229416,-0.5722339153289795,-0.8010675311088562,1.2231029272079468,1.8932831287384033,-0.1367398500442505,2.788407325744629,9.458677291870117,2.6260414123535156,-0.1509675830602646,-0.024186424911022186,-0.042756713926792145,-2.7510788440704346,-27.894424438476562,22.425180435180664,-0.08452558517456055,0.5692901611328125,-0.20448780059814453,2.8729329109191895,8.889387130737305,2.83052921295166
3_20251106_182811,1762424858266,3,0.15536297857761383,-0.07934574037790298,-0.5711860060691833,-0.8020680546760559,1.2206450700759888,1.8934720754623413,-0.14007210731506348,2.687854766845703,9.716043472290039,3.1742899417877197,-0.23465605080127716,0.04300869256258011,-0.14599286019802094,-2.9807956218719482,-27.87225341796875,22.45720100402832,-0.14806246757507324,0.6613254547119141,0.2750086784362793,2.8359172344207764,9.054718017578125,2.8992812633514404
3_20251106_182811,1762424858286,3,0.15318651497364044,-0.07924529910087585,-0.5695174932479858,-0.8036814332008362,1.2175078392028809,1.8957806825637817,-0.1415857970714569,2.612441062927246,9.751955032348633,3.497493267059326,-0.23526690900325775,0.14257964491844177,-0.2302921861410141,-3.247267961502075,-27.85272979736328,22.51478385925293,-0.17878079414367676,0.5577898025512695,0.47856950759887695,2.791221857070923,9.194165229797363,3.018923759460449
3_20251106_182811,1762424858304,3,0.1509578824043274,-0.07783331722021103,-0.567690908908844,-0.8055313229560852,1.2141170501708984,1.8988038301467896,-0.141445130109787,2.503509283065796,9.620279312133789,3.6016364097595215,-0.16440661251544952,0.13402754068374634,-0.22723788022994995,-3.466320276260376,-27.866622924804688,22.46540641784668,-0.23017024993896484,0.34089088439941406,0.4661703109741211,2.7336795330047607,9.279388427734375,3.1354660987854004
3_20251106_182811,1762424858323,3,0.1488156020641327,-0.07634175568819046,-0.5663712620735168,-0.8070002794265747,1.2096879482269287,1.9025243520736694,-0.13998568058013916,2.35866641998291,9.530500411987305,3.6160011291503906,-0.0630030557513237,0.07599539309740067,-0.12949950993061066,-3.6260368824005127,-27.89031219482422,22.539865493774414,-0.30001068115234375,0.20088958740234375,0.3844280242919922,2.658677101135254,9.329610824584961,3.2315731048583984
3_20251106_182811,1762424858343,3,0.1471657007932663,-0.07568202167749405,-0.5658160448074341,-0.8077540993690491,1.204729437828064,1.9066296815872192,-0.13781379163265228,2.3850016593933105,9.537681579589844,3.517843246459961,-0.0630030557513237,0.07599539309740067,-0.12949950993061066,-3.7637064456939697,-27.96197509765625,22.546667098999023,-0.21894025802612305,0.1664562225341797,0.22901630401611328,2.6039419174194336,9.371225357055664,3.2888269424438477
3_20251106_182811,1762424858362,3,0.14638236165046692,-0.07594235241413116,-0.5658003091812134,-0.8078830242156982,1.1996912956237793,1.9113938808441162,-0.134898379445076,2.577726364135742,9.587958335876465,3.53340482711792,0.06100247800350189,0.00024816393852233887,0.09713130444288254,-3.928060293197632,-28.073165893554688,22.5787296295166,-0.020972251892089844,0.1733865737915039,0.1956624984741211,2.598698616027832,9.414571762084961,3.337742328643799
3_20251106_182811,1762424858381,3,0.1461607664823532,-0.07688988000154495,-0.566152811050415,-0.8075864911079407,1.1955268383026123,1.9160246849060059,-0.13210152089595795,2.738131046295166,9.535287857055664,3.3981382846832275,0.08299361169338226,0.023461023345589638,0.10262909531593323,-4.019396781921387,-28.179718017578125,22.627248764038086,0.11154580116271973,0.0965728759765625,0.04831671714782715,2.6265852451324463,9.438714981079102,3.3498215675354004
3_20251106_182811,1762424858399,3,0.14614997804164886,-0.07768692076206207,-0.5666342377662659,-0.8071744441986084,1.192103624343872,1.9197670221328735,-0.12968644499778748,2.758481025695801,9.265952110290527,3.3083596229553223,0.0756632387638092,0.06622155755758286,0.061701156198978424,-4.019396781921387,-28.179718017578125,22.627248764038086,0.10551643371582031,-0.13821029663085938,-0.03316950798034668,2.6529645919799805,9.404162406921387,3.341529130935669
3_20251106_182811,1762424858419,3,0.1459987759590149,-0.07803096622228622,-0.5670402646064758,-0.8068833947181702,1.1891385316848755,1.9227440357208252,-0.12706336379051208,2.866215229034424,9.084001541137695,3.3658180236816406,0.0756632387638092,0.06622155755758286,0.061701156198978424,-4.061890602111816,-28.282958984375,22.664213180541992,0.17060041427612305,-0.25612926483154297,0.019431114196777344,2.695614814758301,9.340130805969238,3.3463869094848633
3_20251106_182811,1762424858439,3,0.14592216908931732,-0.07829003781080246,-0.5672348141670227,-0.8067354559898376,1.1891385316848755,1.9227440357208252,-0.12706336379051208,2.866215229034424,9.084001541137695,3.3658180236816406,0.05061778053641319,0.0796605795621872,0.058646831661462784,-4.056938171386719,-28.396392822265625,22.78397560119629,0.17060041427612305,-0.25612926483154297,0.019431114196777344,2.695614814758301,9.340130805969238,3.3463869094848633
3_20251106_182811,1762424858458,3,0.14575545489788055,-0.07886335998773575,-0.5675537586212158,-0.8064853549003601,1.1868177652359009,1.9258686304092407,-0.12210488319396973,3.1870245933532715,9.131882667541504,3.3969411849975586,0.06833285093307495,0.023461023345589638,0.05620337277650833,-4.053197860717773,-28.53466796875,22.876176834106445,0.33997535705566406,-0.11776447296142578,0.03790903091430664,2.8470492362976074,9.24964714050293,3.359032154083252
3_20251106_182811,1762424858477,3,0.1453617364168167,-0.0796179324388504,-0.5679247975349426,-0.8062210083007812,1.1874970197677612,1.9266184568405151,-0.11973363161087036,3.304335355758667,9.089985847473145,3.440034866333008,0.03595702350139618,0.04117610305547714,0.009166788309812546,-4.073631286621094,-28.67426300048828,22.94036293029785,0.3658289909362793,-0.1277294158935547,0.06480216979980469,2.9385063648223877,9.2177152633667,3.375232696533203
3_20251106_182811,1762424858496,3,0.14568230509757996,-0.0793554037809372,-0.5681531429290771,-0.8060281276702881,1.1874970197677612,1.9266184568405151,-0.11973363161087036,3.304335355758667,9.089985847473145,3.440034866333008,0.02251800149679184,0.08149316906929016,-0.05863919109106064,-4.093162536621094,-28.80103302001953,22.977781295776367,0.3658289909362793,-0.1277294158935547,0.06480216979980469,2.9385063648223877,9.2177152633667,3.375232696533203
3_20251106_182811,1762424858515,3,0.14467167854309082,-0.07919172197580338,-0.568159282207489,-0.8062219619750977,1.1898294687271118,1.9268254041671753,-0.1173408180475235,3.3582024574279785,9.037315368652344,3.277236223220825,0.021296273916959763,0.07110846787691116,-0.11911480873823166,-4.124175071716309,-28.916038513183594,23.01497459411621,0.3357570171356201,-0.1443195343017578,-0.07839727401733398,3.0224454402923584,9.181634902954102,3.355633497238159
3_20251106_182811,1762424858533,3,0.14315162599086761,-0.07880089432001114,-0.5682434439659119,-0.8064722418785095,1.1946251392364502,1.92603600025177,-0.11646028608083725,3.142733573913574,9.04210376739502,2.854677677154541,0.021296273916959763,0.07110846787691116,-0.11911480873823166,-4.130209922790527,-29.01703643798828,23.066926956176758,0.05495858192443848,-0.08183002471923828,-0.3422544002532959,3.0877749919891357,9.123933792114258,3.196932077407837
3_20251106_182811,1762424858553,3,0.14130179584026337,-0.07851047813892365,-0.5682507753372192,-0.8068215250968933,1.1972302198410034,1.9256888628005981,-0.11709761619567871,3.0816843509674072,9.19053840637207,3.016279697418213,-0.05200749635696411,0.06438896059989929,-0.142327681183815,-4.160517692565918,-29.119483947753906,23.10438346862793,-0.004872560501098633,0.05328369140625,-0.14452195167541504,3.086556911468506,9.13725471496582,3.160801649093628
3_20251106_182811,1762424858572,3,0.13953134417533875,-0.07808683067560196,-0.5678864121437073,-0.8074270486831665,1.1972302198410034,1.9256888628005981,-0.11709761619567871,3.0816843509674072,9.19053840637207,3.016279697418213,-0.06422478705644608,0.07294106483459473,-0.1368298977613449,-4.166959762573242,-29.232635498046875,23.115522384643555,-0.004872560501098633,0.05328369140625,-0.14452195167541504,3.086556911468506,9.13725471496582,3.160801649093628
3_20251106_182811,1762424858591,3,0.13784098625183105,-0.07761674374341965,-0.5673967003822327,-0.8081067204475403,1.199701189994812,1.9253755807876587,-0.11769846826791763,3.085275173187256,9.142656326293945,3.1623196601867676,-0.022075124084949493,0.04606302082538605,-0.11850393563508987,-4.143799781799316,-29.255889892578125,23.08894157409668,-0.0010254383087158203,0.004321098327636719,0.0012142658233642578,3.0863006114959717,9.138335227966309,3.1611053943634033
3_20251106_182811,1762424858610,3,0.13621029257774353,-0.07738412916660309,-0.567226231098175,-0.8085251450538635,1.2040590047836304,1.9251989126205444,-0.11835208535194397,3.1271719932556152,9.279119491577148,3.2257630825042725,-0.006803505122661591,0.03690004348754883,-0.11606048047542572,-4.134137153625488,-29.304916381835938,23.047826766967773,0.03190350532531738,0.1109781265258789,0.04425382614135742,3.095268487930298,9.16814136505127,3.181509256362915
3_20251106_182811,1762424858629,3,0.1345440298318863,-0.07723339647054672,-0.5671740770339966,-0.8088550567626953,1.2040590047836304,1.9251989126205444,-0.11835208535194397,3.1271719932556152,9.279119491577148,3.2257630825042725,-0.006803505122661591,0.03690004348754883,-0.11606048047542572,-4.146112442016602,-29.2938232421875,23.115182876586914,0.03190350532531738,0.1109781265258789,0.04425382614135742,3.095268487930298,9.16814136505127,3.181509256362915
3_20251106_182811,1762424858650,3,0.13264712691307068,-0.07739875465631485,-0.5674901008605957,-0.8089308738708496,1.2091575860977173,1.9278898239135742,-0.11662831902503967,3.1690688133239746,9.570003509521484,3.596848487854004,0.000526871532201767,0.02895880676805973,-0.18142302334308624,-4.097170829772949,-29.290374755859375,23.090112686157227,0.04378461837768555,0.28228187561035156,0.3020157814025879,3.125284194946289,9.287721633911133,3.294832706451416
3_20251106_182811,1762424858669,3,0.13052764534950256,-0.077464759349823,-0.5677639245986938,-0.8090772032737732,1.2091575860977173,1.9278898239135742,-0.11662831902503967,3.1690688133239746,9.570003509521484,3.596848487854004,0.029848378151655197,0.033845722675323486,-0.22357268631458282,-4.0561723709106445,-29.200767517089844,23.161012649536133,0.04378461837768555,0.28228187561035156,0.3020157814025879,3.125284194946289,9.287721633911133,3.294832706451416
3_20251106_182811,1762424858687,3,0.12810656428337097,-0.07716728746891022,-0.5680580735206604,-0.8092860579490662,1.2128397226333618,1.93430757522583,-0.11098384857177734,2.9320530891418457,9.821383476257324,3.689021110534668,0.0451199971139431,0.05583685636520386,-0.24800725281238556,-4.0142717361450195,-29.09833526611328,23.20514488220215,-0.14511895179748535,0.3618450164794922,0.24155497550964355,3.077172040939331,9.459538459777832,3.4474661350250244
3_20251106_182811,1762424858705,3,0.12569956481456757,-0.07630390673875809,-0.5683221220970154,-0.8095599412918091,1.213850498199463,1.9389567375183105,-0.1070265993475914,2.9057178497314453,9.951861381530762,3.8745639324188232,0.04878518730401993,0.043619558215141296,-0.25839194655418396,-3.9372360706329346,-29.030242919921875,23.15534019470215,-0.13716340065002441,0.3938589096069336,0.3416783809661865,3.0428812503814697,9.558002471923828,3.5328855514526367
3_20251106_182811,1762424858725,3,0.12316173315048218,-0.0752386823296547,-0.5687854886054993,-0.8097242712974548,1.2148425579071045,1.9454764127731323,-0.10130497068166733,3.0182406902313232,10.088325500488281,4.040953636169434,0.10742819309234619,0.08699095249176025,-0.29565468430519104,-3.82846999168396,-28.822975158691406,23.163488388061523,-0.019712448120117188,0.4242591857910156,0.40645456314086914,3.0379531383514404,9.664066314697266,3.6344990730285645
3_20251106_182811,1762424858743,3,0.12058646976947784,-0.07357791066169739,-0.5694714784622192,-0.8097823262214661,1.2168978452682495,1.9526259899139404,-0.09629935771226883,3.5281834602355957,10.303793907165527,3.6806418895721436,0.18684060871601105,0.1932814121246338,-0.3958365023136139,-3.705613851547241,-28.589126586914062,23.105070114135742,0.3921842575073242,0.5117826461791992,0.03691434860229492,3.1359992027282715,9.792011260986328,3.6437275409698486
3_20251106_182811,1762424858762,3,0.117942675948143,-0.07072523981332779,-0.5705181360244751,-0.8096891641616821,1.2168978452682495,1.9526259899139404,-0.09629935771226883,3.5281834602355957,10.303793907165527,3.6806418895721436,0.15996254980564117,0.1920596957206726,-0.5888698101043701,-3.5072171688079834,-28.300819396972656,23.104719161987305,0.3921842575073242,0.5117826461791992,0.03691434860229492,3.1359992027282715,9.792011260986328,3.6437275409698486
3_20251106_182811,1762424858783,3,0.1137474775314331,-0.06802134960889816,-0.5719341039657593,-0.8095220923423767,1.2285133600234985,1.972292423248291,-0.08744661509990692,3.882510185241699,10.172119140625,3.532207727432251,0.1746233105659485,0.10104084014892578,-0.8191657662391663,-3.2294723987579346,-27.90648651123047,23.028322219848633,0.44712257385253906,0.19462108612060547,-0.0566251277923584,3.43538761138916,9.977498054504395,3.5888328552246094
3_20251106_182811,1762424858802,3,0.10725392401218414,-0.06358613818883896,-0.5736716389656067,-0.8095394968986511,1.2328541278839111,1.9802237749099731,-0.08546222001314163,2.9344472885131836,9.744771957397461,2.937274217605591,0.3132896423339844,0.0949321910738945,-0.9853209853172302,-2.924851179122925,-27.25940704345703,22.876596450805664,-0.40075230598449707,-0.18618106842041016,-0.5212469100952148,3.3351995944976807,9.930953025817871,3.4585211277008057
3_20251106_182811,1762424858821,3,0.09956035017967224,-0.0581413097679615,-0.576507568359375,-0.8089168071746826,1.2328541278839111,1.9802237749099731,-0.08546222001314163,2.9344472885131836,9.744771957397461,2.937274217605591,0.3542175889015198,0.19633574783802032,-1.0360227823257446,-2.924851179122925,-27.25940704345703,22.876596450805664,-0.40075230598449707,-0.18618106842041016,-0.5212469100952148,3.3351995944976807,9.930953025817871,3.4585211277008057
3_20251106_182811,1762424858839,3,0.0920872613787651,-0.051386263221502304,-0.5796293020248413,-0.8080280423164368,1.224831461906433,1.9898980855941772,-0.09424518048763275,0.3188941776752472,8.642290115356445,1.5103912353515625,0.22410334646701813,0.27758073806762695,-0.9333975315093994,-2.5543787479400635,-26.532066345214844,22.634294509887695,-2.1242618560791016,-0.9421510696411133,-1.3138377666473389,2.4431560039520264,9.584441184997559,2.8242290019989014
3_20251106_182811,1762424858859,3,0.08579878509044647,-0.04434448480606079,-0.5817518830299377,-0.807611882686615,1.2087314128875732,1.9879567623138428,-0.10415960848331451,-0.35863572359085083,7.937227249145508,1.7162837982177734,0.10498473793268204,0.22077032923698425,-0.5900915265083313,-2.1771671772003174,-25.691177368164062,22.340303421020508,-2.2414333820343018,-1.3177709579467773,-0.8863561153411865,1.8827977180480957,9.254998207092285,2.60263991355896
3_20251106_182811,1762424858879,3,0.08185099065303802,-0.039416953921318054,-0.5828670859336853,-0.8074730038642883,1.1865168809890747,1.9819791316986084,-0.11440965533256531,-0.39335015416145325,7.895330429077148,2.3291730880737305,0.12086722254753113,0.06683241575956345,-0.132553830742836,-1.7983405590057373,-24.600341796875,22.091650009155273,-1.820918321609497,-1.0877342224121094,-0.21877360343933105,1.4275681972503662,8.983064651489258,2.5479466915130615
3_20251106_182811,1762424858898,3,0.08059273660182953,-0.038045503199100494,-0.5839608311653137,-0.8068748712539673,1.1645252704620361,1.9747763872146606,-0.12221771478652954,0.20996271073818207,8.133543014526367,2.936077117919922,0.12086722254753113,0.06683241575956345,-0.132553830742836,-1.3605194091796875,-23.34160614013672,21.699708938598633,-0.9740843772888184,-0.6796169281005859,0.3105041980743408,1.1840471029281616,8.813159942626953,2.625572919845581
3_20251106_182811,1762424858915,3,0.08260906487703323,-0.038495395332574844,-0.5853243470191956,-0.8056607246398926,1.143112301826477,1.966888189315796,-0.12848760187625885,0.9724831581115723,8.38851547241211,3.091693639755249,0.20333395898342133,0.13830360770225525,0.3762964904308319,-0.9570298194885254,-22.03583526611328,21.388452529907227,-0.16925108432769775,-0.33971595764160156,0.3728964328765869,1.14173424243927,8.728231430053711,2.718797206878662
3_20251106_182811,1762424858936,3,0.0860094204545021,-0.03926359489560127,-0.5865827202796936,-0.8043515682220459,1.143112301826477,1.966888189315796,-0.12848760187625885,0.9724831581115723,8.38851547241211,3.091693639755249,0.20333395898342133,0.13830360770225525,0.3762964904308319,-0.6612975597381592,-20.699806213378906,21.10060691833496,-0.16925108432769775,-0.33971595764160156,0.3728964328765869,1.14173424243927,8.728231430053711,2.718797206878662
3_20251106_182811,1762424858955,3,0.08976837247610092,-0.03892972320318222,-0.5872434377670288,-0.803474485874176,1.119189977645874,1.9571839570999146,-0.13451926410198212,1.3974356651306152,8.58004379272461,3.058176040649414,0.14224748313426971,0.27758073806762695,0.3249838650226593,-0.48037147521972656,-19.45909881591797,20.833532333374023,0.20456111431121826,-0.11855030059814453,0.2715029716491699,1.192874550819397,8.698594093322754,2.786673069000244
3_20251106_182811,1762424858974,3,0.09261701256036758,-0.03789325803518295,-0.587209165096283,-0.8032256960868835,1.100278377532959,1.9485782384872437,-0.13912373781204224,1.4536970853805542,8.463929176330566,2.9121360778808594,-0.037957604974508286,0.29773926734924316,0.13683751225471497,-0.48352837562561035,-18.456619262695312,20.6629695892334,0.2086580991744995,-0.18773174285888672,0.10037040710449219,1.2450389862060547,8.651660919189453,2.811765670776367
3_20251106_182811,1762424858992,3,0.09474869817495346,-0.0368037074804306,-0.5865545272827148,-0.803506076335907,1.0676558017730713,1.9312058687210083,-0.14549265801906586,1.3016716241836548,8.368165969848633,3.3466649055480957,-0.037957604974508286,0.29773926734924316,0.13683751225471497,-0.5543415546417236,-17.560043334960938,20.63652229309082,0.02839219570159912,-0.17071151733398438,0.40898728370666504,1.2732794284820557,8.538877487182617,2.9376776218414307
3_20251106_182811,1762424859011,3,0.09691468626260757,-0.03567961975932121,-0.5851786732673645,-0.8043012022972107,1.0676558017730713,1.9312058687210083,-0.14549265801906586,1.3016716241836548,8.368165969848633,3.3466649055480957,-0.1247003972530365,0.3533279597759247,0.14416788518428802,-0.6705665588378906,-16.81707763671875,20.65949821472168,0.02839219570159912,-0.17071151733398438,0.40898728370666504,1.2732794284820557,8.538877487182617,2.9376776218414307
3_20251106_182811,1762424859030,3,0.09948529303073883,-0.03415718674659729,-0.5837244391441345,-0.8051097393035889,1.03618586063385,1.9132282733917236,-0.14806973934173584,1.1544346809387207,8.522584915161133,2.9851560592651367,-0.10087667405605316,0.36615610122680664,0.166769877076149,-0.9005777835845947,-16.357803344726562,20.780874252319336,-0.0898507833480835,0.011598587036132812,-0.024199247360229492,1.2442854642868042,8.510986328125,3.009355306625366
3_20251106_182811,1762424859050,3,0.10232146084308624,-0.032605450600385666,-0.5824387669563293,-0.8057494759559631,1.03618586063385,1.9132282733917236,-0.14806973934173584,1.1544346809387207,8.522584915161133,2.9851560592651367,-0.10087667405605316,0.36615610122680664,0.166769877076149,-1.2765867710113525,-16.310455322265625,21.105161666870117,-0.0898507833480835,0.011598587036132812,-0.024199247360229492,1.2442854642868042,8.510986328125,3.009355306625366
3_20251106_182811,1762424859070,3,0.1052098348736763,-0.031826138496398926,-0.5811023116111755,-0.8063734173774719,1.0186488628387451,1.9042352437973022,-0.14968353509902954,1.095779299736023,8.672216415405273,2.9576239585876465,-0.13630683720111847,0.25742220878601074,0.2632865011692047,-1.7278211116790771,-16.51848602294922,21.44875144958496,-0.118804931640625,0.1289844512939453,-0.04138517379760742,1.214584231376648,8.543231964111328,2.999009132385254
3_20251106_182811,1762424859089,3,0.10820867866277695,-0.03157729282975197,-0.579711377620697,-0.8069872856140137,1.0039312839508057,1.8978183269500732,-0.14990267157554626,1.094582200050354,8.893671035766602,3.4017295837402344,-0.11675915122032166,0.3539388179779053,0.26450827717781067,-2.224677801132202,-16.892013549804688,21.7739200592041,-0.09600162506103516,0.2803516387939453,0.322176456451416,1.1905838251113892,8.613319396972656,3.0795531272888184
3_20251106_182811,1762424859107,3,0.11175722628831863,-0.030548326671123505,-0.5782996416091919,-0.8075559735298157,0.9890565276145935,1.892664909362793,-0.14861838519573212,1.1388731002807617,9.028936386108398,3.5741047859191895,-0.11675915122032166,0.3539388179779053,0.26450827717781067,-2.7201192378997803,-17.453369140625,22.122652053833008,-0.04136860370635986,0.33249378204345703,0.3956413269042969,1.1802417039871216,8.696442604064941,3.1784634590148926
3_20251106_182811,1762424859126,3,0.11602313071489334,-0.028891805559396744,-0.5767139792442322,-0.8081490397453308,0.9662207961082458,1.8882373571395874,-0.14488829672336578,1.5722049474716187,9.586761474609375,3.529813528060913,-0.20411281287670135,0.4858856201171875,0.31643176078796387,-3.304480791091919,-18.29615020751953,22.503183364868164,0.30161142349243164,0.6416263580322266,0.24899649620056152,1.270593523979187,8.945135116577148,3.2808170318603516
3_20251106_182811,1762424859144,3,0.1207166537642479,-0.027208691462874413,-0.5744847059249878,-0.8091071844100952,0.9662207961082458,1.8882373571395874,-0.14488829672336578,1.5722049474716187,9.586761474609375,3.529813528060913,-0.28780126571655273,0.48344212770462036,0.2779472768306732,-3.8848178386688232,-19.288421630859375,22.840490341186523,0.30161142349243164,0.6416263580322266,0.24899649620056152,1.270593523979187,8.945135116577148,3.2808170318603516
3_20251106_182811,1762424859164,3,0.12518393993377686,-0.025408824905753136,-0.571623682975769,-0.8105120062828064,0.9513700604438782,1.8945881128311157,-0.13587015867233276,2.328740119934082,10.302597045898438,3.955963134765625,-0.24565161764621735,0.43701642751693726,0.15333084762096405,-4.541598320007324,-20.34796905517578,23.146501541137695,0.7203077077865601,0.9172325134277344,0.4485650062561035,1.608432412147522,9.385364532470703,3.5073981285095215
