session_id,timestamp,label,quaternion_w,quaternion_x,quaternion_y,quaternion_z,position_x,position_y,position_z,accelerometer_x,accelerometer_y,accelerometer_z,gyroscope_x,gyroscope_y,gyroscope_z,magnetometer_x,magnetometer_y,magnetometer_z,linear_acceleration_x,linear_acceleration_y,linear_acceleration_z,gravity_x,gravity_y,gravity_z
4_20251106_214131,1762436454762,4,0.2217618227005005,0.20733706653118134,0.742464542388916,0.5971426963806152,0.09831883758306503,3.2537004947662354,1.1965625286102295,-0.493902325630188,9.775895118713379,-1.7024892568588257,0.018295399844646454,0.0022220206446945667,0.10602320730686188,9.278465270996094,-14.703086853027344,29.548999786376953,0.31850898265838623,0.5289678573608398,0.027765989303588867,-0.8124113082885742,9.246927261352539,-1.7302552461624146
4_20251106_214131,1762436454781,4,0.22020922601222992,0.2070804089307785,0.7426220178604126,0.5976102948188782,0.09298642724752426,3.263381242752075,1.1640294790267944,-0.4232763946056366,9.67654037475586,-1.7120656967163086,0.02623664028942585,0.03520871698856354,0.06998218595981598,9.293174743652344,-14.652473449707031,29.591094970703125,0.3113079369068146,0.3436908721923828,0.014551639556884766,-0.7345843315124512,9.332849502563477,-1.7266173362731934
4_20251106_214131,1762436454800,4,0.21859312057495117,0.20637860894203186,0.7429710626602173,0.5980125069618225,0.08904071152210236,3.273564577102661,1.1308165788650513,-0.2784334421157837,9.498180389404297,-1.950278401374817,0.03356701880693436,0.04009563475847244,0.06570613384246826,9.233146667480469,-14.64361572265625,29.561874389648438,0.3649207353591919,0.1322650909423828,-0.17892885208129883,-0.6433541774749756,9.365915298461914,-1.771349549293518
4_20251106_214131,1762436454819,4,0.21694716811180115,0.20564813911914825,0.7433791160583496,0.598356306552887,0.08679618686437607,3.2830753326416016,1.100055456161499,-0.16351668536663055,9.48261833190918,-2.0580127239227295,0.014630211517214775,-0.008773545734584332,0.054099708795547485,9.242414474487305,-14.693183898925781,29.574825286865234,0.383870005607605,0.09336185455322266,-0.22933053970336914,-0.5473867058753967,9.389256477355957,-1.8286821842193604
4_20251106_214131,1762436454839,4,0.21574461460113525,0.2051437795162201,0.743624210357666,0.5986596345901489,0.0858096033334732,3.292964458465576,1.0691721439361572,-0.1335904449224472,9.513740539550781,-1.8688790798187256,0.00974329374730587,-0.08574249595403671,-0.006375900469720364,9.167986869812012,-14.722930908203125,29.557838439941406,0.3310369849205017,0.09958744049072266,-0.03215742111206055,-0.4646274447441101,9.414153099060059,-1.836721658706665
4_20251106_214131,1762436454860,4,0.2154473513364792,0.20469985902309418,0.743802011013031,0.5986977219581604,0.08519456535577774,3.3025381565093994,1.0402082204818726,-0.35863572359085083,9.473041534423828,-1.7132627964019775,0.02929096482694149,-0.06436223536729813,-0.08945350348949432,9.096280097961426,-14.702583312988281,29.555423736572266,0.08479338884353638,0.047110557556152344,0.09876716136932373,-0.4434291124343872,9.425930976867676,-1.8120299577713013
4_20251106_214131,1762436454877,4,0.2154046893119812,0.2035384327173233,0.7442770600318909,0.5985186696052551,0.08453185111284256,3.310464382171631,1.0164821147918701,-0.5190403461456299,9.514938354492188,-1.9658401012420654,0.007299832999706268,0.029710931703448296,-0.12366193532943726,9.096280097961426,-14.702583312988281,29.555423736572266,-0.060488998889923096,0.07120609283447266,-0.12304818630218506,-0.4585513472557068,9.443732261657715,-1.8427919149398804
4_20251106_214131,1762436454895,4,0.214970201253891,0.20150093734264374,0.7448714971542358,0.5986247658729553,0.08343563228845596,3.318950653076172,0.9900694489479065,-0.6016367673873901,9.469450950622559,-2.287846326828003,-0.03240637481212616,0.05719984322786331,-0.09739474952220917,9.123682022094727,-14.638885498046875,29.62530517578125,-0.11446833610534668,0.020574569702148438,-0.35604357719421387,-0.48716843128204346,9.44887638092041,-1.931802749633789
4_20251106_214131,1762436454914,4,0.2142980992794037,0.19942650198936462,0.7452746033668518,0.5990585684776306,0.08197178691625595,3.3274106979370117,0.9639316201210022,-0.6411393880844116,9.59394359588623,-2.3129844665527344,-0.03240637481212616,0.05719984322786331,-0.09739474952220917,9.111397743225098,-14.639816284179688,29.63833236694336,-0.12317675352096558,0.11605358123779297,-0.3049454689025879,-0.517962634563446,9.477890014648438,-2.0080389976501465
4_20251106_214131,1762436454934,4,0.21404291689395905,0.19813606142997742,0.7450867891311646,0.5998111367225647,0.08010196685791016,3.336308002471924,0.9397419691085815,-0.6926125288009644,9.791457176208496,-1.7743122577667236,-0.09410371631383896,-0.03076467104256153,-0.04119518771767616,9.139392852783203,-14.575309753417969,29.627117156982422,-0.1397199034690857,0.2508535385131836,0.1869814395904541,-0.5528926253318787,9.540603637695312,-1.9612936973571777
4_20251106_214131,1762436454952,4,0.21433357894420624,0.19751523435115814,0.7444573640823364,0.6006929874420166,0.07797843217849731,3.3455045223236084,0.9182140827178955,-0.6794450283050537,9.811806678771973,-1.4319560527801514,-0.10326667875051498,-0.0655839666724205,-0.01248454675078392,9.164555549621582,-14.572639465332031,29.51996612548828,-0.10124194622039795,0.2169628143310547,0.42347002029418945,-0.5782030820846558,9.594843864440918,-1.8554260730743408
4_20251106_214131,1762436454972,4,0.2150518149137497,0.19761349260807037,0.743736743927002,0.6012963652610779,0.07610025256872177,3.3553824424743652,0.897118330001831,-0.4974935054779053,9.818988800048828,-1.7132627964019775,-0.05561923235654831,0.006498073693364859,-0.02286924608051777,9.214103698730469,-14.556770324707031,29.50867462158203,0.0645676851272583,0.17931556701660156,0.11373066902160645,-0.5620611906051636,9.639673233032227,-1.826993465423584
4_20251106_214131,1762436454992,4,0.21441952884197235,0.19629107415676117,0.743675947189331,0.6020299792289734,0.07475640624761581,3.3648712635040283,0.8774685859680176,-0.4340498745441437,9.848915100097656,-2.049633502960205,-0.015302160754799843,-0.0503123477101326,-0.03508653864264488,9.225288391113281,-14.568939208984375,29.549449920654297,0.10240903496742249,0.16739368438720703,-0.17811203002929688,-0.5364589095115662,9.68152141571045,-1.8715214729309082
4_20251106_214131,1762436455011,4,0.21413588523864746,0.19533586502075195,0.7437861561775208,0.6023054718971252,0.0734618753194809,3.3750691413879395,0.8572337031364441,-0.520237386226654,9.914752960205078,-2.063997983932495,-0.037293288856744766,-0.12972474098205566,-0.05768853798508644,9.30998420715332,-14.575798034667969,29.539104461669922,0.012977182865142822,0.1865854263305664,-0.15398120880126953,-0.5332145690917969,9.728167533874512,-1.9100167751312256
4_20251106_214131,1762436455030,4,0.21453644335269928,0.19463877379894257,0.7437007427215576,0.6024940013885498,0.07191243767738342,3.384359836578369,0.8405736088752747,-0.7129623889923096,9.960241317749023,-1.6498191356658936,-0.11609483510255814,-0.12911388278007507,-0.09800560772418976,9.35761547088623,-14.597328186035156,29.499988555908203,-0.14379823207855225,0.18565940856933594,0.20815813541412354,-0.5691641569137573,9.774581909179688,-1.857977271080017
4_20251106_214131,1762436455051,4,0.21535541117191315,0.1935274451971054,0.7432295083999634,0.6031410098075867,0.07191243767738342,3.384359836578369,0.8405736088752747,-0.7129623889923096,9.960241317749023,-1.6498191356658936,-0.11609483510255814,-0.12911388278007507,-0.09800560772418976,9.354783058166504,-14.659172058105469,29.404052734375,-0.14379823207855225,0.18565940856933594,0.20815813541412354,-0.5691641569137573,9.774581909179688,-1.857977271080017
4_20251106_214131,1762436455067,4,0.21587634086608887,0.19151929020881653,0.7426543831825256,0.6043031215667725,0.06621584296226501,3.4041919708251953,0.8133624196052551,-0.9870866537094116,9.908768653869629,-1.0393239259719849,-0.1490815281867981,0.03887390345335007,-0.1371009647846222,9.460017204284668,-14.739250183105469,29.339038848876953,-0.28413331508636475,0.07266426086425781,0.5474960803985596,-0.7029533386230469,9.836104393005371,-1.5868200063705444
4_20251106_214131,1762436455087,4,0.2158937305212021,0.18874675035476685,0.741820752620697,0.6061902046203613,0.0622740276157856,3.4134325981140137,0.8029778599739075,-1.019407033920288,9.834550857543945,-1.1231173276901245,-0.1490815281867981,0.03887390345335007,-0.1371009647846222,9.564349174499512,-14.8321533203125,29.300792694091797,-0.2531629800796509,-0.0012426376342773438,0.37096214294433594,-0.7662440538406372,9.835793495178223,-1.4940794706344604
4_20251106_214131,1762436455105,4,0.21580944955348969,0.18622799217700958,0.7412658333778381,0.6076762676239014,0.0622740276157856,3.4134325981140137,0.8029778599739075,-1.019407033920288,9.834550857543945,-1.1231173276901245,0.02257145382463932,-0.04359283298254013,-0.07479274272918701,9.65942668914795,-14.863876342773438,29.34447479248047,-0.2531629800796509,-0.0012426376342773438,0.37096214294433594,-0.7662440538406372,9.835793495178223,-1.4940794706344604
4_20251106_214131,1762436455125,4,0.21588438749313354,0.18463817238807678,0.7411662936210632,0.608255922794342,0.052040137350559235,3.4300577640533447,0.7850048542022705,-1.1678410768508911,9.607110977172852,-1.3864681720733643,0.08732310682535172,-0.09612719714641571,-0.05219075456261635,9.742812156677246,-14.895713806152344,29.320083618164062,-0.27157825231552124,-0.1710643768310547,0.04186582565307617,-0.8962628245353699,9.778175354003906,-1.4283339977264404
4_20251106_214131,1762436455144,4,0.21610009670257568,0.1836259961128235,0.7414148449897766,0.6081827282905579,0.052040137350559235,3.4300577640533447,0.7850048542022705,-1.1678410768508911,9.607110977172852,-1.3864681720733643,0.05128210037946701,-0.07902298122644424,-0.036919135600328445,9.790047645568848,-14.91778564453125,29.335033416748047,-0.27157825231552124,-0.1710643768310547,0.04186582565307617,-0.8962628245353699,9.778175354003906,-1.4283339977264404
4_20251106_214131,1762436455163,4,0.2162114828824997,0.18252083659172058,0.7416824102401733,0.6081496477127075,0.03912476450204849,3.4415829181671143,0.7692369818687439,-1.319866418838501,9.329395294189453,-1.3649213314056396,0.05128210037946701,-0.07902298122644424,-0.036919135600328445,9.826098442077637,-14.927688598632812,29.309207916259766,-0.2783844470977783,-0.3138418197631836,0.05743861198425293,-1.0414819717407227,9.643237113952637,-1.4223599433898926
4_20251106_214131,1762436455182,4,0.2159450203180313,0.1806921809911728,0.7419010400772095,0.6085235476493835,0.03178320825099945,3.445038318634033,0.76229327917099,-1.3773247003555298,9.152233123779297,-1.3349950313568115,-0.03790415823459625,0.05536724999547005,-0.0546342097222805,9.873333930969238,-14.949760437011719,29.32415771484375,-0.2686741352081299,-0.3928031921386719,0.06989192962646484,-1.1086505651474,9.545036315917969,-1.4048869609832764
4_20251106_214131,1762436455202,4,0.21545171737670898,0.17827154695987701,0.7420495748519897,0.6092308759689331,0.03178320825099945,3.445038318634033,0.76229327917099,-1.3773247003555298,9.152233123779297,-1.3349950313568115,-0.07822122424840927,0.09812778234481812,-0.0650189071893692,9.913007736206055,-14.896743774414062,29.286136627197266,-0.2686741352081299,-0.3928031921386719,0.06989192962646484,-1.1086505651474,9.545036315917969,-1.4048869609832764
4_20251106_214131,1762436455220,4,0.21481198072433472,0.17535287141799927,0.7421005964279175,0.6102408170700073,0.014098995365202427,3.4471428394317627,0.7514429092407227,-1.7531981468200684,8.840999603271484,-0.9914419054985046,-0.09654716402292252,0.12806016206741333,-0.05096902325749397,9.889636993408203,-14.885368347167969,29.244873046875,-0.43894124031066895,-0.48256778717041016,0.2975476384162903,-1.3142569065093994,9.323567390441895,-1.288989543914795
4_20251106_214131,1762436455240,4,0.2136598527431488,0.17293019592761993,0.7420969605445862,0.6113401055335999,0.003240020014345646,3.4452826976776123,0.7482649087905884,-1.8094595670700073,8.65066909790039,-0.7699877619743347,-0.08494073897600174,0.13355794548988342,-0.01859319396317005,9.806350708007812,-14.8533935546875,29.255748748779297,-0.39616215229034424,-0.5383186340332031,0.41520148515701294,-1.413297414779663,9.188987731933594,-1.1851892471313477
4_20251106_214131,1762436455260,4,0.21229954063892365,0.17069287598133087,0.7420935034751892,0.6124460101127625,-0.008171169087290764,3.441300392150879,0.7473486661911011,-1.7735481262207031,8.460338592529297,-0.49346935749053955,-0.06844738870859146,0.15310561656951904,-0.017982330173254013,9.807154655456543,-14.8406982421875,29.242496490478516,-0.2882004976272583,-0.5829191207885742,0.5533759593963623,-1.4853476285934448,9.043257713317871,-1.0468453168869019
4_20251106_214131,1762436455281,4,0.21072177588939667,0.1682761311531067,0.7422119975090027,0.6135151386260986,-0.018684562295675278,3.4359118938446045,0.7481165528297424,-1.7927008867263794,8.237687110900879,-0.41685816645622253,-0.06783652305603027,0.23129630088806152,-0.08945350348949432,9.710074424743652,-14.83489990234375,29.27938461303711,-0.24588263034820557,-0.6444568634033203,0.5039896965026855,-1.5468182563781738,8.8821439743042,-0.9208478927612305
4_20251106_214131,1762436455296,4,0.20908817648887634,0.16498073935508728,0.7425379753112793,0.6145736575126648,-0.018684562295675278,3.4359118938446045,0.7481165528297424,-1.7927008867263794,8.237687110900879,-0.41685816645622253,-0.09104938805103302,0.3272020220756531,-0.2653825581073761,9.710074424743652,-14.83489990234375,29.27938461303711,-0.24588263034820557,-0.6444568634033203,0.5039896965026855,-1.5468182563781738,8.8821439743042,-0.9208478927612305
4_20251106_214131,1762436455317,4,0.20775990188121796,0.15972387790679932,0.7431937456130981,0.6156193614006042,-0.046729832887649536,3.416386604309082,0.7535169720649719,-2.846104145050049,7.4189043045043945,-0.46474018692970276,-0.14663806557655334,0.4903029203414917,-0.47796347737312317,9.722346305847168,-14.8455810546875,29.17148208618164,-0.9365001916885376,-1.027256965637207,0.2852054536342621,-1.9096039533615112,8.446161270141602,-0.7499456405639648
4_20251106_214131,1762436455335,4,0.20673100650310516,0.15191055834293365,0.744131326675415,0.616809606552124,-0.046729832887649536,3.416386604309082,0.7535169720649719,-2.846104145050049,7.4189043045043945,-0.46474018692970276,-0.23399174213409424,0.6876122355461121,-0.6422860026359558,9.708144187927246,-14.8839111328125,29.15668487548828,-0.9365001916885376,-1.027256965637207,0.2852054536342621,-1.9096039533615112,8.446161270141602,-0.7499456405639648
4_20251106_214131,1762436455354,4,0.20546147227287292,0.14145773649215698,0.7451541423797607,0.6184824705123901,-0.0883394330739975,3.383378505706787,0.7609815001487732,-4.4597272872924805,6.402609825134277,-0.5557159185409546,-0.31034982204437256,0.8922519087791443,-0.6178514361381531,9.646805763244629,-14.900032043457031,29.113418579101562,-1.7581045627593994,-1.3680124282836914,0.10860168933868408,-2.701622724533081,7.770622253417969,-0.6643176078796387
4_20251106_214131,1762436455374,4,0.20274335145950317,0.1295894831418991,0.746039628982544,0.6209078431129456,-0.11691135168075562,3.3616106510162354,0.7632087469100952,-4.888270378112793,6.347545623779297,-1.2069108486175537,-0.31034982204437256,0.8922519087791443,-0.6178514361381531,9.499571800231934,-14.922523498535156,29.14781951904297,-1.7493181228637695,-1.1384611129760742,-0.43407464027404785,-3.1389522552490234,7.486006736755371,-0.7728362083435059
4_20251106_214131,1762436455392,4,0.19758741557598114,0.11867596209049225,0.7464654445648193,0.624231219291687,-0.14839431643486023,3.3384809494018555,0.7634013295173645,-4.7206830978393555,6.592940330505371,-1.4738528728485107,-0.45451387763023376,0.9374558925628662,0.09014071524143219,9.307625770568848,-14.873123168945312,29.208873748779297,-1.2653846740722656,-0.7144527435302734,-0.560813307762146,-3.45529842376709,7.3073930740356445,-0.9130395650863647
4_20251106_214131,1762436455411,4,0.19130364060401917,0.11192319542169571,0.7455710172653198,0.6284902691841125,-0.1801557093858719,3.315467357635498,0.7637238502502441,-4.130537986755371,6.928114891052246,-0.8621605634689331,-0.5681347846984863,0.7871831655502319,0.4230619966983795,9.064708709716797,-14.876319885253906,29.185813903808594,-0.540191650390625,-0.3034224510192871,0.04070323705673218,-3.590346336364746,7.231537342071533,-0.9028638005256653
4_20251106_214131,1762436455430,4,0.1834428608417511,0.10742837935686111,0.7434551119804382,0.6340996623039246,-0.2107437252998352,3.2943384647369385,0.7666412591934204,-3.741497278213501,7.499107360839844,0.04879401624202728,-0.6670948266983032,0.7786310911178589,0.5214112401008606,8.684840202331543,-14.927001953125,29.264694213867188,-0.12092089653015137,0.21405601501464844,0.761326253414154,-3.6205763816833496,7.285051345825195,-0.7125322222709656
4_20251106_214131,1762436455450,4,0.17503678798675537,0.10357864201068878,0.7404301762580872,0.6406221389770508,-0.24128085374832153,3.27433705329895,0.7741729617118835,-3.6038365364074707,7.655920505523682,0.8053292632102966,-0.6670948266983032,0.7786310911178589,0.5214112401008606,8.33869743347168,-15.037139892578125,29.249114990234375,0.013391971588134766,0.2966952323913574,1.2142891883850098,-3.6172285079956055,7.359225273132324,-0.4089599549770355
4_20251106_214131,1762436455470,4,0.16529470682144165,0.09810472279787064,0.737053632736206,0.6479236483573914,-0.24128085374832153,3.27433705329895,0.7741729617118835,-3.6038365364074707,7.655920505523682,0.8053292632102966,-0.7440637946128845,0.990601122379303,0.49208971858024597,7.831923007965088,-15.195411682128906,29.239883422851562,0.013391971588134766,0.2966952323913574,1.2142891883850098,-3.6172285079956055,7.359225273132324,-0.4089599549770355
4_20251106_214131,1762436455488,4,0.1525520235300064,0.09058807045221329,0.7335030436515808,0.6561211347579956,-0.2923302948474884,3.243300676345825,0.7956399917602539,-2.6940789222717285,8.134740829467773,0.17687830328941345,-0.9059429168701172,1.627122163772583,0.7914134860038757,7.214768886566162,-15.373390197753906,29.225975036621094,0.7149257659912109,0.5459356307983398,0.2678723931312561,-3.4090046882629395,7.588805198669434,-0.09099410474300385
4_20251106_214131,1762436455507,4,0.13653244078159332,0.0830315425992012,0.7293005585670471,0.6652709245681763,-0.31037938594818115,3.232574462890625,0.8070041537284851,-1.8286124467849731,8.572860717773438,0.27862748503685,-0.9059429168701172,1.627122163772583,0.7914134860038757,6.521566867828369,-15.618110656738281,29.126705169677734,1.264313817024231,0.7872443199157715,0.29569727182388306,-3.092926263809204,7.785616397857666,-0.017069794237613678
4_20251106_214131,1762436455526,4,0.12036871165037155,0.07766493409872055,0.7239989042282104,0.6747629642486572,-0.3222772181034088,3.2256743907928467,0.8216164112091064,-1.1798115968704224,8.98464584350586,1.3739275932312012,-1.0604918003082275,1.30275297164917,0.9728402495384216,5.626339912414551,-16.00110626220703,29.016948699951172,1.5304919481277466,0.959223747253418,1.1127979755401611,-2.710303544998169,8.025422096252441,0.2611296474933624
4_20251106_214131,1762436455545,4,0.10531894862651825,0.07367072999477386,0.7178164124488831,0.6842661499977112,-0.3285534679889679,3.2227394580841064,0.8414741158485413,-0.8781551122665405,9.34495735168457,2.4393017292022705,-1.0513286590576172,1.3693373203277588,0.8219566941261292,4.707940101623535,-16.372459411621094,28.83889389038086,1.4657188653945923,1.0556278228759766,1.7425377368927002,-2.343873977661133,8.289329528808594,0.6967640519142151
4_20251106_214131,1762436455564,4,0.09053616970777512,0.06814365088939667,0.7114496827125549,0.6935408711433411,-0.33020883798599243,3.223402500152588,0.8649424314498901,-0.7740118503570557,9.547259330749512,2.3746609687805176,-1.033613681793213,1.7688426971435547,0.727883517742157,3.783097267150879,-16.856964111328125,28.671981811523438,1.255889654159546,1.0063438415527344,1.3423175811767578,-2.0299015045166016,8.540915489196777,1.0323433876037598
4_20251106_214131,1762436455584,4,0.07363981753587723,0.059414178133010864,0.7051454782485962,0.702721118927002,-0.33020883798599243,3.223402500152588,0.8649424314498901,-0.7740118503570557,9.547259330749512,2.3746609687805176,-1.034224510192871,2.063279628753662,0.8372282981872559,2.7892556190490723,-17.282638549804688,28.422348022460938,1.255889654159546,1.0063438415527344,1.3423175811767578,-2.0299015045166016,8.540915489196777,1.0323433876037598
4_20251106_214131,1762436455602,4,0.05399821326136589,0.04946134239435196,0.6986558437347412,0.7117006182670593,-0.3180650472640991,3.2363216876983643,0.9075966477394104,0.7187086939811707,10.051217079162598,0.38875603675842285,-1.0482743978500366,1.9563782215118408,1.1053979396820068,1.5532021522521973,-17.698951721191406,28.149917602539062,1.9312942028045654,0.96429443359375,-0.5287279486656189,-1.2125855684280396,9.086922645568848,0.9174839854240417
4_20251106_214131,1762436455621,4,0.03323289006948471,0.0421496219933033,0.691744863986969,0.7201444506645203,-0.3005138039588928,3.2476918697357178,0.9250712990760803,1.9815958738327026,10.47856330871582,0.42825865745544434,-1.031170129776001,1.5587053298950195,1.346078634262085,0.24442768096923828,-18.119491577148438,27.820480346679688,2.555345058441162,1.1133127212524414,-0.39138031005859375,-0.573749303817749,9.365250587463379,0.8196389675140381
4_20251106_214131,1762436455641,4,0.013180668465793133,0.039266228675842285,0.684526264667511,0.7278105616569519,-0.27355489134788513,3.264024496078491,0.9429236650466919,3.1750540733337402,11.381138801574707,1.275769591331482,-1.0183420181274414,1.2312817573547363,1.3845629692077637,-1.0531620979309082,-18.55219268798828,27.531814575195312,2.9990427494049072,1.612710952758789,0.364904522895813,0.176011323928833,9.768427848815918,0.910865068435669
4_20251106_214131,1762436455660,4,0.005083826370537281,-0.039195217192173004,-0.6770506501197815,-0.7348743677139282,-0.2347714602947235,3.2866060733795166,0.9639632105827332,4.0656585693359375,11.824047088623047,1.959284782409668,-0.9083864092826843,1.2086799144744873,1.2031362056732178,-2.3468189239501953,-18.909957885742188,27.285282135009766,3.111717700958252,1.6444950103759766,0.838735818862915,0.953940749168396,10.17955207824707,1.120548963546753
4_20251106_214131,1762436455680,4,0.021991396322846413,-0.03838314488530159,-0.6700316667556763,-0.7410132884979248,-0.2347714602947235,3.2866060733795166,0.9639632105827332,4.0656585693359375,11.824047088623047,1.959284782409668,-0.7709418535232544,1.341848373413086,0.9465730786323547,-3.5305051803588867,-19.260169982910156,27.00261688232422,3.111717700958252,1.6444950103759766,0.838735818862915,0.953940749168396,10.17955207824707,1.120548963546753
4_20251106_214131,1762436455700,4,0.03802158311009407,-0.03513723984360695,-0.6637364029884338,-0.7461727261543274,-0.18437188863754272,3.314887762069702,0.9868023991584778,4.448714733123779,11.897067070007324,1.6731899976730347,-0.7703309655189514,1.4163738489151,0.7779744267463684,-3.5305051803588867,-19.260169982910156,27.00261688232422,2.7958192825317383,1.3740119934082031,0.4421128034591675,1.652895450592041,10.523055076599121,1.2310771942138672
4_20251106_214131,1762436455719,4,0.05333322659134865,-0.030350418761372566,-0.6573622226715088,-0.751072108745575,-0.07979343086481094,3.369713068008423,1.0235646963119507,4.914366722106934,11.661247253417969,1.1333208084106445,-0.832028329372406,1.3216898441314697,0.7272726893424988,-4.7863922119140625,-19.59070587158203,26.785118103027344,2.1346490383148193,0.7182912826538086,-0.06639456748962402,2.7797176837921143,10.94295597076416,1.1997153759002686
4_20251106_214131,1762436455737,4,0.06767932325601578,-0.025952937081456184,-0.6505523920059204,-0.7559943795204163,-0.02314847707748413,3.397520065307617,1.0402443408966064,5.3740339279174805,11.784543991088867,1.3056957721710205,-0.8301956653594971,1.1341543197631836,0.7248291969299316,-6.026272296905518,-19.857261657714844,26.528881072998047,2.075453042984009,0.6732702255249023,0.08478438854217529,3.2985808849334717,11.111273765563965,1.2209113836288452
4_20251106_214131,1762436455756,4,0.08079733699560165,-0.022975441068410873,-0.6437502503395081,-0.7606112957000732,0.04449573904275894,3.428889513015747,1.059254765510559,5.881582260131836,11.774967193603516,1.6827664375305176,-0.7880460619926453,0.908745288848877,0.6814578175544739,-7.257292747497559,-20.18553924560547,26.244781494140625,2.0664010047912598,0.5309543609619141,0.3694840669631958,3.815181255340576,11.244012832641602,1.3132823705673218
4_20251106_214131,1762436455774,4,0.0922081246972084,-0.02143818512558937,-0.6373121738433838,-0.7647687792778015,0.04449573904275894,3.428889513015747,1.059254765510559,5.881582260131836,11.774967193603516,1.6827664375305176,-0.7171857357025146,0.7016621232032776,0.5696695446968079,-8.24085807800293,-20.423263549804688,26.039657592773438,2.0664010047912598,0.5309543609619141,0.3694840669631958,3.815181255340576,11.244012832641602,1.3132823705673218
4_20251106_214131,1762436455793,4,0.10153340548276901,-0.020808812230825424,-0.6314590573310852,-0.7684512734413147,0.17853111028671265,3.485325574874878,1.0979061126708984,6.354416847229004,11.528375625610352,2.1843299865722656,-0.6108952760696411,0.5623849630355835,0.42184028029441833,-9.11816120147705,-20.704872131347656,25.918987274169922,1.6419649124145508,0.16590309143066406,0.5672383308410645,4.712451934814453,11.362472534179688,1.6170916557312012
4_20251106_214131,1762436455813,4,0.10890170931816101,-0.020340338349342346,-0.6264225244522095,-0.7715708017349243,0.17853111028671265,3.485325574874878,1.0979061126708984,6.354416847229004,11.528375625610352,2.1843299865722656,-0.5437001585960388,0.45242929458618164,0.2740110158920288,-9.920331954956055,-20.944183349609375,25.815567016601562,1.6419649124145508,0.16590309143066406,0.5672383308410645,4.712451934814453,11.362472534179688,1.6170916557312012
4_20251106_214131,1762436455831,4,0.1137453094124794,-0.020375145599246025,-0.6219710111618042,-0.774466872215271,0.3207482695579529,3.538973093032837,1.139338731765747,6.286185264587402,11.449370384216309,2.132856845855713,-0.5437001585960388,0.45242929458618164,0.2740110158920288,-10.639117240905762,-21.21533966064453,25.687755584716797,0.998570442199707,0.054656982421875,0.3373676538467407,5.287614822387695,11.394713401794434,1.7954891920089722
4_20251106_214131,1762436455852,4,0.11772222816944122,-0.02004825323820114,-0.6178478598594666,-0.7771766781806946,0.39431339502334595,3.565190315246582,1.162179708480835,6.226332664489746,11.425429344177246,2.5063364505767822,-0.4887222945690155,0.16471204161643982,0.09502764046192169,-11.270387649536133,-21.44312286376953,25.55065155029297,0.750974178314209,0.024572372436523438,0.5686779022216797,5.475358486175537,11.400856971740723,1.9376585483551025
4_20251106_214131,1762436455870,4,0.1202068105340004,-0.02050613984465599,-0.6141808032989502,-0.7796869277954102,0.4630092978477478,3.588557481765747,1.1854639053344727,6.314914703369141,11.293754577636719,2.9109392166137695,-0.3952599763870239,-0.012438732199370861,0.05654316768050194,-11.786648750305176,-21.78826904296875,25.388782501220703,0.6716451644897461,-0.08568191528320312,0.7786245346069336,5.6432695388793945,11.379436492919922,2.132314682006836
4_20251106_214131,1762436455890,4,0.12141717225313187,-0.021896693855524063,-0.6113542914390564,-0.7816804647445679,0.5344711542129517,3.6115331649780273,1.21121346950531,6.553127288818359,11.250659942626953,2.9432594776153564,-0.25415027141571045,-0.18836775422096252,0.013171771541237831,-12.116890907287598,-22.059120178222656,25.276138305664062,0.7278861999511719,-0.10302066802978516,0.6487557888031006,5.8252410888671875,11.353680610656738,2.294503688812256
4_20251106_214131,1762436455909,4,0.12132766842842102,-0.024193083867430687,-0.6097131967544556,-0.7829074263572693,0.5344711542129517,3.6115331649780273,1.21121346950531,6.553127288818359,11.250659942626953,2.9432594776153564,-0.11548397690057755,-0.39178574085235596,-0.09006437659263611,-12.396571159362793,-22.289527893066406,25.20679473876953,0.7278861999511719,-0.10302066802978516,0.6487557888031006,5.8252410888671875,11.353680610656738,2.294503688812256
4_20251106_214131,1762436455928,4,0.11922843754291534,-0.027380116283893585,-0.6093513369560242,-0.7834065556526184,0.608751654624939,3.633744955062866,1.238519310951233,6.719517230987549,11.142925262451172,2.778066635131836,-0.044623665511608124,-0.5420584678649902,-0.2562195658683777,-12.533135414123535,-22.56103515625,25.182830810546875,0.7154207229614258,-0.16860485076904297,0.38685035705566406,6.004096508026123,11.311530113220215,2.391216278076172
4_20251106_214131,1762436455946,4,0.11512751877307892,-0.030618952587246895,-0.6097462177276611,-0.7835928201675415,0.7270208597183228,3.6645095348358154,1.2821838855743408,6.325688362121582,10.440258026123047,2.462045669555664,-0.03301724046468735,-0.6080318689346313,-0.42237475514411926,-12.54420280456543,-22.75006866455078,25.24645233154297,0.1615757942199707,-0.6300125122070312,0.011621952056884766,6.164112567901611,11.070270538330078,2.4504237174987793
4_20251106_214131,1762436455965,4,0.10935118794441223,-0.033392585813999176,-0.6103281378746033,-0.7838538289070129,0.7861586809158325,3.6765167713165283,1.3033808469772339,6.015652656555176,10.17451286315918,2.1903152465820312,-0.0458453968167305,-0.7076027989387512,-0.5537106394767761,-12.468064308166504,-22.907752990722656,25.24645233154297,-0.11876773834228516,-0.7166061401367188,-0.20808672904968262,6.134420394897461,10.891119003295898,2.398401975631714
4_20251106_214131,1762436455984,4,0.10196183621883392,-0.036144599318504333,-0.6109373569488525,-0.7842530608177185,0.8410777449607849,3.68542218208313,1.3229668140411377,5.674493312835693,9.97939395904541,2.197497844696045,-0.06294960528612137,-0.8554320335388184,-0.6648880839347839,-12.286269187927246,-23.121749877929688,25.31713104248047,-0.36794185638427734,-0.7293806076049805,-0.16072320938110352,6.042435169219971,10.70877456665039,2.3582210540771484
4_20251106_214131,1762436456004,4,0.09287449717521667,-0.039300475269556046,-0.6115854382514954,-0.7847248315811157,0.8410777449607849,3.68542218208313,1.3229668140411377,5.674493312835693,9.97939395904541,2.197497844696045,-0.07027998566627502,-0.9959309101104736,-0.7534634470939636,-11.83880615234375,-23.367958068847656,25.343475341796875,-0.36794185638427734,-0.7293806076049805,-0.16072320938110352,6.042435169219971,10.70877456665039,2.3582210540771484
4_20251106_214131,1762436456023,4,0.08229812979698181,-0.042916372418403625,-0.6122526526451111,-0.7851954102516174,0.9364163875579834,3.693516731262207,1.35964834690094,4.9323225021362305,9.452692031860352,2.5781593322753906,-0.07027998566627502,-0.9959309101104736,-0.7534634470939636,-11.266142845153809,-23.53209686279297,25.497955322265625,-0.7604613304138184,-0.8395166397094727,0.18078970909118652,5.692783832550049,10.292208671569824,2.397369623184204
4_20251106_214131,1762436456043,4,0.07035192847251892,-0.04727654531598091,-0.6127074360847473,-0.7857512831687927,0.9782503247261047,3.6928980350494385,1.3794914484024048,4.664183616638184,9.268346786499023,2.968397617340088,-0.0971580371260643,-1.1321537494659424,-0.8072195053100586,-10.682011604309082,-23.71961212158203,25.557785034179688,-0.8228802680969238,-0.8190898895263672,0.45682239532470703,5.487063884735107,10.08743667602539,2.511575222015381
4_20251106_214131,1762436456061,4,0.057182010263204575,-0.05205673351883888,-0.6130499243736267,-0.786250650882721,0.9782503247261047,3.6928980350494385,1.3794914484024048,4.664183616638184,9.268346786499023,2.968397617340088,-0.09104938060045242,-1.3386261463165283,-0.9819267988204956,-9.928784370422363,-23.92125701904297,25.637470245361328,-0.8228802680969238,-0.8190898895263672,0.45682239532470703,5.487063884735107,10.08743667602539,2.511575222015381
4_20251106_214131,1762436456081,4,0.04275483265519142,-0.056767337024211884,-0.6133758425712585,-0.7865872979164124,1.0430759191513062,3.682968854904175,1.4225552082061768,3.759214162826538,8.86374282836914,3.581286907196045,-0.06478220224380493,-1.4045994281768799,-1.1095976829528809,-9.043427467346191,-24.151565551757812,25.694725036621094,-1.1975657939910889,-0.8122758865356445,0.7254109382629395,4.956779956817627,9.676018714904785,2.8558759689331055
4_20251106_214131,1762436456099,4,0.027012599632143974,-0.06111738458275795,-0.6137619018554688,-0.7866583466529846,1.064154028892517,3.675279140472412,1.4439657926559448,3.066122531890869,8.80987548828125,3.6064248085021973,-0.05134318023920059,-1.421703577041626,-1.22993803024292,-8.097054481506348,-24.389381408691406,25.646038055419922,-1.512526035308838,-0.6929149627685547,0.6004390716552734,4.578648567199707,9.502790451049805,3.005985736846924
4_20251106_214131,1762436456119,4,0.01017446257174015,-0.06480859220027924,-0.6140885353088379,-0.786505937576294,1.079286813735962,3.6652050018310547,1.4673759937286377,2.237764358520508,8.858955383300781,3.2724480628967285,-0.06417133659124374,-1.4186493158340454,-1.336228370666504,-7.027621746063232,-24.60602569580078,25.53493881225586,-1.8727073669433594,-0.5150680541992188,0.21316981315612793,4.110471725463867,9.3740234375,3.0592782497406006
4_20251106_214131,1762436456139,4,0.0074581243097782135,0.06767016649246216,0.6141942739486694,0.7862127423286438,1.085306167602539,3.654115915298462,1.4904420375823975,1.3615241050720215,8.874517440795898,3.3311033248901367,-0.12647953629493713,-1.4430840015411377,-1.4254146814346313,-5.874692440032959,-24.842758178710938,25.48080825805664,-2.199158191680908,-0.39960479736328125,0.21745991706848145,3.5606822967529297,9.27412223815918,3.1136434078216553
4_20251106_214131,1762436456157,4,0.026009978726506233,0.07002215832471848,0.6137539148330688,0.7859557867050171,1.085306167602539,3.654115915298462,1.4904420375823975,1.3615241050720215,8.874517440795898,3.3311033248901367,-0.16252055764198303,-1.4320883750915527,-1.4406862258911133,-5.874692440032959,-24.842758178710938,25.48080825805664,-2.199158191680908,-0.39960479736328125,0.21745991706848145,3.5606822967529297,9.27412223815918,3.1136434078216553
4_20251106_214131,1762436456175,4,0.04462845250964165,0.07195175439119339,0.6128460168838501,0.7856532335281372,1.0816353559494019,3.6418936252593994,1.5140492916107178,0.47211652994155884,8.718900680541992,3.671065330505371,-0.13136644661426544,-1.378332257270813,-1.3539434671401978,-4.6083664894104,-25.00928497314453,25.405380249023438,-2.4708526134490967,-0.44417667388916016,0.4459376335144043,2.9429690837860107,9.163077354431152,3.225127696990967
4_20251106_214131,1762436456196,4,0.0624721385538578,0.07392238825559616,0.6118542551994324,0.7850267887115479,1.0509824752807617,3.6173150539398193,1.557662010192871,-0.7979528903961182,8.626728057861328,3.466370105743408,-0.05561923235654831,-1.3954365253448486,-1.182901382446289,-3.329063892364502,-25.17394256591797,25.222312927246094,-2.4778878688812256,-0.34958362579345703,0.10076737403869629,1.6799349784851074,8.976311683654785,3.365602731704712
4_20251106_214131,1762436456214,4,0.0790153220295906,0.07681634277105331,0.6111039519309998,0.7838417291641235,1.025913953781128,3.6051228046417236,1.5770728588104248,-1.3402161598205566,8.741644859313965,3.204216241836548,0.043951719999313354,-1.5982435941696167,-0.9648225903511047,-1.9430054426193237,-25.381813049316406,25.05611801147461,-2.416121006011963,-0.18773365020751953,-0.12910914421081543,1.0759048461914062,8.929378509521484,3.3333253860473633
4_20251106_214131,1762436456233,4,0.09512203186750412,0.08251999318599701,0.610663652420044,0.781813383102417,0.9932175278663635,3.592637777328491,1.5966202020645142,-1.6789811849594116,8.835014343261719,3.3634238243103027,0.043951719999313354,-1.5982435941696167,-0.9648225903511047,-0.5686386823654175,-25.589805603027344,24.821853637695312,-2.203908920288086,-0.07549095153808594,0.024078845977783203,0.5249277353286743,8.910505294799805,3.3393449783325195
4_20251106_214131,1762436456252,4,0.11075460910797119,0.09088167548179626,0.6104225516319275,0.779011070728302,0.9558957815170288,3.5810232162475586,1.6154401302337646,-1.7567893266677856,9.000207901000977,3.4304585456848145,0.17284417152404785,-1.838313341140747,-0.6105210781097412,0.8849644660949707,-25.703514099121094,24.43018341064453,-1.825373649597168,0.0717620849609375,0.0728907585144043,0.06858435273170471,8.928445816040039,3.35756778717041
4_20251106_214131,1762436456272,4,0.12593339383602142,0.10064251720905304,0.6100359559059143,0.7758014798164368,0.9126937389373779,3.5702052116394043,1.6345289945602417,-1.8657208681106567,9.19053840637207,3.4460201263427734,0.1135902926325798,-1.7283577919006348,-0.5689823031425476,2.316013813018799,-25.78154754638672,24.078872680664062,-1.547444224357605,0.20967388153076172,0.07076191902160645,-0.31827667355537415,8.980864524841309,3.375258207321167
4_20251106_214131,1762436456290,4,0.13972754776477814,0.10935118049383163,0.6091716289520264,0.7729349732398987,0.8711762428283691,3.5619468688964844,1.651716947555542,-2.1781506538391113,9.383262634277344,3.7273268699645996,-0.02874118462204933,-1.516998529434204,-0.6111319661140442,3.6683077812194824,-25.964797973632812,23.72250747680664,-1.4878991842269897,0.3219184875488281,0.28165507316589355,-0.6902514696121216,9.061344146728516,3.445671796798706
4_20251106_214131,1762436456310,4,0.1526845246553421,0.11599370092153549,0.6074463725090027,0.7708708047866821,0.8711762428283691,3.5619468688964844,1.651716947555542,-2.1781506538391113,9.383262634277344,3.7273268699645996,-0.09776889532804489,-1.318467617034912,-0.6874900460243225,4.943843841552734,-26.014404296875,23.25748062133789,-1.4878991842269897,0.3219184875488281,0.28165507316589355,-0.6902514696121216,9.061344146728516,3.445671796798706
4_20251106_214131,1762436456329,4,0.16510716080665588,0.12053251266479492,0.6054349541664124,0.7691944241523743,0.8158190846443176,3.5535993576049805,1.6741851568222046,-2.6342267990112305,9.398824691772461,4.128337860107422,-0.09776889532804489,-1.318467617034912,-0.6874900460243225,6.0945024490356445,-26.122451782226562,22.813526153564453,-1.555180311203003,0.26998424530029297,0.5461330413818359,-1.0790464878082275,9.128840446472168,3.582204818725586
4_20251106_214131,1762436456349,4,0.1770060509443283,0.12350673973560333,0.6038474440574646,0.7673220634460449,0.7125579714775085,3.5401077270507812,1.713176965713501,-3.868384599685669,8.958311080932617,3.953569173812866,-0.017134755849838257,-1.0674021244049072,-0.7278071045875549,7.23891019821167,-26.13043212890625,22.330646514892578,-1.8891761302947998,-0.13442039489746094,0.19362187385559082,-1.9792084693908691,9.092731475830078,3.7599472999572754
4_20251106_214131,1762436456366,4,0.1882334053516388,0.12585356831550598,0.6026147603988647,0.7652349472045898,0.7125579714775085,3.5401077270507812,1.713176965713501,-3.868384599685669,8.958311080932617,3.953569173812866,-0.0666147917509079,-0.9189620018005371,-0.6373991370201111,8.228930473327637,-26.07366180419922,21.870006561279297,-1.8891761302947998,-0.13442039489746094,0.19362187385559082,-1.9792084693908691,9.092731475830078,3.7599472999572754
4_20251106_214131,1762436456386,4,0.19803591072559357,0.12741723656654358,0.6011741757392883,0.7636336088180542,0.5944878458976746,3.5253286361694336,1.747534155845642,-4.873906135559082,8.773965835571289,3.356241464614868,-0.1692400723695755,-0.6843899488449097,-0.4822395145893097,9.25409984588623,-26.039627075195312,21.410308837890625,-1.9117889404296875,-0.2074565887451172,-0.308168888092041,-2.9621171951293945,8.981422424316406,3.664410352706909
4_20251106_214131,1762436456405,4,0.20548409223556519,0.12781593203544617,0.5992699861526489,0.7630955576896667,0.530441164970398,3.517625570297241,1.7619494199752808,-4.732653617858887,8.855363845825195,3.152743101119995,-0.2517068088054657,-0.4986870288848877,-0.310586541891098,10.034250259399414,-26.03484344482422,21.021636962890625,-1.4164292812347412,-0.10084724426269531,-0.4093339443206787,-3.3162243366241455,8.95621109008789,3.562077045440674
4_20251106_214131,1762436456424,4,0.2107837200164795,0.127668559551239,0.5969573855400085,0.7634872794151306,0.4667452573776245,3.5106945037841797,1.7747836112976074,-4.355583190917969,9.09716796875,3.248507022857666,-0.2517068088054657,-0.4986870288848877,-0.310586541891098,10.737154006958008,-26.110031127929688,20.61492156982422,-0.8314869403839111,0.11276531219482422,-0.2508559226989746,-3.5240962505340576,8.984402656555176,3.4993629455566406
4_20251106_214131,1762436456442,4,0.21452072262763977,0.12773388624191284,0.5947167873382568,0.764183759689331,0.4080582857131958,3.505096673965454,1.7855781316757202,-4.0766706466674805,9.244405746459961,3.1922457218170166,-0.14480547606945038,-0.3533012568950653,-0.09006436169147491,11.383257865905762,-26.113983154296875,20.220855712890625,-0.4420595169067383,0.20800209045410156,-0.24569392204284668,-3.634611129760742,9.03640365600586,3.4379396438598633
4_20251106_214131,1762436456462,4,0.21720029413700104,0.12817393243312836,0.5931936502456665,0.76453697681427,0.4080582857131958,3.505096673965454,1.7855781316757202,-4.0766706466674805,9.244405746459961,3.1922457218170166,-0.14480547606945038,-0.3533012568950653,-0.09006436169147491,11.99049186706543,-26.15825653076172,19.851558685302734,-0.4420595169067383,0.20800209045410156,-0.24569392204284668,-3.634611129760742,9.03640365600586,3.4379396438598633
4_20251106_214131,1762436456482,4,0.2192377746105194,0.12874746322631836,0.5920000076293945,0.7647842168807983,0.28586116433143616,3.4977540969848633,1.8070343732833862,-3.5415899753570557,9.747166633605957,3.5848779678344727,-0.11426224559545517,-0.1950872838497162,-0.010041087865829468,12.441224098205566,-26.175453186035156,19.503707885742188,0.10933089256286621,0.5035362243652344,0.1488175392150879,-3.650920867919922,9.243630409240723,3.4360604286193848
4_20251106_214131,1762436456500,4,0.22044135630130768,0.12876221537590027,0.5909041166305542,0.7652831077575684,0.23644554615020752,3.4972875118255615,1.8165689706802368,-3.174095869064331,9.956649780273438,3.5884690284729004,-0.10204494744539261,-0.01854737661778927,-0.0008781170472502708,12.766077995300293,-26.264053344726562,19.21721649169922,0.38145995140075684,0.5704154968261719,0.12192678451538086,-3.555555820465088,9.386234283447266,3.4665422439575195
4_20251106_214131,1762436456520,4,0.2205749750137329,0.12766112387180328,0.5901869535446167,0.7659822106361389,0.18839246034622192,3.4983880519866943,1.826359510421753,-3.0089030265808105,9.957847595214844,3.550163745880127,-0.10204494744539261,0.12011891603469849,-0.014928005635738373,13.063851356506348,-26.392723083496094,19.010047912597656,0.43732237815856934,0.4572906494140625,0.06689715385437012,-3.44622540473938,9.500556945800781,3.483266592025757
4_20251106_214131,1762436456539,4,0.2199663668870926,0.12554831802845,0.5897713899612427,0.7668260335922241,0.141839861869812,3.500631093978882,1.8367900848388672,-2.952641725540161,9.876447677612305,3.6938095092773438,-0.08066468685865402,0.207472562789917,-0.0002672523260116577,13.2194242477417,-26.455856323242188,18.825611114501953,0.394866943359375,0.30071258544921875,0.16843438148498535,-3.347508668899536,9.575735092163086,3.5253751277923584
4_20251106_214131,1762436456559,4,0.21873678267002106,0.12298967689275742,0.5896686315536499,0.7676709294319153,0.09939026087522507,3.503709077835083,1.847396731376648,-2.763507843017578,9.88722038269043,3.75485897064209,-0.027519455179572105,0.2893284559249878,0.05898662284016609,13.286381721496582,-26.57544708251953,18.704269409179688,0.46720051765441895,0.24918842315673828,0.18358707427978516,-3.230708360671997,9.638031959533691,3.5712718963623047
4_20251106_214131,1762436456579,4,0.21654380857944489,0.12028215080499649,0.5900161862373352,0.7684542536735535,0.06331373751163483,3.5076205730438232,1.8571412563323975,-2.4163637161254883,10.051217079162598,3.6339569091796875,0.00668896920979023,0.3546909689903259,0.12740346789360046,13.309430122375488,-26.610450744628906,18.596328735351562,0.6514759063720703,0.3305482864379883,0.05014801025390625,-3.0678396224975586,9.72066879272461,3.5838088989257812
4_20251106_214131,1762436456596,4,0.2133934199810028,0.1175713762640953,0.5906445384025574,0.7692718505859375,0.03312995284795761,3.5123379230499268,1.8660937547683716,-2.1398448944091797,10.206832885742188,3.65789794921875,0.00668896920979023,0.3546909689903259,0.12740346789360046,13.309430122375488,-26.610450744628906,18.596328735351562,0.7423958778381348,0.3889312744140625,0.05927133560180664,-2.8822407722473145,9.817901611328125,3.5986266136169434
4_20251106_214131,1762436456616,4,0.20984402298927307,0.11501988023519516,0.5915008783340454,0.7699757218360901,0.0052702780812978745,3.518378496170044,1.8761303424835205,-2.0045785903930664,10.295414924621582,3.984692335128784,0.04211912304162979,0.4493749737739563,0.15489238500595093,13.270039558410645,-26.67467498779297,18.498924255371094,0.702129602432251,0.38201045989990234,0.3088526725769043,-2.7067081928253174,9.91340446472168,3.67583966255188
4_20251106_214131,1762436456635,4,0.20594710111618042,0.11207268387079239,0.5925074219703674,0.7706882953643799,-0.01912882924079895,3.525240659713745,1.8867357969284058,-1.9531055688858032,10.322946548461914,4.066091537475586,0.09159915894269943,0.5819326639175415,0.15000545978546143,13.17004108428955,-26.71923828125,18.548274993896484,0.6028822660446167,0.3276338577270508,0.31220149993896484,-2.55598783493042,9.995312690734863,3.753890037536621
4_20251106_214131,1762436456655,4,0.20121482014656067,0.10819288343191147,0.5940647721290588,0.7712936997413635,-0.040525831282138824,3.5326027870178223,1.8963998556137085,-1.9064204692840576,10.302597045898438,3.6040306091308594,0.18383973836898804,0.6808927059173584,0.17871609330177307,13.02260971069336,-26.74200439453125,18.60970687866211,0.5196537971496582,0.24582767486572266,-0.1198875904083252,-2.426074266433716,10.056769371032715,3.7239181995391846
4_20251106_214131,1762436456673,4,0.1956518590450287,0.10396511852741241,0.596402645111084,0.7715020775794983,-0.040525831282138824,3.5326027870178223,1.8963998556137085,-1.9064204692840576,10.302597045898438,3.6040306091308594,0.18383973836898804,0.6808927059173584,0.17871609330177307,12.900874137878418,-26.726585388183594,18.78104019165039,0.5196537971496582,0.24582767486572266,-0.1198875904083252,-2.426074266433716,10.056769371032715,3.7239181995391846
4_20251106_214131,1762436456692,4,0.1898476481437683,0.10059372335672379,0.5991511940956116,0.7712695002555847,-0.06097016856074333,3.5410966873168945,1.9048292636871338,-1.822627067565918,10.28464126586914,3.2113986015319824,0.25592178106307983,0.6332452297210693,0.33326488733291626,12.645796775817871,-26.70734405517578,18.947242736816406,0.4827578067779541,0.1822967529296875,-0.4100155830383301,-2.305384874343872,10.102344512939453,3.6214141845703125
4_20251106_214131,1762436456711,4,0.1834135502576828,0.09785835444927216,0.6018341183662415,0.7710894346237183,-0.08865872025489807,3.5573956966400146,1.9168914556503296,-1.2995164394378662,10.558765411376953,3.65670108795166,0.25470006465911865,0.6790601015090942,0.4022926092147827,12.378843307495117,-26.6768798828125,19.167285919189453,0.6927870512008667,0.3206462860107422,0.08521318435668945,-1.992303490638733,10.238119125366211,3.5714879035949707
4_20251106_214131,1762436456731,4,0.17612886428833008,0.09516967833042145,0.6044696569442749,0.7710627913475037,-0.09773674607276917,3.5665173530578613,1.9226000308990479,-0.9212489128112793,10.556371688842773,3.516646385192871,0.3127322196960449,0.7914592027664185,0.4346684515476227,12.056710243225098,-26.538185119628906,19.46834945678711,0.8568437099456787,0.25460243225097656,-0.04387331008911133,-1.778092622756958,10.301769256591797,3.5605196952819824
4_20251106_214131,1762436456753,4,0.1679147332906723,0.09200877696275711,0.6075524687767029,0.7708560228347778,-0.10341295599937439,3.577665090560913,1.9273089170455933,-0.5932573676109314,10.4653959274292,3.0988759994506836,0.41474661231040955,0.7835180163383484,0.4389444887638092,11.69933032989502,-26.37689208984375,19.781986236572266,0.947868287563324,0.13090038299560547,-0.36931514739990234,-1.5411256551742554,10.334495544433594,3.468191146850586
4_20251106_214131,1762436456769,4,0.15955479443073273,0.08914205431938171,0.6113162636756897,0.769992470741272,-0.10494862496852875,3.58463191986084,1.9293266534805298,-0.38257673382759094,10.369632720947266,2.9420623779296875,0.41474661231040955,0.7835180163383484,0.4389444887638092,11.306110382080078,-26.193809509277344,20.189292907714844,0.9268391132354736,0.028110504150390625,-0.42090320587158203,-1.3094158172607422,10.341522216796875,3.3629655838012695
4_20251106_214131,1762436456788,4,0.15160560607910156,0.08703707158565521,0.6155734658241272,0.7684462666511536,-0.10381686687469482,3.592879056930542,1.9301927089691162,-0.22336915135383606,10.291824340820312,2.793628215789795,0.4990459084510803,0.7089924812316895,0.4346684515476227,10.912184715270996,-26.023284912109375,20.596336364746094,0.8688373565673828,-0.03975868225097656,-0.45546984672546387,-1.0922064781188965,10.331583023071289,3.249098062515259
4_20251106_214131,1762436456806,4,0.1438312977552414,0.08522743731737137,0.6201210021972656,0.7664846777915955,-0.09971096366643906,3.600489616394043,1.9290859699249268,0.012449570000171661,10.249926567077637,2.5458390712738037,0.5515803098678589,0.6802818775177002,0.427948921918869,10.426608085632324,-25.758384704589844,20.974533081054688,0.8837248086929321,-0.06532478332519531,-0.5626070499420166,-0.8712752461433411,10.315251350402832,3.1084461212158203
4_20251106_214131,1762436456826,4,0.13587428629398346,0.08313913643360138,0.6247209906578064,0.7644277215003967,-0.0921761691570282,3.607064723968506,1.9250024557113647,0.25664764642715454,9.974605560302734,2.129265785217285,0.5589106678962708,0.7169337272644043,0.42061856389045715,9.840822219848633,-25.54993438720703,21.33423614501953,0.9023383259773254,-0.27251625061035156,-0.7833442687988281,-0.6456906795501709,10.247121810913086,2.9126100540161133
4_20251106_214131,1762436456844,4,0.1278267502784729,0.08095463365316391,0.6294204592704773,0.7621919512748718,-0.08319661021232605,3.6109778881073,1.9183412790298462,0.3847319185733795,9.553243637084961,1.6253080368041992,0.5747931599617004,0.7340379953384399,0.41450992226600647,9.306909561157227,-25.27606201171875,21.751285552978516,0.8243380784988403,-0.5551023483276367,-1.029841661453247,-0.4396061897277832,10.108345985412598,2.6551496982574463
4_20251106_214131,1762436456864,4,0.11973358690738678,0.07903170585632324,0.6340561509132385,0.7598623037338257,-0.08319661021232605,3.6109778881073,1.9183412790298462,0.3847319185733795,9.553243637084961,1.6253080368041992,0.5735714435577393,0.7083816528320312,0.4291706383228302,8.725859642028809,-24.97998809814453,22.139869689941406,0.8243380784988403,-0.5551023483276367,-1.029841661453247,-0.4396061897277832,10.108345985412598,2.6551496982574463
4_20251106_214131,1762436456883,4,0.11161470413208008,0.07782287150621414,0.6381176710128784,0.7578203082084656,-0.0555003397166729,3.6116230487823486,1.8940600156784058,1.0909910202026367,9.135473251342773,1.4242037534713745,0.5094306468963623,0.6509603261947632,0.4865919053554535,8.107349395751953,-24.699119567871094,22.553749084472656,1.0563849210739136,-0.6400671005249023,-0.7598425149917603,0.034606099128723145,9.775540351867676,2.1840462684631348
4_20251106_214131,1762436456901,4,0.10374068468809128,0.07751499861478806,0.6415550708770752,0.7560663819313049,-0.037925414741039276,3.6092283725738525,1.881097674369812,1.6847275495529175,9.110336303710938,1.6217169761657715,0.4428463876247406,0.5617741346359253,0.5330176949501038,7.474947452545166,-24.444564819335938,23.007160186767578,1.3200972080230713,-0.5321626663208008,-0.4498634338378906,0.3646303713321686,9.642498970031738,2.071580410003662
4_20251106_214131,1762436456922,4,0.09628358483314514,0.07751014083623886,0.6449122428894043,0.7541948556900024,-0.012674059718847275,3.604297399520874,1.8648021221160889,2.0869362354278564,8.963098526000977,1.4960267543792725,0.5118740797042847,0.45670536160469055,0.399238258600235,6.880908012390137,-24.161972045898438,23.408504486083984,1.3778446912765503,-0.5435199737548828,-0.4604429006576538,0.7090915441513062,9.50661849975586,1.9564696550369263
4_20251106_214131,1762436456942,4,0.08977662026882172,0.07731112092733383,0.6486362218856812,0.7518205642700195,0.014401081949472427,3.5975358486175537,1.847501516342163,2.1001038551330566,8.750024795532227,1.1153650283813477,0.535086989402771,0.40966877341270447,0.2691240906715393,6.237914085388184,-23.894439697265625,23.74004364013672,1.1128098964691162,-0.6052751541137695,-0.6728837490081787,0.9872940182685852,9.355299949645996,1.7882487773895264
4_20251106_214131,1762436456959,4,0.08451847732067108,0.07681283354759216,0.6525306105613708,0.7491062879562378,0.014401081949472427,3.5975358486175537,1.847501516342163,2.1001038551330566,8.750024795532227,1.1153650283813477,0.48621779680252075,0.36018872261047363,0.1878790706396103,5.596540451049805,-23.58991241455078,24.13995361328125,1.1128098964691162,-0.6052751541137695,-0.6728837490081787,0.9872940182685852,9.355299949645996,1.7882487773895264
4_20251106_214131,1762436456979,4,0.0801248550415039,0.07607275247573853,0.6561218500137329,0.7465233206748962,0.06750430166721344,3.580157518386841,1.8085391521453857,1.859496831893921,8.456747055053711,0.2534894645214081,0.40985971689224243,0.28260892629623413,0.1512271761894226,5.065743923187256,-23.265411376953125,24.51750946044922,0.5390571355819702,-0.5970993041992188,-1.0406620502471924,1.3204396963119507,9.05384635925293,1.2941515445709229
4_20251106_214131,1762436457000,4,0.07646232843399048,0.07549846172332764,0.6592007279396057,0.7442498803138733,0.09500095993280411,3.5691142082214355,1.7847357988357544,1.8164030313491821,8.395697593688965,-0.009861398488283157,0.3182299733161926,0.21480295062065125,0.14206421375274658,4.620743751525879,-22.934669494628906,24.830917358398438,0.3967705965042114,-0.5265188217163086,-1.0432102680206299,1.4196324348449707,8.922216415405273,1.0333489179611206
4_20251106_214131,1762436457020,4,0.0733894631266594,0.07527051120996475,0.6616259813308716,0.7424280047416687,0.1269313246011734,3.555095911026001,1.7544021606445312,1.8774524927139282,8.413653373718262,-0.09485190361738205,0.206441730260849,0.1402774602174759,0.1249600201845169,4.620743751525879,-22.934669494628906,24.830917358398438,0.36625611782073975,-0.40684986114501953,-0.9025607109069824,1.5111963748931885,8.820503234863281,0.8077087998390198
4_20251106_214131,1762436457036,4,0.07106224447488785,0.07543415576219559,0.6632441282272339,0.7411929965019226,0.1269313246011734,3.555095911026001,1.7544021606445312,1.8774524927139282,8.413653373718262,-0.09485190361738205,0.07327322661876678,0.05475638434290886,0.08036689460277557,4.223288536071777,-22.613983154296875,25.213603973388672,0.36625611782073975,-0.40684986114501953,-0.9025607109069824,1.5111963748931885,8.820503234863281,0.8077087998390198
4_20251106_214131,1762436457054,4,0.06965859234333038,0.07581992447376251,0.6639037728309631,0.740696132183075,0.17420712113380432,3.5338926315307617,1.7082226276397705,1.6763482093811035,8.829029083251953,0.7347033023834229,0.07327322661876678,0.05475638434290886,0.08036689460277557,3.930943012237549,-22.39673614501953,25.355037689208984,0.08673596382141113,0.05008220672607422,0.03984707593917847,1.5896122455596924,8.778946876525879,0.6948562264442444
4_20251106_214131,1762436457073,4,0.06899945437908173,0.0758407860994339,0.6636883020401001,0.7409487962722778,0.19828224182128906,3.5236260890960693,1.6853445768356323,1.4177855253219604,9.00140380859375,1.0279803276062012,-0.04828885942697525,0.029100069776177406,0.011950042098760605,3.6750564575195312,-22.17723846435547,25.511459350585938,-0.13746130466461182,0.1779651641845703,0.26649928092956543,1.5552468299865723,8.82343864440918,0.7614810466766357
4_20251106_214131,1762436457092,4,0.06857065856456757,0.07437212020158768,0.663086473941803,0.7416759133338928,0.21961712837219238,3.514233112335205,1.6639145612716675,0.9952270984649658,8.954719543457031,0.8723640441894531,-0.16007709503173828,0.23129630088806152,-0.19940915703773499,3.4075775146484375,-21.957733154296875,25.586292266845703,-0.44801580905914307,0.10502433776855469,0.088706374168396,1.4432429075241089,8.849695205688477,0.7836576700210571
4_20251106_214131,1762436457111,4,0.06817669421434402,0.07138300687074661,0.6622388958930969,0.7427624464035034,0.21961712837219238,3.514233112335205,1.6639145612716675,0.9952270984649658,8.954719543457031,0.8723640441894531,-0.1955072581768036,0.22030073404312134,-0.20246347784996033,3.2480530738830566,-21.768211364746094,25.61068344116211,-0.44801580905914307,0.10502433776855469,0.088706374168396,1.4432429075241089,8.849695205688477,0.7836576700210571
4_20251106_214131,1762436457131,4,0.06830500811338425,0.06866980344057083,0.6611353754997253,0.7439885139465332,0.25100475549697876,3.495609760284424,1.6229615211486816,0.02442006766796112,8.710521697998047,0.7694177627563477,-0.1955072581768036,0.22030073404312134,-0.20246347784996033,3.191859245300293,-21.684555053710938,25.63711166381836,-0.9727830290794373,-0.09998798370361328,-0.0070067644119262695,0.9972031116485596,8.81050968170166,0.7764245271682739
4_20251106_214131,1762436457150,4,0.06775888800621033,0.06691907346248627,0.6598962545394897,0.7452968955039978,0.25100475549697876,3.495609760284424,1.6229615211486816,0.02442006766796112,8.710521697998047,0.7694177627563477,-0.21383319795131683,0.046204280108213425,0.10296888649463654,3.0967822074890137,-21.65283203125,25.593429565429688,-0.9727830290794373,-0.09998798370361328,-0.0070067644119262695,0.9972031116485596,8.81050968170166,0.7764245271682739
4_20251106_214131,1762436457169,4,0.06653136759996414,0.06678460538387299,0.6584278345108032,0.7467169165611267,0.26897525787353516,3.479218006134033,1.588744878768921,0.34762340784072876,8.925990104675293,1.1596558094024658,-0.2211635708808899,-0.029542943462729454,0.20376154780387878,2.9626240730285645,-21.673316955566406,25.506671905517578,-0.3705304265022278,0.09095287322998047,0.27859383821487427,0.7181538343429565,8.835037231445312,0.8810619711875916
4_20251106_214131,1762436457190,4,0.06502567231655121,0.06778460741043091,0.6567701697349548,0.748217761516571,0.27675774693489075,3.471400499343872,1.5734977722167969,0.5044368505477905,8.951128005981445,1.394277572631836,-0.2199418544769287,-0.06497309356927872,0.2074267417192459,2.8486084938049316,-21.767555236816406,25.4193115234375,-0.17097359895706177,0.09287261962890625,0.41057246923446655,0.6754104495048523,8.858255386352539,0.9837051033973694
4_20251106_214131,1762436457208,4,0.06370729953050613,0.06913328170776367,0.6550558805465698,0.7497091293334961,0.28259608149528503,3.4653820991516113,1.562642216682434,0.6085801124572754,8.855363845825195,1.3799128532409668,-0.22238530218601227,-0.04420369863510132,0.16772052645683289,2.8214168548583984,-21.819374084472656,25.417274475097656,-0.053464293479919434,-0.0023136138916015625,0.31696617603302,0.6620444059371948,8.857677459716797,1.0629466772079468
4_20251106_214131,1762436457226,4,0.06251919269561768,0.07009841501712799,0.653321385383606,0.7512314915657043,0.288825660943985,3.458768844604492,1.5515391826629639,0.6732208728790283,8.776359558105469,1.2171142101287842,-0.23704606294631958,-0.054588399827480316,0.1255708783864975,2.8282604217529297,-21.91863250732422,25.375102996826172,0.008941173553466797,-0.06505393981933594,0.12333405017852783,0.6642796993255615,8.841413497924805,1.0937801599502563
4_20251106_214131,1762436457246,4,0.06179066374897957,0.07096913456916809,0.6514967083930969,0.75279301404953,0.2947949469089508,3.451714038848877,1.540458083152771,0.5786539316177368,8.696157455444336,1.1010003089904785,-0.26453495025634766,-0.12850302457809448,0.1048014760017395,2.84205961227417,-22.10540008544922,25.37212371826172,-0.0685005784034729,-0.11620521545410156,0.005776166915893555,0.6471545100212097,8.812362670898438,1.095224142074585
4_20251106_214131,1762436457265,4,0.061695657670497894,0.07225381582975388,0.6494745016098022,0.7544242143630981,0.2994912564754486,3.4452929496765137,1.531625747680664,0.481692910194397,8.654260635375977,1.3559718132019043,-0.30546289682388306,-0.23662608861923218,0.11885136365890503,2.906928062438965,-22.23943328857422,25.439743041992188,-0.1323692798614502,-0.1264810562133789,0.20859813690185547,0.6140621900558472,8.780741691589355,1.1473736763000488
4_20251106_214131,1762436457284,4,0.06219356134533882,0.07434498518705368,0.6471101641654968,0.7562097311019897,0.3036130368709564,3.4379050731658936,1.5235264301300049,0.3392440378665924,8.58004379272461,1.549893856048584,-0.28530436754226685,-0.2775540351867676,0.13351212441921234,2.942477226257324,-22.474571228027344,25.409656524658203,-0.21985456347465515,-0.16055870056152344,0.3220161199569702,0.5590986013412476,8.740602493286133,1.2278777360916138
4_20251106_214131,1762436457303,4,0.06289518624544144,0.07684852927923203,0.6448060870170593,0.7578678131103516,0.3036130368709564,3.4379050731658936,1.5235264301300049,0.3392440378665924,8.58004379272461,1.549893856048584,-0.28469347953796387,-0.1950872838497162,0.13290125131607056,3.055569648742676,-22.62933349609375,25.35706329345703,-0.21985456347465515,-0.16055870056152344,0.3220161199569702,0.5590986013412476,8.740602493286133,1.2278777360916138
4_20251106_214131,1762436457322,4,0.06306569278240204,0.07866977900266647,0.6425279378890991,0.7595996856689453,0.3084371089935303,3.423938274383545,1.5085551738739014,0.25305649638175964,8.65306282043457,0.9202459454536438,-0.3946491479873657,-0.04603629559278488,0.11946223676204681,3.189720630645752,-22.833404541015625,25.371978759765625,-0.1918448507785797,-0.04587364196777344,-0.2503206133842468,0.44490134716033936,8.698936462402344,1.1705665588378906
4_20251106_214131,1762436457341,4,0.06255929172039032,0.07928039133548737,0.6396102905273438,0.7620365023612976,0.3099476993083954,3.4179317951202393,1.5001729726791382,0.29854437708854675,8.893670082092285,0.7933586835861206,-0.5650804042816162,0.10606902092695236,0.10235801339149475,3.325268268585205,-23.02397918701172,25.29254150390625,-0.11708557605743408,0.15578651428222656,-0.3017662763595581,0.41562995314598083,8.737883567810059,1.0951249599456787
4_20251106_214131,1762436457360,4,0.06138485670089722,0.07860427349805832,0.6356214880943298,0.765531599521637,0.3099476993083954,3.4179317951202393,1.5001729726791382,0.29854437708854675,8.893670082092285,0.7933586835861206,-0.7379550933837891,0.1867031753063202,0.09258419275283813,3.420337677001953,-23.28026580810547,25.264381408691406,-0.11708557605743408,0.15578651428222656,-0.3017662763595581,0.41562995314598083,8.737883567810059,1.0951249599456787
4_20251106_214131,1762436457379,4,0.059927280992269516,0.07720381021499634,0.6304509043693542,0.770051896572113,0.31180453300476074,3.4104955196380615,1.4836329221725464,0.28896796703338623,9.33178997039795,1.3583660125732422,-0.9016668796539307,0.15799254179000854,0.10113628208637238,3.525676727294922,-23.573158264160156,25.208885192871094,-0.08163827657699585,0.4053812026977539,0.26155686378479004,0.3706062436103821,8.926408767700195,1.0968091487884521
4_20251106_214131,1762436457399,4,0.05872498080134392,0.07599448412656784,0.6240544319152832,0.7754561901092529,0.31180453300476074,3.4104955196380615,1.4836329221725464,0.28896796703338623,9.33178997039795,1.3583660125732422,-0.9016668796539307,0.15799254179000854,0.10113628208637238,3.525676727294922,-23.573158264160156,25.208885192871094,-0.08163827657699585,0.4053812026977539,0.26155686378479004,0.3706062436103821,8.926408767700195,1.0968091487884521
4_20251106_214131,1762436457419,4,0.05770786851644516,0.07507262378931046,0.6170980930328369,0.7811682224273682,0.3123786151409149,3.409416675567627,1.4794446229934692,0.30931782722473145,9.528106689453125,2.215453624725342,-0.9572556018829346,0.12378408759832382,0.11213184893131256,3.7303924560546875,-24.28302001953125,24.946575164794922,-0.04903075098991394,0.48135852813720703,0.8949155807495117,0.3583485782146454,9.046748161315918,1.32053804397583
4_20251106_214131,1762436457438,4,0.05674304813146591,0.07433421164751053,0.6103880405426025,0.7865628004074097,0.31281498074531555,3.4103574752807617,1.479834794998169,0.3224853575229645,9.69329833984375,2.7577168941497803,-0.7923220992088318,0.09324086457490921,0.13778817653656006,3.8417716026306152,-24.68785858154297,24.862159729003906,-0.028690606355667114,0.5172405242919922,1.1497430801391602,0.3511759638786316,9.176057815551758,1.6079738140106201
4_20251106_214131,1762436457456,4,0.055629950016736984,0.07387199252843857,0.6043529510498047,0.7913316488265991,0.3137494623661041,3.4151315689086914,1.4907770156860352,0.42902272939682007,9.57838249206543,2.9288949966430664,-0.6701491475105286,0.052923791110515594,0.20559415221214294,3.8417716026306152,-24.68785858154297,24.862159729003906,0.06246274709701538,0.24829387664794922,0.8187670707702637,0.3665599822998047,9.33008861541748,2.1101279258728027
4_20251106_214131,1762436457475,4,0.05417565628886223,0.07418256253004074,0.59909588098526,0.7953904867172241,0.31482964754104614,3.4183499813079834,1.498263955116272,0.5954126119613647,9.609505653381348,2.639209032058716,-0.6701491475105286,0.052923791110515594,0.20559415221214294,3.936030387878418,-25.18138885498047,24.775409698486328,0.18308210372924805,0.22353363037109375,0.4232649803161621,0.4123305082321167,9.385972023010254,2.2159440517425537
4_20251106_214131,1762436457494,4,0.0528668649494648,0.07576756179332733,0.5943069458007812,0.7989140152931213,0.31721416115760803,3.422572374343872,1.5078392028808594,0.8216549158096313,9.657387733459473,2.7660961151123047,-0.5980671644210815,-0.05581012740731239,0.26790234446525574,4.027568340301514,-25.725013732910156,24.674087524414062,0.32745951414108276,0.217132568359375,0.4401216506958008,0.4941954016685486,9.440255165100098,2.325974464416504
4_20251106_214131,1762436457514,4,0.05209151655435562,0.07829267531633377,0.5894721150398254,0.8022962808609009,0.31721416115760803,3.422572374343872,1.5078392028808594,0.8216549158096313,9.657387733459473,2.7660961151123047,-0.638384222984314,-0.17126354575157166,0.23063960671424866,4.222548484802246,-26.362754821777344,24.656166076660156,0.32745951414108276,0.217132568359375,0.4401216506958008,0.4941954016685486,9.440255165100098,2.325974464416504
4_20251106_214131,1762436457532,4,0.05188808590173721,0.08072138577699661,0.584352970123291,0.8058059811592102,0.32460397481918335,3.432056188583374,1.530649185180664,0.8611575961112976,9.6346435546875,3.280827283859253,-0.6841990947723389,-0.09612719714641571,0.15916842222213745,4.453592777252197,-26.99878692626953,24.707294464111328,0.22432178258895874,0.10870361328125,0.6526675224304199,0.6368358135223389,9.52593994140625,2.628159761428833
4_20251106_214131,1762436457551,4,0.05172649770975113,0.08207094669342041,0.5789387226104736,0.8095793724060059,0.32906240224838257,3.436638593673706,1.5450389385223389,0.8839014768600464,9.535287857055664,3.64353346824646,-0.7617788314819336,-0.0020540333352983,0.11152099072933197,4.685131072998047,-27.63414764404297,24.690841674804688,0.19765251874923706,0.0074787139892578125,0.8122990131378174,0.6862489581108093,9.527809143066406,2.8312344551086426
4_20251106_214131,1762436457571,4,0.05162864550948143,0.08246646821498871,0.5729411840438843,0.8138010501861572,0.32906240224838257,3.436638593673706,1.5450389385223389,0.8839014768600464,9.535287857055664,3.64353346824646,-0.8198109865188599,0.05475638434290886,0.0791451632976532,4.888996601104736,-28.310386657714844,24.83481216430664,0.19765251874923706,0.0074787139892578125,0.8122990131378174,0.6862489581108093,9.527809143066406,2.8312344551086426
4_20251106_214131,1762436457590,4,0.05154955014586449,0.0822274312376976,0.566464900970459,0.8183512687683105,0.3391325771808624,3.446394443511963,1.5820143222808838,0.8264431357383728,9.778289794921875,4.219314098358154,-0.8198109865188599,0.05475638434290886,0.0791451632976532,5.246965408325195,-29.0401611328125,25.091968536376953,0.07689189910888672,0.18865489959716797,0.9345290660858154,0.7495512366294861,9.589634895324707,3.284785032272339
4_20251106_214131,1762436457610,4,0.05183155834674835,0.08184736222028732,0.5601100921630859,0.822733998298645,0.3435697853565216,3.4516303539276123,1.60377836227417,0.6672356128692627,9.780683517456055,4.572443008422852,-0.7458963394165039,0.04803687334060669,0.012560905888676643,5.616922855377197,-29.7694091796875,25.37664794921875,-0.06585252285003662,0.15283870697021484,1.0301263332366943,0.7330881357192993,9.62784481048584,3.5423166751861572
4_20251106_214131,1762436457630,4,0.05238412320613861,0.08138005435466766,0.5541598200798035,0.8267648220062256,0.3477267324924469,3.457367181777954,1.6288414001464844,0.6409004926681519,9.792654037475586,4.62750768661499,-0.6524341106414795,0.11889717727899551,0.04004982113838196,5.9955549240112305,-30.549041748046875,25.755374908447266,-0.07375013828277588,0.13184738159179688,0.8681526184082031,0.7146506309509277,9.660806655883789,3.759355068206787
4_20251106_214131,1762436457648,4,0.052289921790361404,0.08049275726079941,0.5489027500152588,0.8303568363189697,0.3516373038291931,3.462949275970459,1.6533007621765137,0.7725759744644165,9.808215141296387,4.429994583129883,-0.5650804042816162,0.1549382209777832,0.09747110307216644,6.433311939239502,-31.35034942626953,26.190093994140625,0.046340227127075195,0.11792659759521484,0.5365114212036133,0.7262357473373413,9.690288543701172,3.8934831619262695
4_20251106_214131,1762436457666,4,0.051504913717508316,0.07966296374797821,0.5443074107170105,0.8335049152374268,0.35561874508857727,3.468614101409912,1.67618727684021,0.9138277769088745,9.950664520263672,4.248043060302734,-0.49055489897727966,0.1042364314198494,0.1408424973487854,6.850351810455322,-32.28004455566406,26.824424743652344,0.15007364749908447,0.20830059051513672,0.2836480140686035,0.76375412940979,9.742363929748535,3.964395046234131
4_20251106_214131,1762436457685,4,0.05066550895571709,0.07959090173244476,0.5402811169624329,0.8361786007881165,0.3604598045349121,3.474945068359375,1.7000435590744019,1.0730352401733398,9.97939395904541,4.2947282791137695,-0.44535091519355774,0.03154352679848671,0.14756199717521667,7.273951530456543,-33.29779052734375,27.552013397216797,0.24742484092712402,0.18962383270263672,0.2642664909362793,0.8256103992462158,9.789770126342773,4.03046178817749
4_20251106_214131,1762436457704,4,0.05016356706619263,0.08022308349609375,0.536620557308197,0.8385024070739746,0.36580005288124084,3.481440305709839,1.7241612672805786,1.0957791805267334,9.9650297164917,4.560473442077637,-0.43435531854629517,-0.018547378480434418,0.1249600201845169,7.730907440185547,-34.35231018066406,28.428958892822266,0.21613502502441406,0.14020729064941406,0.4240093231201172,0.8796441555023193,9.824822425842285,4.1364641189575195
4_20251106_214131,1762436457723,4,0.050123631954193115,0.08119916170835495,0.5330352783203125,0.840694785118103,0.36580005288124084,3.481440305709839,1.7241612672805786,1.0957791805267334,9.9650297164917,4.560473442077637,-0.43435531854629517,-0.018547378480434418,0.1249600201845169,8.20449447631836,-35.53175354003906,29.398860931396484,0.21613502502441406,0.14020729064941406,0.4240093231201172,0.8796441555023193,9.824822425842285,4.1364641189575195
4_20251106_214131,1762436457742,4,0.05020115524530411,0.08155384659767151,0.5294709801673889,0.8429052829742432,0.37179869413375854,3.4886300563812256,1.7519731521606445,0.99642413854599,9.935102462768555,4.878888130187988,-0.43374449014663696,0.1702098250389099,0.03577376529574394,8.65524959564209,-36.87725830078125,30.567584991455078,0.09342402219772339,0.08822441101074219,0.5939393043518066,0.9030001163482666,9.846878051757812,4.284948825836182
4_20251106_214131,1762436457762,4,0.04991931468248367,0.08050239831209183,0.5259591937065125,0.8452185392379761,0.3817793130874634,3.499744415283203,1.8002879619598389,0.9676949977874756,9.680131912231445,4.681375026702881,-0.40930989384651184,0.2117486298084259,0.014393500983715057,9.108546257019043,-38.374267578125,31.895828247070312,0.04140472412109375,-0.13506317138671875,0.2060222625732422,0.9262902736663818,9.815195083618164,4.475352764129639
4_20251106_214131,1762436457781,4,0.049674853682518005,0.07906622439622879,0.5226568579673767,0.8474141359329224,0.3817793130874634,3.499744415283203,1.8002879619598389,0.9676949977874756,9.680131912231445,4.681375026702881,-0.35311031341552734,0.07063886523246765,0.041271548718214035,9.579080581665039,-39.98377990722656,33.330806732177734,0.04140472412109375,-0.13506317138671875,0.2060222625732422,0.9262902736663818,9.815195083618164,4.475352764129639
4_20251106_214131,1762436457800,4,0.049875013530254364,0.07894032448530197,0.519770622253418,0.8491874933242798,0.39171546697616577,3.5085525512695312,1.84821355342865,0.8683398962020874,9.625067710876465,4.667010307312012,-0.33173006772994995,-0.07535780221223831,0.06814959645271301,9.980351448059082,-41.724586486816406,34.936405181884766,-0.05164438486099243,-0.11861705780029297,0.1665205955505371,0.9199842810630798,9.743684768676758,4.500489711761475
4_20251106_214131,1762436457819,4,0.05057840049266815,0.0801478698849678,0.5170220732688904,0.8507093191146851,0.39600709080696106,3.5120322704315186,1.8717319965362549,0.8862956166267395,9.640628814697266,5.107524871826172,-0.34761255979537964,-0.035651594400405884,0.07059305906295776,10.435225486755371,-43.788734436035156,36.700279235839844,-0.0269508957862854,-0.08244514465332031,0.4856281280517578,0.9132465124130249,9.723073959350586,4.621896743774414
4_20251106_214131,1762436457839,4,0.05098080635070801,0.08093250542879105,0.514133632183075,0.85235995054245,0.4004751741886139,3.5150649547576904,1.8968141078948975,0.9712861180305481,9.57598876953125,5.136253356933594,-0.3347843885421753,0.06880627572536469,0.0431041419506073,10.868256568908691,-46.01759338378906,38.52781295776367,0.04643172025680542,-0.11766815185546875,0.4114851951599121,0.9248543977737427,9.693656921386719,4.724768161773682
4_20251106_214131,1762436457859,4,0.0511195994913578,0.08074501901865005,0.5113461017608643,0.8540446162223816,0.4043656885623932,3.517308235168457,1.920389175415039,0.8731280565261841,9.513742446899414,5.066824913024902,-0.3079063594341278,0.11156680434942245,0.0070631238631904125,11.275227546691895,-48.474891662597656,40.512298583984375,-0.041381120681762695,-0.14393138885498047,0.27364540100097656,0.9145091772079468,9.657673835754395,4.793179512023926
4_20251106_214131,1762436457877,4,0.05129004269838333,0.08004989475011826,0.5088242292404175,0.8556045889854431,0.40790218114852905,3.518670082092285,1.94278085231781,0.8563693761825562,9.377278327941895,4.791503429412842,-0.2938564419746399,0.11767545342445374,-0.002099846489727497,11.275227546691895,-48.474891662597656,40.512298583984375,-0.04651188850402832,-0.22431659698486328,-0.0013408660888671875,0.9028812646865845,9.601594924926758,4.792844295501709
4_20251106_214131,1762436457896,4,0.05145501345396042,0.0792185589671135,0.5064499974250793,0.8570794463157654,0.41129186749458313,3.5194108486175537,1.9643579721450806,0.9138277769088745,9.400022506713867,4.904026031494141,-0.29691076278686523,0.004054615739732981,0.01011744700372219,11.625997543334961,-51.073089599609375,42.45137023925781,0.008757233619689941,-0.16125774383544922,0.08894538879394531,0.9050705432891846,9.561280250549316,4.815080642700195
4_20251106_214131,1762436457914,4,0.05197267234325409,0.07932014763355255,0.5040416121482849,0.8584574460983276,0.41431403160095215,3.519718647003174,1.9849220514297485,0.8934779167175293,9.415584564208984,5.279899597167969,-0.25292855501174927,-0.0399276427924633,-0.001488981768488884,11.815454483032227,-54.14625549316406,44.5374755859375,-0.009274065494537354,-0.11655712127685547,0.3718552589416504,0.9027519822120667,9.53214168548584,4.908044338226318
4_20251106_214131,1762436457934,4,0.05257511883974075,0.07964753359556198,0.5019848942756653,0.8595948219299316,0.4171122610569,3.5194449424743652,2.0062644481658936,0.8180637955665588,9.319820404052734,5.170968055725098,-0.22482874989509583,0.040095631033182144,-0.024090979248285294,11.872379302978516,-57.415855407714844,46.62823486328125,-0.06775051355361938,-0.16985702514648438,0.21033906936645508,0.8858143091201782,9.489677429199219,4.960628986358643
4_20251106_214131,1762436457954,4,0.05275268852710724,0.07908707857131958,0.5001752376556396,0.8606898784637451,0.4195116460323334,3.5182981491088867,2.027937173843384,0.7546201944351196,9.202508926391602,5.06921911239624,-0.23704606294631958,0.09934951364994049,-0.027145300060510635,11.86695671081543,-60.93910217285156,48.64417266845703,-0.10495531558990479,-0.2297344207763672,0.08687210083007812,0.8595755100250244,9.432243347167969,4.982347011566162
4_20251106_214131,1762436457973,4,0.05268249288201332,0.07800732553005219,0.49831682443618774,0.8618699312210083,0.42139899730682373,3.516541004180908,2.0476694107055664,0.7582113742828369,9.168991088867188,5.0452775955200195,-0.21749839186668396,0.10118210315704346,-0.005154170095920563,11.780242919921875,-64.6290054321289,50.51856994628906,-0.08109128475189209,-0.210601806640625,0.05034446716308594,0.839302659034729,9.379592895507812,4.994933128356934
4_20251106_214131,1762436457992,4,0.05240901932120323,0.07701815664768219,0.4966185688972473,0.8629550933837891,0.42309075593948364,3.5138707160949707,2.0671544075012207,0.7749700546264648,9.079212188720703,4.913602828979492,-0.16129882633686066,0.043149955570697784,0.01989128440618515,11.258341789245605,-68.73383331298828,52.232948303222656,-0.05146610736846924,-0.24030494689941406,-0.0650644302368164,0.8264361619949341,9.319517135620117,4.978667259216309
4_20251106_214131,1762436458010,4,0.05216314643621445,0.076657734811306,0.49534153938293457,0.8637356758117676,0.42309075593948364,3.5138707160949707,2.0671544075012207,0.7749700546264648,9.079212188720703,4.913602828979492,-0.1441946178674698,-0.042371101677417755,0.04676933214068413,10.62121295928955,-72.9577407836914,53.83240509033203,-0.05146610736846924,-0.24030494689941406,-0.0650644302368164,0.8264361619949341,9.319517135620117,4.978667259216309
4_20251106_214131,1762436458030,4,0.0521232932806015,0.07708951085805893,0.4945395886898041,0.864159107208252,0.42614689469337463,3.5071890354156494,2.101325511932373,0.8467929363250732,9.046892166137695,5.087174892425537,-0.1441946178674698,-0.042371101677417755,0.04676933214068413,9.782638549804688,-77.33074188232422,55.245399475097656,0.0155181884765625,-0.17754459381103516,0.1002812385559082,0.8312747478485107,9.22443675994873,4.986893653869629
4_20251106_214131,1762436458049,4,0.052111443132162094,0.0778818428516388,0.4936601519584656,0.8645914793014526,0.42614689469337463,3.5071890354156494,2.101325511932373,0.8467929363250732,9.046892166137695,5.087174892425537,-0.15580104291439056,-0.01793651469051838,0.0534888431429863,8.823718070983887,-81.89937591552734,56.663536071777344,0.0155181884765625,-0.17754459381103516,0.1002812385559082,0.8312747478485107,9.22443675994873,4.986893653869629
4_20251106_214131,1762436458069,4,0.0518932081758976,0.07818746566772461,0.4925784766674042,0.865193784236908,0.4298277497291565,3.4987339973449707,2.13517689704895,1.0000152587890625,8.9954195022583,5.242791175842285,-0.16068796813488007,0.02787833847105503,0.04371500387787819,7.585078716278076,-86.7332534790039,57.727699279785156,0.12408226728439331,-0.1515512466430664,0.16990327835083008,0.8759329915046692,9.146970748901367,5.072887897491455
4_20251106_214131,1762436458086,4,0.05153139680624008,0.07813091576099396,0.49135512113571167,0.865915834903717,0.4318844676017761,3.4947052001953125,2.149721622467041,1.0514883995056152,8.967887878417969,5.370875358581543,-0.14175115525722504,0.026656610891222954,0.034552037715911865,6.246810436248779,-91.63439178466797,58.597389221191406,0.14044427871704102,-0.1432666778564453,0.2383899688720703,0.9110441207885742,9.111154556274414,5.132485389709473
4_20251106_214131,1762436458106,4,0.05123065412044525,0.0782264992594719,0.49023953080177307,0.8665571212768555,0.43441739678382874,3.4899654388427734,2.1652276515960693,1.0383208990097046,8.9427490234375,5.155406475067139,-0.14175115525722504,0.026656610891222954,0.034552037715911865,4.701577186584473,-96.54875946044922,59.43170928955078,0.1018214225769043,-0.13472461700439453,0.018336772918701172,0.9364994764328003,9.077473640441895,5.1370697021484375
4_20251106_214131,1762436458124,4,0.051012951880693436,0.07837805896997452,0.4894283413887024,0.8670147061347961,0.4370307922363281,3.484971523284912,2.1796538829803467,1.0119857788085938,8.898458480834961,5.026124954223633,-0.07516690343618393,-0.024656027555465698,-0.00454330537468195,2.987135887145996,-101.46074676513672,60.164817810058594,0.060389041900634766,-0.14321231842041016,-0.08875560760498047,0.951596736907959,9.041670799255371,5.114880561828613
4_20251106_214131,1762436458144,4,0.05123589187860489,0.07882877439260483,0.4889712929725647,0.867218554019928,0.439583957195282,3.479625940322876,2.1943306922912598,0.9317834973335266,8.92599105834961,5.197303295135498,-0.1130405142903328,-0.031986404210329056,-0.03447567671537399,1.1377874612808228,-106.22766876220703,60.50323486328125,-0.015850603580474854,-0.0925436019897461,0.06593799591064453,0.9476341009140015,9.018534660339355,5.1313652992248535
4_20251106_214131,1762436458163,4,0.051784224808216095,0.07916953414678574,0.4883706569671631,0.8674933314323425,0.4417034685611725,3.4743638038635254,2.2080957889556885,0.8803103566169739,8.858955383300781,5.320599555969238,-0.1130405142903328,-0.031986404210329056,-0.03447567671537399,-0.8189362287521362,-110.97541046142578,60.71611785888672,-0.05385899543762207,-0.12766361236572266,0.15138721466064453,0.934169352054596,8.986618995666504,5.169212341308594
4_20251106_214131,1762436458182,4,0.052336230874061584,0.07870999723672867,0.487361878156662,0.8680691719055176,0.443513423204422,3.468623638153076,2.2219655513763428,0.8599605560302734,8.716506958007812,5.458259582519531,-0.153357595205307,0.04376082122325897,-0.0754036158323288,-2.789274215698242,-115.54773712158203,60.81007385253906,-0.05936706066131592,-0.21608924865722656,0.23123788833618164,0.9193276166915894,8.932596206665039,5.22702169418335
4_20251106_214131,1762436458201,4,0.05287615954875946,0.07794231176376343,0.48620131611824036,0.8687562346458435,0.443513423204422,3.468623638153076,2.2219655513763428,0.8599605560302734,8.716506958007812,5.458259582519531,-0.09471457451581955,0.01871536858379841,-0.07357102632522583,-4.753509998321533,-119.8292007446289,60.625762939453125,-0.05936706066131592,-0.21608924865722656,0.23123788833618164,0.9193276166915894,8.932596206665039,5.22702169418335
4_20251106_214131,1762436458220,4,0.05345165729522705,0.07737693935632706,0.4852677583694458,0.8692933320999146,0.4450770318508148,3.455610513687134,2.248411178588867,0.5750628113746643,8.536949157714844,5.255958557128906,-0.09471457451581955,0.01871536858379841,-0.07357102632522583,-6.907924652099609,-123.63294219970703,60.21314239501953,-0.24503666162490845,-0.27332401275634766,0.005112648010253906,0.8200994729995728,8.810273170471191,5.250845909118652
4_20251106_214131,1762436458239,4,0.05391719937324524,0.0768621414899826,0.4847117066383362,0.8696204423904419,0.44469311833381653,3.44862699508667,2.2607946395874023,0.5642893314361572,8.618349075317383,5.312219619750977,-0.06478220224380493,0.003443750087171793,-0.05280161648988724,-9.139110565185547,-127.31465911865234,59.59698486328125,-0.20464813709259033,-0.15353965759277344,0.049098968505859375,0.7689374685287476,8.771888732910156,5.263120651245117
4_20251106_214131,1762436458259,4,0.05397350713610649,0.07623641937971115,0.4840669631958008,0.8700310587882996,0.44404372572898865,3.4412858486175537,2.2735238075256348,0.6816001534461975,8.654260635375977,5.376860618591309,-0.07089085131883621,0.013217585161328316,0.027832524850964546,-11.423399925231934,-130.88531494140625,58.77800750732422,-0.06986981630325317,-0.0941019058227539,0.09099197387695312,0.7514699697494507,8.74836254119873,5.2858686447143555
4_20251106_214131,1762436458281,4,0.05373425781726837,0.07573923468589783,0.48348504304885864,0.8704127669334412,0.44404372572898865,3.4412858486175537,2.2735238075256348,0.6816001534461975,8.654260635375977,5.376860618591309,-0.037293292582035065,-0.002054032403975725,0.044936735183000565,-11.423399925231934,-130.88531494140625,58.77800750732422,-0.06986981630325317,-0.0941019058227539,0.09099197387695312,0.7514699697494507,8.74836254119873,5.2858686447143555
4_20251106_214131,1762436458298,4,0.05339299887418747,0.07566840201616287,0.4830979108810425,0.8706548810005188,0.4423850476741791,3.4269280433654785,2.296755075454712,0.7342703342437744,8.631516456604004,5.312220096588135,-0.031184643507003784,-0.0026648971252143383,0.07120391726493835,-16.27674674987793,-137.74105834960938,56.7286376953125,-0.0023890137672424316,-0.07286643981933594,0.018971920013427734,0.7366593480110168,8.70438289642334,5.293248176574707
4_20251106_214131,1762436458317,4,0.05283835157752037,0.0757344663143158,0.482822448015213,0.8708357214927673,0.4418233335018158,3.4204580783843994,2.306710958480835,0.7965168952941895,8.602787017822266,5.312219619750977,-0.031184643507003784,-0.0026648971252143383,0.07120391726493835,-16.27674674987793,-137.74105834960938,56.7286376953125,0.047886013984680176,-0.08127689361572266,0.015177249908447266,0.7486308813095093,8.684063911437988,5.297042369842529
4_20251106_214131,1762436458335,4,0.05208519473671913,0.07565305382013321,0.4825557768344879,0.8710359930992126,0.4415556490421295,3.4134843349456787,2.3160200119018555,0.8563693761825562,8.507022857666016,5.051262855529785,-0.02568686008453369,0.07063887268304825,0.06326267868280411,-18.938465118408203,-141.1693115234375,55.437843322753906,0.08619076013565063,-0.1416330337524414,-0.1966238021850586,0.7701786160469055,8.648655891418457,5.247886657714844
4_20251106_214131,1762436458354,4,0.0512516126036644,0.07528064399957657,0.4823337495326996,0.8712406158447266,0.44196805357933044,3.4064180850982666,2.324688673019409,1.0131828784942627,8.487870216369629,5.184135437011719,-0.06539306789636612,0.03826303780078888,0.04432586953043938,-21.78280258178711,-144.6324462890625,53.92290496826172,0.19440340995788574,-0.12862873077392578,-0.05100107192993164,0.818779468536377,8.616498947143555,5.23513650894165
4_20251106_214131,1762436458374,4,0.050775084644556046,0.0752519890666008,0.48202434182167053,0.8714422583580017,0.44196805357933044,3.4064180850982666,2.324688673019409,1.0131828784942627,8.487870216369629,5.184135437011719,-0.05561923235654831,-0.013049598783254623,0.009506583213806152,-24.794214248657227,-148.2568359375,52.42546081542969,0.19440340995788574,-0.12862873077392578,-0.05100107192993164,0.818779468536377,8.616498947143555,5.23513650894165
4_20251106_214131,1762436458393,4,0.05080149695277214,0.0757441446185112,0.48159632086753845,0.8716346621513367,0.44418051838874817,3.3918509483337402,2.3415732383728027,0.9066454172134399,8.45914077758789,5.230820655822754,-0.04767799377441406,-0.025266891345381737,-0.02592356875538826,-28.09310531616211,-152.0716552734375,50.548095703125,0.03708142042160034,-0.1058807373046875,-0.013104915618896484,0.8695639967918396,8.565021514892578,5.24392557144165
4_20251106_214131,1762436458412,4,0.05116301029920578,0.07616619765758514,0.48113080859184265,0.8718338012695312,0.44509318470954895,3.3851568698883057,2.3487658500671387,0.8336254358291626,8.434002876281738,5.253564834594727,-0.04767799377441406,-0.025266891345381737,-0.02592356875538826,-31.538240432739258,-155.90762329101562,48.569969177246094,-0.028750896453857422,-0.10481548309326172,0.0077114105224609375,0.86237633228302,8.538818359375,5.245853424072266
4_20251106_214131,1762436458431,4,0.05158894509077072,0.07604251801967621,0.4802860617637634,0.8722851872444153,0.44509318470954895,3.3851568698883057,2.3487658500671387,0.8336254358291626,8.434002876281738,5.253564834594727,-0.16252055764198303,0.0425390899181366,-0.06685151159763336,-35.16357421875,-159.72879028320312,46.422821044921875,-0.028750896453857422,-0.10481548309326172,0.0077114105224609375,0.86237633228302,8.538818359375,5.245853424072266
4_20251106_214131,1762436458449,4,0.05207294225692749,0.07534577697515488,0.4790431261062622,0.8730000853538513,0.4460647702217102,3.3770205974578857,2.3583521842956543,0.838413655757904,8.439988136291504,5.58155632019043,-0.13503164052963257,0.07491492480039597,-0.09250782430171967,-38.9403076171875,-163.68246459960938,44.010337829589844,-0.019170105457305908,-0.07906436920166016,0.26856231689453125,0.85758376121521,8.519052505493164,5.312994003295898
4_20251106_214131,1762436458469,4,0.05257221311330795,0.07424276322126389,0.4777055084705353,0.8737972378730774,0.4465811550617218,3.370386838912964,2.366856575012207,0.7606054544448853,8.393302917480469,5.7407636642456055,-0.13503164052963257,0.07491492480039597,-0.09250782430171967,-43.11716079711914,-167.4930419921875,40.89527893066406,-0.07758265733718872,-0.1006002426147461,0.34221553802490234,0.838188111782074,8.493903160095215,5.398548126220703
4_20251106_214131,1762436458489,4,0.05295912176370621,0.07289782911539078,0.4767468273639679,0.8744105100631714,0.4451259970664978,3.355539560317993,2.3840696811676025,0.3990965187549591,8.18980598449707,5.246382713317871,-0.03912588208913803,0.08041270822286606,-0.0546342134475708,-47.57222366333008,-171.10610961914062,37.46206283569336,-0.3082156479358673,-0.20879554748535156,-0.15082216262817383,0.7073121666908264,8.398601531982422,5.397204875946045
4_20251106_214131,1762436458508,4,0.05304618924856186,0.0715576559305191,0.4761653244495392,0.8748326897621155,0.44304898381233215,3.3479738235473633,2.3909733295440674,0.3823378086090088,8.268810272216797,5.105130195617676,-0.08310814946889877,0.07002799957990646,0.011950042098760605,-52.31265640258789,-174.65899658203125,33.62668991088867,-0.2599794864654541,-0.10383319854736328,-0.2336597442626953,0.6423172950744629,8.37264347076416,5.338789939880371
4_20251106_214131,1762436458527,4,0.05268487334251404,0.07038044929504395,0.47556188702583313,0.875278115272522,0.4408551752567291,3.34091854095459,2.397426128387451,0.5618952512741089,8.420835494995117,5.300249099731445,-0.1380859613418579,0.04559341445565224,0.06509527564048767,-57.586631774902344,-178.26641845703125,29.215042114257812,-0.06433761119842529,0.03855323791503906,-0.030832290649414062,0.6262328624725342,8.382282257080078,5.331081390380859
4_20251106_214131,1762436458546,4,0.052047327160835266,0.06963921338319778,0.47472089529037476,0.8758319020271301,0.4390050768852234,3.334627151489258,2.4039905071258545,0.7115263938903809,8.532161712646484,5.489383697509766,-0.12464695423841476,0.03520871698856354,0.07670170068740845,-64.06548309326172,-182.07794189453125,23.481407165527344,0.06823486089706421,0.119903564453125,0.12664175033569336,0.6432915329933167,8.41225814819336,5.362741947174072
4_20251106_214131,1762436458564,4,0.05134221911430359,0.06933753937482834,0.4738547205924988,0.876366376876831,0.43762296438217163,3.3293044567108154,2.4097063541412354,0.7582113742828369,8.550117492675781,5.2846879959106445,-0.12464695423841476,0.03520871698856354,0.07670170068740845,-71.18716430664062,-185.95059204101562,17.113018035888672,0.09193587303161621,0.11028766632080078,-0.06244325637817383,0.6662755012512207,8.43982982635498,5.347131252288818
4_20251106_214131,1762436458583,4,0.050628967583179474,0.06922579556703568,0.473222017288208,0.8767584562301636,0.43762296438217163,3.3293044567108154,2.4097063541412354,0.7582113742828369,8.550117492675781,5.2846879959106445,-0.08921679109334946,0.03093266300857067,0.06448440253734589,-78.9403076171875,-189.91949462890625,9.933862686157227,0.09193587303161621,0.11028766632080078,-0.06244325637817383,0.6662755012512207,8.43982982635498,5.347131252288818
4_20251106_214131,1762436458604,4,0.0500354990363121,0.06928388774394989,0.4727814495563507,0.8770256042480469,0.43609818816185,3.320282220840454,2.420116662979126,0.8862956166267395,8.649471282958984,5.328978538513184,-0.12342521548271179,0.046204280108213425,0.05226711556315422,-87.39136505126953,-193.85281372070312,2.092580795288086,0.1555604338645935,0.13991641998291016,0.007534980773925781,0.730735182762146,8.509554862976074,5.321443557739258
4_20251106_214131,1762436458623,4,0.049511995166540146,0.06922419369220734,0.4722272753715515,0.8773584961891174,0.43609818816185,3.320282220840454,2.420116662979126,0.8862956166267395,8.649471282958984,5.328978538513184,-0.12953385710716248,0.052312929183244705,0.024167336523532867,-97.15193176269531,-197.897705078125,-6.991891860961914,0.1555604338645935,0.13991641998291016,0.007534980773925781,0.730735182762146,8.509554862976074,5.321443557739258
4_20251106_214131,1762436458642,4,0.04919430613517761,0.0691293403506279,0.471530556678772,0.8777585029602051,0.436666339635849,3.3146002292633057,2.430954933166504,0.8515812158584595,8.781147003173828,5.436712741851807,-0.1124296486377716,0.0578107088804245,-0.0027107112109661102,-107.43173217773438,-201.94705200195312,-16.556480407714844,0.06431758403778076,0.1736278533935547,0.06764364242553711,0.7872636318206787,8.607519149780273,5.3690690994262695
4_20251106_214131,1762436458660,4,0.0490628257393837,0.06893263757228851,0.4709380567073822,0.8780993819236755,0.4369764029979706,3.3126766681671143,2.4362308979034424,0.767787754535675,8.730871200561523,5.475018501281738,-0.11548397690057755,0.05109119415283203,0.003397936001420021,-118.1227798461914,-206.00762939453125,-26.461868286132812,-0.015580713748931885,0.09868144989013672,0.08475971221923828,0.7833684682846069,8.632189750671387,5.3902587890625
4_20251106_214131,1762436458682,4,0.04891665279865265,0.0686776414513588,0.47039493918418884,0.8784185647964478,0.4372953772544861,3.3107519149780273,2.4429845809936523,0.7773641347885132,8.684186935424805,5.648591041564941,-0.12464694678783417,0.0321543887257576,0.024778202176094055,-128.96592712402344,-209.77578735351562,-36.584049224853516,-0.004803478717803955,0.04159832000732422,0.2066655158996582,0.7821676135063171,8.64258861541748,5.441925525665283
4_20251106_214131,1762436458702,4,0.048675086349248886,0.06850425153970718,0.46970483660697937,0.878814697265625,0.43805843591690063,3.3095035552978516,2.450592041015625,0.9425569772720337,8.778753280639648,6.025661468505859,-0.1179274395108223,0.019937098026275635,0.03210857883095741,-139.7459259033203,-213.05303955078125,-46.572818756103516,0.12831151485443115,0.1089315414428711,0.46698856353759766,0.8142454624176025,8.669821739196777,5.558672904968262
4_20251106_214131,1762436458719,4,0.04840416833758354,0.06844218820333481,0.4688374102115631,0.8792975544929504,0.43913784623146057,3.3085718154907227,2.457939386367798,1.025153398513794,8.704536437988281,6.10706090927124,-0.03668242692947388,0.01199585571885109,0.0009544771164655685,-150.08950805664062,-215.87890625,-56.27912902832031,0.16872632503509521,0.027771949768066406,0.43871021270751953,0.8564270734786987,8.676764488220215,5.668350696563721
4_20251106_214131,1762436458736,4,0.5283144116401672,0.24845553934574127,-0.40280115604400635,-0.7049148678779602,0.44018420577049255,3.307490110397339,2.4651362895965576,0.8659458160400391,8.587225914001465,5.767098903656006,0.03478875011205673,0.026045745238661766,-0.03447567671537399,-150.08950805664062,-215.87890625,-56.27912902832031,0.0076149702072143555,-0.07163047790527344,0.07899808883666992,0.8583308458328247,8.658856391906738,5.688100814819336
4_20251106_214131,1762436458756,4,0.5278189182281494,0.24812476336956024,-0.4028799533843994,-0.7053573727607727,0.44107475876808167,3.305433750152588,2.4724884033203125,0.7665907144546509,8.380136489868164,5.460653781890869,0.0072998348623514175,0.03765217214822769,-0.03447567671537399,-159.59437561035156,-218.16900634765625,-65.22592163085938,-0.07339215278625488,-0.2229757308959961,-0.18195772171020508,0.8399828672409058,8.60311222076416,5.642611503601074
4_20251106_214131,1762436458775,4,0.5276688933372498,0.24832499027252197,-0.40272268652915955,-0.7054889798164368,0.4415198862552643,3.302746295928955,2.478238105773926,0.7115263938903809,8.225716590881348,5.424742698669434,-0.01652389019727707,0.02482401579618454,-0.014928005635738373,-168.12356567382812,-219.86419677734375,-73.4202651977539,-0.10276514291763306,-0.30191612243652344,-0.17429494857788086,0.8142915368080139,8.527632713317871,5.5990376472473145
4_20251106_214131,1762436458794,4,0.5278105139732361,0.2486003041267395,-0.402536004781723,-0.705392599105835,0.44175654649734497,3.2990128993988037,2.483427047729492,0.7378615140914917,8.149105072021484,5.38883113861084,-0.01652389019727707,0.02482401579618454,-0.014928005635738373,-174.68798828125,-220.56851196289062,-80.15350341796875,-0.06114399433135986,-0.3028221130371094,-0.1681652069091797,0.7990055084228516,8.451927185058594,5.5569963455200195
4_20251106_214131,1762436458813,4,0.5277359485626221,0.24856290221214294,-0.40244320034980774,-0.7055144906044006,0.44175654649734497,3.2990128993988037,2.483427047729492,0.7378615140914917,8.149105072021484,5.38883113861084,-0.017745619639754295,-0.013049596920609474,0.02050214819610119,-180.52723693847656,-220.84219360351562,-86.37703704833984,-0.06114399433135986,-0.3028221130371094,-0.1681652069091797,0.7990055084228516,8.451927185058594,5.5569963455200195
4_20251106_214131,1762436458833,4,0.5276681184768677,0.24821677803993225,-0.40254852175712585,-0.7056270241737366,0.4419427216053009,3.2892580032348633,2.4923155307769775,0.7594083547592163,8.198184967041016,5.600708961486816,-0.05989528447389603,-0.016714787110686302,0.028443388640880585,-185.7978057861328,-220.65817260742188,-92.06942749023438,-0.026874423027038574,-0.14707279205322266,0.06474971771240234,0.7862827777862549,8.345257759094238,5.535959243774414
4_20251106_214131,1762436458851,4,0.5279737114906311,0.2476920485496521,-0.40235283970832825,-0.7056944370269775,0.4419427216053009,3.2892580032348633,2.4923155307769775,0.7594083547592163,8.198184967041016,5.600708961486816,-0.0971580371260643,0.03765217214822769,0.021113011986017227,-190.69651794433594,-220.08966064453125,-97.46961212158203,-0.026874423027038574,-0.14707279205322266,0.06474971771240234,0.7862827777862549,8.345257759094238,5.535959243774414
4_20251106_214131,1762436458871,4,0.5283942818641663,0.24720562994480133,-0.40151143074035645,-0.7060293555259705,0.4419473707675934,3.2838222980499268,2.4978227615356445,0.7749700546264648,8.2508544921875,5.825754165649414,-0.09471457451581955,0.08224529772996902,0.0009544771164655685,-194.93544006347656,-218.3299560546875,-102.52412414550781,-0.009050190448760986,-0.07552242279052734,0.23183584213256836,0.7840202450752258,8.326376914978027,5.593918323516846
4_20251106_214131,1762436458890,4,0.5286958813667297,0.24685972929000854,-0.40033748745918274,-0.706591010093689,0.4416939318180084,3.2746450901031494,2.5084891319274902,0.6816002130508423,8.271203994750977,5.759916305541992,-0.053175777196884155,0.07919097691774368,-0.01859319396317005,-199.00689697265625,-215.97091674804688,-107.60138702392578,-0.08163720369338989,-0.03856658935546875,0.08995866775512695,0.7632374167442322,8.309770584106445,5.669957637786865
4_20251106_214131,1762436458909,4,0.5287678837776184,0.24677734076976776,-0.39943423867225647,-0.707076907157898,0.4416939318180084,3.2746450901031494,2.5084891319274902,0.6816002130508423,8.271203994750977,5.759916305541992,-0.04156934469938278,0.07369319349527359,-0.008208494633436203,-203.2538299560547,-213.09515380859375,-112.9597396850586,-0.08163720369338989,-0.03856658935546875,0.08995866775512695,0.7632374167442322,8.309770584106445,5.669957637786865
4_20251106_214131,1762436458928,4,0.5289527177810669,0.2469598948955536,-0.3986304998397827,-0.7073284387588501,0.4398934245109558,3.2651562690734863,2.518450975418091,0.5834420919418335,8.193395614624023,5.554023742675781,-0.040347613394260406,0.05048033222556114,0.03516290336847305,-207.7277069091797,-209.75595092773438,-118.61572265625,-0.1169843077659607,-0.07543754577636719,-0.09488296508789062,0.7004263997077942,8.26883316040039,5.648906707763672
4_20251106_214131,1762436458950,4,0.529373288154602,0.2470032125711441,-0.3979993760585785,-0.7073540687561035,0.4387623965740204,3.2605857849121094,2.5227224826812744,0.6624473333358765,8.247262954711914,5.585146903991699,-0.03973674774169922,0.013828449882566929,0.0736473798751831,-212.7155303955078,-205.06668090820312,-125.0371322631836,-0.03038322925567627,-0.017255783081054688,-0.051007747650146484,0.6928305625915527,8.264518737792969,5.636154651641846
4_20251106_214131,1762436458965,4,0.5300377011299133,0.24687108397483826,-0.39770960807800293,-0.7070656418800354,0.437908411026001,3.2565507888793945,2.5263469219207764,0.7594083547592163,8.296342849731445,5.546841621398926,-0.03973674774169922,0.013828449882566929,0.0736473798751831,-217.89193725585938,-199.661376953125,-131.73638916015625,0.05326223373413086,0.02545928955078125,-0.07145071029663086,0.7061461210250854,8.270883560180664,5.618292331695557
4_20251106_214131,1762436458985,4,0.5308117270469666,0.24653571844100952,-0.39747631549835205,-0.7067330479621887,0.437908411026001,3.2565507888793945,2.5263469219207764,0.7594083547592163,8.296342849731445,5.546841621398926,-0.0769994929432869,0.02482401579618454,0.06814959645271301,-223.14894104003906,-193.55838012695312,-138.6690673828125,0.05326223373413086,0.02545928955078125,-0.07145071029663086,0.7061461210250854,8.270883560180664,5.618292331695557
4_20251106_214131,1762436459004,4,0.53167325258255,0.2462267279624939,-0.39708036184310913,-0.7064157128334045,0.43777161836624146,3.2493255138397217,2.5339484214782715,0.9234041571617126,8.417244911193848,5.749142646789551,-0.0769994929432869,0.046815142035484314,0.018669553101062775,-228.3240966796875,-186.66070556640625,-145.7052764892578,0.14402490854263306,0.10152435302734375,0.10423755645751953,0.7793792486190796,8.315720558166504,5.644905090332031
4_20251106_214131,1762436459023,4,0.5322824120521545,0.24604934453964233,-0.39657869935035706,-0.7063005566596985,0.43811094760894775,3.246356248855591,2.537353277206421,0.8372165560722351,8.354997634887695,5.576767921447754,-0.04889971762895584,0.0785801112651825,-0.033864811062812805,-232.8984832763672,-178.54998779296875,-152.46533203125,0.04626983404159546,0.031421661376953125,-0.054509639739990234,0.7909467220306396,8.323575973510742,5.631277561187744
4_20251106_214131,1762436459042,4,0.5325153470039368,0.2462579756975174,-0.3959679901599884,-0.7063949108123779,0.43835005164146423,3.2435660362243652,2.5400607585906982,0.7606054544448853,8.334648132324219,5.4391069412231445,-0.06966912001371384,0.06575194746255875,-0.043638646602630615,-237.27072143554688,-170.0531005859375,-158.966796875,-0.02427297830581665,0.00885772705078125,-0.15373659133911133,0.7848784327507019,8.325790405273438,5.592843532562256
4_20251106_214131,1762436459062,4,0.5328094959259033,0.2466164380311966,-0.3952680230140686,-0.7064400315284729,0.43839892745018005,3.2408535480499268,2.5426902770996094,0.7222998738288879,8.35140609741211,5.5671916007995605,-0.06966912001371384,0.06575194746255875,-0.043638646602630615,-241.66436767578125,-161.2596435546875,-165.22012329101562,-0.05006283521652222,0.0204925537109375,-0.02052164077758789,0.7723627090454102,8.330913543701172,5.587713241577148
4_20251106_214131,1762436459080,4,0.5332648158073425,0.24670752882957458,-0.3946244716644287,-0.7064244747161865,0.43846777081489563,3.239015817642212,2.5455310344696045,0.7857434749603271,8.491461753845215,5.91433572769165,-0.12098176032304764,0.006498073693364859,-0.006375899538397789,-246.07492065429688,-152.0938720703125,-171.26425170898438,0.010704636573791504,0.12843799591064453,0.26129817962646484,0.7750388383865356,8.36302375793457,5.6530375480651855
4_20251106_214131,1762436459100,4,0.5337397456169128,0.24648970365524292,-0.3938765525817871,-0.7065592408180237,0.4387628436088562,3.237428903579712,2.5496420860290527,0.846792995929718,8.516599655151367,5.961020469665527,-0.09532544016838074,0.03765217214822769,-0.024090975522994995,-250.15438842773438,-142.74148559570312,-176.22366333007812,0.0574033260345459,0.12286090850830078,0.24638652801513672,0.7893896698951721,8.393738746643066,5.714633941650391
4_20251106_214131,1762436459119,4,0.5339414477348328,0.2462736815214157,-0.39302751421928406,-0.7069548964500427,0.43917036056518555,3.236414909362793,2.554486036300659,0.8312313556671143,8.556102752685547,6.023266792297363,-0.0562300980091095,0.016882775351405144,-0.052801620215177536,-253.71951293945312,-133.65066528320312,-180.39715576171875,0.03347337245941162,0.12989139556884766,0.24690628051757812,0.7977579832077026,8.4262113571167,5.776360511779785
4_20251106_214131,1762436459140,4,0.5337686538696289,0.24610358476638794,-0.3925400972366333,-0.7074152231216431,0.4393680989742279,3.2355899810791016,2.560049057006836,0.7354673743247986,8.481884956359863,5.994538307189941,-0.0562300980091095,0.016882775351405144,-0.052801620215177536,-253.71951293945312,-133.65066528320312,-180.39715576171875,-0.04983252286911011,0.04453849792480469,0.17454242706298828,0.7852998971939087,8.437346458435059,5.819995880126953
4_20251106_214131,1762436459158,4,0.5333356857299805,0.24610638618469238,-0.3923337459564209,-0.7078551650047302,0.43930554389953613,3.2349507808685303,2.5642452239990234,0.6875854134559631,8.435199737548828,5.782660484313965,-0.0006414074450731277,0.01016326155513525,-0.05768853798508644,-256.48406982421875,-124.90360260009766,-183.69393920898438,-0.07817161083221436,-0.0017175674438476562,-0.029868125915527344,0.7657570242881775,8.436917304992676,5.812528610229492
4_20251106_214131,1762436459177,4,0.5329189300537109,0.2462601214647293,-0.3921200931072235,-0.7082338333129883,0.4390903413295746,3.2342708110809326,2.56887149810791,0.7115263938903809,8.436397552490234,5.874833106994629,-0.02568686008453369,-0.0032757618464529514,-0.03569740429520607,-258.449462890625,-116.73834991455078,-186.09152221679688,-0.04338449239730835,-0.000415802001953125,0.049843788146972656,0.7549108862876892,8.436813354492188,5.824989318847656
4_20251106_214131,1762436459196,4,0.5328285098075867,0.24642427265644073,-0.3919227421283722,-0.7083539962768555,0.4390903413295746,3.2342708110809326,2.56887149810791,0.7115263938903809,8.436397552490234,5.874833106994629,0.003023780882358551,-0.005108356010168791,-0.021647518500685692,-259.13751220703125,-109.85579681396484,-186.90829467773438,-0.04338449239730835,-0.000415802001953125,0.049843788146972656,0.7549108862876892,8.436813354492188,5.824989318847656
4_20251106_214131,1762436459215,4,0.5326724648475647,0.2464991807937622,-0.3919357657432556,-0.7084380984306335,0.43863973021507263,3.233788013458252,2.57802677154541,0.7713788747787476,8.589620590209961,5.902365207672119,0.02257145382463932,-0.0014431677991524339,-0.016760598868131638,-259.1596374511719,-103.78726959228516,-187.01126098632812,0.01571071147918701,0.10928916931152344,0.05047798156738281,0.7556681632995605,8.480331420898438,5.851887226104736
4_20251106_214131,1762436459233,4,0.5325451493263245,0.24668484926223755,-0.3921138048171997,-0.7083706855773926,0.4385664165019989,3.2340221405029297,2.582260847091675,0.7953198552131653,8.581239700317383,5.824557304382324,0.02929096482694149,0.004054614808410406,-0.0161497350782156,-258.3503112792969,-98.6213150024414,-186.47671508789062,0.031721293926239014,0.08072662353515625,-0.021863937377929688,0.7635985612869263,8.500513076782227,5.846421241760254
4_20251106_214131,1762436459253,4,0.5328100919723511,0.24713845551013947,-0.3922373950481415,-0.7079447507858276,0.43865278363227844,3.234403610229492,2.5862298011779785,0.8204578757286072,8.558496475219727,5.826951026916504,0.034177884459495544,-0.02099083736538887,-0.01859319396317005,-256.61572265625,-94.60433197021484,-185.06228637695312,0.045487403869628906,0.04638671875,-0.015575885772705078,0.7749704718589783,8.512109756469727,5.842526912689209
4_20251106_214131,1762436459272,4,0.5331774950027466,0.24759706854820251,-0.39251402020454407,-0.7073543667793274,0.4388373792171478,3.234820604324341,2.5904533863067627,0.8072903156280518,8.523781776428223,5.92630672454834,0.034177884459495544,-0.02099083736538887,-0.01859319396317005,-253.19664001464844,-92.86699676513672,-182.32684326171875,0.025855839252471924,0.009337425231933594,0.06702375411987305,0.7814344763755798,8.514444351196289,5.859282970428467
4_20251106_214131,1762436459290,4,0.5335793495178223,0.24810324609279633,-0.3928130567073822,-0.7067076563835144,0.4388373792171478,3.234820604324341,2.5904533863067627,0.8072903156280518,8.523781776428223,5.92630672454834,0.043951719999313354,-0.022823432460427284,-0.024090975522994995,-249.0511474609375,-92.17642974853516,-178.98779296875,0.025855839252471924,0.009337425231933594,0.06702375411987305,0.7814344763755798,8.514444351196289,5.859282970428467
4_20251106_214131,1762436459310,4,0.5331353545188904,0.24830204248428345,-0.3933117687702179,-0.7066956162452698,0.4394352436065674,3.235399007797241,2.5975818634033203,0.7905316352844238,8.463929176330566,5.776675224304199,0.07388409227132797,-0.015493055805563927,-0.052801620215177536,-244.36314392089844,-92.35631561279297,-175.1165771484375,-0.0004982352256774902,-0.03941631317138672,-0.0626368522644043,0.7910298705101013,8.503345489501953,5.8393120765686035
4_20251106_214131,1762436459331,4,0.5325767993927002,0.2486180067062378,-0.39390745759010315,-0.7066738605499268,0.4394352436065674,3.235399007797241,2.5975818634033203,0.7905316352844238,8.463929176330566,5.776675224304199,0.07693841308355331,-0.018547380343079567,-0.07479274272918701,-239.12384033203125,-93.44527435302734,-170.53778076171875,-0.0004982352256774902,-0.03941631317138672,-0.0626368522644043,0.7910298705101013,8.503345489501953,5.8393120765686035
4_20251106_214131,1762436459350,4,0.5318581461906433,0.24906881153583527,-0.394462913274765,-0.706746518611908,0.43957626819610596,3.2352497577667236,2.601151466369629,0.7426496744155884,8.399288177490234,5.8054046630859375,0.07693841308355331,-0.018547380343079567,-0.07479274272918701,-232.6566925048828,-96.10369110107422,-164.83175659179688,-0.03870415687561035,-0.08324623107910156,-0.027125835418701172,0.7813538312911987,8.482534408569336,5.832530498504639
4_20251106_214131,1762436459369,4,0.5309421420097351,0.2495061159133911,-0.3948609530925751,-0.7070586681365967,0.4394347071647644,3.234872579574585,2.604353904724121,0.6875854134559631,8.3897123336792,5.932291507720947,0.07388409227132797,-0.016714787110686302,-0.09311869740486145,-225.65992736816406,-99.42134857177734,-158.52252197265625,-0.07501477003097534,-0.07425785064697266,0.07980871200561523,0.7626001834869385,8.463970184326172,5.852482795715332
4_20251106_214131,1762436459386,4,0.5297397375106812,0.24994708597660065,-0.3952410817146301,-0.7075921893119812,0.4380023181438446,3.2333450317382812,2.610206365585327,0.5116191506385803,8.30591869354248,5.83054256439209,0.10442733019590378,-0.008773544803261757,-0.09739474952220917,-218.08096313476562,-103.1073226928711,-151.575439453125,-0.17575860023498535,-0.1063241958618164,-0.03089618682861328,0.6873777508735657,8.412242889404297,5.861438751220703
4_20251106_214131,1762436459406,4,0.528548538684845,0.25047028064727783,-0.3955744504928589,-0.7081115245819092,0.4363616406917572,3.2320008277893066,2.6124305725097656,0.44697850942611694,8.259233474731445,5.621058464050293,0.12275325506925583,0.0058872089721262455,-0.0851774513721466,-209.96726989746094,-106.95008087158203,-144.1912384033203,-0.19231939315795898,-0.12240791320800781,-0.1923046112060547,0.6392979025840759,8.381641387939453,5.813363075256348
4_20251106_214131,1762436459424,4,0.5275037884712219,0.2513357698917389,-0.39594537019729614,-0.7083765268325806,0.43404218554496765,3.230335235595703,2.6134674549102783,0.36198797821998596,8.240081787109375,5.421151161193848,0.10809250921010971,-0.006330085452646017,-0.07296015322208405,-201.00247192382812,-110.69348907470703,-136.12286376953125,-0.22184792160987854,-0.11324787139892578,-0.3137693405151367,0.5838358998298645,8.3533296585083,5.734920501708984
4_20251106_214131,1762436459444,4,0.5266731977462769,0.25228285789489746,-0.39634841680526733,-0.7084324955940247,0.4310010075569153,3.228147268295288,2.6140053272247314,0.3464263379573822,8.181425094604492,5.570782661437988,0.10809250921010971,-0.006330085452646017,-0.07296015322208405,-191.90997314453125,-114.10367584228516,-128.002685546875,-0.18992766737937927,-0.13752365112304688,-0.13131046295166016,0.5363540053367615,8.318948745727539,5.702093124389648
4_20251106_214131,1762436459463,4,0.5262302160263062,0.25330865383148193,-0.39646413922309875,-0.7083309292793274,0.4310010075569153,3.228147268295288,2.6140053272247314,0.3464263379573822,8.181425094604492,5.570782661437988,0.040897391736507416,0.012606720440089703,-0.043638646602630615,-182.87521362304688,-117.27733612060547,-120.15074157714844,-0.18992766737937927,-0.13752365112304688,-0.13131046295166016,0.5363540053367615,8.318948745727539,5.702093124389648
4_20251106_214131,1762436459481,4,0.5257995128631592,0.25399044156074524,-0.39630556106567383,-0.7084953188896179,0.42777103185653687,3.2256832122802734,2.614433765411377,0.4242345690727234,8.192198753356934,5.674925804138184,0.07571668177843094,0.008941532112658024,-0.0442495122551918,-173.97265625,-120.04290008544922,-112.70195770263672,-0.0896955132484436,-0.10139942169189453,-0.021733760833740234,0.513930082321167,8.293598175048828,5.696659564971924
4_20251106_214131,1762436459500,4,0.5251687169075012,0.25453275442123413,-0.39643266797065735,-0.7086974382400513,0.4220813810825348,3.2207388877868652,2.615492820739746,0.4493725895881653,8.159879684448242,5.573176860809326,0.1398574709892273,0.022991420701146126,-0.05585594102740288,-165.67507934570312,-121.77751922607422,-105.98759460449219,-0.046296536922454834,-0.08845329284667969,-0.12001609802246094,0.4956691265106201,8.248332977294922,5.693192958831787
4_20251106_214131,1762436459520,4,0.5241857171058655,0.25516360998153687,-0.39686721563339233,-0.7089550495147705,0.4220813810825348,3.2207388877868652,2.615492820739746,0.4493725895881653,8.159879684448242,5.573176860809326,0.15085303783416748,0.013828449882566929,-0.05952112749218941,-157.8271484375,-122.9357681274414,-99.8208236694336,-0.046296536922454834,-0.08845329284667969,-0.12001609802246094,0.4956691265106201,8.248332977294922,5.693192958831787
4_20251106_214131,1762436459540,4,0.5233187675476074,0.2561311423778534,-0.39751702547073364,-0.7088825702667236,0.4146883487701416,3.214364767074585,2.611361026763916,0.2506623864173889,8.157485008239746,5.07041597366333,0.057390742003917694,-0.012438733130693436,-0.021036650985479355,-150.52517700195312,-123.73534393310547,-94.34473419189453,-0.16542306542396545,-0.04435253143310547,-0.40604639053344727,0.41608545184135437,8.201837539672852,5.476462364196777
4_20251106_214131,1762436459561,4,0.5231902003288269,0.2570470869541168,-0.39783209562301636,-0.7084690928459167,0.41031530499458313,3.2113351821899414,2.608423948287964,0.3607909381389618,8.3035249710083,5.477412700653076,-0.01652389019727707,-0.0026648971252143383,0.0033979355357587337,-144.0727081298828,-124.19461822509766,-89.72026824951172,-0.04423561692237854,0.08135032653808594,0.0007605552673339844,0.40502655506134033,8.222174644470215,5.476652145385742
4_20251106_214131,1762436459578,4,0.5235331058502197,0.25778675079345703,-0.3976561427116394,-0.7080456614494324,0.41031530499458313,3.2113351821899414,2.608423948287964,0.3607909381389618,8.3035249710083,5.477412700653076,-0.01957821473479271,0.02848920412361622,-0.006375899538397789,-144.0727081298828,-124.19461822509766,-89.72026824951172,-0.04423561692237854,0.08135032653808594,0.0007605552673339844,0.40502655506134033,8.222174644470215,5.476652145385742
4_20251106_214131,1762436459597,4,0.5236515402793884,0.2581491470336914,-0.3972246050834656,-0.708068311214447,0.4042120575904846,3.2078449726104736,2.6050140857696533,0.41824930906295776,8.325071334838867,5.570782661437988,0.03539960831403732,0.03093266300857067,-0.03814086690545082,-139.22669982910156,-124.25615692138672,-86.67906188964844,-0.0068596601486206055,0.05187225341796875,0.04626178741455078,0.42510896921157837,8.273199081420898,5.5245208740234375
4_20251106_214131,1762436459617,4,0.5233327150344849,0.258520245552063,-0.3971763849258423,-0.7081956267356873,0.40055808424949646,3.206045389175415,2.603109359741211,0.2578446865081787,8.242475509643555,5.448683738708496,0.03478875011205673,0.03276525437831879,-0.023480111733078957,-135.02279663085938,-124.14173126220703,-84.20050048828125,-0.13381141424179077,-0.02457904815673828,-0.060669898986816406,0.3916561007499695,8.267054557800293,5.5093536376953125
4_20251106_214131,1762436459635,4,0.5231379866600037,0.25900426506996155,-0.3970789313316345,-0.7082172632217407,0.39700716733932495,3.2044873237609863,2.60125470161438,0.21834206581115723,8.259233474731445,5.417560577392578,0.012797616422176361,0.05048033222556114,0.025389065966010094,-131.3776092529297,-123.8715591430664,-82.21409606933594,-0.13865125179290771,-0.006257057189941406,-0.07343482971191406,0.35699331760406494,8.265490531921387,5.490995407104492
4_20251106_214131,1762436459654,4,0.5234453678131104,0.2596331238746643,-0.3967451751232147,-0.7079469561576843,0.3934765160083771,3.2030293941497803,2.599163770675659,0.3679732382297516,8.303524017333984,5.406786918640137,0.012797616422176361,0.05048033222556114,0.025389065966010094,-128.27139282226562,-123.53154754638672,-80.76127624511719,0.008783906698226929,0.030426979064941406,-0.0673670768737793,0.35918933153152466,8.273097038269043,5.474153995513916
4_20251106_214131,1762436459674,4,0.5241117477416992,0.2602148652076721,-0.3963207006454468,-0.7074779272079468,0.3934765160083771,3.2030293941497803,2.599163770675659,0.3679732382297516,8.303524017333984,5.406786918640137,-0.011636972427368164,0.04009563475847244,0.06570613384246826,-126.44721984863281,-123.26251983642578,-80.68502807617188,0.008783906698226929,0.030426979064941406,-0.0673670768737793,0.35918933153152466,8.273097038269043,5.474153995513916
4_20251106_214131,1762436459692,4,0.5248004198074341,0.2604520916938782,-0.39613503217697144,-0.7069839239120483,0.390304297208786,3.2017691135406494,2.59734845161438,0.5188014507293701,8.353801727294922,5.587541580200195,0.03478875011205673,0.020547961816191673,0.05776489898562431,-125.1333236694336,-123.0711441040039,-81.22515869140625,0.12768971920013428,0.06456375122070312,0.09070968627929688,0.39111173152923584,8.289237976074219,5.496831893920898
4_20251106_214131,1762436459712,4,0.5251135230064392,0.2603849470615387,-0.39640602469444275,-0.7066242098808289,0.3862697184085846,3.2000186443328857,2.594484806060791,0.5391513109207153,8.309510231018066,5.328978538513184,0.05250382423400879,0.004665479529649019,0.06204095110297203,-124.21649169921875,-122.86426544189453,-82.18616485595703,0.09474533796310425,0.008761405944824219,-0.1503286361694336,0.4444059729576111,8.300748825073242,5.479307174682617
