session_id,timestamp,label,quaternion_w,quaternion_x,quaternion_y,quaternion_z,position_x,position_y,position_z,accelerometer_x,accelerometer_y,accelerometer_z,gyroscope_x,gyroscope_y,gyroscope_z,magnetometer_x,magnetometer_y,magnetometer_z,linear_acceleration_x,linear_acceleration_y,linear_acceleration_z,gravity_x,gravity_y,gravity_z
2_20251106_213439,1762436042010,2,0.21808966994285583,0.3762832581996918,0.7525321245193481,0.49451306462287903,0.5268134474754333,3.024312734603882,0.6354467272758484,0.7773641347885132,8.38851547241211,-4.197140693664551,-0.1296522170305252,-0.007628172170370817,0.3214828372001648,24.10735321044922,-18.84615707397461,30.372224807739258,-0.2245417833328247,0.7593770027160645,-0.04071044921875,1.001905918121338,7.629138469696045,-4.156430244445801
2_20251106_213439,1762436042028,2,0.21712028980255127,0.37853866815567017,0.7507142424583435,0.4959791600704193,0.5272004008293152,3.017040967941284,0.6057716012001038,0.9413598775863647,8.314298629760742,-3.909848213195801,-0.1766888052225113,0.007032580208033323,0.30743294954299927,24.0063533782959,-18.903682708740234,30.46185874938965,-0.048436880111694336,0.5481281280517578,0.197265625,0.9897967576980591,7.766170501708984,-4.107113838195801
2_20251106_213439,1762436042046,2,0.21623720228672028,0.3805006146430969,0.7487505078315735,0.4978286623954773,0.5276584029197693,3.0124380588531494,0.578298807144165,1.022759199142456,8.606378555297852,-3.845207452774048,-0.1198783814907074,-0.07115810364484787,0.3062112331390381,23.94280242919922,-18.95761489868164,30.431318283081055,0.026369988918304443,0.6721668243408203,0.20952486991882324,0.9963892102241516,7.934211730957031,-4.054732322692871
2_20251106_213439,1762436042066,2,0.215691938996315,0.3829212188720703,0.7468670010566711,0.49903708696365356,0.5276584029197693,3.0124380588531494,0.578298807144165,1.022759199142456,8.606378555297852,-3.845207452774048,-0.03802251070737839,-0.17133991420269012,0.31965023279190063,23.86122703552246,-19.11306381225586,30.425207138061523,0.026369988918304443,0.6721668243408203,0.20952486991882324,0.9963892102241516,7.934211730957031,-4.054732322692871
2_20251106_213439,1762436042085,2,0.21549636125564575,0.3860556185245514,0.7450942397117615,0.49935656785964966,0.5285952091217041,3.0127146244049072,0.5259049534797668,0.9952270984649658,9.106744766235352,-4.100179672241211,-0.005646679550409317,-0.18966586887836456,0.3208719789981842,23.841880798339844,-19.251178741455078,30.340715408325195,-0.0028505921363830566,0.7617206573486328,-0.03789663314819336,0.9980776906013489,8.345024108886719,-4.062283039093018
2_20251106_213439,1762436042104,2,0.2153121531009674,0.3893260657787323,0.7434355616569519,0.4993690550327301,0.5292340517044067,3.016549825668335,0.5021032691001892,1.079020619392395,9.225252151489258,-4.119332313537598,-0.005646679550409317,-0.18966586887836456,0.3208719789981842,23.794933319091797,-19.453258514404297,30.2133731842041,0.06475436687469482,0.7041826248168945,-0.0456395149230957,1.0142662525177002,8.521069526672363,-4.073692798614502
2_20251106_213439,1762436042122,2,0.21495072543621063,0.3919828534126282,0.7417210936546326,0.49999547004699707,0.5292340517044067,3.016549825668335,0.5021032691001892,1.079020619392395,9.225252151489258,-4.119332313537598,-0.1345391422510147,-0.05222129449248314,0.24268126487731934,23.681529998779297,-19.74802017211914,30.16282844543457,0.06475436687469482,0.7041826248168945,-0.0456395149230957,1.0142662525177002,8.521069526672363,-4.073692798614502
2_20251106_213439,1762436042142,2,0.21466064453125,0.393789142370224,0.7399987578392029,0.501251220703125,0.5301352143287659,3.02276611328125,0.47887247800827026,1.1005674600601196,9.304258346557617,-3.8859071731567383,-0.15225420892238617,-0.01556941494345665,0.2090837061405182,23.648588180541992,-19.912044525146484,30.07731819152832,0.06904101371765137,0.6265506744384766,0.15022850036621094,1.0315264463424683,8.67770767211914,-4.036135673522949
2_20251106_213439,1762436042160,2,0.2143239974975586,0.39507418870925903,0.738391101360321,0.5027526021003723,0.5313213467597961,3.0310165882110596,0.4578057527542114,1.1400700807571411,9.449100494384766,-3.7063498497009277,-0.08566995710134506,-0.09986873716115952,0.19136863946914673,23.606773376464844,-20.025959014892578,29.92479133605957,0.08683490753173828,0.6171140670776367,0.26382875442504883,1.0532351732254028,8.831986427307129,-3.9701786041259766
2_20251106_213439,1762436042179,2,0.21446017920970917,0.39680206775665283,0.7369455099105835,0.503454327583313,0.5324991941452026,3.0397140979766846,0.44084423780441284,1.119720220565796,9.49937629699707,-3.543550968170166,0.02734001725912094,-0.21532218158245087,0.21030543744564056,23.61058807373047,-20.187328338623047,29.813718795776367,0.05318808555603027,0.5339117050170898,0.34130215644836426,1.0665321350097656,8.96546459197998,-3.8848531246185303
2_20251106_213439,1762436042200,2,0.21488341689109802,0.39938870072364807,0.7357343435287476,0.5029997229576111,0.5350517630577087,3.060664176940918,0.41004234552383423,1.070641279220581,9.560426712036133,-3.62016224861145,0.02734001725912094,-0.21532218158245087,0.21030543744564056,23.588729858398438,-20.363651275634766,29.782499313354492,-0.0046482086181640625,0.3989706039428711,0.15714430809020996,1.0752894878387451,9.161456108093262,-3.77730655670166
2_20251106_213439,1762436042219,2,0.2154845893383026,0.4022521376609802,0.7347168922424316,0.5019468665122986,0.5356181859970093,3.0721871852874756,0.3964868485927582,0.8539752960205078,9.584367752075195,-3.6177682876586914,0.06277017295360565,-0.17867030203342438,0.14249946177005768,23.592952728271484,-20.512866973876953,29.71224021911621,-0.17705130577087402,0.3383293151855469,0.12763071060180664,1.0310266017913818,9.246038436889648,-3.745398998260498
2_20251106_213439,1762436042239,2,0.21579420566558838,0.4041578471660614,0.7340542674064636,0.5012520551681519,0.5356181859970093,3.0721871852874756,0.3964868485927582,0.8539752960205078,9.584367752075195,-3.6177682876586914,0.06277017295360565,-0.17867030203342438,0.14249946177005768,23.489402770996094,-20.643444061279297,29.570512771606445,-0.17705130577087402,0.3383293151855469,0.12763071060180664,1.0310266017913818,9.246038436889648,-3.745398998260498
2_20251106_213439,1762436042256,2,0.21552957594394684,0.40480297803878784,0.733695924282074,0.5013699531555176,0.5335711240768433,3.0950825214385986,0.3733251690864563,0.5463335514068604,9.429948806762695,-3.5172159671783447,0.010235803201794624,0.09805142879486084,0.09301943331956863,23.489402770996094,-20.643444061279297,29.570512771606445,-0.3249512314796448,0.09969902038574219,0.1540815830230713,0.8712847828865051,9.330249786376953,-3.671297550201416
2_20251106_213439,1762436042276,2,0.21442142128944397,0.40485912561416626,0.7335740923881531,0.5019776821136475,0.5314798951148987,3.106102228164673,0.3623654544353485,0.6468857526779175,9.34256362915039,-3.7602171897888184,0.056050658226013184,0.0998840257525444,0.14555378258228302,23.496049880981445,-20.742969512939453,29.555376052856445,-0.17951923608779907,0.009851455688476562,-0.0711355209350586,0.8264049887657166,9.332712173461914,-3.6890816688537598
2_20251106_213439,1762436042295,2,0.21288564801216125,0.40534451603889465,0.7334836721420288,0.502371609210968,0.5290285348892212,3.1168315410614014,0.35145512223243713,0.7079352736473083,9.237222671508789,-3.672832489013672,0.08659389615058899,-0.018012871965765953,0.21458148956298828,23.495346069335938,-20.75552749633789,29.555112838745117,-0.0947757363319397,-0.07639122009277344,0.012999296188354492,0.802711009979248,9.313613891601562,-3.6858317852020264
2_20251106_213439,1762436042314,2,0.21168041229248047,0.4069475829601288,0.7330636382102966,0.5021979212760925,0.5290285348892212,3.1168315410614014,0.35145512223243713,0.7079352736473083,9.237222671508789,-3.672832489013672,0.158065065741539,-0.11391862481832504,0.27872228622436523,23.427465438842773,-20.884937286376953,29.5365047454834,-0.0947757363319397,-0.07639122009277344,0.012999296188354492,0.802711009979248,9.313613891601562,-3.6858317852020264
2_20251106_213439,1762436042333,2,0.21062619984149933,0.4096992015838623,0.7324731945991516,0.5012645721435547,0.5269174575805664,3.126868724822998,0.34147191047668457,0.874325156211853,9.262361526489258,-3.560309886932373,0.23686662316322327,-0.1310228556394577,0.30315688252449036,23.437538146972656,-20.921810150146484,29.536203384399414,0.05729132890701294,-0.041001319885253906,0.1004173755645752,0.8170338273048401,9.303362846374512,-3.6607272624969482
2_20251106_213439,1762436042351,2,0.20919007062911987,0.4127664566040039,0.7321465015411377,0.4998248219490051,0.5247082710266113,3.143993377685547,0.3232654333114624,1.0993704795837402,9.33059310913086,-4.139681816101074,0.2503056526184082,-0.11391863226890564,0.3043786287307739,23.422840118408203,-20.960811614990234,29.588987350463867,0.20099741220474243,0.012447357177734375,-0.36437225341796875,0.8983730673789978,9.318145751953125,-3.7753095626831055
2_20251106_213439,1762436042371,2,0.2076309770345688,0.41590288281440735,0.7318511605262756,0.49830520153045654,0.5249384045600891,3.1524362564086914,0.3122056722640991,1.2382280826568604,9.200114250183105,-4.14566707611084,0.2154863476753235,-0.09803614765405655,0.30804380774497986,23.385269165039062,-20.98776626586914,29.532922744750977,0.271884024143219,-0.09442520141601562,-0.29628610610961914,0.9663440585136414,9.294539451599121,-3.8493809700012207
2_20251106_213439,1762436042390,2,0.2060437947511673,0.41894933581352234,0.7314217686653137,0.49704086780548096,0.5249384045600891,3.1524362564086914,0.3122056722640991,1.2382280826568604,9.200114250183105,-4.14566707611084,0.1989929974079132,-0.06810377538204193,0.3208719789981842,23.346893310546875,-21.027416229248047,29.490110397338867,0.271884024143219,-0.09442520141601562,-0.29628610610961914,0.9663440585136414,9.294539451599121,-3.8493809700012207
2_20251106_213439,1762436042410,2,0.20425079762935638,0.42195072770118713,0.7308875322341919,0.4960268437862396,0.5297234058380127,3.1685872077941895,0.2891845703125,1.6751512289047241,9.403614044189453,-4.261780738830566,0.21854065358638763,-0.030230164527893066,0.3178176283836365,23.35525894165039,-21.08980941772461,29.529829025268555,0.4919421672821045,0.06999969482421875,-0.2729377746582031,1.1832090616226196,9.333614349365234,-3.9888429641723633
2_20251106_213439,1762436042429,2,0.20214810967445374,0.4248451888561249,0.7304729223251343,0.4950272738933563,0.5344870686531067,3.1756880283355713,0.27763789892196655,1.9672311544418335,9.374883651733398,-4.513160705566406,0.24175353348255157,-0.005795578937977552,0.3257588744163513,23.27973175048828,-21.132648468017578,29.5666446685791,0.6272176504135132,0.03301525115966797,-0.41945409774780273,1.3400135040283203,9.34186840057373,-4.0937066078186035
2_20251106_213439,1762436042448,2,0.19970443844795227,0.4277348518371582,0.7301605343818665,0.4939905107021332,0.5419930219650269,3.1829419136047363,0.2643664479255676,2.3347253799438477,9.390445709228516,-4.71067476272583,0.24602960050106049,-0.005184714216738939,0.3459174335002899,23.25122833251953,-21.20944595336914,29.550561904907227,0.795769453048706,0.03886127471923828,-0.4935746192932129,1.5389559268951416,9.351584434509277,-4.217100143432617
2_20251106_213439,1762436042467,2,0.1970747411251068,0.43078845739364624,0.7297863364219666,0.49294501543045044,0.5419930219650269,3.1829419136047363,0.2643664479255676,2.3347253799438477,9.390445709228516,-4.71067476272583,0.23992092907428741,-0.04244746267795563,0.3404196500778198,23.13945198059082,-21.24264907836914,29.640233993530273,0.795769453048706,0.03886127471923828,-0.4935746192932129,1.5389559268951416,9.351584434509277,-4.217100143432617
2_20251106_213439,1762436042486,2,0.19474434852600098,0.4340861737728119,0.72926265001297,0.4917517602443695,0.5554003715515137,3.191107988357544,0.2461293339729309,2.939235210418701,9.402416229248047,-5.2062530517578125,0.14096085727214813,-0.21532218158245087,0.2445138692855835,23.013980865478516,-21.301898956298828,29.742403030395508,1.1202234029769897,0.040665626525878906,-0.7913222312927246,1.8190118074417114,9.361750602722168,-4.414930820465088
2_20251106_213439,1762436042505,2,0.19436495006084442,0.4374639093875885,0.7283169627189636,0.49030810594558716,0.5878974795341492,3.2040207386016846,0.2129611372947693,3.774775743484497,9.34256362915039,-4.813620567321777,0.007181480526924133,-0.3356625437736511,0.04964803159236908,22.907936096191406,-21.45907211303711,29.74882698059082,1.291335105895996,-0.036986351013183594,-0.15020418167114258,2.483440637588501,9.379549980163574,-4.663416385650635
2_20251106_213439,1762436042524,2,0.19620278477668762,0.4399212598800659,0.7272703647613525,0.48892903327941895,0.6097609996795654,3.209577798843384,0.19707967340946198,3.920815944671631,9.127094268798828,-4.459294319152832,-0.04413115605711937,-0.2709108591079712,-0.19958478212356567,22.925765991210938,-21.57076644897461,29.774465560913086,1.1499004364013672,-0.2019643783569336,0.1632976531982422,2.7709155082702637,9.329058647155762,-4.622591972351074
2_20251106_213439,1762436042543,2,0.19896778464317322,0.4402737617492676,0.7270454168319702,0.48782768845558167,0.6334530115127563,3.213563919067383,0.18225310742855072,3.8358254432678223,8.857758522033691,-4.527525901794434,-0.07956130802631378,-0.1823354810476303,-0.49585413932800293,22.883880615234375,-21.66158676147461,29.825212478637695,0.8519277572631836,-0.37703990936279297,0.07605266571044922,2.9838976860046387,9.234798431396484,-4.603578567504883
2_20251106_213439,1762436042562,2,0.20262335240840912,0.438120573759079,0.7280045747756958,0.48683005571365356,0.6334530115127563,3.213563919067383,0.18225310742855072,3.8358254432678223,8.857758522033691,-4.527525901794434,-0.13637173175811768,-0.14262928068637848,-0.772575855255127,22.90876007080078,-21.647708892822266,29.853490829467773,0.8519277572631836,-0.37703990936279297,0.07605266571044922,2.9838976860046387,9.234798431396484,-4.603578567504883
2_20251106_213439,1762436042582,2,0.20747238397598267,0.43374109268188477,0.7299405932426453,0.4858092665672302,0.6784704923629761,3.2123005390167236,0.15595199167728424,2.754889726638794,7.643950462341309,-4.557452201843262,-0.13637173175811768,-0.14262928068637848,-0.772575855255127,23.09284782409668,-21.622432708740234,29.780012130737305,-0.2685682773590088,-1.1152467727661133,0.024349689483642578,3.0234580039978027,8.759197235107422,-4.581801891326904
2_20251106_213439,1762436042601,2,0.21380789577960968,0.4282582402229309,0.7322443127632141,0.48445773124694824,0.6965950131416321,3.2051875591278076,0.14387789368629456,2.0043396949768066,7.040637016296387,-4.4497175216674805,-0.2273905724287033,-0.35032325983047485,-0.9839351177215576,23.307750701904297,-21.482418060302734,29.696374893188477,-0.8152947425842285,-1.3748483657836914,0.1056675910949707,2.819634437561035,8.415485382080078,-4.555385112762451
2_20251106_213439,1762436042619,2,0.22152383625507355,0.42315420508384705,0.7341938018798828,0.4825216829776764,0.6965950131416321,3.2051875591278076,0.14387789368629456,2.0043396949768066,7.040637016296387,-4.4497175216674805,-0.2811466455459595,-0.46699845790863037,-0.9136856198310852,23.65750503540039,-21.320972442626953,29.60487937927246,-0.8152947425842285,-1.3748483657836914,0.1056675910949707,2.819634437561035,8.415485382080078,-4.555385112762451
2_20251106_213439,1762436042639,2,0.22996221482753754,0.4188075661659241,0.7354039549827576,0.4805191457271576,0.7114150524139404,3.1917293071746826,0.1303025782108307,1.4285590648651123,6.883823871612549,-4.635260581970215,-0.3568938970565796,-0.6239907145500183,-0.8544317483901978,24.11952781677246,-21.12564468383789,29.356130599975586,-1.1128602027893066,-1.2253289222717285,-0.06390047073364258,2.541419267654419,8.109152793884277,-4.571360111236572
2_20251106_213439,1762436042660,2,0.23952192068099976,0.4153081178665161,0.7357048988342285,0.47842106223106384,0.7192517518997192,3.1766068935394287,0.11919204890727997,0.9090396165847778,6.958040714263916,-4.369515419006348,-0.37521982192993164,-0.6710272431373596,-0.8324406147003174,24.63834571838379,-20.78860855102539,29.071699142456055,-1.3059037923812866,-0.9208898544311523,0.16147565841674805,2.2149434089660645,7.878930568695068,-4.530991077423096
2_20251106_213439,1762436042677,2,0.249470055103302,0.41207340359687805,0.7356279492378235,0.4762475788593292,0.7191678881645203,3.1448657512664795,0.10483796894550323,0.03399646282196045,6.893400192260742,-3.794931411743164,-0.3404005765914917,-0.6459818482398987,-0.8367166519165039,24.63834571838379,-20.78860855102539,29.071699142456055,-1.4563289880752563,-0.6420392990112305,0.49884939193725586,1.4903254508972168,7.535439491271973,-4.29378080368042
2_20251106_213439,1762436042697,2,0.259143590927124,0.40860292315483093,0.7357318997383118,0.47390589118003845,0.7117741703987122,3.127113103866577,0.10048805922269821,-0.6231837272644043,6.659975051879883,-3.669241428375244,-0.3452874422073364,-0.5732889175415039,-0.8440470695495605,25.131988525390625,-20.46585464477539,28.79953956604004,-1.6908073425292969,-0.7003717422485352,0.499631404876709,1.0676236152648926,7.360346794128418,-4.168872833251953
2_20251106_213439,1762436042715,2,0.26832616329193115,0.40457969903945923,0.7359983921051025,0.4718291163444519,0.6967990398406982,3.105764627456665,0.09693501889705658,-1.2911372184753418,6.501964569091797,-3.827251672744751,-0.43691718578338623,-0.38147738575935364,-0.7817388772964478,25.715557098388672,-20.061656951904297,28.478330612182617,-1.8870086669921875,-0.6867055892944336,0.2732970714569092,0.5958714485168457,7.1886701583862305,-4.10054874420166
2_20251106_213439,1762436042734,2,0.2762484550476074,0.3997150659561157,0.7361181974411011,0.4712161719799042,0.6770853996276855,3.0845348834991455,0.09338128566741943,-1.663419485092163,6.473235607147217,-4.227066516876221,-0.5963529348373413,-0.24708716571331024,-0.6681180000305176,26.408279418945312,-19.674213409423828,28.03936195373535,-1.807432770729065,-0.5723476409912109,-0.10121393203735352,0.14401328563690186,7.045583248138428,-4.125852584838867
2_20251106_213439,1762436042753,2,0.2834320664405823,0.39463067054748535,0.7354025840759277,0.4723515212535858,0.653066873550415,3.063256025314331,0.08948451280593872,-1.7843215465545654,6.640822410583496,-4.315648078918457,-0.5963529348373413,-0.24708716571331024,-0.6681180000305176,26.955684661865234,-19.271862030029297,27.66261863708496,-1.5426678657531738,-0.3238086700439453,-0.15183639526367188,-0.2416536509990692,6.964631080627441,-4.163811683654785
2_20251106_213439,1762436042773,2,0.29137319326400757,0.3905582129955292,0.7331066727638245,0.4744687080383301,0.6221424341201782,3.0432236194610596,0.08839036524295807,-2.513324737548828,7.374614238739014,-3.2418947219848633,-0.7637298107147217,-0.3686492443084717,-0.5227321982383728,27.508115768432617,-19.006031036376953,27.202363967895508,-1.817336916923523,0.3279867172241211,0.7375335693359375,-0.6959878206253052,7.046627521514893,-3.979428291320801
2_20251106_213439,1762436042792,2,0.3013242781162262,0.3881714940071106,0.7291383147239685,0.4763232469558716,0.5867083668708801,3.0269243717193604,0.09355466812849045,-3.43864369392395,7.695423126220703,-1.737203598022461,-0.8107664585113525,-0.6887423396110535,-0.3620747923851013,28.076244354248047,-18.688236236572266,26.6490421295166,-2.194124698638916,0.5190367698669434,1.7937798500061035,-1.2445189952850342,7.17638635635376,-3.5309834480285645
2_20251106_213439,1762436042811,2,0.31093746423721313,0.3860660493373871,0.7250224947929382,0.4781351685523987,0.5450918078422546,3.012437105178833,0.10460390150547028,-4.143705368041992,7.539806365966797,-1.2919013500213623,-0.6220092177391052,-0.4810483157634735,-0.20019564032554626,28.615982055664062,-18.435489654541016,26.161001205444336,-2.3193492889404297,0.29073572158813477,1.7912657260894775,-1.824356198310852,7.249070644378662,-3.08316707611084
2_20251106_213439,1762436042829,2,0.31776663661003113,0.3841705024242401,0.7217455506324768,0.4801257252693176,0.501737117767334,3.0005478858947754,0.11699296534061432,-4.2203168869018555,7.71577262878418,-2.0903332233428955,-0.37521982192993164,-0.3405494689941406,0.10096066445112228,29.018150329589844,-18.254268646240234,25.66624641418457,-1.9167685508728027,0.37336158752441406,0.794266939163208,-2.3035483360290527,7.342411041259766,-2.8846001625061035
2_20251106_213439,1762436042850,2,0.32144784927368164,0.3842827081680298,0.7189176678657532,0.4818251132965088,0.501737117767334,3.0005478858947754,0.11699296534061432,-4.2203168869018555,7.71577262878418,-2.0903332233428955,-0.25060343742370605,-0.4144640564918518,0.3990626633167267,29.47782325744629,-18.131725311279297,25.15910530090332,-1.9167685508728027,0.37336158752441406,0.794266939163208,-2.3035483360290527,7.342411041259766,-2.8846001625061035
2_20251106_213439,1762436042868,2,0.32378149032592773,0.3872837722301483,0.7153784036636353,0.48312580585479736,0.4046894907951355,2.9833176136016846,0.1424180567264557,-2.9143362045288086,8.218534469604492,-2.868415355682373,-0.2725945711135864,-0.4908221662044525,0.6226391792297363,29.834566116333008,-18.115718841552734,24.618898391723633,-0.2620060443878174,0.572019100189209,0.0009732246398925781,-2.652330160140991,7.646515369415283,-2.8693885803222656
2_20251106_213439,1762436042888,2,0.32562902569770813,0.3923490345478058,0.7106031775474548,0.48484131693840027,0.3597146272659302,2.9789135456085205,0.15480151772499084,-2.1901211738586426,8.546525955200195,-2.7534985542297363,-0.33245933055877686,-0.49815255403518677,0.7246535420417786,30.024938583374023,-18.24843978881836,24.096445083618164,0.3697671890258789,0.7200088500976562,0.0927121639251709,-2.5598883628845215,7.826517105102539,-2.8462107181549072
2_20251106_213439,1762436042906,2,0.32716313004493713,0.3980976641178131,0.7050280570983887,0.4872555732727051,0.3227788209915161,2.978837013244629,0.1663663685321808,-1.9435290098190308,9.324607849121094,-2.4494478702545166,-0.33245933055877686,-0.49815255403518677,0.7246535420417786,30.19899559020996,-18.457164764404297,23.558401107788086,0.49308741092681885,1.1984729766845703,0.3174104690551758,-2.4366164207458496,8.126134872436523,-2.7668583393096924
2_20251106_213439,1762436042926,2,0.32851746678352356,0.4029620587825775,0.6994934678077698,0.4903128743171692,0.2855229377746582,2.982097625732422,0.18061943352222443,-1.8669177293777466,9.225252151489258,-2.0939242839813232,-0.43019765615463257,-0.19394192099571228,0.545059323310852,30.359865188598633,-18.679637908935547,23.060152053833008,0.4557589292526245,0.8792934417724609,0.5383472442626953,-2.322676658630371,8.345958709716797,-2.6322715282440186
2_20251106_213439,1762436042945,2,0.32906374335289,0.40575265884399414,0.6949106454849243,0.49414676427841187,0.25371479988098145,2.986628293991089,0.19432596862316132,-1.6610254049301147,8.924793243408203,-2.3249549865722656,-0.43019765615463257,-0.19394192099571228,0.545059323310852,30.437763214111328,-19.071063995361328,22.6501407623291,0.5293208360671997,0.46306800842285156,0.24585342407226562,-2.1903462409973145,8.461725234985352,-2.5708084106445312
2_20251106_213439,1762436042963,2,0.32817137241363525,0.4077555239200592,0.6910975575447083,0.4984206259250641,0.25371479988098145,2.986628293991089,0.19432596862316132,-1.6610254049301147,8.924793243408203,-2.3249549865722656,-0.38010674715042114,0.08583413809537888,0.6293586492538452,30.369539260864258,-19.460277557373047,22.31560707092285,0.5293208360671997,0.46306800842285156,0.24585342407226562,-2.1903462409973145,8.461725234985352,-2.5708084106445312
2_20251106_213439,1762436042982,2,0.3262535035610199,0.40998923778533936,0.6872212290763855,0.5031842589378357,0.22658485174179077,2.991894245147705,0.2071283906698227,-1.0648949146270752,8.812271118164062,-2.650552272796631,-0.4381389021873474,0.01741728186607361,0.628747820854187,30.346040725708008,-19.909770965576172,22.04929542541504,0.9003610610961914,0.28043651580810547,-0.06379508972167969,-1.9652559757232666,8.531834602355957,-2.586757183074951
2_20251106_213439,1762436043001,2,0.324911892414093,0.4125061631202698,0.6828043460845947,0.5079854130744934,0.18487103283405304,3.0087931156158447,0.23140953481197357,-1.1714322566986084,9.72801399230957,-1.8964111804962158,-0.47112560272216797,-0.01862373575568199,0.5303985476493835,30.126665115356445,-20.38479995727539,21.801904678344727,0.4553769826889038,0.8061590194702148,0.5701453685760498,-1.6268092393875122,8.921854972839355,-2.4665565490722656
2_20251106_213439,1762436043020,2,0.32438015937805176,0.4144550859928131,0.6784504055976868,0.5125519633293152,0.16611994802951813,3.019779920578003,0.24682603776454926,-1.5090001821517944,9.523317337036133,-1.3888623714447021,-0.42531073093414307,0.16097049415111542,0.4919140934944153,29.943241119384766,-20.869869232177734,21.542207717895508,0.09424722194671631,0.4811697006225586,0.8621554374694824,-1.6032474040985107,9.042147636413574,-2.2510178089141846
2_20251106_213439,1762436043040,2,0.3226991593837738,0.41511037945747375,0.6750415563583374,0.5175592303276062,0.14934006333351135,3.031353712081909,0.2621884346008301,-1.2264964580535889,9.456283569335938,-1.989781141281128,-0.3495635390281677,0.4205879867076874,0.5890415906906128,29.732961654663086,-21.371509552001953,21.52455711364746,0.30140066146850586,0.33130836486816406,0.20898938179016113,-1.5278971195220947,9.124975204467773,-2.198770523071289
2_20251106_213439,1762436043060,2,0.3186635673046112,0.4152373969554901,0.6723756790161133,0.5233950614929199,0.14934006333351135,3.031353712081909,0.2621884346008301,-1.2264964580535889,9.456283569335938,-1.989781141281128,-0.3495635390281677,0.4205879867076874,0.5890415906906128,29.450454711914062,-21.876705169677734,21.3823184967041,0.30140066146850586,0.33130836486816406,0.20898938179016113,-1.5278971195220947,9.124975204467773,-2.198770523071289
2_20251106_213439,1762436043079,2,0.31386464834213257,0.4154793620109558,0.6694759726524353,0.529780924320221,0.13376976549625397,3.046633243560791,0.27732396125793457,-0.7428885698318481,9.817791938781738,-2.678084373474121,-0.3825502395629883,0.4798418879508972,0.6641779541969299,29.119821548461914,-22.361042022705078,21.346773147583008,0.6280068159103394,0.5542535781860352,-0.3834512233734131,-1.3708953857421875,9.263538360595703,-2.294633150100708
2_20251106_213439,1762436043099,2,0.30996546149253845,0.4163430631160736,0.6656290292739868,0.5362069606781006,0.11540493369102478,3.0759663581848145,0.30333298444747925,-0.48791706562042236,10.05959701538086,-1.5289170742034912,-0.4644060730934143,0.36499929428100586,0.711214542388916,28.71617317199707,-22.85000991821289,21.294771194458008,0.5798536539077759,0.5163726806640625,0.5946323871612549,-1.0677707195281982,9.543224334716797,-2.123549461364746
2_20251106_213439,1762436043118,2,0.3059498071670532,0.4173530340194702,0.6616148948669434,0.5426572561264038,0.1099993884563446,3.094130039215088,0.3193366825580597,-0.1515461951494217,10.403148651123047,-1.4714586734771729,-0.39660006761550903,0.41570109128952026,0.7832965850830078,28.71617317199707,-22.85000991821289,21.294771194458008,0.7329796552658081,0.6879396438598633,0.5216726064682007,-0.8845258355140686,9.715209007263184,-1.9931312799453735
2_20251106_213439,1762436043136,2,0.3009411096572876,0.4185827374458313,0.6577441096305847,0.5491772890090942,0.1099993884563446,3.094130039215088,0.3193366825580597,-0.1515461951494217,10.403148651123047,-1.4714586734771729,-0.35811561346054077,0.46701371669769287,0.8010116815567017,28.344865798950195,-23.400325775146484,21.337533950805664,0.7329796552658081,0.6879396438598633,0.5216726064682007,-0.8845258355140686,9.715209007263184,-1.9931312799453735
2_20251106_213439,1762436043154,2,0.29526931047439575,0.4196928143501282,0.6541115045547485,0.555708646774292,0.11024182289838791,3.130676746368408,0.34997209906578064,0.7618024349212646,10.586297988891602,-1.3733006715774536,-0.3520069718360901,0.5177155137062073,0.7545859217643738,27.880891799926758,-23.880840301513672,21.29686164855957,1.1210678815841675,0.5523252487182617,0.40971553325653076,-0.35926544666290283,10.03397274017334,-1.7830162048339844
2_20251106_213439,1762436043174,2,0.28948917984962463,0.42035216093063354,0.6507060527801514,0.5622113943099976,0.11622147262096405,3.1518607139587402,0.36835622787475586,0.96170973777771,10.539613723754883,-1.124314308166504,-0.314744234085083,0.5158829092979431,0.6843364834785461,27.451078414916992,-24.385433197021484,21.39229393005371,1.056780219078064,0.4045124053955078,0.5269614458084106,-0.09507043659687042,10.135101318359375,-1.6512757539749146
2_20251106_213439,1762436043192,2,0.2838110327720642,0.4206176698207855,0.6477498412132263,0.5682888627052307,0.12422220408916473,3.1705710887908936,0.38570237159729004,1.0778234004974365,10.378011703491211,-0.9902448058128357,-0.2524360418319702,0.5537565350532532,0.6263043284416199,26.972631454467773,-24.881458282470703,21.56712532043457,0.9383150935173035,0.19432830810546875,0.5288247466087341,0.13950830698013306,10.183683395385742,-1.5190695524215698
2_20251106_213439,1762436043212,2,0.27801087498664856,0.420528382062912,0.6453420519828796,0.5739333033561707,0.12422220408916473,3.1705710887908936,0.38570237159729004,1.0778234004974365,10.378011703491211,-0.9902448058128357,-0.20356684923171997,0.5910192728042603,0.6030914783477783,26.43535614013672,-25.355396270751953,21.645418167114258,0.9383150935173035,0.19432830810546875,0.5288247466087341,0.13950830698013306,10.183683395385742,-1.5190695524215698
2_20251106_213439,1762436043232,2,0.27185893058776855,0.42014989256858826,0.6433699727058411,0.5793461203575134,0.1368885040283203,3.1917994022369385,0.4057452082633972,1.2729425430297852,10.330129623413086,-1.2751426696777344,-0.201734259724617,0.5904083847999573,0.5969828367233276,25.883806228637695,-25.84457015991211,21.91218376159668,0.9067474007606506,0.117156982421875,0.19514143466949463,0.3661951422691345,10.212972640991211,-1.470284104347229
2_20251106_213439,1762436043251,2,0.2656842768192291,0.41976362466812134,0.641421377658844,0.5846272110939026,0.1666271984577179,3.2266063690185547,0.44015491008758545,1.4896084070205688,9.997349739074707,-1.1446642875671387,-0.26709675788879395,0.6099560856819153,0.545059323310852,25.391765594482422,-26.366504669189453,22.085996627807617,0.7210912704467773,-0.16347217559814453,0.261449933052063,0.7685171365737915,10.160821914672852,-1.4061142206192017
2_20251106_213439,1762436043270,2,0.25986000895500183,0.41877517104148865,0.6393670439720154,0.5901778936386108,0.1666271984577179,3.2266063690185547,0.44015491008758545,1.4896084070205688,9.997349739074707,-1.1446642875671387,-0.31840938329696655,0.7406811118125916,0.5022987723350525,24.85491180419922,-26.81667709350586,22.29998207092285,0.7210912704467773,-0.16347217559814453,0.261449933052063,0.7685171365737915,10.160821914672852,-1.4061142206192017
2_20251106_213439,1762436043289,2,0.25378331542015076,0.4166991412639618,0.6373829245567322,0.5964049696922302,0.1997155398130417,3.2558984756469727,0.47592663764953613,1.353144884109497,9.839338302612305,-0.9974271655082703,-0.27564889192581177,0.8048219084739685,0.554833173751831,24.2095947265625,-27.249149322509766,22.537111282348633,0.39101624488830566,-0.23237228393554688,0.2380017638206482,0.9621286392211914,10.071710586547852,-1.2354289293289185
2_20251106_213439,1762436043309,2,0.24680893123149872,0.41447848081588745,0.6356023550033569,0.6027458906173706,0.21758288145065308,3.2686264514923096,0.49306583404541016,1.6631807088851929,9.917146682739258,-1.1590287685394287,-0.2011234015226364,0.7089161276817322,0.6739517450332642,23.600032806396484,-27.691936492919922,22.788965225219727,0.5608416795730591,-0.12365055084228516,0.06112015247344971,1.1023390293121338,10.040797233581543,-1.2201489210128784
2_20251106_213439,1762436043326,2,0.23932060599327087,0.4136175811290741,0.6335773468017578,0.6084619164466858,0.23594647645950317,3.2796003818511963,0.5088567733764648,2.029477596282959,9.84532356262207,-1.0716441869735718,-0.2011234015226364,0.7089161276817322,0.6739517450332642,22.991771697998047,-28.121356964111328,22.959985733032227,0.741710901260376,-0.15637874603271484,0.11880385875701904,1.287766695022583,10.001702308654785,-1.1904480457305908
2_20251106_213439,1762436043346,2,0.23187778890132904,0.4144939184188843,0.6311575174331665,0.613243579864502,0.258491188287735,3.291105270385742,0.5257806181907654,2.327543258666992,9.97580337524414,-1.1063586473464966,-0.12415443360805511,0.5653629302978516,0.7735227346420288,22.372928619384766,-28.526187896728516,23.1040096282959,0.8318213224411011,-0.020719528198242188,0.06727147102355957,1.4957219362258911,9.996522903442383,-1.1736301183700562
2_20251106_213439,1762436043364,2,0.22415952384471893,0.41611775755882263,0.6285749673843384,0.6176503896713257,0.280575692653656,3.3009085655212402,0.5407492518424988,2.6363821029663086,9.982985496520996,-0.9710921049118042,-0.0783395767211914,0.5164937376976013,0.8327766060829163,21.730121612548828,-28.920452117919922,23.287866592407227,0.9125281572341919,-0.010829925537109375,0.16203045845031738,1.7238539457321167,9.993815422058105,-1.1331225633621216
2_20251106_213439,1762436043384,2,0.21616561710834503,0.41755247116088867,0.6260557770729065,0.6220743060112,0.3081277012825012,3.3107941150665283,0.556354284286499,3.118792772293091,9.8417329788208,-1.1973344087600708,-0.06673315167427063,0.5592542886734009,0.8321657180786133,21.05467987060547,-29.253772735595703,23.417505264282227,1.1159510612487793,-0.12166595458984375,-0.051369428634643555,2.0028417110443115,9.963398933410645,-1.1459649801254272
2_20251106_213439,1762436043403,2,0.20727427303791046,0.41842132806777954,0.623647928237915,0.6269164681434631,0.3371487855911255,3.3193657398223877,0.569902777671814,3.5174102783203125,9.835748672485352,-1.3409802913665771,-0.06612228602170944,0.6386666893959045,0.8633198738098145,20.301605224609375,-29.655994415283203,23.67804527282715,1.2116549015045166,-0.10212039947509766,-0.15601229667663574,2.305755376815796,9.93786907196045,-1.1849679946899414
2_20251106_213439,1762436043423,2,0.19843482971191406,0.4195164144039154,0.6210629343986511,0.6315935254096985,0.3371487855911255,3.3193657398223877,0.569902777671814,3.5174102783203125,9.835748672485352,-1.3409802913665771,-0.06612228602170944,0.6386666893959045,0.8633198738098145,19.58840560913086,-30.004932403564453,23.873533248901367,1.2116549015045166,-0.10212039947509766,-0.15601229667663574,2.305755376815796,9.93786907196045,-1.1849679946899414
2_20251106_213439,1762436043441,2,0.19005590677261353,0.4211335778236389,0.6181919574737549,0.6358962059020996,0.40357354283332825,3.33394193649292,0.5955215096473694,4.081220626831055,9.73160457611084,-0.9399687647819519,-0.07223093509674072,0.561697781085968,0.8651524186134338,18.911453247070312,-30.363506317138672,24.01616096496582,1.1736457347869873,-0.1385211944580078,0.19759494066238403,2.9075748920440674,9.870125770568848,-1.137563705444336
2_20251106_213439,1762436043461,2,0.18212348222732544,0.4233439564704895,0.6152432560920715,0.6395988464355469,0.4410669207572937,3.3400440216064453,0.6107825636863708,3.979471206665039,9.628658294677734,-0.31750309467315674,-0.016642244532704353,0.42119884490966797,0.7997899055480957,18.19493865966797,-30.763347625732422,24.278173446655273,0.8575170040130615,-0.19317340850830078,0.6560485363006592,3.1219542026519775,9.821831703186035,-0.9735516309738159
2_20251106_213439,1762436043480,2,0.17467911541461945,0.4254384934902191,0.6125569343566895,0.6428555846214294,0.4772935211658478,3.3442788124084473,0.6267957091331482,3.9926388263702393,9.358125686645508,-0.15709847211837769,0.04627682641148567,0.5384848713874817,0.784518301486969,17.457969665527344,-31.101451873779297,24.486459732055664,0.6965477466583252,-0.37096500396728516,0.6531625390052795,3.296091079711914,9.729090690612793,-0.8102610111236572
2_20251106_213439,1762436043500,2,0.16634324193000793,0.42661339044570923,0.6104730367660522,0.6462612748146057,0.5165255665779114,3.347076654434204,0.6432514786720276,4.284718990325928,9.256376266479492,-0.6646474003791809,0.13057614862918854,0.6301146149635315,0.8266679048538208,17.457969665527344,-31.101451873779297,24.486459732055664,0.7909021377563477,-0.3781719207763672,0.11649090051651001,3.49381685256958,9.63454818725586,-0.7811383008956909
2_20251106_213439,1762436043519,2,0.1568824052810669,0.42755746841430664,0.6088094115257263,0.6495642066001892,0.5533163547515869,3.348623037338257,0.6558335423469543,4.812617778778076,9.291090965270996,-1.3852710723876953,0.1537889987230301,0.561086893081665,0.8920304775238037,15.971553802490234,-31.778850555419922,24.943090438842773,1.0550408363342285,-0.2747659683227539,-0.48330622911453247,3.7575769424438477,9.56585693359375,-0.9019648432731628
2_20251106_213439,1762436043536,2,0.14741851389408112,0.42951589822769165,0.6068141460418701,0.6523499488830566,0.5918412208557129,3.3497073650360107,0.6665580868721008,5.208840370178223,9.409598350524902,-1.4008328914642334,0.09392426908016205,0.42180973291397095,0.8749262690544128,15.971553802490234,-31.778850555419922,24.943090438842773,1.1610107421875,-0.12500667572021484,-0.39909446239471436,4.047829627990723,9.534605026245117,-1.001738429069519
2_20251106_213439,1762436043557,2,0.13899113237857819,0.4322006106376648,0.6043475866317749,0.6547122001647949,0.637083888053894,3.3503735065460205,0.6772947907447815,5.553591728210449,9.377277374267578,-1.1937432289123535,0.062159307301044464,0.3674427568912506,0.8022333383560181,15.256843566894531,-32.15303421020508,25.151567459106445,1.2046098709106445,-0.12586212158203125,-0.15360379219055176,4.348981857299805,9.50313949584961,-1.0401394367218018
2_20251106_213439,1762436043575,2,0.13149350881576538,0.4348070025444031,0.6018033623695374,0.6568751931190491,0.6822023391723633,3.350343704223633,0.6858636736869812,5.911509037017822,9.2731351852417,-1.4487147331237793,0.062159307301044464,0.3674427568912506,0.8022333383560181,14.52712345123291,-32.365291595458984,25.335458755493164,1.2500214576721191,-0.1840038299560547,-0.32686030864715576,4.661487579345703,9.457139015197754,-1.1218544244766235
2_20251106_213439,1762436043594,2,0.1243208572268486,0.43688952922821045,0.5996270179748535,0.6588773131370544,0.7294402718544006,3.349534749984741,0.692266583442688,6.256258964538574,9.172582626342773,-1.7551594972610474,0.036502987146377563,0.3784383535385132,0.6427977085113525,13.806867599487305,-32.62685012817383,25.50527000427246,1.2758169174194336,-0.2276449203491211,-0.5066441297531128,4.980442047119141,9.400227546691895,-1.2485153675079346
2_20251106_213439,1762436043613,2,0.11786182224750519,0.43855711817741394,0.597438395023346,0.660941481590271,0.7786672115325928,3.348489761352539,0.6970414519309998,6.5662946701049805,9.299469947814941,-1.7252330780029297,0.036502987146377563,0.3784383535385132,0.6427977085113525,13.128599166870117,-32.79745101928711,25.61081886291504,1.2686820030212402,-0.08060646057128906,-0.3813741207122803,5.29761266708374,9.38007640838623,-1.3438589572906494
2_20251106_213439,1762436043632,2,0.11272435635328293,0.43975016474723816,0.5950399041175842,0.6632047295570374,0.8295310139656067,3.3474137783050537,0.7009680271148682,6.791340351104736,9.349745750427246,-1.566025733947754,-0.11315886676311493,0.2855868935585022,0.3789041042327881,12.423138618469238,-33.01987075805664,25.714330673217773,1.1949820518493652,-0.02426433563232422,-0.1777334213256836,5.596358299255371,9.37401008605957,-1.3882923126220703
2_20251106_213439,1762436043651,2,0.10908956825733185,0.4404524564743042,0.5928189754486084,0.6653320789337158,0.881117045879364,3.34641695022583,0.704647421836853,6.7865519523620605,9.383262634277344,-1.4068180322647095,-0.11315886676311493,0.2855868935585022,0.3789041042327881,11.842456817626953,-33.18398666381836,25.810285568237305,0.9521551132202148,0.0074024200439453125,-0.014820575714111328,5.834396839141846,9.375860214233398,-1.3919974565505981
2_20251106_213439,1762436043670,2,0.10711605101823807,0.4411042332649231,0.5910199284553528,0.6668197512626648,0.932236909866333,3.345890998840332,0.7087984681129456,6.604600429534912,9.529303550720215,-1.153043508529663,-0.11804579198360443,0.15913788974285126,0.23046398162841797,11.222100257873535,-33.401119232177734,25.94426155090332,0.6161627769470215,0.12275505065917969,0.19116318225860596,5.988437652587891,9.406548500061035,-1.344206690788269
2_20251106_213439,1762436043689,2,0.10673540085554123,0.4417020082473755,0.5898221135139465,0.6675453186035156,0.9814731478691101,3.3458003997802734,0.7141827344894409,6.233514785766602,9.555638313293457,-0.8190668225288391,-0.0838373601436615,0.034521494060754776,-0.07680096477270126,10.813321113586426,-33.54075241088867,25.966249465942383,0.1960620880126953,0.11927127838134766,0.4201119542121887,6.037452697753906,9.43636703491211,-1.2391787767410278
2_20251106_213439,1762436043709,2,0.10728159546852112,0.44131654500961304,0.5894197821617126,0.6680678725242615,0.9814731478691101,3.3458003997802734,0.7141827344894409,6.233514785766602,9.555638313293457,-0.8190668225288391,-0.055737584829330444,0.10965786129236221,-0.19408699870109558,10.466880798339844,-33.65129470825195,25.9912166595459,0.1960620880126953,0.11927127838134766,0.4201119542121887,6.037452697753906,9.43636703491211,-1.2391787767410278
2_20251106_213439,1762436043729,2,0.10801564902067184,0.43967270851135254,0.5898137092590332,0.6686855554580688,1.076066017150879,3.3452749252319336,0.7264336943626404,5.601473331451416,9.279119491577148,-1.2452163696289062,-0.07100920379161835,0.08705586940050125,-0.23501494526863098,10.204334259033203,-33.78139114379883,26.01909065246582,-0.32805776596069336,-0.12572860717773438,-0.04791545867919922,5.929531097412109,9.404848098754883,-1.197300910949707
2_20251106_213439,1762436043747,2,0.10923424363136292,0.4379209578037262,0.5902999043464661,0.6692078113555908,1.1131423711776733,3.3443665504455566,0.7320789694786072,5.2627081871032715,9.207296371459961,-0.9375746846199036,-0.12293270230293274,-0.01923460140824318,-0.2179107367992401,9.991631507873535,-33.89521408081055,25.995126724243164,-0.5334587097167969,-0.15804100036621094,0.20778101682662964,5.796166896820068,9.365337371826172,-1.1453557014465332
2_20251106_213439,1762436043766,2,0.11115988343954086,0.43688246607780457,0.590340256690979,0.6695338487625122,1.1485099792480469,3.3432157039642334,0.7388222813606262,5.135821342468262,9.277922630310059,-0.7508349418640137,-0.11315886676311493,-0.05099956691265106,-0.17637193202972412,9.87823486328125,-33.96541976928711,26.01642417907715,-0.5282764434814453,-0.0699319839477539,0.3156166076660156,5.664097785949707,9.347854614257812,-1.0664515495300293
2_20251106_213439,1762436043785,2,0.11300060898065567,0.43622276186943054,0.5902254581451416,0.6697570085525513,1.181044101715088,3.3419995307922363,0.7459794282913208,5.275875568389893,9.303060531616211,-0.7927317023277283,-0.0734526664018631,-0.06199513375759125,-0.17087414860725403,9.89030933380127,-33.976375579833984,25.9355525970459,-0.3105778694152832,-0.03583526611328125,0.21897584199905396,5.586453437805176,9.338895797729492,-1.0117075443267822
2_20251106_213439,1762436043804,2,0.11465083807706833,0.43560466170310974,0.5903651118278503,0.669755756855011,1.181044101715088,3.3419995307922363,0.7459794282913208,5.275875568389893,9.303060531616211,-0.7927317023277283,-0.07223093509674072,-0.07665587961673737,-0.20141738653182983,9.891607284545898,-33.963008880615234,25.854719161987305,-0.3105778694152832,-0.03583526611328125,0.21897584199905396,5.586453437805176,9.338895797729492,-1.0117075443267822
2_20251106_213439,1762436043824,2,0.11661893874406815,0.4349983036518097,0.5905634760856628,0.6696351766586304,1.2128124237060547,3.340430498123169,0.7535657286643982,5.334531307220459,9.222858428955078,-0.8705399632453918,-0.0942220613360405,-0.11514035612344742,-0.23073889315128326,9.980829238891602,-33.89412307739258,25.80540657043457,-0.2015376091003418,-0.09282970428466797,0.11293405294418335,5.536068916320801,9.315688133239746,-0.9834740161895752
2_20251106_213439,1762436043842,2,0.11906750500202179,0.43448367714881897,0.5906877517700195,0.6694287061691284,1.2660017013549805,3.336421012878418,0.7676706314086914,5.432689666748047,9.115123748779297,-0.7855494022369385,-0.0942220613360405,-0.11514035612344742,-0.23073889315128326,10.078811645507812,-33.8870964050293,25.74174690246582,-0.04681873321533203,-0.1327657699584961,0.1379719376564026,5.479508399963379,9.247889518737793,-0.9235213398933411
2_20251106_213439,1762436043862,2,0.12187498062849045,0.43423041701316833,0.5907509326934814,0.6690319776535034,1.2660017013549805,3.336421012878418,0.7676706314086914,5.432689666748047,9.115123748779297,-0.7855494022369385,-0.07406352460384369,-0.23548072576522827,-0.28327322006225586,10.249811172485352,-33.87543869018555,25.694547653198242,-0.04681873321533203,-0.1327657699584961,0.1379719376564026,5.479508399963379,9.247889518737793,-0.9235213398933411
2_20251106_213439,1762436043881,2,0.1251828521490097,0.4342030882835388,0.5910569429397583,0.6681681275367737,1.317906379699707,3.3311705589294434,0.7821660041809082,5.698433876037598,9.060060501098633,-0.8872986435890198,-0.0630679577589035,-0.2861824631690979,-0.3767355680465698,10.435803413391113,-33.82436752319336,25.554018020629883,0.15045499801635742,-0.1343832015991211,0.014563798904418945,5.54797887802124,9.194443702697754,-0.9018624424934387
2_20251106_213439,1762436043899,2,0.12931497395038605,0.4340430498123169,0.5917091369628906,0.6669067144393921,1.3405064344406128,3.328112840652466,0.7883090376853943,5.652946472167969,8.947537422180176,-0.923210084438324,-0.0630679577589035,-0.2861824631690979,-0.3767355680465698,10.669341087341309,-33.78335189819336,25.48276710510254,0.08397388458251953,-0.1975250244140625,-0.017078101634979248,5.568972587585449,9.145062446594238,-0.9061319828033447
2_20251106_213439,1762436043920,2,0.13424406945705414,0.4332745373249054,0.5925428867340088,0.665691077709198,1.364206075668335,3.3240082263946533,0.7947086691856384,5.517679691314697,8.856561660766602,-0.933983564376831,-0.15469767153263092,-0.2703000009059906,-0.5838186740875244,10.949508666992188,-33.77682876586914,25.412687301635742,-0.04103422164916992,-0.23080062866210938,-0.022281289100646973,5.558713912963867,9.087362289428711,-0.9117022752761841
2_20251106_213439,1762436043939,2,0.13995887339115143,0.43179261684417725,0.5934147238731384,0.6646996140480042,1.386173963546753,3.3195817470550537,0.8011099696159363,5.378822326660156,8.914019584655762,-0.8058992624282837,-0.19929079711437225,-0.279462993144989,-0.6815570592880249,11.244779586791992,-33.71915054321289,25.330636978149414,-0.14391326904296875,-0.1386737823486328,0.08464241027832031,5.522735595703125,9.052693367004395,-0.890541672706604
2_20251106_213439,1762436043959,2,0.14648213982582092,0.42971837520599365,0.5943907499313354,0.6637656092643738,1.4049482345581055,3.315035581588745,0.8074970841407776,5.139411926269531,8.851773262023926,-0.6682385802268982,-0.19012783467769623,-0.32344523072242737,-0.7676889896392822,11.636933326721191,-33.667537689208984,25.23872947692871,-0.3066587448120117,-0.160736083984375,0.17784243822097778,5.446070671081543,9.0125093460083,-0.846081018447876
2_20251106_213439,1762436043976,2,0.15375879406929016,0.4274093806743622,0.595670223236084,0.6624624133110046,1.420305848121643,3.3103833198547363,0.8136038184165955,4.82099723815918,8.784738540649414,-0.7005589008331299,-0.19012783467769623,-0.32344523072242737,-0.7676889896392822,11.636933326721191,-33.667537689208984,25.23872947692871,-0.5000591278076172,-0.18221664428710938,0.11641764640808105,5.321056365966797,8.966955184936523,-0.8169765472412109
2_20251106_213439,1762436043996,2,0.16158464550971985,0.4254848062992096,0.5970650315284729,0.6605803370475769,1.434374213218689,3.3050386905670166,0.8202872276306152,4.616301536560059,8.824240684509277,-0.7388644814491272,-0.1614171862602234,-0.5103698372840881,-0.7750193476676941,12.029073715209961,-33.62754440307617,25.051942825317383,-0.5638036727905273,-0.11417198181152344,0.06248968839645386,5.180105209350586,8.9384126663208,-0.801354169845581
2_20251106_213439,1762436044015,2,0.16985385119915009,0.42425501346588135,0.598205029964447,0.6582614183425903,1.4450807571411133,3.3002238273620605,0.8268090486526489,4.454699516296387,8.94155216217041,-0.6227506995201111,-0.17852140963077545,-0.5928365588188171,-0.7536391019821167,12.56997013092041,-33.528194427490234,24.91264533996582,-0.580324649810791,0.0025119781494140625,0.14288276433944702,5.035024166107178,8.939040184020996,-0.7656334638595581
2_20251106_213439,1762436044034,2,0.1785031408071518,0.4235808253288269,0.5989940166473389,0.6556844711303711,1.4529162645339966,3.2962327003479004,0.8332191705703735,4.3038716316223145,9.07801628112793,-0.5461395382881165,-0.19440388679504395,-0.6184929013252258,-0.7774627804756165,13.128889083862305,-33.32732009887695,24.748918533325195,-0.5849223136901855,0.11118125915527344,0.17559516429901123,4.8887939453125,8.966835021972656,-0.7217347025871277
2_20251106_213439,1762436044052,2,0.18745213747024536,0.42279577255249023,0.5997110605239868,0.6530330181121826,1.4586793184280396,3.292837619781494,0.8400335907936096,4.125511169433594,9.18814468383789,-0.5808539390563965,-0.19440388679504395,-0.6184929013252258,-0.7774627804756165,13.708852767944336,-33.187374114990234,24.55782127380371,-0.610626220703125,0.1770477294921875,0.1127045750617981,4.736137390136719,9.011096954345703,-0.6935585141181946
2_20251106_213439,1762436044075,2,0.19686077535152435,0.42153400182724,0.6004922986030579,0.6503567099571228,1.4613597393035889,3.2899844646453857,0.8470851182937622,3.7221057415008545,9.18934154510498,-0.6155683994293213,-0.22922317683696747,-0.5818410515785217,-0.9252920150756836,14.315711975097656,-32.99601364135742,24.4093074798584,-0.811225175857544,0.14259624481201172,0.06239211559295654,4.533330917358398,9.046745300292969,-0.6779605150222778
2_20251106_213439,1762436044096,2,0.2065548598766327,0.419443815946579,0.6015894412994385,0.6476821303367615,1.458422303199768,3.286858081817627,0.85507732629776,3.164280891418457,9.07562255859375,-0.6885883808135986,-0.2530468702316284,-0.5537412166595459,-0.9790481328964233,15.011878967285156,-32.747249603271484,24.103090286254883,-1.0952401161193848,0.023101806640625,-0.008502304553985596,4.259521007537842,9.052520751953125,-0.680086076259613
2_20251106_213439,1762436044110,2,0.21643595397472382,0.4166729152202606,0.6028258204460144,0.645089328289032,1.4543766975402832,3.2851028442382812,0.8592832684516907,2.6363818645477295,9.037315368652344,-0.8298402428627014,-0.2530468702316284,-0.5537412166595459,-0.9790481328964233,15.778849601745605,-32.53165817260742,23.8260555267334,-1.298511266708374,-0.012164115905761719,-0.11980330944061279,3.9348931312561035,9.049479484558105,-0.7100369334220886
2_20251106_213439,1762436044130,2,0.2263624370098114,0.41404229402542114,0.6036797165870667,0.642572820186615,1.4543766975402832,3.2851028442382812,0.8592832684516907,2.6363818645477295,9.037315368652344,-0.8298402428627014,-0.2890878915786743,-0.6264341473579407,-0.8324406147003174,16.473705291748047,-32.3078727722168,23.50579261779785,-1.298511266708374,-0.012164115905761719,-0.11980330944061279,3.9348931312561035,9.049479484558105,-0.7100369334220886
2_20251106_213439,1762436044149,2,0.23603126406669617,0.41239801049232483,0.6038735508918762,0.6399639248847961,1.4309536218643188,3.2812366485595703,0.8691417574882507,2.268887758255005,9.274332046508789,-0.6897854208946228,-0.2811466455459595,-0.7290593981742859,-0.7249283790588379,17.279138565063477,-32.06411361694336,23.163175582885742,-1.0825233459472656,0.17493343353271484,0.04513770341873169,3.3514111042022705,9.099398612976074,-0.7349231243133545
2_20251106_213439,1762436044168,2,0.2455834299325943,0.4119526445865631,0.603430449962616,0.6370679140090942,1.4163247346878052,3.280883312225342,0.8743657469749451,2.1611533164978027,9.511347770690918,-0.3474293351173401,-0.24693824350833893,-0.7877024412155151,-0.6852222084999084,18.02544593811035,-31.79867172241211,22.76456642150879,-0.9522063732147217,0.329559326171875,0.30999499559402466,3.1133596897125244,9.181788444519043,-0.6574243307113647
2_20251106_213439,1762436044187,2,0.2551158666610718,0.4121383726596832,0.6027939319610596,0.633795976638794,1.397184133529663,3.2813994884490967,0.8808441758155823,1.896605372428894,9.474239349365234,-0.3402470350265503,-0.20845377445220947,-0.7730416655540466,-0.7102676630020142,18.780006408691406,-31.607372283935547,22.324316024780273,-0.9734035730361938,0.2339611053466797,0.2537418603897095,2.870008945465088,9.240278244018555,-0.5939888954162598
2_20251106_213439,1762436044206,2,0.26449117064476013,0.41203564405441284,0.6024645566940308,0.6303233504295349,1.3776025772094727,3.2821104526519775,0.8864715695381165,1.5638254880905151,9.349745750427246,-0.5581099987030029,-0.20478858053684235,-0.7486070990562439,-0.7255393266677856,19.572547912597656,-31.376964569091797,21.98094367980957,-1.0449467897415161,0.08757400512695312,0.02870309352874756,2.6087722778320312,9.262171745300293,-0.5868130922317505
2_20251106_213439,1762436044224,2,0.2737971246242523,0.4116521179676056,0.6022276282310486,0.626816987991333,1.3776025772094727,3.2821104526519775,0.8864715695381165,1.5638254880905151,9.349745750427246,-0.5581099987030029,-0.26159900426864624,-0.7198964953422546,-0.7218741178512573,20.365684509277344,-31.145748138427734,21.556474685668945,-1.0449467897415161,0.08757400512695312,0.02870309352874756,2.6087722778320312,9.262171745300293,-0.5868130922317505
2_20251106_213439,1762436044244,2,0.28308048844337463,0.4108872413635254,0.6017290353775024,0.623665988445282,1.3523627519607544,3.2824974060058594,0.8929173350334167,1.1053556203842163,9.142656326293945,-0.4204493761062622,-0.3220745921134949,-0.6166602969169617,-0.7157654762268066,21.124177932739258,-30.879512786865234,21.158357620239258,-1.2027331590652466,-0.0956125259399414,0.13309097290039062,2.308088779449463,9.238268852233887,-0.5535403490066528
2_20251106_213439,1762436044263,2,0.2919583320617676,0.4092535376548767,0.6011090278625488,0.6212405562400818,1.2949646711349487,3.28351092338562,0.9070613980293274,0.023223020136356354,9.394037246704102,-0.26124176383018494,-0.31779855489730835,-0.4877678155899048,-0.6302443742752075,21.824350357055664,-30.578907012939453,20.69099998474121,-1.5417982339859009,0.12439918518066406,0.15680968761444092,1.565021276473999,9.269638061523438,-0.41805145144462585
2_20251106_213439,1762436044281,2,0.29963696002960205,0.4072140157222748,0.600501537322998,0.619509756565094,1.2604929208755493,3.284553289413452,0.913474977016449,-0.16950193047523499,9.40121841430664,-0.6179624795913696,-0.31779855489730835,-0.4877678155899048,-0.6302443742752075,22.547286987304688,-30.30208969116211,20.251127243041992,-1.3876185417175293,0.10526466369628906,-0.1599288284778595,1.2181166410446167,9.295953750610352,-0.45803365111351013
2_20251106_213439,1762436044301,2,0.30630776286125183,0.40697968006134033,0.5991851091384888,0.6176732778549194,1.2223122119903564,3.2860357761383057,0.9192677140235901,-0.0019150301814079285,9.44072151184082,-0.6622532606124878,-0.26159900426864624,-0.5610715746879578,-0.4139983057975769,23.207080841064453,-30.06705093383789,19.8215274810791,-0.9760253429412842,0.115814208984375,-0.16337570548057556,0.9741103053092957,9.324907302856445,-0.49887755513191223
2_20251106_213439,1762436044320,2,0.3125095069408417,0.41004443168640137,0.5964882373809814,0.6151447892189026,1.2223122119903564,3.2860357761383057,0.9192677140235901,-0.0019150301814079285,9.44072151184082,-0.6622532606124878,-0.15469767153263092,-0.9685184359550476,0.048426300287246704,23.780853271484375,-29.861743927001953,19.293352127075195,-0.9760253429412842,0.115814208984375,-0.16337570548057556,0.9741103053092957,9.324907302856445,-0.49887755513191223
2_20251106_213439,1762436044338,2,0.3183760941028595,0.41524001955986023,0.592720091342926,0.6122869253158569,1.1818263530731201,3.288841485977173,0.9262356162071228,0.2578446865081787,9.720830917358398,-0.14393094182014465,-0.1656932383775711,-0.8200782537460327,0.10768017917871475,24.303768157958984,-29.697284698486328,18.762422561645508,-0.5730124711990356,0.3167390823364258,0.283957302570343,0.8308571577072144,9.404091835021973,-0.42788824439048767
2_20251106_213439,1762436044359,2,0.3230646848678589,0.4197956323623657,0.5889825820922852,0.6103280782699585,1.1167750358581543,3.2979605197906494,0.9388108253479004,0.9485421180725098,10.212818145751953,-0.48987823724746704,-0.23411008715629578,-0.5867279171943665,0.09729547798633575,24.752948760986328,-29.561626434326172,18.119892120361328,0.1415870189666748,0.5484209060668945,-0.1178169846534729,0.806955099105835,9.664397239685059,-0.37206125259399414
2_20251106_213439,1762436044378,2,0.3267436623573303,0.422728568315506,0.5855336785316467,0.6096633672714233,1.084949016571045,3.3059749603271484,0.9449073076248169,1.2801249027252197,10.455820083618164,-0.4324198365211487,-0.35933732986450195,-0.5189219117164612,0.031932953745126724,24.752948760986328,-29.561626434326172,18.119892120361328,0.3785358667373657,0.6331386566162109,-0.048286885023117065,0.901589035987854,9.822681427001953,-0.3841329514980316
2_20251106_213439,1762436044396,2,0.3309275805950165,0.42471686005592346,0.5817644596099854,0.609633207321167,1.0589410066604614,3.3148019313812256,0.9513980746269226,1.3902534246444702,10.624603271484375,0.13498157262802124,-0.38438278436660767,-0.5317501425743103,-0.07802269607782364,25.11290740966797,-29.494853973388672,17.526674270629883,0.39093154668807983,0.6415376663208008,0.4152916371822357,0.9993218779563904,9.983065605163574,-0.2803100645542145
2_20251106_213439,1762436044416,2,0.33581671118736267,0.42607569694519043,0.5782307982444763,0.6093732714653015,1.032305359840393,3.32609486579895,0.9601523876190186,1.2681543827056885,10.632983207702637,0.3456622362136841,-0.29214221239089966,-0.5415239930152893,-0.20447170734405518,25.46489906311035,-29.57809066772461,16.862707138061523,0.2150660753250122,0.5199346542358398,0.5007778406143188,1.0530883073806763,10.113048553466797,-0.15511560440063477
2_20251106_213439,1762436044435,2,0.341217041015625,0.42711707949638367,0.5755482316017151,0.6081826686859131,1.032305359840393,3.32609486579895,0.9601523876190186,1.2681543827056885,10.632983207702637,0.3456622362136841,-0.29214221239089966,-0.5415239930152893,-0.20447170734405518,25.79343605041504,-29.638477325439453,16.265869140625,0.2150660753250122,0.5199346542358398,0.5007778406143188,1.0530883073806763,10.113048553466797,-0.15511560440063477
2_20251106_213439,1762436044454,2,0.3470039367675781,0.42784684896469116,0.573566734790802,0.6062644124031067,0.9839104413986206,3.348997116088867,0.9796508550643921,0.6025949120521545,10.47856330871582,0.5395842790603638,-0.2328883558511734,-0.537247896194458,-0.38712024688720703,26.035964965820312,-29.716983795166016,15.665334701538086,-0.3509454131126404,0.22492694854736328,0.4829135239124298,0.9535403251647949,10.253636360168457,0.05667076259851456
2_20251106_213439,1762436044472,2,0.3531436622142792,0.4279070794582367,0.572004497051239,0.6041489243507385,0.9600836038589478,3.359656810760498,0.9904661178588867,0.12018400430679321,10.360054969787598,0.6664714813232422,-0.21822760999202728,-0.45233768224716187,-0.46286746859550476,26.315967559814453,-29.768665313720703,15.134380340576172,-0.6666851043701172,0.08513450622558594,0.48784059286117554,0.7868691086769104,10.274920463562012,0.17863088846206665
2_20251106_213439,1762436044491,2,0.35919371247291565,0.4269861876964569,0.5711344480514526,0.6020532846450806,0.9600836038589478,3.359656810760498,0.9904661178588867,0.12018400430679321,10.360054969787598,0.6664714813232422,-0.21822760999202728,-0.45233768224716187,-0.46286746859550476,26.637266159057617,-29.730335235595703,14.633777618408203,-0.6666851043701172,0.08513450622558594,0.48784059286117554,0.7868691086769104,10.274920463562012,0.17863088846206665
2_20251106_213439,1762436044511,2,0.36486467719078064,0.4252159595489502,0.5708829760551453,0.6001314520835876,0.9315671324729919,3.3704652786254883,1.0030559301376343,-0.3203301429748535,10.129024505615234,0.5647222995758057,-0.18890610337257385,-0.28373903036117554,-0.461034893989563,26.95997428894043,-29.666889190673828,14.133703231811523,-0.8857594728469849,-0.11671638488769531,0.30887311697006226,0.5654293298721313,10.24574089050293,0.2558491826057434
2_20251106_213439,1762436044530,2,0.3698936402797699,0.4232708811759949,0.5708206295967102,0.598484992980957,0.8734078407287598,3.3858931064605713,1.0258018970489502,-0.8709728717803955,9.669357299804688,0.3839678466320038,-0.18890610337257385,-0.28373903036117554,-0.461034893989563,27.284006118774414,-29.566852569580078,13.742549896240234,-0.9551131725311279,-0.40393543243408203,0.07395175099372864,0.08414028584957123,10.07329273223877,0.31001609563827515
2_20251106_213439,1762436044549,2,0.37426722049713135,0.4222225546836853,0.5704066157341003,0.5968990325927734,0.8734078407287598,3.3858931064605713,1.0258018970489502,-0.8709728717803955,9.669357299804688,0.3839678466320038,-0.10827194899320602,-0.3381059765815735,-0.17576107382774353,27.659996032714844,-29.41286849975586,13.300350189208984,-0.9551131725311279,-0.40393543243408203,0.07395175099372864,0.08414028584957123,10.07329273223877,0.31001609563827515
2_20251106_213439,1762436044569,2,0.3776528239250183,0.42236968874931335,0.5695095658302307,0.5955173969268799,0.838078498840332,3.39155650138855,1.0381642580032349,-0.8350613713264465,9.562820434570312,0.39593833684921265,-0.09788724780082703,-0.3106170892715454,-0.033429570496082306,27.97890281677246,-29.176441192626953,13.006223678588867,-0.7353613376617432,-0.40837860107421875,0.06873780488967896,-0.09970002621412277,9.971199035644531,0.3272005319595337
2_20251106_213439,1762436044588,2,0.38005247712135315,0.4232030510902405,0.5681638121604919,0.5946840643882751,0.8047444820404053,3.3959450721740723,1.0494017601013184,-0.5501636266708374,9.729209899902344,0.3444651961326599,-0.11254800856113434,-0.2538066506385803,0.034987278282642365,28.283199310302734,-28.990497589111328,12.656486511230469,-0.3603708744049072,-0.19359111785888672,0.013811707496643066,-0.18979275226593018,9.92280101776123,0.33065348863601685
2_20251106_213439,1762436044607,2,0.38179346919059753,0.4241028130054474,0.5666199922561646,0.5944008231163025,0.7492600679397583,3.4040791988372803,1.0683075189590454,0.13574565947055817,10.061990737915039,0.32531240582466125,-0.09300033003091812,-0.27396517992019653,0.011163554154336452,28.623350143432617,-28.81472396850586,12.30795669555664,0.23477543890476227,0.10268020629882812,0.0074987709522247314,-0.0990297794342041,9.959310531616211,0.3178136348724365
2_20251106_213439,1762436044625,2,0.383701890707016,0.42522478103637695,0.5651029348373413,0.5938143134117126,0.7247905731201172,3.4077281951904297,1.0770219564437866,-0.029447153210639954,9.888418197631836,0.39234718680381775,-0.07772871851921082,-0.22448517382144928,-0.00960584543645382,28.853330612182617,-28.646778106689453,12.022594451904297,0.05566610395908356,-0.05671405792236328,0.05962684750556946,-0.08511325716972351,9.9451322555542,0.3327203392982483
2_20251106_213439,1762436044645,2,0.3854046165943146,0.42605000734329224,0.5638900399208069,0.593272864818573,0.6996767520904541,3.411287546157837,1.084928035736084,0.15011024475097656,9.848915100097656,-0.09245781600475311,-0.0838373601436615,-0.1365206390619278,0.048426300287246704,29.063682556152344,-28.605731964111328,11.788167953491211,0.18817880749702454,-0.07697391510009766,-0.34014254808425903,-0.038068562746047974,9.925889015197754,0.24768471717834473
2_20251106_213439,1762436044663,2,0.3862731456756592,0.42655810713768005,0.5627972483634949,0.5933805704116821,0.6796258091926575,3.4144506454467773,1.090484619140625,0.5391513109207153,9.974605560302734,-0.2408919334411621,-0.12843048572540283,-0.17928116023540497,0.09668461233377457,29.19004249572754,-28.545269012451172,11.564352035522461,0.46177589893341064,0.03897285461425781,-0.3908613324165344,0.07737540453672409,9.935632705688477,0.14996939897537231
2_20251106_213439,1762436044683,2,0.38729143142700195,0.4275623857975006,0.5610862970352173,0.5936142802238464,0.6602067947387695,3.418574094772339,1.0967155694961548,0.6516739130020142,10.193665504455566,0.2702481746673584,-0.17363448441028595,-0.2189873605966568,0.06186532974243164,29.31237030029297,-28.559879302978516,11.311920166015625,0.4594388008117676,0.20642566680908203,0.09622302651405334,0.19223511219024658,9.987239837646484,0.17402514815330505
2_20251106_213439,1762436044702,2,0.3888819217681885,0.4285546541213989,0.5590593218803406,0.5937713980674744,0.6435048580169678,3.4232592582702637,1.103424072265625,0.4924663305282593,10.338508605957031,0.5695105195045471,-0.13392826914787292,-0.1829463541507721,-0.033429570496082306,29.36077880859375,-28.59194564819336,11.06979751586914,0.2401849627494812,0.28101539611816406,0.3163883090019226,0.2522813677787781,10.057493209838867,0.2531222105026245
2_20251106_213439,1762436044721,2,0.3906264007091522,0.4288826286792755,0.5577428340911865,0.5936275124549866,0.6275120377540588,3.4282116889953613,1.110280990600586,0.20637157559394836,10.240350723266602,0.4294557273387909,-0.08322650194168091,-0.08581884950399399,-0.0957377701997757,29.44253158569336,-28.67239761352539,10.88215446472168,-0.03672783076763153,0.1462860107421875,0.14106681942939758,0.2430994063615799,10.094064712524414,0.2883889079093933
2_20251106_213439,1762436044739,2,0.39201247692108154,0.4284314215183258,0.5573311448097229,0.5934262275695801,0.6127244830131531,3.4327962398529053,1.11600661277771,0.08307547867298126,10.145783424377441,0.10744943469762802,-0.06123536825180054,-0.07543415576219559,-0.05847502499818802,29.465778350830078,-28.707134246826172,10.747180938720703,-0.12801913917064667,0.041375160217285156,-0.14475157856941223,0.21109461784362793,10.104408264160156,0.25220102071762085
2_20251106_213439,1762436044759,2,0.3930579721927643,0.4281734526157379,0.5569846630096436,0.5932461023330688,0.6127244830131531,3.4327962398529053,1.11600661277771,0.08307547867298126,10.145783424377441,0.10744943469762802,-0.04718548059463501,-0.16523127257823944,0.02948949672281742,29.498798370361328,-28.77914810180664,10.652454376220703,-0.12801913917064667,0.041375160217285156,-0.14475157856941223,0.21109461784362793,10.104408264160156,0.25220102071762085
2_20251106_213439,1762436044778,2,0.3940470218658447,0.42899805307388306,0.5560520887374878,0.5928690433502197,0.5830727219581604,3.4427566528320312,1.1274904012680054,0.3368499279022217,10.300203323364258,0.35643571615219116,-0.04657461494207382,-0.22570689022541046,0.08263472467660904,29.486982345581055,-28.802631378173828,10.408143997192383,0.10978716611862183,0.15001583099365234,0.09256649017333984,0.22706276178359985,10.150187492370605,0.2638692259788513
2_20251106_213439,1762436044798,2,0.3950497508049011,0.43044543266296387,0.5546591877937317,0.5924572944641113,0.5830727219581604,3.4427566528320312,1.1274904012680054,0.3368499279022217,10.300203323364258,0.35643571615219116,-0.04413115605711937,-0.19821797311306,0.06491965055465698,29.489070892333984,-28.788188934326172,10.219179153442383,0.10978716611862183,0.15001583099365234,0.09256649017333984,0.22706276178359985,10.150187492370605,0.2638692259788513
2_20251106_213439,1762436044817,2,0.39602982997894287,0.4316968619823456,0.5533837080001831,0.5920850038528442,0.5586307644844055,3.4540023803710938,1.1405912637710571,0.49007225036621094,10.38160228729248,0.6257718205451965,-0.026416080072522163,-0.11452949792146683,0.009330959990620613,29.489070892333984,-28.788188934326172,10.219179153442383,0.17234817147254944,0.15193557739257812,0.24617379903793335,0.3177240788936615,10.229666709899902,0.3795980215072632
2_20251106_213439,1762436044835,2,0.39676326513290405,0.43220460414886475,0.5527468323707581,0.5918183922767639,0.5488907694816589,3.4590861797332764,1.1467527151107788,0.481692910194397,10.247532844543457,0.45219966769218445,-0.0141987856477499,0.01375209167599678,-0.044425129890441895,29.56145668029785,-28.819210052490234,10.032102584838867,0.13117507100105286,0.014292716979980469,0.05808129906654358,0.3505178391933441,10.233240127563477,0.39411836862564087
2_20251106_213439,1762436044855,2,0.39711272716522217,0.43177884817123413,0.552844226360321,0.5918038487434387,0.5392701625823975,3.4638094902038574,1.1524698734283447,0.4038847088813782,10.096704483032227,0.22595733404159546,-0.02397262118756771,0.07606030255556107,-0.0694705918431282,29.611188888549805,-28.814685821533203,9.898900985717773,0.042693495750427246,-0.10922813415527344,-0.13452884554862976,0.3611912131309509,10.2059326171875,0.3604861795902252
2_20251106_213439,1762436044874,2,0.39727431535720825,0.4308339059352875,0.5532639026641846,0.5919918417930603,0.5299488306045532,3.4676291942596436,1.1575846672058105,0.29495322704315186,9.962635040283203,0.24511012434959412,-0.04657461494207382,0.05284743383526802,-0.03281870484352112,29.63584327697754,-28.82430648803711,9.764455795288086,-0.0529903769493103,-0.19463825225830078,-0.09230083227157593,0.34794360399246216,10.157273292541504,0.33741095662117004
2_20251106_213439,1762436044893,2,0.3974772095680237,0.43018949031829834,0.5533211827278137,0.5922706723213196,0.5299488306045532,3.4676291942596436,1.1575846672058105,0.29495322704315186,9.962635040283203,0.24511012434959412,-0.04168769717216492,-0.05161042883992195,0.0331546850502491,29.638748168945312,-28.78555679321289,9.65711784362793,-0.0529903769493103,-0.19463825225830078,-0.09230083227157593,0.34794360399246216,10.157273292541504,0.33741095662117004
2_20251106_213439,1762436044912,2,0.3978155255317688,0.43045011162757874,0.5527762174606323,0.5923629999160767,0.5124868154525757,3.4737207889556885,1.1691621541976929,0.41106700897216797,10.075157165527344,0.7023829817771912,0.018787911161780357,-0.08337539434432983,0.0691957026720047,29.711442947387695,-28.804553985595703,9.524370193481445,0.04748550057411194,-0.03665733337402344,0.2661418616771698,0.36358150839805603,10.111814498901367,0.43624112010002136
2_20251106_213439,1762436044931,2,0.39799609780311584,0.430487722158432,0.5524777173995972,0.5924928784370422,0.5124868154525757,3.4737207889556885,1.1691621541976929,0.41106700897216797,10.075157165527344,0.7023829817771912,0.018787911161780357,-0.08337539434432983,0.0691957026720047,29.710725784301758,-28.828723907470703,9.429227828979492,0.04748550057411194,-0.03665733337402344,0.2661418616771698,0.36358150839805603,10.111814498901367,0.43624112010002136
2_20251106_213439,1762436044950,2,0.39764901995658875,0.43030938506126404,0.5524289011955261,0.592900812625885,0.5054596066474915,3.4764864444732666,1.1744916439056396,0.6409004926681519,10.142192840576172,0.31094783544540405,0.0603267103433609,-0.02534325048327446,0.06858483701944351,29.720388412475586,-28.877758026123047,9.388113021850586,0.22185519337654114,0.02430248260498047,-0.10023462772369385,0.4190452992916107,10.117890357971191,0.4111824631690979
2_20251106_213439,1762436044969,2,0.39725202322006226,0.430802583694458,0.5523902177810669,0.5928448438644409,0.4993652105331421,3.4789257049560547,1.1790870428085327,0.7258909940719604,10.010517120361328,0.16969600319862366,0.032837800681591034,0.024747656658291817,0.03987419605255127,29.682605743408203,-28.91659927368164,9.264204025268555,0.24547654390335083,-0.08589935302734375,-0.19318917393684387,0.4804144501686096,10.096416473388672,0.36288517713546753
2_20251106_213439,1762436044989,2,0.3968488872051239,0.4310873746871948,0.5524516105651855,0.5928506255149841,0.49439728260040283,3.4804677963256836,1.1826287508010864,0.6744178533554077,9.856098175048828,0.14216387271881104,-0.02091829851269722,0.057123489677906036,0.04659371078014374,29.618362426757812,-28.97146987915039,9.328277587890625,0.1552027463912964,-0.19225502014160156,-0.17657706141471863,0.5192151069641113,10.04835319519043,0.31874093413352966
2_20251106_213439,1762436045008,2,0.3965490460395813,0.43105438351631165,0.5523203611373901,0.5931974053382874,0.48603758215904236,3.482480049133301,1.1869322061538696,0.6744178533554077,9.972211837768555,0.150543212890625,-0.06001364067196846,0.04551705718040466,0.09607375413179398,29.582002639770508,-28.973583221435547,9.299774169921875,0.11024683713912964,-0.03972816467285156,-0.07470375299453735,0.5641710162162781,10.011940002441406,0.22524696588516235
2_20251106_213439,1762436045027,2,0.3961597681045532,0.431286096572876,0.5519667863845825,0.5936180353164673,0.48325949907302856,3.483426570892334,1.189001441001892,0.8946749567985535,10.041640281677246,0.2989773154258728,-0.04840720817446709,0.0638430044054985,0.11317796260118484,29.569013595581055,-28.987071990966797,9.312536239624023,0.26440316438674927,0.02376079559326172,0.05898427963256836,0.6302717924118042,10.017879486083984,0.23999303579330444
2_20251106_213439,1762436045045,2,0.3955230414867401,0.4313586354255676,0.5515196323394775,0.5944050550460815,0.48163431882858276,3.484295606613159,1.1908851861953735,0.9856506586074829,10.024881362915039,0.248701274394989,-0.010533597320318222,0.06628646701574326,0.08568905293941498,29.493473052978516,-29.04153060913086,9.254472732543945,0.28430306911468506,0.005600929260253906,0.006966590881347656,0.7013475894927979,10.019280433654785,0.24173468351364136
2_20251106_213439,1762436045065,2,0.39470425248146057,0.4314342737197876,0.5511755347251892,0.595212996006012,0.48098692297935486,3.4854373931884766,1.1923270225524902,1.0526854991912842,10.09311294555664,0.06196156144142151,0.02795088291168213,0.008865173906087875,0.08019126951694489,29.441415786743164,-29.09560775756836,9.319036483764648,0.281070351600647,0.059065818786621094,-0.14381849765777588,0.7716151475906372,10.03404712677002,0.2057800590991974
2_20251106_213439,1762436045084,2,0.3940315842628479,0.4321233332157135,0.5507941842079163,0.595511794090271,0.4813314378261566,3.4867022037506104,1.1934800148010254,1.1101438999176025,10.119449615478516,0.15174025297164917,0.028561744838953018,-0.056497350335121155,0.07835867255926132,29.392375946044922,-29.099185943603516,9.357624053955078,0.27082300186157227,0.06832218170166016,-0.043231844902038574,0.8393208980560303,10.051127433776855,0.19497209787368774
2_20251106_213439,1762436045103,2,0.39366331696510315,0.43344858288764954,0.5502389669418335,0.5953054428100586,0.4813314378261566,3.4867022037506104,1.1934800148010254,1.1101438999176025,10.119449615478516,0.15174025297164917,0.01512272097170353,-0.02595411241054535,0.04048506170511246,29.376665115356445,-29.162761688232422,9.355813980102539,0.27082300186157227,0.06832218170166016,-0.043231844902038574,0.8393208980560303,10.051127433776855,0.19497209787368774
2_20251106_213439,1762436045122,2,0.3933495581150055,0.43424203991889954,0.5498161911964417,0.595325231552124,0.48249560594558716,3.488250970840454,1.1947964429855347,1.1089468002319336,10.144586563110352,0.248701274394989,0.01512272097170353,-0.02595411241054535,0.04048506170511246,29.40850067138672,-29.236392974853516,9.423282623291016,0.2157006859779358,0.0747671127319336,0.04298333823680878,0.8932461142539978,10.069819450378418,0.20571793615818024
2_20251106_213439,1762436045142,2,0.3931056261062622,0.43412479758262634,0.5497097969055176,0.5956700444221497,0.48562830686569214,3.490691900253296,1.1965514421463013,0.9904389381408691,9.98178768157959,0.10385828465223312,-0.00809013843536377,0.05284743383526802,-0.01571449264883995,29.347063064575195,-29.25265121459961,9.393533706665039,0.05052018165588379,-0.06898212432861328,-0.0720851793885231,0.9399187564849854,10.050769805908203,0.17594346404075623
2_20251106_213439,1762436045161,2,0.3930707573890686,0.4339858293533325,0.5496566891670227,0.5958433151245117,0.4869103729724884,3.491382360458374,1.1975775957107544,0.8479900360107422,9.932709693908691,0.29778027534484863,-0.015420515090227127,0.01375209167599678,-0.024877464398741722,29.31645965576172,-29.35550308227539,9.471538543701172,-0.07354295253753662,-0.09444808959960938,0.09746944904327393,0.9215329885482788,10.0271577835083,0.2003108263015747
2_20251106_213439,1762436045180,2,0.3931508958339691,0.43404945731163025,0.5495994091033936,0.5957968831062317,0.48779192566871643,3.4917891025543213,1.198760747909546,0.7989109754562378,9.936300277709961,0.27623340487480164,0.00046196766197681427,0.03268889710307121,-0.008384117856621742,29.387264251708984,-29.388675689697266,9.500722885131836,-0.09809762239456177,-0.07268619537353516,0.060738056898117065,0.8970085978507996,10.008986473083496,0.21549534797668457
2_20251106_213439,1762436045200,2,0.39301061630249023,0.43366900086402893,0.5497180223464966,0.5960569977760315,0.48840072751045227,3.491607427597046,1.1998883485794067,0.8072903752326965,9.815397262573242,0.19722813367843628,0.018787913024425507,0.03940841183066368,0.0013897181488573551,29.398561477661133,-29.389095306396484,9.622859954833984,-0.07177460193634033,-0.15487194061279297,-0.01461377739906311,0.8790649771690369,9.970269203186035,0.2118419110774994
2_20251106_213439,1762436045219,2,0.3928086757659912,0.43340662121772766,0.5499303936958313,0.596185028553009,0.48868098855018616,3.4908838272094727,1.20038640499115,0.7809553146362305,9.766319274902344,0.02245892956852913,0.027340013533830643,0.024136792868375778,0.017883066087961197,29.398561477661133,-29.389095306396484,9.622859954833984,-0.07848775386810303,-0.1631603240966797,-0.15150639414787292,0.8594430685043335,9.929479598999023,0.17396531999111176
2_20251106_213439,1762436045238,2,0.3927564322948456,0.43366310000419617,0.5499316453933716,0.5960317850112915,0.4887351989746094,3.4898931980133057,1.2002041339874268,0.7821522951126099,9.818989753723145,-0.0649256780743599,0.004127155058085918,-0.008239038288593292,0.044761113822460175,29.37430191040039,-29.37893295288086,9.703241348266602,-0.06183266639709473,-0.08839225769042969,-0.19111278653144836,0.8439849615097046,9.907382011413574,0.12618711590766907
2_20251106_213439,1762436045256,2,0.3924292027950287,0.4339756369590759,0.54997318983078,0.5959814786911011,0.4886641502380371,3.4886956214904785,1.1997787952423096,0.7953198552131653,9.783077239990234,0.020064827054739,-0.022140026092529297,0.009476039558649063,0.04292851686477661,29.37430191040039,-29.37893295288086,9.703241348266602,-0.03893214464187622,-0.09944343566894531,-0.08489783108234406,0.8342519998550415,9.88252067565918,0.10496266186237335
2_20251106_213439,1762436045276,2,0.39249691367149353,0.4345179498195648,0.5497246980667114,0.5957709550857544,0.4884962737560272,3.4870526790618896,1.1992099285125732,0.803699254989624,9.757939338684082,0.0655527114868164,-0.045352887362241745,0.05834521725773811,0.02032652497291565,29.384992599487305,-29.391773223876953,9.81159782409668,-0.024442195892333984,-0.09966564178466797,-0.03152795881032944,0.828141450881958,9.85760498046875,0.09708067029714584
2_20251106_213439,1762436045295,2,0.39237838983535767,0.4343486428260803,0.5496731996536255,0.596019983291626,0.4884962737560272,3.4870526790618896,1.1992099285125732,0.803699254989624,9.757939338684082,0.0655527114868164,-0.042298562824726105,0.05712348595261574,0.03376554697751999,29.310888290405273,-29.397884368896484,9.943817138671875,-0.024442195892333984,-0.09966564178466797,-0.03152795881032944,0.828141450881958,9.85760498046875,0.09708067029714584
2_20251106_213439,1762436045314,2,0.39207521080970764,0.4341292977333069,0.5496242046356201,0.5964243412017822,0.4884209632873535,3.483586072921753,1.1963392496109009,0.9449509978294373,9.833353996276855,-0.12358109652996063,-0.042298562824726105,0.05712348595261574,0.03376554697751999,29.322481155395508,-29.397899627685547,10.025405883789062,0.09448546171188354,-0.0044116973876953125,-0.1362438201904297,0.8504655361175537,9.83776569366455,0.012662716209888458
2_20251106_213439,1762436045333,2,0.3920643627643585,0.4347759485244751,0.549053966999054,0.5964856743812561,0.48907044529914856,3.482285261154175,1.1958149671554565,1.0431090593338013,9.949467658996582,0.3863619565963745,-0.06978747248649597,-0.014347685500979424,0.07469348609447479,29.286924362182617,-29.387317657470703,9.983650207519531,0.15411484241485596,0.08936214447021484,0.2989594042301178,0.8889942169189453,9.860105514526367,0.08740255981683731
2_20251106_213439,1762436045353,2,0.39236754179000854,0.4356986880302429,0.5479440093040466,0.5966336727142334,0.4903401732444763,3.481632947921753,1.1968333721160889,1.1269025802612305,10.072763442993164,0.6401364207267761,-0.10643935203552246,-0.05588648468255997,0.08141299337148666,29.260847091674805,-29.414424896240234,10.022689819335938,0.19032669067382812,0.17012596130371094,0.44218710064888,0.9365758895874023,9.902637481689453,0.19794932007789612
2_20251106_213439,1762436045372,2,0.39242637157440186,0.4355621337890625,0.5470812320709229,0.5974858403205872,0.4919046461582184,3.481501340866089,1.1989741325378418,1.033532738685608,10.07396125793457,0.567116379737854,-0.08261562883853912,-0.010682497173547745,0.038652464747428894,29.25540542602539,-29.51461410522461,9.993545532226562,0.07756549119949341,0.13705921173095703,0.2953336536884308,0.9559672474861145,9.936902046203613,0.2717827260494232
2_20251106_213439,1762436045390,2,0.3923974633216858,0.4348524212837219,0.5466845631599426,0.5983841419219971,0.49295279383659363,3.4816408157348633,1.2010334730148315,0.8384135961532593,10.03924560546875,0.3648150563240051,-0.03680077940225601,0.021693333983421326,-0.021212276071310043,29.26547622680664,-29.551494598388672,9.993244171142578,-0.09404289722442627,0.08187484741210938,0.07442587614059448,0.9324564933776855,9.95737075805664,0.29038918018341064
2_20251106_213439,1762436045409,2,0.3923315405845642,0.43370354175567627,0.5468378067016602,0.5991206765174866,0.49337145686149597,3.4817590713500977,1.2026984691619873,0.7019500136375427,9.949468612670898,0.14455795288085938,-0.025194350630044937,0.07239510864019394,-0.060307614505290985,29.25127410888672,-29.589824676513672,9.978445053100586,-0.1844051480293274,-0.006321907043457031,-0.11666497588157654,0.8863551616668701,9.955790519714355,0.2612229287624359
2_20251106_213439,1762436045429,2,0.39233720302581787,0.43227335810661316,0.5471794605255127,0.5998382568359375,0.492858350276947,3.4817051887512207,1.2042016983032227,0.579850971698761,9.899190902709961,0.20800158381462097,-0.08811341226100922,0.09072104841470718,-0.010216711089015007,29.212095260620117,-29.642162322998047,9.948884963989258,-0.24520337581634521,-0.045279502868652344,-0.04257705807685852,0.8250543475151062,9.944470405578613,0.2505786418914795
2_20251106_213439,1762436045449,2,0.392463743686676,0.43138670921325684,0.5472673773765564,0.6003133654594421,0.492858350276947,3.4817051887512207,1.2042016983032227,0.579850971698761,9.899190902709961,0.20800158381462097,-0.07406352460384369,0.057734351605176926,0.04170679301023483,29.18792152404785,-29.643482208251953,9.92087173461914,-0.24520337581634521,-0.045279502868652344,-0.04257705807685852,0.8250543475151062,9.944470405578613,0.2505786418914795
2_20251106_213439,1762436045467,2,0.3924708068370819,0.4307825267314911,0.5471956729888916,0.600807785987854,0.4907122552394867,3.4815804958343506,1.2062865495681763,0.7115263938903809,10.032064437866211,0.19124290347099304,-0.06123536825180054,-0.0045738485641777515,0.07530435174703598,29.24532699584961,-29.70229721069336,9.922004699707031,-0.06193232536315918,0.0765542984008789,-0.03471890091896057,0.77345871925354,9.955510139465332,0.2259618043899536
2_20251106_213439,1762436045487,2,0.39247724413871765,0.43085578083992004,0.5468198657035828,0.6010931134223938,0.4895048439502716,3.482332944869995,1.207708716392517,0.7546201944351196,10.179300308227539,0.3803766965866089,-0.06123536825180054,-0.0045738485641777515,0.07530435174703598,29.258726119995117,-29.67666244506836,9.950056076049805,-0.015070796012878418,0.1790323257446289,0.12353190779685974,0.769690990447998,10.00026798248291,0.25684478878974915
2_20251106_213439,1762436045505,2,0.3924044966697693,0.43102574348449707,0.5464310050010681,0.6013723611831665,0.48859164118766785,3.483750104904175,1.2091315984725952,0.8180637955665588,10.314567565917969,0.3408740758895874,-0.052072398364543915,-0.005184714216738939,0.07774781435728073,29.195680618286133,-29.718303680419922,9.94681167602539,0.03869825601577759,0.25144004821777344,0.0672234296798706,0.7793655395507812,10.063127517700195,0.2736506462097168
2_20251106_213439,1762436045524,2,0.39201655983924866,0.430487722158432,0.5462722778320312,0.6021544337272644,0.4879692494869232,3.4858875274658203,1.2109366655349731,0.8862956166267395,10.32414436340332,0.4114999771118164,-0.07650698721408844,0.11332304030656815,0.025213442742824554,29.13496208190918,-29.710391998291016,10.012205123901367,0.08554404973983765,0.20881366729736328,0.11027947068214417,0.8007515668869019,10.115330696105957,0.30122050642967224
2_20251106_213439,1762436045544,2,0.3916807770729065,0.429557740688324,0.5462685227394104,0.6030398011207581,0.48739948868751526,3.4885940551757812,1.2134554386138916,0.8180637955665588,10.302597045898438,0.5359930992126465,-0.06673315167427063,0.10843612998723984,0.007498365361243486,29.088022232055664,-29.687915802001953,9.956705093383789,0.013849794864654541,0.1498126983642578,0.18781808018684387,0.8042140007019043,10.15278434753418,0.3481750190258026
2_20251106_213439,1762436045563,2,0.39129263162612915,0.42852941155433655,0.5463453531265259,0.6039531230926514,0.48739948868751526,3.4885940551757812,1.2134554386138916,0.8180637955665588,10.302597045898438,0.5359930992126465,-0.023361757397651672,0.07544943690299988,0.027656901627779007,29.04924964904785,-29.728107452392578,9.967958450317383,0.013849794864654541,0.1498126983642578,0.18781808018684387,0.8042140007019043,10.15278434753418,0.3481750190258026
2_20251106_213439,1762436045581,2,0.3908959627151489,0.42778217792510986,0.5464246869087219,0.6046675443649292,0.4868990480899811,3.4941506385803223,1.2187442779541016,0.934177577495575,10.255912780761719,0.48691409826278687,-0.005035814829170704,0.05345829948782921,0.03987419605255127,29.003732681274414,-29.668903350830078,10.007865905761719,0.0969666838645935,0.0568084716796875,0.08572855591773987,0.8372108936309814,10.199104309082031,0.401185542345047
2_20251106_213439,1762436045600,2,0.3904702365398407,0.42739152908325195,0.5464586019515991,0.6051879525184631,0.4872322678565979,3.497227668762207,1.2223280668258667,0.9796655178070068,10.245138168334961,0.6437275409698486,-0.029470402747392654,0.0693407878279686,0.01971565932035446,29.024580001831055,-29.730098724365234,10.007526397705078,0.11396366357803345,0.03682708740234375,0.19403359293937683,0.8657018542289734,10.208311080932617,0.4496939480304718
2_20251106_213439,1762436045620,2,0.39008042216300964,0.42682668566703796,0.5464463233947754,0.6058487296104431,0.4872322678565979,3.497227668762207,1.2223280668258667,0.9796655178070068,10.245138168334961,0.6437275409698486,-0.028859538957476616,0.10599266737699509,-0.03587302565574646,28.927698135375977,-29.72403335571289,10.017383575439453,0.11396366357803345,0.03682708740234375,0.19403359293937683,0.8657018542289734,10.208311080932617,0.4496939480304718
2_20251106_213439,1762436045639,2,0.3897761106491089,0.42563286423683167,0.5466790795326233,0.6066738963127136,0.4878980219364166,3.502199649810791,1.232162356376648,0.7378615140914917,10.057202339172363,0.8759551644325256,-0.028859538957476616,0.10599266737699509,-0.03587302565574646,28.888235092163086,-29.76516342163086,10.123250961303711,-0.11150461435317993,-0.11356449127197266,0.27625471353530884,0.8493661284446716,10.170766830444336,0.5997004508972168
2_20251106_213439,1762436045660,2,0.38923123478889465,0.4237062335014343,0.5474518537521362,0.6076747179031372,0.4870861768722534,3.503692865371704,1.2374439239501953,0.5702745914459229,9.942285537719727,0.5647222995758057,0.04016817733645439,0.20189841091632843,-0.06763799488544464,28.838897705078125,-29.769145965576172,10.202386856079102,-0.22327321767807007,-0.1827850341796875,-0.02798253297805786,0.7935478091239929,10.125070571899414,0.5927048325538635
2_20251106_213439,1762436045679,2,0.3883601129055023,0.4214359521865845,0.5487014651298523,0.6086829304695129,0.48577216267585754,3.5042524337768555,1.2412925958633423,0.5283778309822083,9.858491897583008,0.40910589694976807,0.032226935029029846,0.18601594865322113,0.005665771663188934,28.842927932739258,-29.694072723388672,10.231002807617188,-0.21213603019714355,-0.21326255798339844,-0.1468791365623474,0.7405138611793518,10.071754455566406,0.5559850335121155
2_20251106_213439,1762436045696,2,0.3873654901981354,0.419911652803421,0.5497927069664001,0.609385073184967,0.4844023585319519,3.5043442249298096,1.2446991205215454,0.6911765336990356,9.893206596374512,0.4545937776565552,0.023063965141773224,0.1359250396490097,0.10096067190170288,28.842927932739258,-29.694072723388672,10.231002807617188,-0.03946983814239502,-0.1428384780883789,-0.08111298084259033,0.7306463718414307,10.03604507446289,0.5357067584991455
2_20251106_213439,1762436045716,2,0.38616254925727844,0.4193062484264374,0.5503690242767334,0.6100448369979858,0.4844023585319519,3.5043442249298096,1.2446991205215454,0.6911765336990356,9.893206596374512,0.4545937776565552,0.05055287480354309,0.05040397495031357,0.16815577447414398,28.8546199798584,-29.693950653076172,10.299074172973633,-0.03946983814239502,-0.1428384780883789,-0.08111298084259033,0.7306463718414307,10.03604507446289,0.5357067584991455
2_20251106_213439,1762436045734,2,0.38486194610595703,0.41979944705963135,0.5503299236297607,0.6105626225471497,0.4838247299194336,3.504145622253418,1.2485322952270508,1.0060005187988281,9.953058242797852,0.5024757385253906,0.10797415673732758,-0.027786709368228912,0.18525998294353485,28.805084228515625,-29.69820785522461,10.405242919921875,0.22028326988220215,-0.06638908386230469,-0.02658480405807495,0.785717248916626,10.019447326660156,0.5290605425834656
2_20251106_213439,1762436045754,2,0.38340553641319275,0.421264111995697,0.5500076413154602,0.6107604503631592,0.484318345785141,3.503925085067749,1.2513482570648193,1.2035136222839355,9.985380172729492,0.5300078988075256,0.1324087530374527,-0.02534325048327446,0.15593847632408142,28.801671981811523,-29.749248504638672,10.485284805297852,0.33423709869384766,-0.027254104614257812,0.0007578730583190918,0.8692765235900879,10.01263427734375,0.5292500257492065
2_20251106_213439,1762436045772,2,0.3818947970867157,0.4227794110774994,0.5497801303863525,0.6108646988868713,0.4861622750759125,3.503671169281006,1.2547396421432495,1.2466075420379639,10.014108657836914,0.5551459193229675,0.13973911106586456,0.05284743383526802,0.11501055955886841,28.693321228027344,-29.719806671142578,10.589792251586914,0.3018648624420166,0.001178741455078125,0.020716726779937744,0.9447426795959473,10.012929916381836,0.5344291925430298
2_20251106_213439,1762436045792,2,0.38017621636390686,0.42360633611679077,0.5500092506408691,0.6111575365066528,0.48826703429222107,3.503247022628784,1.2568438053131104,1.2573809623718262,9.908768653869629,0.3049625754356384,0.08659389615058899,0.1151556447148323,0.0789695456624031,28.64106559753418,-29.774158477783203,10.681388854980469,0.2501106262207031,-0.0833292007446289,-0.18357330560684204,1.007270336151123,9.992097854614258,0.48853588104248047
2_20251106_213439,1762436045811,2,0.3785662353038788,0.423997700214386,0.5504173636436462,0.6115180253982544,0.4945521056652069,3.5020735263824463,1.2572205066680908,1.2968835830688477,10.000940322875977,-0.08886665850877762,0.032226935029029846,0.0998840257525444,0.056978411972522736,28.602096557617188,-29.814617156982422,10.719675064086914,0.1882253885269165,0.01696014404296875,-0.38007164001464844,1.1086581945419312,9.983980178833008,0.2912049889564514
2_20251106_213439,1762436045831,2,0.3774435222148895,0.42463019490242004,0.550667405128479,0.6115480065345764,0.4987925887107849,3.501910924911499,1.2561172246932983,1.2932924032211304,10.109872817993164,0.10266123712062836,0.01512272097170353,0.05040397495031357,0.03620900958776474,28.600502014160156,-29.828388214111328,10.841056823730469,0.14770734310150146,0.10071468353271484,-0.15083499252796173,1.145585060119629,10.00915813446045,0.2534962296485901
2_20251106_213439,1762436045849,2,0.3768009841442108,0.42546817660331726,0.5507351756095886,0.6113007664680481,0.4987925887107849,3.501910924911499,1.2561172246932983,1.2932924032211304,10.109872817993164,0.10266123712062836,0.036502987146377563,0.03268889710307121,-0.004718928597867489,28.545513153076172,-29.944446563720703,10.823204040527344,0.14770734310150146,0.10071468353271484,-0.15083499252796173,1.145585060119629,10.00915813446045,0.2534962296485901
2_20251106_213439,1762436045869,2,0.37634825706481934,0.4259156882762909,0.5509901642799377,0.6110382080078125,0.5028671622276306,3.5020809173583984,1.255257248878479,1.2238636016845703,10.113463401794434,0.2989773452281952,0.06460276246070862,0.05284743383526802,-0.04747945815324783,28.417421340942383,-30.053653717041016,10.897285461425781,0.0626227855682373,0.08344364166259766,0.036384910345077515,1.161240816116333,10.030019760131836,0.2625924348831177
2_20251106_213439,1762436045888,2,0.3760300576686859,0.42582032084465027,0.5515652298927307,0.6107816696166992,0.5063320398330688,3.5024468898773193,1.254236102104187,1.0838087797164917,10.107477188110352,0.17328715324401855,0.02795088291168213,0.09682970494031906,-0.06824886053800583,28.36677360534668,-30.082622528076172,10.962377548217773,-0.06194567680358887,0.0619659423828125,-0.07144422829151154,1.1457544565200806,10.045511245727539,0.2447313815355301
2_20251106_213439,1762436045906,2,0.37580084800720215,0.4251897931098938,0.5523796677589417,0.6106259226799011,0.5108423829078674,3.50299072265625,1.2517240047454834,0.8455959558486938,9.97819709777832,0.1649078130722046,-0.009922732599079609,0.12676206231117249,-0.06763799488544464,28.315532684326172,-30.11240005493164,11.108566284179688,-0.2083812952041626,-0.055530548095703125,-0.04514971375465393,1.0539772510528564,10.033727645874023,0.21005752682685852
2_20251106_213439,1762436045925,2,0.3756486773490906,0.4241693615913391,0.5532064437866211,0.6106808185577393,0.5118963122367859,3.5029406547546387,1.2510030269622803,0.7558172345161438,9.950664520263672,0.41987931728363037,-0.03680077940225601,0.12920551002025604,-0.05053378641605377,28.34011459350586,-30.098926544189453,11.177392959594727,-0.23852801322937012,-0.06645011901855469,0.16785743832588196,0.9943452477455139,10.017114639282227,0.2520218789577484
2_20251106_213439,1762436045945,2,0.3754698634147644,0.42291659116744995,0.5539236664772034,0.611009418964386,0.5118963122367859,3.5029406547546387,1.2510030269622803,0.7558172345161438,9.950664520263672,0.41987931728363037,-0.02152916230261326,0.12492948025465012,-0.013881901279091835,28.377885818481445,-30.071697235107422,11.206424713134766,-0.23852801322937012,-0.06645011901855469,0.16785743832588196,0.9943452477455139,10.017114639282227,0.2520218789577484
2_20251106_213439,1762436045963,2,0.37510913610458374,0.42153826355934143,0.5544901490211487,0.6116693019866943,0.512145459651947,3.5025012493133545,1.2523130178451538,0.8336254358291626,9.998546600341797,0.6078161001205444,0.02734001725912094,0.08827758580446243,0.0331546813249588,28.378393173217773,-30.05941390991211,11.233720779418945,-0.08907067775726318,-0.005946159362792969,0.23019814491271973,0.9226961135864258,10.00449275970459,0.3776179552078247
2_20251106_213439,1762436045983,2,0.37448713183403015,0.42058366537094116,0.5549269318580627,0.6123111248016357,0.5123834609985352,3.502288341522217,1.2536920309066772,1.0119857788085938,10.008123397827148,0.4905052185058594,0.02734001725912094,0.08827758580446243,0.0331546813249588,28.3063907623291,-30.039470672607422,11.271854400634766,0.07143175601959229,0.0029048919677734375,0.09030979871749878,0.9405540227890015,10.005218505859375,0.4001954197883606
2_20251106_213439,1762436046002,2,0.3737030625343323,0.420351505279541,0.5552560687065125,0.6126510500907898,0.512995719909668,3.502039909362793,1.255072832107544,1.1065527200698853,9.97819709777832,0.4821258783340454,0.07682006061077118,0.03635408729314804,0.06491965055465698,28.281946182250977,-30.017963409423828,11.474145889282227,0.1327989101409912,-0.021617889404296875,0.06554436683654785,0.973753809928894,9.999814987182617,0.41658151149749756
2_20251106_213439,1762436046021,2,0.372895210981369,0.42064905166625977,0.5554685592651367,0.6127464771270752,0.512995719909668,3.502039909362793,1.255072832107544,1.1065527200698853,9.97819709777832,0.4821258783340454,0.07743092626333237,0.031467169523239136,0.03987419605255127,28.3071346282959,-29.992069244384766,11.556753158569336,0.1327989101409912,-0.021617889404296875,0.06554436683654785,0.973753809928894,9.999814987182617,0.41658151149749756
2_20251106_213439,1762436046040,2,0.3720146119594574,0.42069360613822937,0.5557643175125122,0.6129829287528992,0.514234721660614,3.5015881061553955,1.2569259405136108,1.1173261404037476,9.955452919006348,0.4845200181007385,0.07193313539028168,0.08216894418001175,0.013607013039290905,28.246416091918945,-29.98415756225586,11.622146606445312,0.11485779285430908,-0.03549003601074219,0.05435079336166382,1.0024683475494385,9.99094295501709,0.4301692247390747
2_20251106_213439,1762436046059,2,0.3711049556732178,0.4203450381755829,0.5562529563903809,0.613330066204071,0.5167290568351746,3.4999499320983887,1.259247899055481,1.062261939048767,9.816595077514648,0.29658323526382446,0.0603267103433609,0.12126428633928299,-0.004108063876628876,28.25779914855957,-29.996051788330078,11.635889053344727,0.03041529655456543,-0.1200094223022461,-0.10100880265235901,1.0318466424942017,9.936604499816895,0.39759203791618347
2_20251106_213439,1762436046079,2,0.3701375126838684,0.4197429120540619,0.5569272041320801,0.6137151122093201,0.5180420875549316,3.498236894607544,1.2595117092132568,1.025153398513794,9.716043472290039,0.1469520628452301,0.06277017295360565,0.1371467560529709,-0.0016646049916744232,28.194570541381836,-30.026348114013672,11.754554748535156,-0.005354523658752441,-0.17644882202148438,-0.20051199197769165,1.0305079221725464,9.892492294311523,0.34746405482292175
2_20251106_213439,1762436046099,2,0.3691152036190033,0.4191473126411438,0.557735800743103,0.6140034198760986,0.5193437933921814,3.4960196018218994,1.258533000946045,1.0730352401733398,9.647810935974121,-0.09604895859956741,0.0707114189863205,0.0998840257525444,0.028878631070256233,28.132144927978516,-30.043956756591797,11.859968185424805,0.034021854400634766,-0.19574451446533203,-0.3548103868961334,1.039013385772705,9.843555450439453,0.2587614357471466
2_20251106_213439,1762436046117,2,0.3680686950683594,0.41906076669692993,0.5584642291069031,0.6140286922454834,0.5208024978637695,3.4936423301696777,1.256760835647583,1.1556316614151,9.68851089477539,-0.10323125123977661,0.058494120836257935,0.03757581487298012,0.07102829962968826,28.132144927978516,-30.043956756591797,11.859968185424805,0.09329462051391602,-0.12403583526611328,-0.2895941734313965,1.062337040901184,9.812546730041504,0.18636290729045868
2_20251106_213439,1762436046136,2,0.3672236502170563,0.4199462831020355,0.5587519407272339,0.6136677861213684,0.5228857398033142,3.490980625152588,1.2544716596603394,1.2885042428970337,9.711255073547363,-0.0002850070595741272,0.03344866260886192,0.02719111368060112,0.07774781435728073,28.070226669311523,-30.049274444580078,11.992677688598633,0.18093371391296387,-0.08103370666503906,-0.14931833744049072,1.1075705289840698,9.792288780212402,0.1490333378314972
2_20251106_213439,1762436046155,2,0.36643049120903015,0.42088741064071655,0.55878084897995,0.6134708523750305,0.5253185629844666,3.488311767578125,1.252176284790039,1.2729425430297852,9.741180419921875,0.10505533963441849,0.03344866260886192,0.02719111368060112,0.07774781435728073,28.106897354125977,-30.035144805908203,12.075510025024414,0.13229763507843018,-0.040886878967285156,-0.035182394087314606,1.140644907951355,9.78206729888916,0.1402377337217331
2_20251106_213439,1762436046174,2,0.36562401056289673,0.421193391084671,0.5587726831436157,0.6137493848800659,0.5278915166854858,3.485383987426758,1.2497084140777588,1.1867549419403076,9.696889877319336,0.0835084468126297,-0.028248675167560577,0.14569887518882751,0.004444041755050421,28.07286262512207,-29.98770523071289,12.115642547607422,0.0368880033493042,-0.06814193725585938,-0.04538342356681824,1.1498669385910034,9.765031814575195,0.12889187037944794
2_20251106_213439,1762436046193,2,0.3647608160972595,0.4206298589706421,0.5589812397956848,0.6144591569900513,0.5301703214645386,3.482574224472046,1.2471266984939575,1.1340848207473755,9.704071998596191,-0.0002850070595741272,-0.028248675167560577,0.14569887518882751,0.004444041755050421,28.000463485717773,-29.968303680419922,12.207841873168945,-0.012625694274902344,-0.048768043518066406,-0.1033414974808693,1.1467105150222778,9.752840042114258,0.10305649042129517
2_20251106_213439,1762436046213,2,0.364008367061615,0.420028954744339,0.559097170829773,0.6152104735374451,0.5301703214645386,3.482574224472046,1.2471266984939575,1.1340848207473755,9.704071998596191,-0.0002850070595741272,-0.05940277501940727,0.09621883183717728,0.057589270174503326,27.999561309814453,-29.981128692626953,12.234609603881836,-0.012625694274902344,-0.048768043518066406,-0.1033414974808693,1.1467105150222778,9.752840042114258,0.10305649042129517
2_20251106_213439,1762436046231,2,0.3633684813976288,0.41992253065109253,0.5589220523834229,0.6158202290534973,0.534627377986908,3.4775044918060303,1.2423545122146606,1.2645632028579712,9.810609817504883,0.18765173852443695,-0.05146153271198273,0.061399538069963455,0.10768017917871475,27.96360969543457,-29.971088409423828,12.246919631958008,0.09457862377166748,0.04501628875732422,0.07137846946716309,1.1699845790863037,9.765593528747559,0.11627326905727386
2_20251106_213439,1762436046251,2,0.3626544177532196,0.42024940252304077,0.5584080815315247,0.6164841055870056,0.537738561630249,3.4756693840026855,1.2404401302337646,1.4991849660873413,9.92193603515625,0.17807534337043762,-0.03496818616986275,0.01680641621351242,0.1412777304649353,27.949716567993164,-29.99740219116211,12.286449432373047,0.2633603811264038,0.1250743865966797,0.04944166541099548,1.2358245849609375,9.79686164855957,0.12863367795944214
2_20251106_213439,1762436046271,2,0.36183637380599976,0.4210330843925476,0.5575757026672363,0.6171830296516418,0.537738561630249,3.4756693840026855,1.2404401302337646,1.4991849660873413,9.92193603515625,0.17807534337043762,-0.03496818616986275,0.01680641621351242,0.1412777304649353,27.8622989654541,-30.040630340576172,12.282224655151367,0.2633603811264038,0.1250743865966797,0.04944166541099548,1.2358245849609375,9.79686164855957,0.12863367795944214
2_20251106_213439,1762436046289,2,0.36099541187286377,0.42234060168266296,0.5565543174743652,0.6177037954330444,0.5427944660186768,3.474282741546631,1.2387011051177979,1.6799393892288208,9.968620300292969,0.228351429104805,-0.000759761780500412,-0.05161043256521225,0.09790634363889694,27.798648834228516,-30.09469223022461,12.265199661254883,0.35529184341430664,0.1374063491821289,0.07977420091629028,1.3246475458145142,9.83121395111084,0.1485772281885147
2_20251106_213439,1762436046308,2,0.36039525270462036,0.42374664545059204,0.5555475950241089,0.6179975271224976,0.5533907413482666,3.473898410797119,1.2362785339355469,1.6751511096954346,10.09191608428955,0.07393205165863037,-0.0141987856477499,-0.03572794795036316,0.021548254415392876,27.672658920288086,-30.177837371826172,12.245195388793945,0.20612716674804688,0.16895580291748047,-0.07286307215690613,1.4690239429473877,9.92296028137207,0.1467951238155365
2_20251106_213439,1762436046327,2,0.3601536750793457,0.42469096183776855,0.5547616481781006,0.6181960701942444,0.5588525533676147,3.4743058681488037,1.2348181009292603,1.457288146018982,10.042837142944336,0.0870995968580246,-0.0141987856477499,-0.03572794795036316,0.021548254415392876,27.59269142150879,-30.307903289794922,12.212579727172852,-0.00938868522644043,0.0959014892578125,-0.04775641858577728,1.4666768312454224,9.946935653686523,0.13485601544380188
2_20251106_213439,1762436046346,2,0.3602626621723175,0.4251735210418701,0.5542035102844238,0.618301510810852,0.5588525533676147,3.4743058681488037,1.2348181009292603,1.457288146018982,10.042837142944336,0.0870995968580246,-0.07711784541606903,0.02352592721581459,-0.013271035626530647,27.54969024658203,-30.42343521118164,12.222249984741211,-0.00938868522644043,0.0959014892578125,-0.04775641858577728,1.4666768312454224,9.946935653686523,0.13485601544380188
2_20251106_213439,1762436046365,2,0.36041101813316345,0.42513760924339294,0.553806722164154,0.6185951828956604,0.5679413080215454,3.476215362548828,1.231631875038147,1.3232187032699585,10.124237060546875,0.0835084468126297,-0.08444822579622269,0.0027565271593630314,0.01971565932035446,27.48634910583496,-30.46548080444336,12.259553909301758,-0.09315407276153564,0.11960124969482422,-0.030564114451408386,1.4163727760314941,10.00463581085205,0.11407256126403809
2_20251106_213439,1762436046384,2,0.36057889461517334,0.4252183437347412,0.5533236265182495,0.6188741326332092,0.5718127489089966,3.4779438972473145,1.2305163145065308,1.3543418645858765,10.241546630859375,0.26186880469322205,-0.08444822579622269,0.0027565271593630314,0.01971565932035446,27.43358612060547,-30.532115936279297,12.323854446411133,-0.04962480068206787,0.1895284652709961,0.11823698878288269,1.4039666652679443,10.052018165588379,0.14363181591033936
2_20251106_213439,1762436046403,2,0.36104631423950195,0.4260783791542053,0.5523780584335327,0.6188547611236572,0.5718127489089966,3.4779438972473145,1.2305163145065308,1.3543418645858765,10.241546630859375,0.26186880469322205,-0.05451585724949837,-0.1627878099679947,0.07469348609447479,27.41776466369629,-30.60744857788086,12.240682601928711,-0.04962480068206787,0.1895284652709961,0.11823698878288269,1.4039666652679443,10.052018165588379,0.14363181591033936
2_20251106_213439,1762436046422,2,0.3616177439689636,0.42723211646080017,0.5512308478355408,0.618748664855957,0.5758076906204224,3.4804623126983643,1.2310411930084229,1.3830710649490356,10.261898040771484,0.6497128009796143,-0.04962893947958946,-0.10903171449899673,0.04170679301023483,27.440319061279297,-30.643123626708984,12.200323104858398,-0.016716480255126953,0.16790390014648438,0.4048647880554199,1.3997875452041626,10.093994140625,0.24484801292419434
2_20251106_213439,1762436046442,2,0.36205294728279114,0.42744019627571106,0.5502231121063232,0.6192471981048584,0.5819900631904602,3.4858691692352295,1.236040472984314,1.353144884109497,10.263093948364258,0.8951079249382019,-0.05512671917676926,-0.014958549290895462,-0.011438442394137383,27.465593338012695,-30.628704071044922,12.174535751342773,-0.03559708595275879,0.09845542907714844,0.424976646900177,1.3887419700622559,10.16463851928711,0.4701312780380249
2_20251106_213439,1762436046460,2,0.3623250424861908,0.4265824556350708,0.5496392250061035,0.6201972961425781,0.5846100449562073,3.488818407058716,1.2402492761611938,1.2633662223815918,10.220001220703125,0.8687728643417358,-0.038633376359939575,0.029634574428200722,-0.04442513734102249,27.4518985748291,-30.65475082397461,12.187032699584961,-0.10030066967010498,0.04429054260253906,0.3189132809638977,1.3636668920516968,10.175710678100586,0.5498595833778381
2_20251106_213439,1762436046480,2,0.3624720573425293,0.4252563416957855,0.5494626760482788,0.6211777925491333,0.5868304967880249,3.491370916366577,1.245092749595642,1.2322429418563843,10.045230865478516,0.7586442828178406,0.025507420301437378,0.01741728000342846,-0.04870118945837021,27.477272033691406,-30.640201568603516,12.147729873657227,-0.10513913631439209,-0.10438346862792969,0.1670277714729309,1.3373820781707764,10.149614334106445,0.5916165113449097
2_20251106_213439,1762436046500,2,0.3624391257762909,0.4241097867488861,0.5497702956199646,0.6217084527015686,0.5883850455284119,3.49298095703125,1.2490715980529785,1.173587441444397,9.896798133850098,0.44860851764678955,0.025507420301437378,0.01741728000342846,-0.04870118945837021,27.54081153869629,-30.597881317138672,12.083393096923828,-0.1310356855392456,-0.2022533416748047,-0.11440640687942505,1.3046231269836426,10.099051475524902,0.5630149245262146
2_20251106_213439,1762436046520,2,0.3624938130378723,0.42367857694625854,0.5502731204032898,0.6215257048606873,0.5883850455284119,3.49298095703125,1.2490715980529785,1.173587441444397,9.896798133850098,0.44860851764678955,0.08781562745571136,-0.03267362713813782,-0.04870118945837021,27.54081153869629,-30.597881317138672,12.083393096923828,-0.1310356855392456,-0.2022533416748047,-0.11440640687942505,1.3046231269836426,10.099051475524902,0.5630149245262146
2_20251106_213439,1762436046538,2,0.36281365156173706,0.42400670051574707,0.5508533120155334,0.620600700378418,0.5890472531318665,3.4932901859283447,1.2531110048294067,0.9425569176673889,9.701679229736328,0.08231140673160553,0.07437659800052643,-0.10719911754131317,-0.03587302565574646,27.552799224853516,-30.597354888916016,12.110916137695312,-0.24781066179275513,-0.2654266357421875,-0.3179927468299866,1.190367579460144,9.967105865478516,0.4003041684627533
2_20251106_213439,1762436046556,2,0.3633703887462616,0.4246315658092499,0.551378607749939,0.6193800568580627,0.5890472531318665,3.4932901859283447,1.2531110048294067,0.9425569176673889,9.701679229736328,0.08231140673160553,0.03100520372390747,-0.05099956691265106,-0.02182314172387123,27.56859588623047,-30.54525375366211,12.004331588745117,-0.24781066179275513,-0.2654266357421875,-0.3179927468299866,1.190367579460144,9.967105865478516,0.4003041684627533
2_20251106_213439,1762436046575,2,0.3638838529586792,0.4249034821987152,0.5518154501914978,0.6185024380683899,0.5867704749107361,3.4905567169189453,1.2530187368392944,0.9641038179397583,9.693299293518066,-0.054152220487594604,-0.000759761780500412,0.02047160267829895,-0.017547087743878365,27.583192825317383,-30.50638198852539,11.965065002441406,-0.13465774059295654,-0.17332077026367188,-0.31326085329055786,1.0987615585327148,9.866620063781738,0.25910863280296326
2_20251106_213439,1762436046596,2,0.36413896083831787,0.4246154725551605,0.5523172616958618,0.6181020736694336,0.5850165486335754,3.488422155380249,1.2516005039215088,0.9234040975570679,9.652599334716797,-0.0541522353887558,-0.02458348497748375,0.035132355988025665,-0.03587302565574646,27.569610595703125,-30.520679473876953,12.058923721313477,-0.14028596878051758,-0.1712169647216797,-0.2506086826324463,1.0636900663375854,9.823816299438477,0.19645646214485168
2_20251106_213439,1762436046614,2,0.36439383029937744,0.4242645502090454,0.5528567433357239,0.6177104115486145,0.5825123190879822,3.485825300216675,1.2496751546859741,0.8168667554855347,9.671751976013184,0.02964121848344803,-0.05695931613445282,0.06567559391260147,-0.03831648826599121,27.545337677001953,-30.522136688232422,12.044425964355469,-0.19745862483978271,-0.12165164947509766,-0.13345220685005188,1.0143253803253174,9.793403625488281,0.1630934178829193
2_20251106_213439,1762436046632,2,0.36472105979919434,0.42364776134490967,0.5532901883125305,0.6175525188446045,0.5796845555305481,3.4832730293273926,1.248024582862854,0.7354674339294434,9.658584594726562,0.1613166630268097,-0.07528525590896606,0.060788676142692566,-0.0034971991553902626,27.596790313720703,-30.480480194091797,11.966081619262695,-0.22308635711669922,-0.10785484313964844,-0.0014213919639587402,0.9585537910461426,9.766439437866211,0.16273805499076843
2_20251106_213439,1762436046652,2,0.3650089204311371,0.4229568541049957,0.5535090565681458,0.6176599264144897,0.5763235092163086,3.48040771484375,1.2467546463012695,0.8348224759101868,9.710058212280273,0.31813013553619385,-0.07467439770698547,0.038186680525541306,0.06247618794441223,27.60605812072754,-30.530048370361328,11.979032516479492,-0.09898501634597778,-0.04510498046875,0.12431366741657257,0.9338074922561646,9.755163192749023,0.19381646811962128
2_20251106_213439,1762436046671,2,0.36506521701812744,0.4224814772605896,0.5534016489982605,0.6180480122566223,0.5733831524848938,3.4779441356658936,1.2461105585098267,0.9676949977874756,9.799836158752441,0.376785546541214,-0.07467439770698547,0.038186680525541306,0.06247618794441223,27.581981658935547,-30.531230926513672,11.937501907348633,0.027109980583190918,0.03573894500732422,0.14637526869773865,0.9405850172042847,9.764097213745117,0.23041027784347534
2_20251106_213439,1762436046690,2,0.3648263216018677,0.4223376512527466,0.5530256628990173,0.6186237335205078,0.5733831524848938,3.4779441356658936,1.2461105585098267,0.9676949977874756,9.799836158752441,0.376785546541214,-0.05390499159693718,0.007643444929271936,0.10401499271392822,27.64391326904297,-30.514301300048828,11.899669647216797,0.027109980583190918,0.03573894500732422,0.14637526869773865,0.9405850172042847,9.764097213745117,0.23041027784347534
2_20251106_213439,1762436046709,2,0.3643827736377716,0.4222765266895294,0.5525571703910828,0.6193450689315796,0.569024920463562,3.4738268852233887,1.2460602521896362,1.102961540222168,9.78786563873291,0.37439143657684326,-0.05940277501940727,0.07728202641010284,0.0899651050567627,27.65529441833496,-30.526203155517578,11.913412094116211,0.10813450813293457,0.007167816162109375,0.09099876880645752,0.9948270320892334,9.7806978225708,0.28339266777038574
2_20251106_213439,1762436046729,2,0.3637363910675049,0.4218348562717438,0.5522364974021912,0.6203112602233887,0.567234456539154,3.4713947772979736,1.2464485168457031,1.040714979171753,9.6346435546875,0.36720913648605347,-0.05940277501940727,0.07728202641010284,0.0899651050567627,27.617525100708008,-30.55343246459961,11.884380340576172,0.036710381507873535,-0.11684322357177734,0.0670531690120697,1.0040045976638794,9.751486778259277,0.30015596747398376
2_20251106_213439,1762436046747,2,0.36295557022094727,0.4207778871059418,0.5522101521492004,0.621508777141571,0.5656260251998901,3.4688243865966797,1.246565341949463,0.9724831581115723,9.552047729492188,0.21278977394104004,-0.07406352460384369,0.15791617333889008,0.054534949362277985,27.57158660888672,-30.517993927001953,11.788597106933594,-0.025217175483703613,-0.15955162048339844,-0.06989294290542603,0.9977003335952759,9.711599349975586,0.28268271684646606
2_20251106_213439,1762436046767,2,0.3618490397930145,0.4189240336418152,0.552440881729126,0.6231989860534668,0.5642627477645874,3.4658989906311035,1.2457956075668335,1.1077497005462646,9.641826629638672,-0.011058446019887924,-0.15469767153263092,0.31857359409332275,0.07225003093481064,27.545705795288086,-30.54483413696289,11.800603866577148,0.08803951740264893,-0.05581855773925781,-0.23499293625354767,1.0197101831436157,9.69764518737793,0.22393448650836945
2_20251106_213439,1762436046785,2,0.3605461120605469,0.4168816804885864,0.5526135563850403,0.6251674890518188,0.5640154480934143,3.463991403579712,1.2446414232254028,1.3926475048065186,9.93869400024414,0.022458933293819427,-0.19867993891239166,0.16463567316532135,0.10645844787359238,27.468162536621094,-30.62520980834961,11.823110580444336,0.29834985733032227,0.1928386688232422,-0.16118043661117554,1.0942976474761963,9.745855331420898,0.18363937735557556
2_20251106_213439,1762436046805,2,0.35999858379364014,0.41629382967948914,0.5518674850463867,0.6265323162078857,0.5640154480934143,3.463991403579712,1.2446414232254028,1.3926475048065186,9.93869400024414,0.022458933293819427,-0.19867993891239166,0.16463567316532135,0.10645844787359238,27.44318389892578,-30.639217376708984,11.808349609375,0.29834985733032227,0.1928386688232422,-0.16118043661117554,1.0942976474761963,9.745855331420898,0.18363937735557556
2_20251106_213439,1762436046824,2,0.3600909113883972,0.4174177348613739,0.5502299070358276,0.6271713972091675,0.5672909617424011,3.463545322418213,1.2460473775863647,1.6260721683502197,10.358859062194824,0.7969498634338379,-0.10155244171619415,-0.10719911754131317,0.1315038949251175,27.365938186645508,-30.719188690185547,11.790306091308594,0.3548917770385742,0.4365653991699219,0.4271852970123291,1.2711803913116455,9.922293663024902,0.3697645664215088
2_20251106_213439,1762436046843,2,0.36011043190956116,0.41853347420692444,0.5484839677810669,0.6279454827308655,0.5705363750457764,3.4653868675231934,1.2486741542816162,1.6966979503631592,10.395967483520508,0.8316643238067627,-0.10155244171619415,-0.10719911754131317,0.1315038949251175,27.265222549438477,-30.787921905517578,11.744514465332031,0.34041404724121094,0.3789386749267578,0.36951982975006104,1.3562839031219482,10.01702880859375,0.46214449405670166
2_20251106_213439,1762436046862,2,0.36005231738090515,0.41908127069473267,0.5471819043159485,0.628748893737793,0.5705363750457764,3.4653868675231934,1.2486741542816162,1.6966979503631592,10.395967483520508,0.8316643238067627,-0.05451585352420807,-0.021067196503281593,0.03193295747041702,27.174379348754883,-30.893802642822266,11.725454330444336,0.34041404724121094,0.3789386749267578,0.36951982975006104,1.3562839031219482,10.01702880859375,0.46214449405670166
2_20251106_213439,1762436046881,2,0.3599195182323456,0.41912132501602173,0.5462556481361389,0.6296030879020691,0.5789304375648499,3.4719889163970947,1.2559808492660522,1.6655746698379517,10.508489608764648,0.7969498634338379,-0.0734526664018631,0.02413679100573063,-0.015103628858923912,27.097442626953125,-30.96175765991211,11.761739730834961,0.19047653675079346,0.3244943618774414,0.2114025354385376,1.4750981330871582,10.183995246887207,0.5855473279953003
2_20251106_213439,1762436046900,2,0.35992661118507385,0.4186525344848633,0.545571506023407,0.6305034756660461,0.5839412808418274,3.4767963886260986,1.2611485719680786,1.6416337490081787,10.503701210021973,0.9705219864845276,-0.07223093509674072,0.022915061563253403,-0.04259254038333893,27.067642211914062,-31.051921844482422,11.826492309570312,0.13322854042053223,0.2557640075683594,0.3079797029495239,1.5084052085876465,10.247937202453613,0.6625422835350037
2_20251106_213439,1762436046919,2,0.3601190149784088,0.4180205762386322,0.5450925230979919,0.6312267780303955,0.5887305736541748,3.481492042541504,1.2671008110046387,1.6057223081588745,10.378010749816895,1.1321237087249756,0.004127155058085918,-0.02167806401848793,-0.06214021146297455,27.041353225708008,-31.09090805053711,11.797687530517578,0.07785367965698242,0.10405826568603516,0.37566518783569336,1.527868628501892,10.27395248413086,0.7564585208892822
2_20251106_213439,1762436046940,2,0.3602813482284546,0.41751402616500854,0.5449771285057068,0.6315689086914062,0.5936751961708069,3.4863498210906982,1.2739557027816772,1.502776026725769,10.252321243286133,0.9370046257972717,0.08659389615058899,-0.024732384830713272,-0.07741182297468185,27.06290626525879,-31.139545440673828,11.797613143920898,-0.020074129104614258,-0.017305374145507812,0.14443689584732056,1.5228501558303833,10.26962661743164,0.7925677299499512
2_20251106_213439,1762436046958,2,0.3604758381843567,0.4174659550189972,0.545669436454773,0.6308916211128235,0.597395658493042,3.489971160888672,1.2792595624923706,1.3986326456069946,10.133813858032227,0.6796390414237976,0.08964821696281433,0.02658025175333023,-0.09268344193696976,27.03943634033203,-31.128307342529297,11.76986312866211,-0.09937405586242676,-0.10865020751953125,-0.0903429388999939,1.4980067014694214,10.242464065551758,0.7699819803237915
