session_id,timestamp,label,quaternion_w,quaternion_x,quaternion_y,quaternion_z,position_x,position_y,position_z,accelerometer_x,accelerometer_y,accelerometer_z,gyroscope_x,gyroscope_y,gyroscope_z,magnetometer_x,magnetometer_y,magnetometer_z,linear_acceleration_x,linear_acceleration_y,linear_acceleration_z,gravity_x,gravity_y,gravity_z
5_20251106_145508,1762412070719,5,0.16232247650623322,0.4222443401813507,0.7041645646095276,0.5472781658172607,1.5856525897979736,1.9119936227798462,-2.088435173034668,2.1479856967926025,8.973872184753418,-3.516018867492676,0.006811141036450863,0.03993528336286545,-0.08675806224346161,20.57263946533203,-21.689735412597656,30.615476608276367,-0.13646817207336426,-0.08589363098144531,-0.06011819839477539,2.284453868865967,9.059765815734863,-3.4559006690979004
5_20251106_145508,1762412070739,5,0.16247481107711792,0.4211565852165222,0.7046195268630981,0.5474855303764343,1.5845131874084473,1.9124119281768799,-2.087212562561035,2.1348180770874023,8.953522682189941,-3.4286341667175293,-0.009682206436991692,0.05031998082995415,-0.08309287577867508,20.588546752929688,-21.625892639160156,30.590253829956055,-0.11970877647399902,-0.08499431610107422,0.021813392639160156,2.2545268535614014,9.038516998291016,-3.4504475593566895
5_20251106_145508,1762412070757,5,0.16280390322208405,0.4203073978424072,0.7049257755279541,0.5476461052894592,1.5832972526550293,1.9125779867172241,-2.0857982635498047,2.156364917755127,8.960704803466797,-3.3005502223968506,-0.021899500861763954,0.020998474210500717,-0.03727802261710167,20.55117416381836,-21.65258026123047,30.507158279418945,-0.07852959632873535,-0.062249183654785156,0.1199178695678711,2.2348945140838623,9.022953987121582,-3.4204680919647217
5_20251106_145508,1762412070777,5,0.16310982406139374,0.4197736382484436,0.7050953507423401,0.5477461814880371,1.5816841125488281,1.9125131368637085,-2.084122657775879,2.126438856124878,8.943946838378906,-3.3604023456573486,-0.006017018109560013,0.03993528336286545,-0.04705185443162918,20.540889739990234,-21.627586364746094,30.43961524963379,-0.08676457405090332,-0.06320571899414062,0.04805278778076172,2.2132034301757812,9.007152557373047,-3.4084551334381104
5_20251106_145508,1762412070798,5,0.1633024662733078,0.41914987564086914,0.7052854895591736,0.5479215979576111,1.5796879529953003,1.9120720624923706,-2.082571029663086,2.0977096557617188,8.894866943359375,-3.4441959857940674,-0.0035735592246055603,0.06436987221240997,-0.058658283203840256,20.540889739990234,-21.627586364746094,30.43961524963379,-0.09239506721496582,-0.0898284912109375,-0.028592586517333984,2.1901047229766846,8.984695434570312,-3.4156033992767334
5_20251106_145508,1762412070815,5,0.1633693277835846,0.418361097574234,0.705578088760376,0.5481277704238892,1.578109860420227,1.9116852283477783,-2.0817155838012695,2.121650457382202,8.949932098388672,-3.5531275272369385,-0.028008148074150085,0.08513927459716797,-0.0513279102742672,20.56857681274414,-21.575096130371094,30.37407112121582,-0.0547633171081543,-0.027811050415039062,-0.11001944541931152,2.1764137744903564,8.977743148803711,-3.443108081817627
5_20251106_145508,1762412070835,5,0.16335123777389526,0.41748589277267456,0.7059351801872253,0.5483406186103821,1.5761953592300415,1.911386489868164,-2.080744743347168,2.1922764778137207,9.032527923583984,-3.4717278480529785,-0.028008148074150085,0.08513927459716797,-0.0513279102742672,20.556686401367188,-21.57549285888672,30.333032608032227,0.012690067291259766,0.04382801055908203,-0.02289581298828125,2.179586410522461,8.988699913024902,-3.4488320350646973
5_20251106_145508,1762412070855,5,0.16327552497386932,0.4166818857192993,0.7061610817909241,0.5486837029457092,1.574647307395935,1.9113876819610596,-2.07966685295105,2.2401585578918457,9.07801628112793,-3.3831465244293213,-0.04572322592139244,0.08208494633436203,-0.008567378856241703,20.543994903564453,-21.58856964111328,30.305246353149414,0.04845762252807617,0.07145309448242188,0.05254840850830078,2.1917009353637695,9.006563186645508,-3.435694932937622
5_20251106_145508,1762412070873,5,0.1631515920162201,0.4161715805530548,0.7061796188354492,0.5490838885307312,1.57365882396698,1.9114272594451904,-2.0785415172576904,2.310784339904785,9.024147987365723,-3.319702625274658,-0.04572322592139244,0.08208494633436203,-0.008567378856241703,20.568675994873047,-21.57495880126953,30.36055564880371,0.09526681900024414,0.014067649841308594,0.09279370307922363,2.215517520904541,9.010080337524414,-3.412496328353882
5_20251106_145508,1762412070893,5,0.16279557347297668,0.41564857959747314,0.706168532371521,0.5495997071266174,1.57365882396698,1.9114272594451904,-2.0785415172576904,2.310784339904785,9.024147987365723,-3.319702625274658,-0.012736530043184757,0.06986765563488007,0.01159115694463253,20.484783172607422,-21.55541229248047,30.357648849487305,0.09526681900024414,0.014067649841308594,0.09279370307922363,2.215517520904541,9.010080337524414,-3.412496328353882
5_20251106_145508,1762412070911,5,0.16228647530078888,0.41524943709373474,0.7061581611633301,0.5500651597976685,1.572826623916626,1.9119054079055786,-2.076113700866699,2.3969717025756836,9.131882667541504,-3.3795552253723145,-0.030451606959104538,0.05337430536746979,0.014034615829586983,20.47008514404297,-21.59441375732422,30.410432815551758,0.12130188941955566,0.09308338165283203,0.02567887306213379,2.275669813156128,9.038799285888672,-3.4052340984344482
5_20251106_145508,1762412070930,5,0.16179431974887848,0.4150394797325134,0.7060070633888245,0.55056232213974,1.5731236934661865,1.9126800298690796,-2.074498176574707,2.452036142349243,9.185750007629395,-3.2395005226135254,-0.02678642049431801,0.05887208878993988,0.001206456683576107,20.43244171142578,-21.59827423095703,30.557641983032227,0.14109301567077637,0.11756038665771484,0.13258695602416992,2.310943126678467,9.06818962097168,-3.3720874786376953
5_20251106_145508,1762412070950,5,0.16148875653743744,0.41497543454170227,0.705790102481842,0.5509783029556274,1.574044942855835,1.913658618927002,-2.072826862335205,2.4927358627319336,9.117517471313477,-3.3795552253723145,-0.002351829782128334,0.0680350661277771,-0.02689332142472267,20.35873031616211,-21.603843688964844,30.63579750061035,0.14543414115905762,0.03946208953857422,-0.005974292755126953,2.347301721572876,9.078055381774902,-3.3735809326171875
5_20251106_145508,1762412070968,5,0.16094623506069183,0.41451168060302734,0.7057362198829651,0.5515549182891846,1.574044942855835,1.913658618927002,-2.072826862335205,2.4927358627319336,9.117517471313477,-3.3795552253723145,0.00620027631521225,0.050930846482515335,-0.04033234342932701,20.320369720458984,-21.631874084472656,30.687864303588867,0.14543414115905762,0.03946208953857422,-0.005974292755126953,2.347301721572876,9.078055381774902,-3.3735809326171875
5_20251106_145508,1762412070987,5,0.16059088706970215,0.4140026867389679,0.7058326601982117,0.5519172549247742,1.5756129026412964,1.9154236316680908,-2.070824146270752,2.2916316986083984,9.164203643798828,-3.4896836280822754,-0.015790853649377823,0.04543306678533554,-0.035445425659418106,20.282711029052734,-21.64734649658203,30.74019432067871,-0.05133390426635742,0.07045745849609375,-0.07794475555419922,2.342965602874756,9.093746185302734,-3.411738872528076
5_20251106_145508,1762412071007,5,0.16035297513008118,0.4137910306453705,0.705929696559906,0.5520209670066833,1.5763204097747803,1.9163241386413574,-2.069949150085449,2.346695899963379,9.060060501098633,-3.4094815254211426,-0.04327976703643799,0.053985171020030975,-0.010399972088634968,20.21160888671875,-21.61457061767578,30.751558303833008,0.002984285354614258,-0.026948928833007812,0.0018057823181152344,2.3437116146087646,9.08700942993164,-3.411287307739258
5_20251106_145508,1762412071026,5,0.1602766364812851,0.41346439719200134,0.7059412002563477,0.552273154258728,1.5772758722305298,1.9170070886611938,-2.068950891494751,2.4592185020446777,9.039709091186523,-3.3352644443511963,-0.037781983613967896,0.027717988938093185,0.02747363969683647,20.136886596679688,-21.64472198486328,30.775121688842773,0.09240555763244629,-0.03783988952636719,0.06081843376159668,2.3668129444122314,9.07754898071289,-3.396082878112793
5_20251106_145508,1762412071045,5,0.1601373255252838,0.41328316926956177,0.7057945728302002,0.552636444568634,1.5786702632904053,1.9176703691482544,-2.0674514770507812,2.5442090034484863,9.082803726196289,-3.195209503173828,-0.037781983613967896,0.027717988938093185,0.02747363969683647,20.159847259521484,-21.668251037597656,30.775575637817383,0.14191675186157227,0.00420379638671875,0.16069865226745605,2.402292251586914,9.07859992980957,-3.355908155441284
5_20251106_145508,1762412071065,5,0.15987394750118256,0.413642942905426,0.7054113745689392,0.5529327988624573,1.5807586908340454,1.9184006452560425,-2.0656418800354004,2.6806726455688477,9.115123748779297,-3.215559482574463,-0.01640171930193901,-0.011988219805061817,0.045799579471349716,20.138591766357422,-21.61920928955078,30.7351016998291,0.22270441055297852,0.029219627380371094,0.11227893829345703,2.457968235015869,9.085904121398926,-3.32783842086792
5_20251106_145508,1762412071083,5,0.1595303863286972,0.4141422510147095,0.7049296498298645,0.5532724857330322,1.5837411880493164,1.9191548824310303,-2.0639235973358154,2.8219244480133057,9.107942581176758,-3.3280820846557617,-0.03594939038157463,0.05154171213507652,0.018921533599495888,20.11461639404297,-21.620262145996094,30.680055618286133,0.2911648750305176,0.017630577087402344,-0.00019502639770507812,2.530759572982788,9.090312004089355,-3.3278870582580566
5_20251106_145508,1762412071101,5,0.15894149243831635,0.41420114040374756,0.7043882012367249,0.5540869235992432,1.587345838546753,1.92003333568573,-2.062586784362793,2.9045209884643555,9.171385765075684,-3.4130725860595703,-0.03594939038157463,0.05154171213507652,0.018921533599495888,20.10232925415039,-21.621192932128906,30.693082809448242,0.2990090847015381,0.06485939025878906,-0.06814837455749512,2.6055119037628174,9.106526374816895,-3.344924211502075
5_20251106_145508,1762412071121,5,0.1583387404680252,0.4144749939441681,0.7037712931632996,0.5548380613327026,1.5929913520812988,1.9217618703842163,-2.0610008239746094,3.210965633392334,9.370096206665039,-3.2873826026916504,-0.043890632688999176,0.0032833979930728674,0.05618428438901901,20.088634490966797,-21.647239685058594,30.70557975769043,0.4843630790710449,0.21085548400878906,0.04603314399719238,2.726602554321289,9.15924072265625,-3.3334157466888428
5_20251106_145508,1762412071139,5,0.1578272581100464,0.41526731848716736,0.7029938697814941,0.5553765892982483,1.600243091583252,1.9241951704025269,-2.0593457221984863,3.711332321166992,9.547258377075195,-3.211968421936035,-0.043890632688999176,0.0032833979930728674,0.05618428438901901,20.051273345947266,-21.662315368652344,30.71735954284668,0.7877838611602783,0.31041431427001953,0.09715771675109863,2.923548460006714,9.236844062805176,-3.309126138687134
5_20251106_145508,1762412071159,5,0.15712641179561615,0.41636839509010315,0.7019436955451965,0.5560789108276367,1.6116316318511963,1.9279475212097168,-2.056797504425049,4.151846408843994,9.626264572143555,-3.0455784797668457,-0.06221657246351242,-0.005268707871437073,0.08000800013542175,20.047340393066406,-21.73725128173828,30.67522621154785,0.9826383590698242,0.3115367889404297,0.21083807945251465,3.16920804977417,9.314727783203125,-3.2564165592193604
5_20251106_145508,1762412071179,5,0.1562972068786621,0.41796666383743286,0.7004089951515198,0.5570478439331055,1.624808430671692,1.932450532913208,-2.0536692142486572,4.566025733947754,9.840536117553711,-2.8708090782165527,0.034300051629543304,-0.14026980102062225,0.07573194801807404,20.034042358398438,-21.76274871826172,30.633657455444336,1.1174540519714355,0.42064666748046875,0.3084859848022461,3.4485716819763184,9.419889450073242,-3.179295063018799
5_20251106_145508,1762412071197,5,0.15539488196372986,0.4204463064670563,0.6986129879951477,0.5576891303062439,1.6433806419372559,1.9389482736587524,-2.0494368076324463,4.982598304748535,9.993758201599121,-2.8732035160064697,0.06178896501660347,-0.17020218074321747,0.04824304208159447,20.00845718383789,-21.78917694091797,30.60511589050293,1.2272212505340576,0.4590950012207031,0.2448732852935791,3.7553770542144775,9.534663200378418,-3.118076801300049
5_20251106_145508,1762412071217,5,0.1557222604751587,0.4220183193683624,0.6981407403945923,0.5570014715194702,1.6669421195983887,1.9466041326522827,-2.044682502746582,5.702025413513184,10.02248764038086,-2.8767945766448975,0.07767145335674286,-0.21907135844230652,0.02136499248445034,20.00845718383789,-21.78917694091797,30.60511589050293,1.5573186874389648,0.3902597427368164,0.19302582740783691,4.144706726074219,9.632227897644043,-3.0698204040527344
5_20251106_145508,1762412071235,5,0.15625205636024475,0.4236372113227844,0.6977706551551819,0.5560871362686157,1.693854808807373,1.9546945095062256,-2.0405755043029785,6.893089294433594,10.259503364562988,-3.052760601043701,0.055680323392152786,-0.3271944522857666,-0.0769842341542244,20.013893127441406,-21.913551330566406,30.562414169311523,2.1987061500549316,0.5018205642700195,0.013647794723510742,4.694383144378662,9.757682800292969,-3.066408395767212
5_20251106_145508,1762412071256,5,0.15741069614887238,0.42536836862564087,0.6974630951881409,0.5548232793807983,1.693854808807373,1.9546945095062256,-2.0405755043029785,6.893089294433594,10.259503364562988,-3.052760601043701,0.055680323392152786,-0.3271944522857666,-0.0769842341542244,20.013893127441406,-21.913551330566406,30.562414169311523,2.1987061500549316,0.5018205642700195,0.013647794723510742,4.694383144378662,9.757682800292969,-3.066408395767212
5_20251106_145508,1762412071274,5,0.16057464480400085,0.426967978477478,0.6971428394317627,0.5530876517295837,1.7801127433776855,1.9802074432373047,-2.031909942626953,9.345844268798828,11.232704162597656,-2.7499072551727295,-0.027397282421588898,-0.5061777830123901,-0.3243844211101532,20.111167907714844,-21.919090270996094,30.498491287231445,3.13724422454834,1.0189008712768555,0.259061336517334,6.208600044250488,10.2138032913208,-3.0089685916900635
5_20251106_145508,1762412071293,5,0.167133629322052,0.42699122428894043,0.6973235607147217,0.5508944392204285,1.8310133218765259,1.9960366487503052,-2.025219440460205,8.759288787841797,11.195596694946289,-2.144200563430786,-0.24547599256038666,-0.7108174562454224,-1.4514297246932983,20.29494857788086,-21.90583038330078,30.37068748474121,2.040550708770752,0.7854347229003906,0.6918144226074219,6.718738079071045,10.410161972045898,-2.836014986038208
5_20251106_145508,1762412071311,5,0.17781059443950653,0.42343419790267944,0.6988256573677063,0.5483881831169128,1.8780726194381714,2.0107550621032715,-2.0171468257904053,7.225869178771973,10.601860046386719,-2.002948522567749,-0.24547599256038666,-0.7108174562454224,-1.4514297246932983,20.57952880859375,-21.83531951904297,30.180280685424805,0.40570497512817383,0.15335845947265625,0.6664531230926514,6.820164203643799,10.448501586914062,-2.6694016456604004
5_20251106_145508,1762412071332,5,0.191447451710701,0.41643667221069336,0.7023629546165466,0.5446233749389648,1.922607660293579,2.024533748626709,-2.0078842639923096,5.129836082458496,9.870462417602539,-2.425507068634033,0.08988874405622482,-0.7945059537887573,-2.065959930419922,21.01507568359375,-21.667640686035156,30.02463722229004,-1.3522624969482422,-0.4624319076538086,0.1951158046722412,6.482098579406738,10.332894325256348,-2.6206228733062744
5_20251106_145508,1762412071349,5,0.20615306496620178,0.4074647128582001,0.7078949213027954,0.5388489365577698,1.9526156187057495,2.033236265182495,-2.0005600452423096,3.2049803733825684,9.082803726196289,-2.8624300956726074,0.3281260132789612,-0.9631046056747437,-1.9071348905563354,21.552936553955078,-21.417457580566406,29.793405532836914,-2.621694564819336,-1.0000724792480469,-0.19344592094421387,5.826674938201904,10.082876205444336,-2.6689841747283936
5_20251106_145508,1762412071370,5,0.22096769511699677,0.3993277847766876,0.7142964601516724,0.53055739402771,1.972469687461853,2.038053512573242,-1.9950045347213745,1.8271764516830444,8.642290115356445,-3.433422565460205,0.5046659111976624,-1.1646898984909058,-1.5271769762039185,22.396148681640625,-20.921913146972656,29.551660537719727,-3.199598789215088,-1.1524696350097656,-0.6115508079528809,5.026775360107422,9.794759750366211,-2.821871757507324
5_20251106_145508,1762412071388,5,0.2348823845386505,0.3941705822944641,0.7202984690666199,0.5202210545539856,1.9787800312042236,2.038248062133789,-1.9928444623947144,1.023956298828125,8.280780792236328,-3.781764030456543,0.618286669254303,-1.4487420320510864,-1.0507025718688965,23.307422637939453,-20.308311462402344,29.206613540649414,-3.2022552490234375,-1.2111835479736328,-0.767913818359375,4.2262115478515625,9.491964340209961,-3.013850212097168
5_20251106_145508,1762412071408,5,0.24774330854415894,0.3932560980319977,0.7247110605239868,0.5086911916732788,1.9738101959228516,2.034269094467163,-1.992105484008789,0.40029358863830566,8.11558723449707,-3.5208072662353516,0.6922013163566589,-1.76333749294281,-0.6017170548439026,24.359188079833984,-19.57280731201172,28.85582160949707,-3.060734510421753,-1.1011018753051758,-0.4055657386779785,3.4610280990600586,9.216689109802246,-3.115241527557373
5_20251106_145508,1762412071426,5,0.26024532318115234,0.3971973657608032,0.7269341349601746,0.49605780839920044,1.9611841440200806,2.027811050415039,-1.9914937019348145,0.059134483337402344,7.975533485412598,-3.1233866214752197,0.7441248297691345,-1.925216555595398,-0.23458732664585114,25.448204040527344,-18.83397674560547,28.41188621520996,-2.721514940261841,-0.992924690246582,-0.006516218185424805,2.780649423599243,8.96845817565918,-3.116870403289795
5_20251106_145508,1762412071445,5,0.2721979320049286,0.4051176607608795,0.7270259261131287,0.48292985558509827,1.9611841440200806,2.027811050415039,-1.9914937019348145,0.059134483337402344,7.975533485412598,-3.1233866214752197,0.794215738773346,-1.9606467485427856,-0.03483456000685692,26.6365966796875,-18.074623107910156,27.8099422454834,-2.721514940261841,-0.992924690246582,-0.006516218185424805,2.780649423599243,8.96845817565918,-3.116870403289795
5_20251106_145508,1762412071466,5,0.2832064628601074,0.41528981924057007,0.7257657647132874,0.4696727991104126,1.9115267992019653,2.004239559173584,-1.9888215065002441,-0.39335015416145325,7.580506324768066,-3.040790319442749,0.7630616426467896,-1.8647409677505493,0.018921533599495888,27.88570785522461,-17.32318878173828,27.142606735229492,-2.0681331157684326,-0.9051437377929688,0.02494192123413086,1.6747828722000122,8.485650062561035,-3.06573224067688
5_20251106_145508,1762412071485,5,0.2933008670806885,0.4260711371898651,0.7238436341285706,0.45660528540611267,1.8763222694396973,1.988274097442627,-1.9877771139144897,-0.9487811326980591,7.440451622009277,-3.153312921524048,0.6011825203895569,-1.771889567375183,-0.11363612115383148,29.10751724243164,-16.63530731201172,26.391874313354492,-2.098851203918457,-0.8361587524414062,-0.07006430625915527,1.1500701904296875,8.276610374450684,-3.0832486152648926
5_20251106_145508,1762412071504,5,0.30315154790878296,0.4356730878353119,0.7217197418212891,0.44430699944496155,1.8361413478851318,1.9704676866531372,-1.9861268997192383,-1.9147999286651611,7.038243293762207,-2.825321674346924,0.6011825203895569,-1.771889567375183,-0.11363612115383148,30.26577377319336,-16.001365661621094,25.6106014251709,-2.4518961906433105,-0.9906930923461914,0.20634174346923828,0.5370962023735046,8.028936386108398,-3.031663417816162
5_20251106_145508,1762412071522,5,0.3137408494949341,0.4428553283214569,0.7194361090660095,0.43342530727386475,1.8361413478851318,1.9704676866531372,-1.9861268997192383,-1.9147999286651611,7.038243293762207,-2.825321674346924,0.11432332545518875,-1.475620150566101,-0.26574140787124634,31.305267333984375,-15.560905456542969,24.618209838867188,-2.4518961906433105,-0.9906930923461914,0.20634174346923828,0.5370962023735046,8.028936386108398,-3.031663417816162
5_20251106_145508,1762412071542,5,0.3245362639427185,0.44768446683883667,0.7167909741401672,0.42481228709220886,1.7368638515472412,1.9310662746429443,-1.9786306619644165,-3.6828417778015137,7.057395935058594,-2.205249786376953,0.08744528889656067,-1.4120901823043823,-0.20893101394176483,32.36288833618164,-15.231742858886719,23.61090660095215,-2.821423053741455,-0.6122093200683594,0.5769782066345215,-0.8614188432693481,7.669605255126953,-2.7822279930114746
5_20251106_145508,1762412071560,5,0.33530882000923157,0.4517296552658081,0.7137455344200134,0.4172237515449524,1.6799354553222656,1.911245584487915,-1.972978115081787,-4.074276924133301,7.203435897827148,-2.2172203063964844,0.12470803409814835,-1.3363429307937622,-0.17166827619075775,33.3542366027832,-15.006599426269531,22.558490753173828,-2.570286512374878,-0.37293577194213867,0.45200610160827637,-1.5039904117584229,7.576371669769287,-2.6692264080047607
5_20251106_145508,1762412071579,5,0.34536632895469666,0.4557766914367676,0.7106311321258545,0.40986958146095276,1.610163927078247,1.8891972303390503,-1.9660741090774536,-4.688363075256348,7.205830097198486,-2.3608663082122803,0.16441422700881958,-1.2838085889816284,-0.20343323051929474,34.40468215942383,-14.826362609863281,21.3723087310791,-2.5474982261657715,-0.2964334487915039,0.2466881275177002,-2.140864849090576,7.50226354598999,-2.6075544357299805
5_20251106_145508,1762412071599,5,0.35483163595199585,0.459516704082489,0.7077882885932922,0.4024607837200165,1.5380020141601562,1.868445873260498,-1.9598397016525269,-5.491583347320557,7.191465377807617,-2.6062612533569336,0.2358853965997696,-1.2624284029006958,-0.21748311817646027,35.26128005981445,-14.622505187988281,20.314233779907227,-2.680574893951416,-0.24863862991333008,0.0010344982147216797,-2.8110084533691406,7.440104007720947,-2.6072957515716553
5_20251106_145508,1762412071617,5,0.3639543354511261,0.4629734754562378,0.7053133845329285,0.3946210741996765,1.4598802328109741,1.8480466604232788,-1.9548009634017944,-6.298394203186035,7.190268516540527,-2.929464817047119,0.29880452156066895,-1.1860703229904175,-0.2156505286693573,35.97185516357422,-14.416297912597656,19.318119049072266,-2.7899088859558105,-0.19986820220947266,-0.2577352523803711,-3.5084853172302246,7.39013671875,-2.671729564666748
5_20251106_145508,1762412071637,5,0.3725849986076355,0.4665699303150177,0.7031175494194031,0.3861587941646576,1.3718433380126953,1.8274438381195068,-1.9518738985061646,-6.770031929016113,7.323141098022461,-3.3663878440856934,0.2652069330215454,-1.0193041563034058,-0.1844964176416397,36.61989212036133,-14.239448547363281,18.346057891845703,-2.6092376708984375,-0.05359649658203125,-0.5557265281677246,-4.160794258117676,7.376737594604492,-2.8106613159179688
5_20251106_145508,1762412071659,5,0.38023069500923157,0.46974244713783264,0.7013633251190186,0.37796318531036377,1.2688335180282593,1.8063023090362549,-1.951242446899414,-7.154284954071045,7.482348442077637,-3.4705309867858887,0.2652069330215454,-1.0193041563034058,-0.1844964176416397,37.281005859375,-14.060585021972656,17.252840042114258,-2.3947925567626953,0.0844888687133789,-0.5278956890106201,-4.75949239730835,7.397859573364258,-2.9426352977752686
5_20251106_145508,1762412071677,5,0.38697171211242676,0.4719862937927246,0.699797511100769,0.3711674213409424,1.1821653842926025,1.790257453918457,-1.9511141777038574,-7.440379619598389,7.555368423461914,-3.089869499206543,-0.02312123030424118,-0.644233226776123,-0.1435685008764267,37.281005859375,-14.060585021972656,17.252840042114258,-2.144709587097168,0.126007080078125,-0.11778736114501953,-5.295670032501221,7.429361343383789,-2.9720821380615234
5_20251106_145508,1762412071695,5,0.3931429386138916,0.4730994403362274,0.6982424855232239,0.3661597967147827,1.0993444919586182,1.776761531829834,-1.9505400657653809,-7.599587440490723,7.839069366455078,-2.7630748748779297,-0.11169660836458206,-0.4340957701206207,-0.06293433904647827,37.841033935546875,-13.927772521972656,16.357650756835938,-1.8431339263916016,0.32776641845703125,0.167205810546875,-5.756453514099121,7.511302947998047,-2.9302806854248047
5_20251106_145508,1762412071714,5,0.39839836955070496,0.47339192032814026,0.6966976523399353,0.36303064227104187,1.0993444919586182,1.776761531829834,-1.9505400657653809,-7.599587440490723,7.839069366455078,-2.7630748748779297,-0.13613121211528778,-0.23128865659236908,0.03541488200426102,38.27870559692383,-13.803581237792969,15.525138854980469,-1.8431339263916016,0.32776641845703125,0.167205810546875,-5.756453514099121,7.511302947998047,-2.9302806854248047
5_20251106_145508,1762412071732,5,0.4022344946861267,0.4732992351055145,0.6952875256538391,0.36162203550338745,0.9139195084571838,1.7544153928756714,-1.9473600387573242,-7.3003249168396,8.480688095092773,-2.822927236557007,-0.11230747401714325,-0.030314162373542786,0.10016653686761856,38.68183517456055,-13.644233703613281,14.705463409423828,-0.953794002532959,0.6705870628356934,0.03710436820983887,-6.346530914306641,7.81010103225708,-2.8600316047668457
5_20251106_145508,1762412071751,5,0.40444886684417725,0.473009318113327,0.6942423582077026,0.3615395724773407,0.8250806927680969,1.747574806213379,-1.946878433227539,-7.00944185256958,8.674610137939453,-3.2406973838806152,-0.06771435588598251,0.16760601103305817,0.15147916972637177,38.88539123535156,-13.550254821777344,14.12017822265625,-0.5303287506103516,0.6916074752807617,-0.304532527923584,-6.4791131019592285,7.983002662658691,-2.9361648559570312
5_20251106_145508,1762412071771,5,0.40496912598609924,0.472591370344162,0.6938318610191345,0.3622909188270569,0.7362599968910217,1.7436190843582153,-1.948723554611206,-6.473163604736328,8.931976318359375,-3.701561450958252,-0.07137953490018845,0.3270416855812073,0.22966985404491425,39.09842300415039,-13.493949890136719,13.615690231323242,0.004759788513183594,0.7591791152954102,-0.6123170852661133,-6.477923393249512,8.172797203063965,-3.0892443656921387
5_20251106_145508,1762412071790,5,0.4038519263267517,0.47213536500930786,0.6939402222633362,0.3639214038848877,0.6581124663352966,1.7427756786346436,-1.9523676633834839,-5.7441606521606445,9.166597366333008,-3.810492992401123,-0.16972877085208893,0.41011929512023926,0.30480626225471497,39.33162307739258,-13.488182067871094,13.30035400390625,0.587010383605957,0.7950401306152344,-0.5769989490509033,-6.331171035766602,8.371557235717773,-3.2334940433502197
5_20251106_145508,1762412071808,5,0.40174227952957153,0.47171759605407715,0.6939448714256287,0.36677807569503784,0.5908905267715454,1.7442131042480469,-1.9555264711380005,-5.067828178405762,9.263558387756348,-3.184436321258545,-0.27601921558380127,0.4498254656791687,0.2925889492034912,39.49262619018555,-13.462730407714844,13.05018424987793,1.0106744766235352,0.7136011123657227,0.039246320724487305,-6.078502655029297,8.549957275390625,-3.2236826419830322
5_20251106_145508,1762412071828,5,0.3995608389377594,0.4710511863231659,0.6935023069381714,0.37083208560943604,0.523865282535553,1.7481616735458374,-1.956190586090088,-4.7853240966796875,9.349745750427246,-2.3453047275543213,-0.2747974693775177,0.5212966203689575,0.15270090103149414,39.53342056274414,-13.597953796386719,13.076274871826172,1.0345425605773926,0.6398305892944336,0.7027022838592529,-5.81986665725708,8.709915161132812,-3.048007011413574
5_20251106_145508,1762412071847,5,0.39753708243370056,0.46949175000190735,0.693283200263977,0.375366747379303,0.4657798707485199,1.7535661458969116,-1.9532363414764404,-4.943334579467773,9.380868911743164,-1.7527652978897095,-0.2747974693775177,0.5212966203689575,0.15270090103149414,39.451053619384766,-13.754478454589844,13.178295135498047,0.701225757598877,0.5367631912231445,1.0361934900283813,-5.64456033706665,8.84410572052002,-2.788958787918091
5_20251106_145508,1762412071866,5,0.3951149582862854,0.4663946330547333,0.6944683194160461,0.37957075238227844,0.4657798707485199,1.7535661458969116,-1.9532363414764404,-4.943334579467773,9.380868911743164,-1.7527652978897095,-0.03167333826422691,0.9629518389701843,-0.22481349110603333,39.34614562988281,-13.863716125488281,13.415552139282227,0.701225757598877,0.5367631912231445,1.0361934900283813,-5.64456033706665,8.84410572052002,-2.788958787918091
5_20251106_145508,1762412071885,5,0.39143121242523193,0.46141090989112854,0.6978285312652588,0.3832974433898926,0.36094552278518677,1.7648506164550781,-1.9407517910003662,-5.385046005249023,8.635107040405273,-2.1573679447174072,0.09844084829092026,1.198745608329773,-0.26635226607322693,39.239349365234375,-13.987129211425781,13.814741134643555,0.13506174087524414,-0.21688270568847656,0.3417799472808838,-5.520107746124268,8.85198974609375,-2.499147891998291
5_20251106_145508,1762412071905,5,0.3856066167354584,0.4550634026527405,0.7032570838928223,0.38685181736946106,0.30982500314712524,1.7685227394104004,-1.9341057538986206,-5.657973289489746,8.380136489868164,-2.5033152103424072,0.12592975795269012,1.2579995393753052,-0.12279908359050751,39.013946533203125,-14.032875061035156,14.440649032592773,-0.11029243469238281,-0.37748241424560547,-0.0033338069915771484,-5.547680854797363,8.75761890411377,-2.49998140335083
5_20251106_145508,1762412071924,5,0.37823420763015747,0.44872531294822693,0.709270179271698,0.39053845405578613,0.2633533179759979,1.770623803138733,-1.9276440143585205,-5.669943809509277,8.315494537353516,-2.330940008163452,0.13081666827201843,1.305036187171936,0.16613993048667908,38.690460205078125,-14.085792541503906,15.143732070922852,-0.09781026840209961,-0.3536996841430664,0.13523316383361816,-5.572133541107178,8.669194221496582,-2.4661731719970703
5_20251106_145508,1762412071942,5,0.3697913885116577,0.44370022416114807,0.7144240736961365,0.39494645595550537,0.2250809669494629,1.7720534801483154,-1.9217151403427124,-5.012763977050781,8.507022857666016,-2.2674965858459473,0.17663152515888214,1.447367548942566,0.48562219738960266,38.344112396240234,-14.115043640136719,15.832845687866211,0.4474954605102539,-0.12973690032958984,0.15894126892089844,-5.460259437561035,8.636759757995605,-2.4264378547668457
5_20251106_145508,1762412071961,5,0.3592303395271301,0.4404448866844177,0.7186212539672852,0.4006810784339905,0.2250809669494629,1.7720534801483154,-1.9217151403427124,-5.012763977050781,8.507022857666016,-2.2674965858459473,0.19190314412117004,1.6104685068130493,0.7415744662284851,37.944210052490234,-14.212013244628906,16.69438934326172,0.4474954605102539,-0.12973690032958984,0.15894126892089844,-5.460259437561035,8.636759757995605,-2.4264378547668457
5_20251106_145508,1762412071980,5,0.3461780250072479,0.4384737014770508,0.7222272157669067,0.40778598189353943,0.1591661125421524,1.7742104530334473,-1.907562255859375,-2.5360684394836426,8.533357620239258,-2.2806639671325684,0.19190314412117004,1.6104685068130493,0.7415744662284851,37.34904861450195,-14.310478210449219,17.68351173400879,2.090015411376953,-0.06483650207519531,0.08448505401611328,-4.626083850860596,8.598194122314453,-2.3651490211486816
5_20251106_145508,1762412072000,5,0.3313612639904022,0.4376932680606842,0.7248355150222778,0.41621845960617065,0.14286227524280548,1.7753134965896606,-1.9003311395645142,-1.0505303144454956,8.686580657958984,-2.0999093055725098,0.13081666827201843,1.774180293083191,1.001802921295166,36.67927551269531,-14.427345275878906,18.777559280395508,2.860443115234375,0.070709228515625,0.21219182014465332,-3.910973310470581,8.61587142944336,-2.312101125717163
5_20251106_145508,1762412072019,5,0.3154195249080658,0.43745091557502747,0.7266169786453247,0.42564657330513,0.1389097273349762,1.777760624885559,-1.8927184343338013,0.2937561571598053,9.125896453857422,-2.0412540435791016,0.19679005444049835,1.8480948209762573,0.8643583059310913,35.92763137817383,-14.700065612792969,19.90604591369629,3.363783597946167,0.40802001953125,0.21667766571044922,-3.0700273513793945,8.717876434326172,-2.257931709289551
5_20251106_145508,1762412072037,5,0.2987038493156433,0.4368792176246643,0.7284108996391296,0.43512076139450073,0.1476055085659027,1.781572699546814,-1.8865242004394531,1.4680616855621338,9.259967803955078,-2.6361875534057617,0.28964149951934814,2.0258564949035645,0.6169580817222595,35.06662368774414,-14.967918395996094,21.08444595336914,3.6304714679718018,0.4336729049682617,-0.30260467529296875,-2.162409782409668,8.826294898986816,-2.333582878112793
5_20251106_145508,1762412072058,5,0.2813880145549774,0.4344201683998108,0.7314755320549011,0.44389578700065613,0.17090417444705963,1.7854549884796143,-1.8846960067749023,2.641170024871826,8.84937858581543,-3.7697935104370117,0.3886016011238098,2.0454044342041016,0.4630202054977417,34.0291862487793,-15.336006164550781,22.37578010559082,3.8428640365600586,0.018466949462890625,-1.1489684581756592,-1.2016940116882324,8.830911636352539,-2.6208250522613525
5_20251106_145508,1762412072077,5,0.26338517665863037,0.43016836047172546,0.7357736229896545,0.451907753944397,0.20565034449100494,1.7888352870941162,-1.8887338638305664,3.7987167835235596,8.785935401916504,-4.693915843963623,0.4356381893157959,1.8425971269607544,0.37872087955474854,32.931114196777344,-15.707664489746094,23.624113082885742,4.000328540802002,-0.035981178283691406,-1.6584725379943848,-0.20161187648773193,8.821916580200195,-3.0354433059692383
5_20251106_145508,1762412072096,5,0.24601323902606964,0.4261566400527954,0.7401737570762634,0.4582693874835968,0.2548173666000366,1.7914403676986694,-1.8992726802825928,4.542084693908691,8.566875457763672,-5.1739325523376465,0.40631669759750366,1.6391791105270386,0.2363893836736679,32.931114196777344,-15.707664489746094,23.624113082885742,3.794957399368286,-0.20403289794921875,-1.7107913494110107,0.74712735414505,8.77090835571289,-3.4631412029266357
5_20251106_145508,1762412072115,5,0.23032601177692413,0.4223455488681793,0.7443137764930725,0.46321821212768555,0.30717551708221436,1.7926965951919556,-1.9134451150894165,4.938307762145996,8.376544952392578,-5.559382438659668,0.35133886337280273,1.5115083456039429,0.03724747523665428,31.72317123413086,-16.08673858642578,24.895063400268555,3.3529443740844727,-0.31549072265625,-1.6769928932189941,1.5853633880615234,8.692035675048828,-3.882389545440674
5_20251106_145508,1762412072135,5,0.21659457683563232,0.4181631803512573,0.7482776045799255,0.4672333002090454,0.37659597396850586,1.7920806407928467,-1.9359009265899658,4.983795166015625,8.092844009399414,-5.895753383636475,0.35133886337280273,1.5115083456039429,0.03724747523665428,30.517539978027344,-16.42786407470703,26.139772415161133,2.718745470046997,-0.4793529510498047,-1.6106910705566406,2.265049695968628,8.572196960449219,-4.285062313079834
5_20251106_145508,1762412072153,5,0.204720601439476,0.4128553867340088,0.7523587942123413,0.47074002027511597,0.43937066197395325,1.7896559238433838,-1.9583559036254883,4.801844120025635,7.791186809539795,-5.978349685668945,0.10821468383073807,1.2952622175216675,-0.28651079535484314,29.360042572021484,-16.565284729003906,27.349626541137695,2.029435634613037,-0.6248078346252441,-1.3546299934387207,2.7724084854125977,8.415994644165039,-4.623719692230225
5_20251106_145508,1762412072172,5,0.19473609328269958,0.40658852458000183,0.7561885118484497,0.47428107261657715,0.43937066197395325,1.7896559238433838,-1.9583559036254883,4.801844120025635,7.791186809539795,-5.978349685668945,-0.018845178186893463,1.1309396028518677,-0.34820815920829773,28.253376007080078,-16.685081481933594,28.372480392456055,2.029435634613037,-0.6248078346252441,-1.3546299934387207,2.7724084854125977,8.415994644165039,-4.623719692230225
5_20251106_145508,1762412072191,5,0.18673305213451385,0.3999362587928772,0.7593986392021179,0.47801196575164795,0.5145121216773987,1.784204363822937,-1.987005352973938,4.43315315246582,7.591279983520508,-5.746122360229492,-0.0732121393084526,0.9635627269744873,-0.39829906821250916,27.25275421142578,-16.64771270751953,29.3889102935791,1.3285958766937256,-0.6597719192504883,-0.8979220390319824,3.1045572757720947,8.251051902770996,-4.84820032119751
5_20251106_145508,1762412072210,5,0.1806618869304657,0.39354604482650757,0.7619726061820984,0.481539785861969,0.6378321647644043,1.7700343132019043,-2.0360569953918457,3.2468771934509277,7.386584281921387,-5.228997230529785,-0.09092720597982407,0.8707112669944763,-0.3854708969593048,26.229354858398438,-16.598167419433594,30.282976150512695,-0.0077435970306396484,-0.5672411918640137,-0.2128744125366211,3.2546207904815674,7.9538254737854,-5.016122817993164
5_20251106_145508,1762412072229,5,0.17587316036224365,0.3873431384563446,0.764272153377533,0.48468753695487976,0.6965631246566772,1.7599982023239136,-2.0605640411376953,2.738131046295166,7.1411895751953125,-5.104503631591797,-0.10864228755235672,0.7686969041824341,-0.2571893036365509,25.406139373779297,-16.47083282470703,30.956430435180664,-0.4131917953491211,-0.650108814239502,-0.07070446014404297,3.151322841644287,7.7912983894348145,-5.033799171447754
5_20251106_145508,1762412072248,5,0.1714913547039032,0.3817604184150696,0.7661314606666565,0.48774200677871704,0.6965631246566772,1.7599982023239136,-2.0605640411376953,2.738131046295166,7.1411895751953125,-5.104503631591797,-0.13613121211528778,0.6538543105125427,-0.036056291311979294,24.73035430908203,-16.32073211669922,31.568452835083008,-0.4131917953491211,-0.650108814239502,-0.07070446014404297,3.151322841644287,7.7912983894348145,-5.033799171447754
5_20251106_145508,1762412072268,5,0.167183980345726,0.37780293822288513,0.7670929431915283,0.4907982349395752,0.803487241268158,1.7349849939346313,-2.105137825012207,2.5454061031341553,7.065774917602539,-4.567028045654297,-0.13613121211528778,0.6538543105125427,-0.036056291311979294,24.089900970458984,-16.20470428466797,32.05950927734375,-0.38548827171325684,-0.4628028869628906,0.34584951400756836,2.930894374847412,7.52857780456543,-4.912877559661865
5_20251106_145508,1762412072287,5,0.16289015114307404,0.37596872448921204,0.7669145464897156,0.49391937255859375,0.8502316474914551,1.7218607664108276,-2.1230673789978027,2.6675052642822266,7.135204315185547,-4.350362300872803,-0.11658353358507156,0.41561704874038696,0.33596035838127136,23.524677276611328,-16.046241760253906,32.554298400878906,-0.21071147918701172,-0.3146991729736328,0.45001220703125,2.8782167434692383,7.44990348815918,-4.800374507904053
5_20251106_145508,1762412072306,5,0.15860532224178314,0.3760148286819458,0.7658794522285461,0.49687615036964417,0.8921365141868591,1.7089203596115112,-2.1382431983947754,2.8111510276794434,6.991558074951172,-4.410215377807617,-0.11658353358507156,0.41561704874038696,0.33596035838127136,23.05005645751953,-16.04157257080078,32.73870849609375,-0.05365252494812012,-0.36667633056640625,0.31212711334228516,2.8648035526275635,7.358234405517578,-4.722342491149902
5_20251106_145508,1762412072325,5,0.15421263873577118,0.377602756023407,0.7644349336624146,0.4992733597755432,0.8921365141868591,1.7089203596115112,-2.1382431983947754,2.8111510276794434,6.991558074951172,-4.410215377807617,-0.021288637071847916,0.17921243607997894,0.519219696521759,22.584117889404297,-16.075660705566406,33.11204528808594,-0.05365252494812012,-0.36667633056640625,0.31212711334228516,2.8648035526275635,7.358234405517578,-4.722342491149902
5_20251106_145508,1762412072344,5,0.15016955137252808,0.3806626796722412,0.7626564502716064,0.5008993744850159,0.9758396744728088,1.6787914037704468,-2.1655285358428955,2.70461368560791,6.755739212036133,-4.224672317504883,-0.05244273692369461,0.1608864963054657,0.5082241892814636,22.092487335205078,-16.147926330566406,33.3754768371582,-0.1233980655670166,-0.4068565368652344,0.3407258987426758,2.8280117511749268,7.162595748901367,-4.565398216247559
5_20251106_145508,1762412072364,5,0.1464555859565735,0.3841600716114044,0.7606560587882996,0.5023685693740845,1.014035701751709,1.6620028018951416,-2.1766016483306885,2.420912981033325,6.574984550476074,-4.156440734863281,-0.05244273692369461,0.1608864963054657,0.5082241892814636,21.672054290771484,-16.252830505371094,33.61402893066406,-0.32567906379699707,-0.4700889587402344,0.3271660804748535,2.7465920448303223,7.045073509216309,-4.483606815338135
5_20251106_145508,1762412072382,5,0.1428856998682022,0.3870139718055725,0.7587009072303772,0.5041595101356506,1.0436509847640991,1.6469796895980835,-2.18534517288208,2.187488079071045,6.377471923828125,-4.39345645904541,-0.13796380162239075,0.4021780490875244,0.36711445450782776,21.334697723388672,-16.40160369873047,33.77385711669922,-0.4472832679748535,-0.5340814590454102,0.07212018966674805,2.6347713470458984,6.911553382873535,-4.465576648712158
5_20251106_145508,1762412072401,5,0.13894236087799072,0.3884596824645996,0.757066011428833,0.5066015720367432,1.075991153717041,1.6275392770767212,-2.1958696842193604,2.3850016593933105,6.03990364074707,-4.713068962097168,-0.23753474652767181,0.45287978649139404,0.40376633405685425,20.936904907226562,-16.553672790527344,33.86365509033203,-0.1998157501220703,-0.6973199844360352,-0.19799375534057617,2.584817409515381,6.7372236251831055,-4.515075206756592
5_20251106_145508,1762412072421,5,0.1344132125377655,0.38904428482055664,0.7553619146347046,0.5099078416824341,1.1051586866378784,1.6068824529647827,-2.2054054737091064,2.577726364135742,5.602980613708496,-4.528722763061523,-0.3988029956817627,0.3270416855812073,0.46546366810798645,20.561973571777344,-16.729393005371094,33.96742248535156,-0.005672931671142578,-0.9073944091796875,-0.010918140411376953,2.5833992958068848,6.510375022888184,-4.5178046226501465
5_20251106_145508,1762412072438,5,0.1303935945034027,0.39022964239120483,0.7526740431785583,0.5140040516853333,1.130670428276062,1.584329605102539,-2.2112350463867188,2.283252239227295,4.901510238647461,-3.399905204772949,-0.49776309728622437,0.17004947364330292,0.40987497568130493,20.185623168945312,-16.94184112548828,33.97578430175781,-0.24011778831481934,-1.2870917320251465,0.8943195343017578,2.5233700275421143,6.188601970672607,-4.294224739074707
5_20251106_145508,1762412072457,5,0.12819790840148926,0.3923743665218353,0.7489055395126343,0.518409252166748,1.1532591581344604,1.5561827421188354,-2.212751865386963,1.43215012550354,4.172507286071777,-2.7163901329040527,-0.5063152313232422,0.2897789478302002,0.2687652111053467,19.83255386352539,-17.154197692871094,34.13380432128906,-0.8729760646820068,-1.6128754615783691,1.2622675895690918,2.305126190185547,5.7853827476501465,-3.9786577224731445
5_20251106_145508,1762412072478,5,0.12691035866737366,0.393726646900177,0.745276689529419,0.5229108929634094,1.1532591581344604,1.5561827421188354,-2.212751865386963,1.43215012550354,4.172507286071777,-2.7163901329040527,-0.5527409911155701,0.5090793371200562,0.1349858194589615,19.506553649902344,-17.338096618652344,34.11762237548828,-0.8729760646820068,-1.6128754615783691,1.2622675895690918,2.305126190185547,5.7853827476501465,-3.9786577224731445
5_20251106_145508,1762412072497,5,0.1249176487326622,0.39274051785469055,0.7423670887947083,0.5282438397407532,1.171905755996704,1.5167609453201294,-2.209693670272827,0.6193535923957825,3.485400676727295,-2.69364595413208,-0.6999593377113342,0.7748055458068848,0.1801898181438446,19.154266357421875,-17.56098175048828,34.072635650634766,-1.3486180305480957,-1.8399858474731445,1.0280094146728516,1.967971682548523,5.3253865242004395,-3.7216553688049316
5_20251106_145508,1762412072517,5,0.12218843400478363,0.38976582884788513,0.7396711707115173,0.5348262786865234,1.186746597290039,1.4364527463912964,-2.2029380798339844,0.078287273645401,3.1586060523986816,-4.39345645904541,-0.6999593377113342,0.7748055458068848,0.1801898181438446,19.154266357421875,-17.56098175048828,34.072635650634766,-1.189096212387085,-1.3660545349121094,-0.6465709209442139,1.2673834562301636,4.524660587310791,-3.7468855381011963
5_20251106_145508,1762412072534,5,0.11709956079721451,0.3867269456386566,0.7352609634399414,0.5441702604293823,1.1910970211029053,1.3977553844451904,-2.2024929523468018,1.259774923324585,2.95271372795105,-4.377894878387451,-1.376186728477478,0.6391935348510742,1.3322807550430298,18.772174835205078,-17.87403106689453,34.09239959716797,-0.006086826324462891,-1.2575576305389404,-0.5048074722290039,1.2658617496490479,4.21027135848999,-3.8730874061584473
5_20251106_145508,1762412072554,5,0.11070733517408371,0.38802048563957214,0.7266377210617065,0.5560410022735596,1.199670672416687,1.3529276847839355,-2.1996653079986572,2.486750602722168,3.691293239593506,-3.106627941131592,-1.376186728477478,0.6391935348510742,1.3322807550430298,18.222801208496094,-18.36023712158203,34.06180953979492,0.9767110347747803,-0.41518259048461914,0.6131675243377686,1.5100395679473877,4.106475830078125,-3.7197954654693604
5_20251106_145508,1762412072574,5,0.10479623824357986,0.3960549831390381,0.712888777256012,0.5691641569137573,1.199670672416687,1.3529276847839355,-2.1996653079986572,2.486750602722168,3.691293239593506,-3.106627941131592,-1.676732063293457,0.18348848819732666,2.234527826309204,17.65216064453125,-19.02196502685547,33.91890335083008,0.9767110347747803,-0.41518259048461914,0.6131675243377686,1.5100395679473877,4.106475830078125,-3.7197954654693604
5_20251106_145508,1762412072593,5,0.09858020395040512,0.408316969871521,0.695777952671051,0.5826253294944763,1.21700918674469,1.3103986978530884,-2.1916017532348633,3.7879433631896973,5.279777526855469,-2.3309402465820312,-1.6541301012039185,0.36980220675468445,2.2858405113220215,17.04849624633789,-19.83623504638672,33.79888153076172,1.8223230838775635,0.9386415481567383,1.111084222793579,1.9656202793121338,4.3411359786987305,-3.4420244693756104
5_20251106_145508,1762412072612,5,0.09028948098421097,0.4206930696964264,0.6775633692741394,0.5964670777320862,1.2716426849365234,1.2656065225601196,-2.172414779663086,7.6687774658203125,7.8809661865234375,-2.164550304412842,-1.7763030529022217,0.38507384061813354,2.0543227195739746,16.318923950195312,-20.745140075683594,33.55046081542969,3.937312602996826,2.448208808898926,0.8522500991821289,3.7314648628234863,5.432757377624512,-3.0168004035949707
5_20251106_145508,1762412072631,5,0.08168666064739227,0.43149086833000183,0.6589382886886597,0.6106907725334167,1.3204724788665771,1.2580426931381226,-2.1552839279174805,8.200267791748047,9.429947853088379,-1.17099928855896,-1.9565081596374512,0.3734673857688904,1.5839570760726929,15.437966346740723,-21.98790740966797,33.15461730957031,3.575042247772217,3.197751998901367,1.4766409397125244,4.62522554397583,6.232195854187012,-2.6476402282714844
5_20251106_145508,1762412072650,5,0.07608341425657272,0.44002196192741394,0.6401094198226929,0.6251814961433411,1.3709838390350342,1.263187289237976,-2.1345367431640625,8.183507919311523,10.947807312011719,-0.17026600241661072,-1.9754449129104614,0.4754818081855774,1.0885456800460815,14.5060396194458,-23.28327178955078,32.674659729003906,2.846625804901123,3.772489070892334,1.981899380683899,5.3368821144104,7.175318241119385,-2.152165412902832
5_20251106_145508,1762412072668,5,0.07370492815971375,0.44467058777809143,0.6223191618919373,0.6399644613265991,1.4294915199279785,1.2822926044464111,-2.1074044704437256,8.20026683807373,12.258575439453125,0.1541343629360199,-1.9271866083145142,0.5261836051940918,0.8325933218002319,13.60411548614502,-24.701148986816406,32.125953674316406,2.290707588195801,4.066605567932129,1.8450398445129395,5.90955924987793,8.191969871520996,-1.6909054517745972
5_20251106_145508,1762412072688,5,0.07281450182199478,0.4456290900707245,0.6063621044158936,0.6545515656471252,1.4951739311218262,1.3176542520523071,-2.071195125579834,8.269695281982422,13.539419174194336,1.2949223518371582,-1.9387930631637573,0.32948511838912964,0.8435888886451721,12.664507865905762,-26.157737731933594,31.439817428588867,1.8881092071533203,4.277959823608398,2.388662338256836,6.381586074829102,9.261459350585938,-1.0937399864196777
5_20251106_145508,1762412072707,5,0.0731467753648758,0.446083128452301,0.5907312631607056,0.6683531999588013,1.5568424463272095,1.3625167608261108,-2.029139995574951,8.619234085083008,15.202119827270508,3.4125027656555176,-1.823339581489563,0.04604392871260643,0.9419381022453308,11.7954683303833,-27.68260955810547,30.525266647338867,1.7901182174682617,4.752528190612793,3.604994297027588,6.829115867614746,10.449591636657715,-0.19249147176742554
5_20251106_145508,1762412072726,5,0.0743519738316536,0.4482558071613312,0.5745728611946106,0.6807382106781006,1.6289656162261963,1.4283367395401,-1.969386100769043,9.14114761352539,16.523662567138672,4.860932350158691,-1.3664127588272095,-0.13660462200641632,0.9578205943107605,10.929570198059082,-29.133628845214844,29.7609806060791,1.849625587463379,4.859256744384766,4.042738914489746,7.291522026062012,11.664405822753906,0.8181931972503662
5_20251106_145508,1762412072746,5,0.07525087147951126,0.45203614234924316,0.5594874024391174,0.6906334161758423,1.7035566568374634,1.5061945915222168,-1.9008467197418213,9.289582252502441,16.706811904907227,4.690951347351074,-0.6315425038337708,-0.26794055104255676,0.8283172845840454,10.120453834533691,-30.454551696777344,28.866132736206055,1.5984482765197754,4.0339250564575195,3.0982065200805664,7.691133975982666,12.672886848449707,1.5927448272705078
5_20251106_145508,1762412072765,5,0.07444307953119278,0.4562232792377472,0.54862380027771,0.6966566443443298,1.774370551109314,1.5857126712799072,-1.8338329792022705,8.965181350708008,16.044841766357422,3.472355365753174,0.009865463711321354,-0.33941173553466797,0.6297861933708191,9.388385772705078,-31.695762634277344,28.016359329223633,1.0192375183105469,2.697564125061035,1.5036883354187012,7.945943832397461,13.347277641296387,1.9686670303344727
5_20251106_145508,1762412072785,5,0.07214944809675217,0.46055740118026733,0.5433119535446167,0.6982073187828064,1.8470165729522705,1.6695557832717896,-1.7666913270950317,8.548608779907227,14.769986152648926,2.0107579231262207,0.009865463711321354,-0.33941173553466797,0.6297861933708191,8.785642623901367,-32.566749572753906,27.28678321838379,0.4821319580078125,1.138167381286621,0.03367269039154053,8.066476821899414,13.631818771362305,1.9770852327346802
5_20251106_145508,1762412072803,5,0.06921419501304626,0.4643850028514862,0.5421903133392334,0.6968397498130798,1.9092638492584229,1.7410494089126587,-1.7127954959869385,8.121261596679688,13.55378246307373,0.5515547394752502,0.482063889503479,-0.24839286506175995,0.2638782858848572,8.331470489501953,-33.367042541503906,26.72661018371582,0.04382801055908203,-0.06242942810058594,-1.1404244899749756,8.077433586120605,13.616211891174316,1.691979169845581
5_20251106_145508,1762412072822,5,0.06622636318206787,0.4672558903694153,0.5434634685516357,0.6942142844200134,1.9700242280960083,1.8094865083694458,-1.6638755798339844,7.472461223602295,12.429754257202148,-0.17625127732753754,0.4716792106628418,-0.21723876893520355,0.08306232839822769,7.901887893676758,-33.929298400878906,26.307104110717773,-0.4839777946472168,-0.9491662979125977,-1.494584321975708,7.956439018249512,13.378920555114746,1.3183330297470093
5_20251106_145508,1762412072840,5,0.06410743296146393,0.46943458914756775,0.5458961129188538,0.6910274028778076,2.021742343902588,1.8660662174224854,-1.624191164970398,6.751837730407715,11.342832565307617,-0.4455873668193817,0.3892124891281128,-0.10911570489406586,-0.0867580696940422,7.579069137573242,-34.310203552246094,25.9763126373291,-0.9636812210083008,-1.6288700103759766,-1.411136269569397,7.715518951416016,12.971702575683594,0.9655489325523376
5_20251106_145508,1762412072859,5,0.06316671520471573,0.4704229235649109,0.548805832862854,0.6881310939788818,2.067145586013794,1.9132680892944336,-1.590278148651123,6.201194763183594,10.312173843383789,-0.5724745988845825,0.307356595993042,-0.011377356015145779,-0.17227913439273834,7.427889823913574,-34.41924285888672,25.873701095581055,-1.2114591598510742,-2.127622604370117,-1.2304189205169678,7.412653923034668,12.439796447753906,0.6579442620277405
5_20251106_145508,1762412072878,5,0.06290161609649658,0.46992844343185425,0.5518593788146973,0.6860480308532715,2.1105551719665527,1.9545974731445312,-1.5578030347824097,5.927070617675781,9.645417213439941,-0.4348139464855194,0.26337432861328125,0.015500692650675774,-0.1337946504354477,7.272995948791504,-34.366783142089844,25.8686466217041,-1.188467025756836,-2.2355031967163086,-0.8742066025733948,7.115537643432617,11.88092041015625,0.43939265608787537
5_20251106_145508,1762412072899,5,0.06276580691337585,0.4689437448978424,0.554567277431488,0.6845490336418152,2.1469380855560303,1.9851267337799072,-1.5299568176269531,6.097051620483398,9.413188934326172,-0.09365486353635788,0.2957501709461212,-0.03581194207072258,-0.029947645962238312,7.202415466308594,-34.31011199951172,26.002187728881836,-0.814788818359375,-1.9741859436035156,-0.42643803358078003,6.911840438842773,11.387374877929688,0.33278316259384155
5_20251106_145508,1762412072917,5,0.06221667677164078,0.46850302815437317,0.5567888617515564,0.6830959916114807,2.181866407394409,2.0094616413116455,-1.5023770332336426,6.433422088623047,9.349745750427246,0.24511010944843292,0.4393033981323242,-0.16531525552272797,0.049464769661426544,7.1735382080078125,-34.151268005371094,26.206892013549805,-0.3827347755432129,-1.6301040649414062,-0.07013843953609467,6.81615686416626,10.979849815368652,0.3152485489845276
5_20251106_145508,1762412072936,5,0.0609775073826313,0.4691701829433441,0.5590324401855469,0.6809139847755432,2.2130846977233887,2.026737928390503,-1.4772485494613647,6.70515251159668,9.271937370300293,0.40192359685897827,0.4393033981323242,-0.16531525552272797,0.049464769661426544,7.237828254699707,-33.836997985839844,26.499296188354492,-0.08880376815795898,-1.3663301467895508,0.0693400502204895,6.793956279754639,10.638267517089844,0.33258354663848877
5_20251106_145508,1762412072955,5,0.05937045067548752,0.4712117314338684,0.5622112154960632,0.677017867565155,2.2428202629089355,2.038869857788086,-1.4537642002105713,6.822463512420654,9.078015327453613,0.19124288856983185,0.9793077111244202,-0.44753479957580566,-1.5272758901119232e-05,7.237828254699707,-33.836997985839844,26.499296188354492,0.02280569076538086,-1.2482023239135742,-0.11307252943515778,6.799657821655273,10.326217651367188,0.3043154180049896
5_20251106_145508,1762412072974,5,0.0573953315615654,0.4741552770137787,0.5672058463096619,0.6709396839141846,2.2428202629089355,2.038869857788086,-1.4537642002105713,6.822463512420654,9.078015327453613,0.19124288856983185,1.143019437789917,-0.4860192835330963,-0.052549634128808975,7.315305709838867,-33.50896453857422,26.75190544128418,0.02280569076538086,-1.2482023239135742,-0.11307252943515778,6.799657821655273,10.326217651367188,0.3043154180049896
5_20251106_145508,1762412072995,5,0.055036574602127075,0.47730007767677307,0.5738590359687805,0.6632054448127747,2.272534132003784,2.046541213989258,-1.4327524900436401,6.792537212371826,8.858955383300781,-0.5090309977531433,1.1436303853988647,-0.4762454628944397,-0.07270817458629608,7.42783260345459,-33.20380401611328,27.018972396850586,-0.005696773529052734,-1.1738090515136719,-0.6506771445274353,6.798233985900879,10.032764434814453,0.141646146774292
5_20251106_145508,1762412073012,5,0.05271705985069275,0.4804817736148834,0.5810255408287048,0.6548033952713013,2.3253376483917236,2.049043893814087,-1.4077438116073608,7.265371799468994,8.453155517578125,-1.7731151580810547,1.0507789850234985,-0.4756345748901367,-0.11730130016803741,7.552051544189453,-32.898521423339844,27.35411262512207,0.3499150276184082,-1.0375728607177734,-1.3122093677520752,6.915456771850586,9.490728378295898,-0.4609057605266571
5_20251106_145508,1762412073032,5,0.05074711889028549,0.48346254229545593,0.5878409147262573,0.646631121635437,2.3540914058685303,2.0452609062194824,-1.4015125036239624,7.52034330368042,8.407668113708496,-1.7898738384246826,1.0507789850234985,-0.4756345748901367,-0.11730130016803741,7.657550811767578,-32.482749938964844,27.785261154174805,0.48390913009643555,-0.8664484024047852,-1.0631744861602783,7.036434173583984,9.274116516113281,-0.7266993522644043
5_20251106_145508,1762412073051,5,0.049805037677288055,0.4861242473125458,0.59426349401474,0.6387907266616821,2.3810508251190186,2.0392560958862305,-1.3987137079238892,7.404229164123535,8.32986068725586,-1.7563564777374268,0.93349289894104,-0.4872410297393799,-0.24008511006832123,7.896997451782227,-32.058387756347656,28.235319137573242,0.2942361831665039,-0.7554044723510742,-0.823725700378418,7.109992980957031,9.085265159606934,-0.9326307773590088
5_20251106_145508,1762412073070,5,0.05033736303448677,0.48772382736206055,0.6006831526756287,0.6314834356307983,2.4062280654907227,2.030608654022217,-1.3982884883880615,6.95174503326416,8.012640953063965,-1.7467801570892334,0.7868853807449341,-0.38705918192863464,-0.6615817546844482,8.141279220581055,-31.54625701904297,28.700742721557617,-0.12659835815429688,-0.8580999374389648,-0.6513195037841797,7.078343391418457,8.87074089050293,-1.0954606533050537
5_20251106_145508,1762412073089,5,0.05221334844827652,0.4875316917896271,0.6076741814613342,0.6247549057006836,2.428741693496704,2.0189950466156006,-1.4008177518844604,6.566295146942139,7.631979942321777,-2.164550304412842,0.7722246050834656,-0.3638463318347931,-0.7293877601623535,8.40912914276123,-31.04521942138672,29.18039894104004,-0.4096388816833496,-0.9910087585449219,-0.8552718162536621,6.975934028625488,8.6229887008667,-1.3092784881591797
5_20251106_145508,1762412073108,5,0.05472070723772049,0.4860617220401764,0.6151263117790222,0.6183601021766663,2.447852849960327,2.004530429840088,-1.406141757965088,6.146130561828613,7.372220039367676,-2.3740336894989014,0.7722246050834656,-0.3638463318347931,-0.7293877601623535,8.883733749389648,-30.54283905029297,29.627580642700195,-0.6638426780700684,-1.000615119934082,-0.851804256439209,6.809973239898682,8.372835159301758,-1.5222294330596924
5_20251106_145508,1762412073127,5,0.057523857802152634,0.4848340153694153,0.6224819421768188,0.6116724610328674,2.463188886642456,1.9878336191177368,-1.4139766693115234,5.782227516174316,7.2956085205078125,-2.534438371658325,0.7697811722755432,-0.4670824706554413,-0.6762425303459167,9.310917854309082,-30.007041931152344,30.18172264099121,-0.8221964836120605,-0.861781120300293,-0.8097672462463379,6.604423999786377,8.157389640808105,-1.7246711254119873
5_20251106_145508,1762412073147,5,0.06057973951101303,0.48474881052970886,0.6292806267738342,0.6044456362724304,2.463188886642456,1.9878336191177368,-1.4139766693115234,5.782227516174316,7.2956085205078125,-2.534438371658325,0.7245771884918213,-0.581314206123352,-0.5027569532394409,9.802939414978027,-29.415565490722656,30.5906925201416,-0.8221964836120605,-0.861781120300293,-0.8097672462463379,6.604423999786377,8.157389640808105,-1.7246711254119873
5_20251106_145508,1762412073166,5,0.06343498080968857,0.48529890179634094,0.6355563998222351,0.597100555896759,2.476170778274536,1.966631293296814,-1.4254951477050781,5.673295974731445,7.062183856964111,-2.7068135738372803,0.6543276906013489,-0.6301833391189575,-0.4123489558696747,10.365158081054688,-28.86968231201172,31.015066146850586,-0.7449026107788086,-0.8761649131774902,-0.7857139110565186,6.418198585510254,7.938348770141602,-1.9210996627807617
5_20251106_145508,1762412073185,5,0.06638322025537491,0.48660025000572205,0.6410279273986816,0.5898276567459106,2.492201328277588,1.9241939783096313,-1.4514206647872925,5.737936973571777,6.833547592163086,-3.0204405784606934,0.5926304459571838,-0.6906589269638062,-0.3396560251712799,10.978730201721191,-28.28227996826172,31.37461280822754,-0.4269399642944336,-0.7149257659912109,-0.7315411567687988,6.164876937866211,7.548473358154297,-2.2888994216918945
5_20251106_145508,1762412073205,5,0.0694381520152092,0.48868095874786377,0.6455600261688232,0.582770586013794,2.4978809356689453,1.8995957374572754,-1.468031406402588,5.6385817527771,6.8263654708862305,-3.086277961730957,0.5602545738220215,-0.7609083652496338,-0.35126248002052307,11.541430473327637,-27.747337341308594,31.636526107788086,-0.4210362434387207,-0.5776863098144531,-0.6379027366638184,6.05961799621582,7.404051780700684,-2.4483752250671387
5_20251106_145508,1762412073223,5,0.07285992056131363,0.49129679799079895,0.6495876312255859,0.5756343007087708,2.5011165142059326,1.8766052722930908,-1.483754277229309,5.4015655517578125,6.608502388000488,-3.0659284591674805,0.5254352688789368,-0.7957277297973633,-0.41967931389808655,12.143296241760254,-27.171669006347656,31.833120346069336,-0.5264420509338379,-0.6364398002624512,-0.49404263496398926,5.92800760269165,7.2449421882629395,-2.571885824203491
5_20251106_145508,1762412073241,5,0.07708779722452164,0.4938575029373169,0.6535887122154236,0.5683168768882751,2.502375364303589,1.852834701538086,-1.5010954141616821,5.190885543823242,6.4612650871276855,-3.548339366912842,0.4967246651649475,-0.8183296918869019,-0.4471682012081146,12.827744483947754,-26.640541076660156,32.018577575683594,-0.5896978378295898,-0.6269416809082031,-0.7811627388000488,5.780583381652832,7.088206768035889,-2.767176628112793
5_20251106_145508,1762412073261,5,0.08179962635040283,0.49605512619018555,0.6575672626495361,0.5611091256141663,2.50105619430542,1.8256374597549438,-1.5226807594299316,4.909578323364258,6.395427703857422,-3.846404552459717,0.47351181507110596,-0.9233983755111694,-0.42456623911857605,13.437457084655762,-26.15117645263672,32.132720947265625,-0.6968040466308594,-0.5542235374450684,-0.8633823394775391,5.606382369995117,6.94965124130249,-2.9830222129821777
5_20251106_145508,1762412073280,5,0.08709770441055298,0.4985813796520233,0.6613156795501709,0.5536173582077026,2.50105619430542,1.8256374597549438,-1.5226807594299316,4.909578323364258,6.395427703857422,-3.846404552459717,0.47351181507110596,-0.9233983755111694,-0.42456623911857605,13.437457084655762,-26.15117645263672,32.132720947265625,-0.6968040466308594,-0.5542235374450684,-0.8633823394775391,5.606382369995117,6.94965124130249,-2.9830222129821777
5_20251106_145508,1762412073299,5,0.09303299337625504,0.5019212365150452,0.6646398901939392,0.5455948710441589,2.489889144897461,1.773827075958252,-1.569146990776062,4.194940090179443,6.4289445877075195,-4.260583877563477,0.4545750021934509,-1.0412954092025757,-0.3952447474002838,14.79906940460205,-25.24958038330078,32.24339294433594,-0.962313175201416,-0.3357424736022949,-0.8578600883483887,5.157253265380859,6.7646870613098145,-3.402723789215088
5_20251106_145508,1762412073318,5,0.09958845376968384,0.505722165107727,0.6676319241523743,0.5372102856636047,2.4803171157836914,1.7496610879898071,-1.5939069986343384,3.871736764907837,6.378668785095215,-4.646034240722656,0.3317911922931671,-1.1298706531524658,-0.34271034598350525,15.493155479431152,-24.79070281982422,32.19797897338867,-1.0284130573272705,-0.30881500244140625,-0.9946482181549072,4.900149822235107,6.687483787536621,-3.651386022567749
5_20251106_145508,1762412073337,5,0.10655496269464493,0.5096272230148315,0.6701585650444031,0.5289741158485413,2.466493606567383,1.7232537269592285,-1.6236958503723145,3.6766176223754883,6.391836166381836,-4.853123664855957,0.22611157596111298,-1.189124584197998,-0.26451966166496277,16.264270782470703,-24.48828887939453,32.030921936035156,-0.9788260459899902,-0.23651790618896484,-0.9613900184631348,4.6554436683654785,6.628354072570801,-3.8917336463928223
5_20251106_145508,1762412073357,5,0.11399521678686142,0.51405930519104,0.6717467904090881,0.5210607647895813,2.449974536895752,1.6977970600128174,-1.6544957160949707,3.541351079940796,6.506752967834473,-4.714265823364258,0.10943641513586044,-1.2355502843856812,-0.2205374389886856,17.06075668334961,-24.17133331298828,31.824560165405273,-0.8912742137908936,-0.09728097915649414,-0.6580257415771484,4.4326252937316895,6.604033946990967,-4.056240081787109
5_20251106_145508,1762412073376,5,0.12201181799173355,0.519053041934967,0.6723301410675049,0.5134872794151306,2.432302236557007,1.6749331951141357,-1.6835856437683105,3.4252374172210693,6.644413948059082,-4.527525901794434,-0.01701258309185505,-1.212948203086853,-0.23397646844387054,17.06075668334961,-24.17133331298828,31.824560165405273,-0.8059103488922119,0.032303810119628906,-0.3770289421081543,4.231147766113281,6.612110137939453,-4.150496959686279
5_20251106_145508,1762412073395,5,0.1306818574666977,0.5240060091018677,0.6720672249794006,0.506621778011322,2.4130594730377197,1.6532584428787231,-1.7122948169708252,3.336655855178833,6.628851890563965,-4.5418901443481445,-0.11291833966970444,-1.176296353340149,-0.2877325117588043,17.902576446533203,-23.90222930908203,31.7002010345459,-0.7155935764312744,0.013393402099609375,-0.31311464309692383,4.052249431610107,6.6154584884643555,-4.228775501251221
5_20251106_145508,1762412073415,5,0.13980388641357422,0.5282056927680969,0.6714337468147278,0.5006299018859863,2.390782356262207,1.6310749053955078,-1.741719365119934,3.054152011871338,6.4480977058410645,-4.46408224105835,-0.11291833966970444,-1.176296353340149,-0.2877325117588043,18.71929168701172,-23.670494079589844,31.384843826293945,-0.7984778881072998,-0.13388872146606445,-0.18824529647827148,3.8526298999786377,6.581986427307129,-4.275836944580078
5_20251106_145508,1762412073433,5,0.14947344362735748,0.5317426919937134,0.6706464290618896,0.4951168894767761,2.370232582092285,1.6129150390625,-1.7657643556594849,2.6866579055786133,6.469644546508789,-4.405426502227783,-0.2607475817203522,-1.2105048894882202,-0.335990846157074,19.60760498046875,-23.470863342285156,30.990537643432617,-0.9327776432037354,-0.0898733139038086,-0.10367155075073242,3.6194355487823486,6.559517860412598,-4.301754951477051
5_20251106_145508,1762412073453,5,0.15973109006881714,0.5351598262786865,0.669437825679779,0.48983967304229736,2.370232582092285,1.6129150390625,-1.7657643556594849,2.6866579055786133,6.469644546508789,-4.405426502227783,-0.2607475817203522,-1.2105048894882202,-0.335990846157074,20.49057388305664,-23.37128448486328,30.553571701049805,-0.9327776432037354,-0.0898733139038086,-0.10367155075073242,3.6194355487823486,6.559517860412598,-4.301754951477051
5_20251106_145508,1762412073471,5,0.17053115367889404,0.5384026765823364,0.6678024530410767,0.4848520755767822,2.314858913421631,1.5723228454589844,-1.817402720451355,1.974413514137268,6.213476181030273,-4.471264839172363,-0.39147263765335083,-1.215391755104065,-0.2975063621997833,21.348663330078125,-23.28557586669922,30.088327407836914,-1.101845383644104,-0.2467484474182129,-0.13549137115478516,3.076258897781372,6.460224628448486,-4.335773468017578
5_20251106_145508,1762412073491,5,0.18146993219852448,0.5414109826087952,0.6657633781433105,0.4803144037723541,2.282658100128174,1.5514647960662842,-1.8425225019454956,1.7433829307556152,6.060253620147705,-4.4832353591918945,-0.39147263765335083,-1.215391755104065,-0.2975063621997833,22.22878646850586,-23.25945281982422,29.46055030822754,-1.066300868988037,-0.3199772834777832,-0.11796951293945312,2.8096837997436523,6.380230903625488,-4.365265846252441
5_20251106_145508,1762412073510,5,0.19266293942928314,0.544778048992157,0.6629952788352966,0.47595706582069397,2.2520322799682617,1.5329523086547852,-1.8637539148330688,1.5530520677566528,6.104544639587402,-4.265372276306152,-0.5325824022293091,-1.3473385572433472,-0.11730130016803741,23.082012176513672,-23.284751892089844,28.790185928344727,-1.0053054094314575,-0.2205486297607422,0.07991504669189453,2.5583574771881104,6.3250932693481445,-4.345287322998047
5_20251106_145508,1762412073528,5,0.20429140329360962,0.5489771962165833,0.6590913534164429,0.4716859757900238,2.2520322799682617,1.5329523086547852,-1.8637539148330688,1.5530520677566528,6.104544639587402,-4.265372276306152,-0.5741211771965027,-1.3827687501907349,-0.0617126040160656,23.958499908447266,-23.333168029785156,28.079729080200195,-1.0053054094314575,-0.2205486297607422,0.07991504669189453,2.5583574771881104,6.3250932693481445,-4.345287322998047
5_20251106_145508,1762412073548,5,0.21627385914325714,0.5537379384040833,0.6541957855224609,0.4675765335559845,2.181710720062256,1.496678352355957,-1.8980423212051392,1.3878592252731323,6.618078708648682,-2.551197052001953,-0.49898484349250793,-1.3583341836929321,-0.08309288322925568,24.784908294677734,-23.432960510253906,27.16350746154785,-0.765015721321106,0.2313704490661621,1.330552339553833,2.1528749465942383,6.3867082595825195,-3.881749391555786
5_20251106_145508,1762412073566,5,0.2281446009874344,0.5584679245948792,0.6490882039070129,0.4634092152118683,2.181710720062256,1.496678352355957,-1.8980423212051392,1.3878592252731323,6.618078708648682,-2.551197052001953,-0.23753474652767181,-1.1488075256347656,-0.189994215965271,25.622413635253906,-23.53343963623047,26.396455764770508,-0.765015721321106,0.2313704490661621,1.330552339553833,2.1528749465942383,6.3867082595825195,-3.881749391555786
5_20251106_145508,1762412073586,5,0.23879696428775787,0.5624420046806335,0.6451383233070374,0.45872825384140015,2.1088545322418213,1.4679903984069824,-1.9073753356933594,0.31650012731552124,6.33198356628418,-2.0604069232940674,0.1625816375017166,-0.8329904079437256,-0.3341582715511322,26.411964416503906,-23.636024475097656,25.519311904907227,-1.278130292892456,-0.1001434326171875,1.0857923030853271,1.594630479812622,6.432126998901367,-3.1461992263793945
5_20251106_145508,1762412073606,5,0.24630364775657654,0.5646403431892395,0.6441597938537598,0.4534026086330414,2.062992572784424,1.4500246047973633,-1.9128201007843018,-0.012688450515270233,5.612557411193848,-3.8883016109466553,0.3989863097667694,-0.7767908573150635,-0.3390451669692993,27.14350128173828,-23.692222595214844,24.627256393432617,-1.2858550548553467,-0.6556558609008789,-0.593682050704956,1.2731666564941406,6.268213272094727,-3.294619560241699
5_20251106_145508,1762412073625,5,0.2509346306324005,0.5660247802734375,0.6457747220993042,0.4467916190624237,2.0199007987976074,1.4326227903366089,-1.9213227033615112,-0.06535863876342773,5.553901672363281,-4.687930583953857,0.20717476308345795,-1.1469749212265015,-0.08553633838891983,27.866588592529297,-23.674537658691406,23.803874969482422,-1.0708202123641968,-0.5714492797851562,-1.1146488189697266,1.005461573600769,6.1253509521484375,-3.573281764984131
5_20251106_145508,1762412073643,5,0.2560679018497467,0.5692753195762634,0.6463239192962646,0.4388852119445801,1.97823965549469,1.4160197973251343,-1.9304670095443726,-0.16351668536663055,5.743035793304443,-4.179184436798096,-0.14285072684288025,-1.531208872795105,0.20767872035503387,28.538829803466797,-23.68608856201172,23.07261848449707,-0.9351826310157776,-0.30585241317749023,-0.4847221374511719,0.7716659307479858,6.048888206481934,-3.694462299346924
5_20251106_145508,1762412073662,5,0.26416295766830444,0.5756131410598755,0.642714262008667,0.431052029132843,1.9341137409210205,1.4004528522491455,-1.9385100603103638,-0.08451142907142639,6.443309307098389,-3.2837915420532227,-0.14285072684288025,-1.531208872795105,0.20767872035503387,29.15939712524414,-23.762794494628906,22.256982803344727,-0.6849418878555298,0.3155364990234375,0.3285367488861084,0.6004304885864258,6.127772808074951,-3.612328290939331
5_20251106_145508,1762412073680,5,0.27440717816352844,0.5834611654281616,0.6358431577682495,0.42423734068870544,1.8926725387573242,1.3882217407226562,-1.9443355798721313,-0.10127012431621552,6.850306510925293,-3.0383963584899902,-0.5014283061027527,-1.3461167812347412,0.29075634479522705,29.75336456298828,-23.89051055908203,21.358213424682617,-0.5613604784011841,0.5780267715454102,0.45914554595947266,0.46009036898612976,6.272279739379883,-3.497541904449463
5_20251106_145508,1762412073700,5,0.2846127152442932,0.5900771617889404,0.6283211708068848,0.4195438623428345,1.8493068218231201,1.37743079662323,-1.9493247270584106,-0.19942817091941833,6.809606552124023,-3.186830520629883,-0.5252520442008972,-1.161024808883667,0.1600312739610672,30.32740020751953,-23.932579040527344,20.527891159057617,-0.5276148319244385,0.42986154556274414,0.24856901168823242,0.32818666100502014,6.379745006561279,-3.4353995323181152
5_20251106_145508,1762412073719,5,0.29427608847618103,0.594760000705719,0.6216564774513245,0.4161794185638428,1.8035074472427368,1.3688018321990967,-1.9543588161468506,-0.4723554253578186,7.09091329574585,-3.450181245803833,-0.5838950276374817,-1.0339648723602295,0.08611665666103363,30.877151489257812,-23.98772430419922,19.588193893432617,-0.640433669090271,0.5689349174499512,-0.011825323104858398,0.1680782586336136,6.521978378295898,-3.4383559226989746
5_20251106_145508,1762412073738,5,0.3036348223686218,0.5980453491210938,0.615797221660614,0.413450688123703,1.762418270111084,1.3646082878112793,-1.9585299491882324,-0.6160013675689697,7.815128326416016,-3.384343385696411,-0.724393904209137,-0.9325613975524902,0.07817541062831879,31.310588836669922,-24.163429260253906,18.6822566986084,-0.6272637248039246,1.034520149230957,0.04321002960205078,0.01126234233379364,6.780608177185059,-3.427553415298462
5_20251106_145508,1762412073757,5,0.31302231550216675,0.6003255844116211,0.6100237369537354,0.4117004871368408,1.7171322107315063,1.3648406267166138,-1.96173894405365,-0.6183954477310181,8.313100814819336,-3.0348052978515625,-0.8600059151649475,-0.8207731246948242,0.09650135040283203,31.740882873535156,-24.413002014160156,17.626056671142578,-0.5037262439727783,1.2259941101074219,0.31419849395751953,-0.11466920375823975,7.087106704711914,-3.349003791809082
5_20251106_145508,1762412073776,5,0.3226613402366638,0.601660966873169,0.6038503050804138,0.41141045093536377,1.6748301982879639,1.3686339855194092,-1.9631260633468628,-0.6363511681556702,8.393302917480469,-2.7989864349365234,-0.8771101236343384,-0.679052472114563,0.12765544652938843,32.05997848510742,-24.706581115722656,16.483552932739258,-0.4173455834388733,1.044957160949707,0.4400138854980469,-0.21900558471679688,7.348345756530762,-3.2390003204345703
5_20251106_145508,1762412073797,5,0.3319476246833801,0.602262556552887,0.597477376461029,0.41244563460350037,1.6282399892807007,1.3764241933822632,-1.9622571468353271,-0.8673816919326782,8.48427963256836,-2.5452117919921875,-0.8771101236343384,-0.679052472114563,0.12765544652938843,32.35258865356445,-25.03942108154297,15.339277267456055,-0.518700897693634,0.9087467193603516,0.5550308227539062,-0.3486807942390442,7.575532913208008,-3.1002426147460938
5_20251106_145508,1762412073816,5,0.34026390314102173,0.6028186678886414,0.5912110209465027,0.41388365626335144,1.585313320159912,1.3854228258132935,-1.9589169025421143,-1.3988715410232544,8.414850234985352,-2.1549737453460693,-0.7879238724708557,-0.6405680179595947,0.20340266823768616,32.35258865356445,-25.03942108154297,15.339277267456055,-0.8401526212692261,0.6714539527893066,0.7562150955200195,-0.5587189197540283,7.743396282196045,-2.911188840866089
5_20251106_145508,1762412073834,5,0.3473300039768219,0.6041480302810669,0.5847049951553345,0.4153156578540802,1.543932557106018,1.394844889640808,-1.9532262086868286,-1.674193024635315,8.280780792236328,-1.8209971189498901,-0.7231722474098206,-0.2306777983903885,0.6022973656654358,32.58659362792969,-25.326683044433594,14.261186599731445,-0.8923792839050293,0.42990779876708984,0.8721534013748169,-0.7818137407302856,7.850872993469238,-2.693150520324707
5_20251106_145508,1762412073853,5,0.3524397015571594,0.6059029698371887,0.5778114795684814,0.4180929660797119,1.5001002550125122,1.406851887702942,-1.9465456008911133,-1.6334933042526245,8.783540725708008,-2.3381223678588867,-0.7231722474098206,-0.2306777983903885,0.6022973656654358,32.69947052001953,-25.586097717285156,13.368209838867188,-0.681343674659729,0.7461347579956055,0.28402256965637207,-0.9521496295928955,8.037405967712402,-2.622144937515259
5_20251106_145508,1762412073873,5,0.35460951924324036,0.6069216132164001,0.5703516602516174,0.4249672591686249,1.4556522369384766,1.4245223999023438,-1.9386776685714722,-1.1546735763549805,9.900388717651367,-2.2315850257873535,-0.9418617486953735,0.19387318193912506,0.9370511770248413,32.718177795410156,-26.01390838623047,12.427820205688477,-0.16201919317245483,1.4903860092163086,0.31244802474975586,-0.9926543831825256,8.410002708435059,-2.5440330505371094
5_20251106_145508,1762412073891,5,0.3555121421813965,0.6075722575187683,0.560313880443573,0.43648067116737366,1.4200239181518555,1.445585012435913,-1.9288054704666138,-0.02825009822845459,10.828102111816406,-1.2667632102966309,-1.5918219089508057,0.31421351432800293,1.4898837804794312,32.613826751708984,-26.46289825439453,11.549842834472656,0.7715234756469727,1.9344797134399414,1.0218160152435303,-0.7997735738754272,8.893622398376465,-2.288579225540161
5_20251106_145508,1762412073911,5,0.356974720954895,0.6082592010498047,0.5469486713409424,0.4510398209095001,1.3884698152542114,1.4748703241348267,-1.912490963935852,1.1915432214736938,11.21355152130127,-0.3498234152793884,-1.4977487325668335,0.27756163477897644,1.3628239631652832,32.27000045776367,-27.05376434326172,10.78155517578125,1.5930534601211548,1.855942726135254,1.5510046482086182,-0.40151023864746094,9.357608795166016,-1.9008280038833618
5_20251106_145508,1762412073930,5,0.3588143289089203,0.6085799932479858,0.5327875018119812,0.4658541977405548,1.3665732145309448,1.5058897733688354,-1.893567681312561,1.997157335281372,11.030403137207031,-0.37017327547073364,-1.2332442998886108,0.3319286108016968,1.039676547050476,31.862537384033203,-27.68708038330078,10.091119766235352,1.9189341068267822,1.338235855102539,1.2245237827301025,0.07822322845458984,9.692167282104492,-1.594697117805481
5_20251106_145508,1762412073949,5,0.36024242639541626,0.6080804467201233,0.5207217335700989,0.47886574268341064,1.3524227142333984,1.537279486656189,-1.8756407499313354,2.3347253799438477,11.102226257324219,-1.2308517694473267,-1.1391711235046387,0.4040106534957886,0.6285645365715027,31.424556732177734,-28.434730529785156,9.370296478271484,1.805201768875122,1.128046989440918,0.29107630252838135,0.5295236110687256,9.9741792678833,-1.521928071975708
5_20251106_145508,1762412073968,5,0.36149856448173523,0.6059428453445435,0.5118372440338135,0.4900761842727661,1.3420350551605225,1.5744500160217285,-1.8569939136505127,2.0258865356445312,11.302133560180664,-1.6127104759216309,-1.1391711235046387,0.4040106534957886,0.6285645365715027,30.8917236328125,-29.127159118652344,8.768516540527344,1.1970903873443604,1.062363624572754,-0.07262587547302246,0.8287961483001709,10.23976993560791,-1.5400846004486084
5_20251106_145508,1762412073987,5,0.36486679315567017,0.6016196608543396,0.5051062107086182,0.4997937083244324,1.3340758085250854,1.610503911972046,-1.840531826019287,1.344765543937683,11.15369987487793,-1.673760175704956,-1.28394615650177,0.3881281614303589,0.18446587026119232,30.324050903320312,-29.78484344482422,8.220121383666992,0.41277551651000977,0.7311439514160156,-0.10694050788879395,0.9319900274276733,10.422555923461914,-1.566819667816162
5_20251106_145508,1762412074006,5,0.37100544571876526,0.5947343111038208,0.4997817575931549,0.5087870359420776,1.326067328453064,1.645243763923645,-1.823649287223816,0.7689847946166992,10.600662231445312,-1.1135410070419312,-1.439105749130249,0.3093265891075134,-0.17655518651008606,29.77237319946289,-30.390159606933594,7.538109302520752,-0.13040423393249512,0.1424846649169922,0.3626229763031006,0.8993890285491943,10.45817756652832,-1.4761639833450317
5_20251106_145508,1762412074026,5,0.3786095082759857,0.5866727828979492,0.495006799697876,0.5171442627906799,1.3171274662017822,1.6801365613937378,-1.8039830923080444,0.5930185317993164,10.508489608764648,-0.5605040788650513,-1.439105749130249,0.3093265891075134,-0.17655518651008606,29.276386260986328,-30.866859436035156,6.8742146492004395,-0.2450963854789734,0.04024982452392578,0.7325279712677002,0.8381149172782898,10.468239784240723,-1.2930320501327515
5_20251106_145508,1762412074045,5,0.38609594106674194,0.5796477198600769,0.489847868680954,0.5243925452232361,1.308393955230713,1.709871530532837,-1.783837914466858,0.3955053687095642,10.428287506103516,0.05956745892763138,-1.2240813970565796,0.0423787422478199,0.02503018081188202,28.81818389892578,-31.304710388183594,6.334229946136475,-0.3540876507759094,-0.03196144104003906,1.082079529762268,0.7495930194854736,10.460248947143555,-1.0225120782852173
5_20251106_145508,1762412074064,5,0.3930875360965729,0.574171245098114,0.48397988080978394,0.5306345820426941,1.308393955230713,1.709871530532837,-1.783837914466858,0.3955053687095642,10.428287506103516,0.05956745892763138,-1.180709958076477,0.06192640960216522,0.06107119843363762,28.50629425048828,-31.53156280517578,5.668700695037842,-0.3540876507759094,-0.03196144104003906,1.082079529762268,0.7495930194854736,10.460248947143555,-1.0225120782852173
5_20251106_145508,1762412074081,5,0.399689257144928,0.5694612860679626,0.47783908247947693,0.5363134741783142,1.285771131515503,1.7664180994033813,-1.733322262763977,-0.3167389929294586,10.463001251220703,0.7035800218582153,-1.1764339208602905,0.3148244023323059,0.09039270877838135,27.902015686035156,-32.077293395996094,4.4340596199035645,-0.738378643989563,0.010188102722167969,1.1234686374664307,0.42163968086242676,10.452813148498535,-0.4198886752128601
5_20251106_145508,1762412074101,5,0.4054308533668518,0.5640444159507751,0.4721466898918152,0.5427312850952148,1.270925521850586,1.7942320108413696,-1.702017903327942,-0.344271183013916,10.32175064086914,0.9729161262512207,-1.1746013164520264,0.5707767009735107,0.19485056400299072,27.661529541015625,-32.111961364746094,3.7884583473205566,-0.6127287149429321,-0.10484981536865234,1.1142438650131226,0.2684575021266937,10.426600456237793,-0.14132773876190186
5_20251106_145508,1762412074120,5,0.40941813588142395,0.5570633411407471,0.46742090582847595,0.5509762763977051,1.270925521850586,1.7942320108413696,-1.702017903327942,-0.344271183013916,10.32175064086914,0.9729161262512207,-1.1269539594650269,0.7216602563858032,0.38421866297721863,27.47259521484375,-32.104835510253906,3.0509963035583496,-0.6127287149429321,-0.10484981536865234,1.1142438650131226,0.2684575021266937,10.426600456237793,-0.14132773876190186
5_20251106_145508,1762412074139,5,0.41171517968177795,0.5498800873756409,0.4625371992588043,0.560519278049469,1.2448128461837769,1.8422483205795288,-1.6366397142410278,0.49964866042137146,10.701213836669922,1.6935398578643799,-1.0304372310638428,0.8022944331169128,0.539989173412323,27.230304718017578,-32.16515350341797,2.458932399749756,0.22648876905441284,0.23167800903320312,1.2244956493377686,0.2731598913669586,10.469535827636719,0.4690442383289337
5_20251106_145508,1762412074158,5,0.41204214096069336,0.54312664270401,0.4573803246021271,0.5709973573684692,1.2341314554214478,1.8690345287322998,-1.5972973108291626,0.9269952774047852,11.25305461883545,1.9688613414764404,-1.0304372310638428,0.8022944331169128,0.539989173412323,26.985713958740234,-32.251792907714844,1.9879870414733887,0.5230683088302612,0.6268148422241211,1.1998536586761475,0.4039269685745239,10.626239776611328,0.769007682800293
5_20251106_145508,1762412074177,5,0.41079697012901306,0.536644697189331,0.4525294005870819,0.5817863941192627,1.226550579071045,1.895171880722046,-1.557349443435669,1.1544346809387207,11.341636657714844,2.3878285884857178,-0.86550372838974,1.0875682830810547,0.538767397403717,26.678302764892578,-32.356590270996094,1.676520824432373,0.6004061698913574,0.5723171234130859,1.295056700706482,0.5540285110473633,10.769319534301758,1.0927718877792358
5_20251106_145508,1762412074197,5,0.4084474444389343,0.5294625163078308,0.4487418532371521,0.5928497910499573,1.221795678138733,1.922634243965149,-1.5134754180908203,1.4836231470108032,11.205172538757324,2.38423752784729,-0.7970868349075317,1.243338704109192,0.5919126272201538,26.281841278076172,-32.55323028564453,1.197577953338623,0.743675708770752,0.3486824035644531,1.033172607421875,0.7399474382400513,10.856490135192871,1.351064920425415
5_20251106_145508,1762412074216,5,0.4048507511615753,0.5213625431060791,0.4459165930747986,0.6045125126838684,1.2212131023406982,1.9483920335769653,-1.470811367034912,2.091724395751953,11.211156845092773,2.4692277908325195,-0.7311134934425354,1.26288640499115,0.7018682956695557,26.281841278076172,-32.55323028564453,1.197577953338623,1.0814216136932373,0.2837333679199219,0.8945302963256836,1.0103027820587158,10.927423477172852,1.574697494506836
5_20251106_145508,1762412074234,5,0.39981600642204285,0.5132837891578674,0.44327983260154724,0.6165953874588013,1.22489333152771,1.9730509519577026,-1.429311990737915,2.7177813053131104,11.527177810668945,2.8343281745910645,-0.680411696434021,1.183474063873291,0.7507374882698059,25.845645904541016,-32.768165588378906,1.054807186126709,1.3659827709197998,0.47980403900146484,1.007704496383667,1.3517985343933105,11.04737377166748,1.8266236782073975
5_20251106_145508,1762412074255,5,0.3940618634223938,0.5060884952545166,0.4401857852935791,0.6283519268035889,1.235339879989624,2.0040435791015625,-1.379514217376709,3.2516653537750244,12.140068054199219,2.9612152576446533,-0.6541444659233093,1.106505036354065,0.6774336695671082,25.354883193969727,-33.075401306152344,1.0298733711242676,1.5198934078216553,0.8741550445556641,0.9076733589172363,1.7317719459533691,11.265913009643555,2.053541898727417
5_20251106_145508,1762412074274,5,0.38824260234832764,0.499414324760437,0.4369368255138397,0.6394835710525513,1.235339879989624,2.0040435791015625,-1.379514217376709,3.2516653537750244,12.140068054199219,2.9612152576446533,-0.6541444659233093,1.106505036354065,0.6774336695671082,24.806306838989258,-33.335975646972656,0.9629940986633301,1.5198934078216553,0.8741550445556641,0.9076733589172363,1.7317719459533691,11.265913009643555,2.053541898727417
5_20251106_145508,1762412074292,5,0.38348832726478577,0.49240562319755554,0.4342661201953888,0.6495277881622314,1.2488633394241333,2.0340068340301514,-1.334497332572937,3.3881287574768066,12.477636337280273,2.8606631755828857,-0.5539626479148865,1.2298997640609741,0.015256344340741634,24.166505813598633,-33.69135284423828,1.0259966850280762,1.3250854015350342,0.9693784713745117,0.6456968784332275,2.0630433559417725,11.508257865905762,2.214966297149658
5_20251106_145508,1762412074311,5,0.3803800046443939,0.4837588965892792,0.4337087571620941,0.6581679582595825,1.2802658081054688,2.0928401947021484,-1.2524226903915405,2.7596778869628906,11.803696632385254,2.0143492221832275,-0.5301389694213867,1.3575705289840698,-0.262687087059021,23.58220100402832,-33.91838836669922,1.1341490745544434,0.37842822074890137,0.1000204086303711,-0.20500588417053223,2.3812496662139893,11.703676223754883,2.2193551063537598
5_20251106_145508,1762412074331,5,0.3786056637763977,0.47287243604660034,0.4357118010520935,0.665736198425293,1.2968038320541382,2.12084698677063,-1.2128612995147705,2.4436569213867188,11.183625221252441,1.8491562604904175,-0.5301389694213867,1.3575705289840698,-0.262687087059021,23.02146339416504,-34.156532287597656,1.2565350532531738,0.049925804138183594,-0.41604042053222656,-0.29615914821624756,2.393731117248535,11.599665641784668,2.145315408706665
5_20251106_145508,1762412074350,5,0.3773503005504608,0.4608154892921448,0.43872126936912537,0.6728889346122742,1.3121225833892822,2.1440751552581787,-1.1775888204574585,2.537026882171631,10.853240013122559,1.9880139827728271,-0.5209760069847107,1.3722312450408936,-0.15578578412532806,22.483688354492188,-34.418190002441406,1.3793740272521973,0.11463665962219238,-0.5971403121948242,-0.1258411407470703,2.4223902225494385,11.450380325317383,2.1138551235198975
5_20251106_145508,1762412074369,5,0.3755146265029907,0.4490519165992737,0.4414203464984894,0.6800655722618103,1.3271821737289429,2.1631033420562744,-1.1450451612472534,2.939235210418701,10.688047409057617,2.4381046295166016,-0.5032609105110168,1.3374119997024536,-0.019562944769859314,22.072734832763672,-34.56078338623047,1.6987204551696777,0.41347599029541016,-0.6098661422729492,0.2593996524810791,2.525759220123291,11.297913551330566,2.1787049770355225
5_20251106_145508,1762412074388,5,0.3726881742477417,0.43811413645744324,0.443337082862854,0.687467634677887,1.3456708192825317,2.1813273429870605,-1.109155297279358,3.3785524368286133,10.685653686523438,2.684696674346924,-0.45683515071868896,1.310533881187439,0.00975856278091669,21.701539993286133,-34.661842346191406,1.8716511726379395,0.682234525680542,-0.4898080825805664,0.40479326248168945,2.6963179111480713,11.175461769104004,2.2799034118652344
5_20251106_145508,1762412074408,5,0.36904436349868774,0.42777615785598755,0.444873571395874,0.694911003112793,1.364635944366455,2.1957738399505615,-1.0762550830841064,3.526986598968506,10.446243286132812,2.465636730194092,-0.45683515071868896,1.310533881187439,0.00975856278091669,21.403772354125977,-34.746116638183594,2.101853847503662,0.6645350456237793,-0.5833749771118164,0.14858675003051758,2.8624515533447266,11.029618263244629,2.317049980163574
5_20251106_145508,1762412074427,5,0.36541157960891724,0.41744884848594666,0.44666704535484314,0.7019254565238953,1.3850717544555664,2.2057065963745117,-1.044926404953003,3.3462321758270264,9.544864654541016,1.800077199935913,-0.46233293414115906,1.4895172119140625,-0.22420263290405273,21.187992095947266,-34.87574005126953,2.402015209197998,0.3870244026184082,-1.1878032684326172,-0.4135782718658447,2.959207773208618,10.732667922973633,2.213655471801758
5_20251106_145508,1762412074446,5,0.362227201461792,0.40593579411506653,0.4491695463657379,0.7086989879608154,1.4038904905319214,2.2092971801757812,-1.0180628299713135,3.0960488319396973,8.773964881896973,1.6995251178741455,-0.5845059156417847,1.6245182752609253,-0.23275472223758698,21.053674697875977,-34.861656188964844,2.626924991607666,0.10947275161743164,-1.5669631958007812,-0.411304235458374,2.9865760803222656,10.340928077697754,2.1108293533325195
5_20251106_145508,1762412074466,5,0.3592018783092499,0.39284005761146545,0.4519512355327606,0.7158147692680359,1.423172950744629,2.2087135314941406,-0.9906446933746338,3.1391425132751465,8.967886924743652,2.293261766433716,-0.7433307766914368,1.5994728803634644,-0.04033234342932701,20.917539596557617,-34.88483428955078,2.8104939460754395,0.12205314636230469,-1.0984325408935547,0.14594602584838867,3.017089366912842,10.066319465637207,2.147315740585327
5_20251106_145508,1762412074485,5,0.35577914118766785,0.3791128695011139,0.4534469246864319,0.7239340543746948,1.4420859813690186,2.208289861679077,-0.9629804491996765,3.5676863193511963,10.103887557983398,3.2113986015319824,-0.8325169682502747,1.4033852815628052,0.23089160025119781,20.82592010498047,-34.980186462402344,2.9944405555725098,0.4404776096343994,0.030054092407226562,0.8512663841247559,3.127208709716797,10.073833465576172,2.3601322174072266
5_20251106_145508,1762412074503,5,0.35146859288215637,0.366812139749527,0.45255881547927856,0.7328773140907288,1.4607229232788086,2.210676670074463,-0.9332717061042786,3.7831552028656006,11.197990417480469,4.313880920410156,-0.8062497973442078,1.1950803995132446,0.35856232047080994,20.699756622314453,-35.040382385253906,3.1912245750427246,0.5247571468353271,0.8993253707885742,1.5629990100860596,3.2583980560302734,10.298665046691895,2.7508819103240967
5_20251106_145508,1762412074522,5,0.3465971350669861,0.35670146346092224,0.4497298002243042,0.7418743968009949,1.4607229232788086,2.210676670074463,-0.9332717061042786,3.7831552028656006,11.197990417480469,4.313880920410156,-0.6523119211196899,1.0955095291137695,0.3591732084751129,20.514850616455078,-35.08997344970703,3.1830763816833496,0.5247571468353271,0.8993253707885742,1.5629990100860596,3.2583980560302734,10.298665046691895,2.7508819103240967
5_20251106_145508,1762412074540,5,0.3416348695755005,0.34819304943084717,0.44683122634887695,0.7499260306358337,1.4992165565490723,2.2281501293182373,-0.8579585552215576,3.522198438644409,12.482423782348633,5.679714202880859,-0.4995957016944885,1.0832921266555786,0.34817764163017273,20.346662521362305,-35.275962829589844,3.159489154815674,0.13646411895751953,1.4899215698242188,1.9570012092590332,3.3857343196868896,10.992502212524414,3.722712993621826
5_20251106_145508,1762412074559,5,0.3363235890865326,0.34022143483161926,0.4448988437652588,0.7571002840995789,1.5172951221466064,2.2432444095611572,-0.8126776218414307,3.239694833755493,12.59734058380127,6.0555877685546875,-0.28212785720825195,1.1211658716201782,0.36772531270980835,20.180490493774414,-35.424415588378906,3.150209903717041,-0.11683154106140137,1.2838706970214844,1.8662996292114258,3.3565263748168945,11.313469886779785,4.189288139343262
5_20251106_145508,1762412074579,5,0.3305048942565918,0.3326832056045532,0.44412094354629517,0.7634428143501282,1.5346364974975586,2.2623326778411865,-0.7615702748298645,3.114004611968994,12.627265930175781,6.105863571166992,-0.00235182698816061,1.1401026248931885,0.4117075502872467,19.993667602539062,-35.51140594482422,3.1142373085021973,-0.1940174102783203,1.0510368347167969,1.5332603454589844,3.3080220222473145,11.576229095458984,4.572603225708008
5_20251106_145508,1762412074598,5,0.3233834505081177,0.3256361484527588,0.4452674686908722,0.7688440084457397,1.5490740537643433,2.2809760570526123,-0.7140921354293823,3.149916172027588,12.519532203674316,6.108258247375488,0.27314817905426025,1.1480438709259033,0.46424195170402527,19.751163482666016,-35.71538543701172,3.155025005340576,-0.12648463249206543,0.7546424865722656,1.2285242080688477,3.2764008045196533,11.76488971710205,4.879734039306641
5_20251106_145508,1762412074617,5,0.3150922954082489,0.319619357585907,0.4481704831123352,0.7731128931045532,1.563987374305725,2.302079439163208,-0.6614315509796143,3.1690688133239746,12.233437538146973,5.716822624206543,0.5871326327323914,1.1944695711135864,0.4727940261363983,19.44552993774414,-35.94953155517578,3.300961971282959,-0.08586549758911133,0.37483787536621094,0.6696710586547852,3.254934310913086,11.858599662780762,5.047151565551758
5_20251106_145508,1762412074637,5,0.30551353096961975,0.3144358694553375,0.4531480371952057,0.7761754989624023,1.5776610374450684,2.321564197540283,-0.6109548211097717,3.0924577713012695,11.673218727111816,5.19490909576416,0.7936049103736877,1.3508509397506714,0.4159836173057556,19.15492820739746,-36.10942840576172,3.6382012367248535,-0.12998104095458984,-0.14830493927001953,0.11820602416992188,3.2224388122558594,11.821523666381836,5.076703071594238
5_20251106_145508,1762412074656,5,0.2948418855667114,0.3092648983001709,0.4604371190071106,0.7780881524085999,1.5776610374450684,2.321564197540283,-0.6109548211097717,3.0924577713012695,11.673218727111816,5.19490909576416,0.8901215195655823,1.5915316343307495,0.3048062324523926,19.15492820739746,-36.10942840576172,3.6382012367248535,-0.12998104095458984,-0.14830493927001953,0.11820602416992188,3.2224388122558594,11.821523666381836,5.076703071594238
5_20251106_145508,1762412074676,5,0.28334903717041016,0.3025117814540863,0.4695088267326355,0.7795905470848083,1.5907846689224243,2.338850259780884,-0.5611268281936646,3.068516731262207,11.180034637451172,4.920784950256348,0.988470733165741,1.8853574991226196,0.15209004282951355,18.924354553222656,-36.27819061279297,4.0046610832214355,-0.1231377124786377,-0.5131912231445312,-0.12473487854003906,3.1916544437408447,11.693225860595703,5.045519828796387
5_20251106_145508,1762412074694,5,0.2713405191898346,0.2933697998523712,0.48015427589416504,0.7808715105056763,1.6023279428482056,2.3516299724578857,-0.517914891242981,3.287576913833618,10.935836791992188,5.185332298278809,1.1784495115280151,2.160857677459717,0.029917098581790924,18.692296981811523,-36.44896697998047,4.5738654136657715,0.07673811912536621,-0.6059112548828125,0.11184978485107422,3.210838794708252,11.541748046875,5.073482513427734
5_20251106_145508,1762412074714,5,0.2585807740688324,0.2815292477607727,0.49277248978614807,0.78169846534729,1.6144734621047974,2.3605613708496094,-0.4775025546550751,3.6407063007354736,10.372025489807129,4.840582847595215,1.2939029932022095,2.002643585205078,0.06962330639362335,18.514476776123047,-36.469932556152344,5.553687572479248,0.34389424324035645,-0.9357776641845703,-0.18631935119628906,3.296812057495117,11.3078031539917,5.026902198791504
5_20251106_145508,1762412074733,5,0.24511338770389557,0.26895007491111755,0.5069054365158081,0.7814295887947083,1.6418771743774414,2.362640857696533,-0.4159807562828064,4.21409273147583,9.072031021118164,3.06296443939209,1.2939029932022095,2.002643585205078,0.06962330639362335,18.254793167114258,-36.42218780517578,6.639790058135986,0.6245989799499512,-1.4992694854736328,-1.3478960990905762,3.589493751525879,10.571300506591797,4.410860538482666
5_20251106_145508,1762412074751,5,0.23227332532405853,0.26080235838890076,0.5191594958305359,0.7800670862197876,1.6572799682617188,2.357769012451172,-0.3941168189048767,4.446320533752441,9.149839401245117,2.889392375946045,1.0672723054885864,0.6544651985168457,0.7165290713310242,18.002782821655273,-36.437782287597656,7.860226154327393,0.6854612827301025,-1.1371688842773438,-1.2171745300292969,3.760859251022339,10.287008285522461,4.106566905975342
5_20251106_145508,1762412074772,5,0.22052723169326782,0.2597317695617676,0.5276881456375122,0.7781081795692444,1.6763499975204468,2.349224090576172,-0.37434905767440796,4.68572998046875,9.167795181274414,3.0174765586853027,1.0177922248840332,0.2329685240983963,0.7446288466453552,17.778583526611328,-36.377525329589844,9.191356658935547,0.7398965358734131,-0.8953704833984375,-0.8712723255157471,3.945833444595337,10.063165664672852,3.88874888420105
5_20251106_145508,1762412074789,5,0.21037086844444275,0.26359403133392334,0.5339096188545227,0.7753726840019226,1.6945446729660034,2.339029550552368,-0.3601560592651367,4.713262557983398,8.890079498291016,2.7888400554656982,0.9927467703819275,0.12667806446552277,0.5283827185630798,17.50765609741211,-36.28290557861328,10.534833908081055,0.6139430999755859,-0.9384689331054688,-0.8799269199371338,4.0993194580078125,9.828548431396484,3.668766975402832
5_20251106_145508,1762412074808,5,0.20227675139904022,0.26862433552742004,0.5395300388336182,0.7719017863273621,1.6945446729660034,2.339029550552368,-0.3601560592651367,4.713262557983398,8.890079498291016,2.7888400554656982,0.9518188834190369,0.13217584788799286,0.20401354134082794,17.236616134643555,-36.200035095214844,11.79694938659668,0.6139430999755859,-0.9384689331054688,-0.8799269199371338,4.0993194580078125,9.828548431396484,3.668766975402832
5_20251106_145508,1762412074828,5,0.19639955461025238,0.27219927310943604,0.54558926820755,0.7678978443145752,1.7317172288894653,2.306366443634033,-0.34433525800704956,3.869342565536499,8.021020889282227,1.7509982585906982,0.8033787608146667,0.1297323852777481,-0.06354521214962006,16.8964786529541,-36.05847930908203,12.989860534667969,-0.22264742851257324,-1.225001335144043,-1.3074307441711426,4.091989994049072,9.24602222442627,3.058429002761841
5_20251106_145508,1762412074848,5,0.19299541413784027,0.2739247679710388,0.5518315434455872,0.7636752724647522,1.7461700439453125,2.285090923309326,-0.3431563377380371,3.3929171562194824,7.621206283569336,1.7055103778839111,0.573693573474884,0.05520690232515335,-0.2046549767255783,16.64446258544922,-35.861122131347656,14.187259674072266,-0.559258222579956,-1.2998523712158203,-1.0823349952697754,3.9521753787994385,8.921058654785156,2.7878453731536865
5_20251106_145508,1762412074865,5,0.1919793039560318,0.2744758129119873,0.5570290088653564,0.7599510550498962,1.7568100690841675,2.2619996070861816,-0.3447250723838806,2.990708351135254,7.319549560546875,1.7198748588562012,0.4240317642688751,-0.03336848318576813,-0.22908955812454224,16.395313262939453,-35.65985870361328,14.992687225341797,-0.7691736221313477,-1.2812070846557617,-0.8543763160705566,3.7598819732666016,8.600756645202637,2.574251174926758
5_20251106_145508,1762412074885,5,0.19256733357906342,0.2748340368270874,0.5608326196670532,0.7568691372871399,1.764389157295227,2.232882499694824,-0.3498152494430542,2.5585737228393555,7.040637016296387,1.4445534944534302,0.38615816831588745,-0.07429641485214233,-0.18755075335502625,16.25049591064453,-35.55150604248047,15.759868621826172,-0.9610466957092285,-1.2480955123901367,-0.90375816822052,3.519620418548584,8.288732528686523,2.34831166267395
5_20251106_145508,1762412074905,5,0.1936701387166977,0.2755410969257355,0.5637861490249634,0.7541313767433167,1.7675416469573975,2.2023589611053467,-0.358803391456604,2.1755177974700928,6.741374969482422,0.7466738224029541,0.3629452884197235,0.04604392871260643,-0.13990330696105957,16.13437843322754,-35.36608123779297,16.516098022460938,-1.075282335281372,-1.2378864288330078,-1.2813103199005127,3.250800132751465,7.97926139831543,2.027984142303467
5_20251106_145508,1762412074924,5,0.19429871439933777,0.2762147784233093,0.566618800163269,0.7515959739685059,1.7670642137527466,2.1686549186706543,-0.37324514985084534,1.9851869344711304,6.263751983642578,-0.12358108907938004,0.2102290838956833,0.2732855975627899,-0.09286671131849289,16.07009506225586,-35.15007781982422,17.045042037963867,-1.0124903917312622,-1.3724074363708496,-1.7212520837783813,2.9976773262023926,7.636159420013428,1.5976710319519043
5_20251106_145508,1762412074941,5,0.1936696320772171,0.2754572331905365,0.5692833662033081,0.75002121925354,1.7637876272201538,2.134004592895508,-0.3909645676612854,1.841541051864624,5.883090019226074,-0.31989720463752747,-0.10619883239269257,0.3789651691913605,-1.5273690223693848e-05,16.06684112548828,-34.929969787597656,17.56292152404785,-0.9249088764190674,-1.4024558067321777,-1.5340546369552612,2.7664499282836914,7.285545825958252,1.2141574621200562
5_20251106_145508,1762412074962,5,0.19226516783237457,0.27332597970962524,0.5705227255821228,0.750220537185669,1.7587230205535889,2.096273899078369,-0.41006505489349365,2.1180593967437744,6.197914123535156,0.7287180423736572,-0.4556134343147278,0.2806159555912018,0.1753028929233551,16.06528091430664,-34.695960998535156,17.94590187072754,-0.5187125205993652,-0.8701057434082031,-0.38835155963897705,2.6367719173431396,7.068019866943359,1.1170696020126343
5_20251106_145508,1762412074979,5,0.1906699538230896,0.2711601257324219,0.5690033435821533,0.7525638341903687,1.7535361051559448,2.059957265853882,-0.4271215498447418,2.4999184608459473,6.895793914794922,1.5139824151992798,-0.5857276320457458,0.08636099845170975,0.3848295211791992,16.058563232421875,-34.573341369628906,18.164310455322266,-0.1094827651977539,-0.13778114318847656,0.3175302743911743,2.609401226043701,7.033575057983398,1.1964521408081055
5_20251106_145508,1762412074999,5,0.18916410207748413,0.2707723379135132,0.5646337866783142,0.7563650012016296,1.7490931749343872,2.02803111076355,-0.4412815570831299,2.786013126373291,7.971941947937012,1.9413291215896606,-0.5087586641311646,-0.14698931574821472,0.4831787645816803,15.97378158569336,-34.55500030517578,18.283052444458008,0.14128947257995605,0.7506933212280273,0.595901608467102,2.644723653793335,7.221248626708984,1.3454275131225586
5_20251106_145508,1762412075018,5,0.1877235323190689,0.27287551760673523,0.5592252016067505,0.7599776387214661,1.7490931749343872,2.02803111076355,-0.4412815570831299,2.786013126373291,7.971941947937012,1.9413291215896606,-0.4385092258453369,-0.26794058084487915,0.46485280990600586,15.847394943237305,-34.638694763183594,18.317113876342773,0.14128947257995605,0.7506933212280273,0.595901608467102,2.644723653793335,7.221248626708984,1.3454275131225586
5_20251106_145508,1762412075037,5,0.18679183721542358,0.2767108976840973,0.5539913177490234,0.7626489996910095,1.7435945272445679,1.9843543767929077,-0.4602247178554535,3.194206714630127,9.908767700195312,2.5637948513031006,-0.46721985936164856,-0.23984076082706451,0.35245367884635925,15.71072769165039,-34.69739532470703,18.28363037109375,0.3930389881134033,1.862508773803711,0.8368303775787354,2.8011677265167236,8.046258926391602,1.7269644737243652
5_20251106_145508,1762412075058,5,0.18650192022323608,0.2804882228374481,0.5489988923072815,0.7649468183517456,1.7428791522979736,1.9736692905426025,-0.46473827958106995,3.2037835121154785,10.527642250061035,2.821160316467285,-0.4995957016944885,-0.16714785993099213,0.16430732607841492,15.71072769165039,-34.69739532470703,18.28363037109375,0.32209277153015137,1.9851064682006836,0.8753566741943359,2.881690740585327,8.542535781860352,1.9458036422729492
5_20251106_145508,1762412075076,5,0.18710103631019592,0.2827833890914917,0.5441845059394836,0.7673916816711426,1.7427802085876465,1.9710243940353394,-0.465327650308609,3.067319393157959,10.841269493103027,3.1311962604522705,-0.4482830762863159,-0.15676315128803253,-0.04399753361940384,15.58218765258789,-34.853599548339844,18.032264709472656,0.14850282669067383,1.8389873504638672,0.9483141899108887,2.918816566467285,9.00228214263916,2.182882070541382
5_20251106_145508,1762412075094,5,0.18896710872650146,0.283687561750412,0.5400468707084656,0.7695206999778748,1.742138147354126,1.973051905632019,-0.4631810188293457,2.6962342262268066,10.846057891845703,3.282024383544922,-0.3212231993675232,-0.20563234388828278,-0.2058766931295395,15.377613067626953,-35.06493377685547,17.79041862487793,-0.17806577682495117,1.4750213623046875,0.8793139457702637,2.874300003051758,9.371036529541016,2.402710437774658
5_20251106_145508,1762412075114,5,0.19218693673610687,0.28390616178512573,0.5370451211929321,0.7707425355911255,1.739598035812378,1.9791338443756104,-0.4585295021533966,2.2617053985595703,10.66769790649414,3.18745756149292,-0.3212231993675232,-0.20563234388828278,-0.2058766931295395,15.271305084228516,-35.28044891357422,17.3494873046875,-0.49007582664489746,1.0373287200927734,0.6277976036071777,2.7517812252044678,9.630369186401367,2.559659957885742
5_20251106_145508,1762412075134,5,0.19610010087490082,0.28402218222618103,0.535388708114624,0.7708664536476135,1.7342904806137085,1.9869407415390015,-0.4534538686275482,1.7996442317962646,10.297808647155762,2.775672435760498,-0.17033962905406952,-0.2569449841976166,-0.29017600417137146,15.227943420410156,-35.454444885253906,16.925315856933594,-0.7617096900939941,0.5339517593383789,0.17280983924865723,2.561353921890259,9.763856887817383,2.602862596511841
5_20251106_145508,1762412075153,5,0.2001608908176422,0.28431811928749084,0.5349053144454956,0.7700487971305847,1.7263925075531006,1.9947420358657837,-0.44953206181526184,1.4285589456558228,10.039246559143066,2.3626904487609863,-0.02922987937927246,-0.2612210512161255,-0.30605849623680115,15.270700454711914,-35.59857940673828,16.58620262145996,-0.9062360525131226,0.22031116485595703,-0.1921377182006836,2.3347949981689453,9.81893539428711,2.55482816696167
5_20251106_145508,1762412075171,5,0.2037235051393509,0.28472262620925903,0.5353702306747437,0.7686406373977661,1.7165812253952026,2.001506805419922,-0.447236031293869,1.237031102180481,9.71484661102295,2.05385160446167,0.07950405031442642,-0.20624320209026337,-0.13074032962322235,15.302581787109375,-35.718528747558594,16.260644912719727,-0.8782111406326294,-0.08327102661132812,-0.40078115463256836,2.1152422428131104,9.798117637634277,2.4546327590942383
5_20251106_145508,1762412075190,5,0.20634663105010986,0.28539156913757324,0.5360792279243469,0.7671973705291748,1.7043955326080322,2.0075595378875732,-0.44611531496047974,1.2597750425338745,9.531697273254395,2.023925542831421,0.07339540123939514,-0.2196822315454483,0.00853683240711689,15.437095642089844,-35.732337951660156,16.008703231811523,-0.6843738555908203,-0.2131366729736328,-0.34456586837768555,1.9441488981246948,9.744833946228027,2.3684914112091064
5_20251106_145508,1762412075209,5,0.20788750052452087,0.2867918908596039,0.5365343689918518,0.7659400105476379,1.6913224458694458,2.0125572681427,-0.44592374563217163,1.3986327648162842,9.470647811889648,2.050260543823242,0.030024003237485886,-0.15431968867778778,0.08489491790533066,15.572610855102539,-35.733192443847656,15.716476440429688,-0.4364129304885864,-0.21934890747070312,-0.25458478927612305,1.8350456953048706,9.689996719360352,2.3048453330993652
5_20251106_145508,1762412075229,5,0.2086298018693924,0.2886878252029419,0.5364969372749329,0.7650516033172607,1.678378939628601,2.016345500946045,-0.4467916190624237,1.6440279483795166,9.340168952941895,1.9221761226654053,-0.03167333826422691,-0.0009926559869199991,0.06168206408619881,15.69818115234375,-35.673805236816406,15.600790023803711,-0.15281414985656738,-0.2798624038696289,-0.3061354160308838,1.796842098236084,9.620031356811523,2.228311538696289
5_20251106_145508,1762412075248,5,0.20877739787101746,0.2897805869579315,0.5361776351928711,0.7648220062255859,1.6664811372756958,2.018585205078125,-0.449165403842926,1.9420932531356812,9.124700546264648,1.6636135578155518,-0.10680969804525375,0.1663842797279358,-0.029947642236948013,15.858207702636719,-35.638099670410156,15.58066177368164,0.11620104312896729,-0.39626502990722656,-0.45175838470458984,1.8258922100067139,9.520965576171875,2.1153719425201416
5_20251106_145508,1762412075266,5,0.2086496204137802,0.28921735286712646,0.5358784794807434,0.7652796506881714,1.6664811372756958,2.018585205078125,-0.449165403842926,1.9420932531356812,9.124700546264648,1.6636135578155518,-0.20271547138690948,0.27145296335220337,-0.15150973200798035,15.969291687011719,-35.60584259033203,15.585603713989258,0.11620104312896729,-0.39626502990722656,-0.45175838470458984,1.8258922100067139,9.520965576171875,2.1153719425201416
5_20251106_145508,1762412075288,5,0.20873892307281494,0.2868737280368805,0.5355614423751831,0.7663585543632507,1.6455775499343872,2.0172722339630127,-0.45879417657852173,2.174320697784424,8.83022689819336,1.7797274589538574,-0.2992320656776428,0.24213148653507233,-0.20343323051929474,16.005033493041992,-35.627769470214844,15.505449295043945,0.22797393798828125,-0.45030784606933594,-0.16156768798828125,1.9463467597961426,9.280534744262695,1.9412951469421387
5_20251106_145508,1762412075306,5,0.209658682346344,0.2836529016494751,0.5348612070083618,0.7677940726280212,1.6384618282318115,2.0154223442077637,-0.46196675300598145,2.189882278442383,8.99781322479248,2.2968528270721436,-0.3511555790901184,0.12423461675643921,-0.13440550863742828,16.054580688476562,-35.611900329589844,15.494157791137695,0.19482851028442383,-0.22617721557617188,0.28444623947143555,1.995053768157959,9.223990440368652,2.012406587600708
5_20251106_145508,1762412075326,5,0.21115680038928986,0.2810254693031311,0.533331036567688,0.7694123983383179,1.631595492362976,2.013927936553955,-0.46302440762519836,2.2461438179016113,9.395233154296875,2.85467791557312,-0.37497928738594055,-0.018096867948770523,-0.023838993161916733,16.139671325683594,-35.61823272705078,15.429746627807617,0.20087218284606934,0.1369943618774414,0.6738171577453613,2.045271635055542,9.258238792419434,2.180860757827759
5_20251106_145508,1762412075344,5,0.2127000242471695,0.2798333466053009,0.5309237241744995,0.7710849642753601,1.6254345178604126,2.0141491889953613,-0.4610365629196167,2.2772669792175293,9.822580337524414,3.1826696395874023,-0.37436842918395996,-0.07796160876750946,0.0311388298869133,16.17349624633789,-35.67755889892578,15.321767807006836,0.18559622764587402,0.4514732360839844,0.8014471530914307,2.0916707515716553,9.37110710144043,2.3812224864959717
5_20251106_145508,1762412075363,5,0.2140846699476242,0.2797713875770569,0.5279101133346558,0.7727914452552795,1.6254345178604126,2.0141491889953613,-0.4610365629196167,2.2772669792175293,9.822580337524414,3.1826696395874023,-0.31939059495925903,-0.0914006307721138,-0.006123919039964676,16.14257049560547,-35.804039001464844,15.250566482543945,0.18559622764587402,0.4514732360839844,0.8014471530914307,2.0916707515716553,9.37110710144043,2.3812224864959717
5_20251106_145508,1762412075382,5,0.21554088592529297,0.28001224994659424,0.5249472856521606,0.7743161916732788,1.6201457977294922,2.0161685943603516,-0.45576921105384827,2.2772669792175293,9.966226577758789,3.4927051067352295,-0.23509129881858826,-0.030925024300813675,-0.08126027882099152,16.11595916748047,-35.866661071777344,15.072553634643555,0.14847707748413086,0.47609519958496094,0.8891861438751221,2.1287899017333984,9.490131378173828,2.6035189628601074
5_20251106_145508,1762412075400,5,0.21709884703159332,0.2798274755477905,0.5227698683738708,0.775420069694519,1.6120970249176025,2.0222182273864746,-0.4406958818435669,2.1827001571655273,9.711254119873047,3.3370888233184814,-0.23509129881858826,-0.030925024300813675,-0.08126027882099152,16.126399993896484,-35.926231384277344,14.828432083129883,0.020904064178466797,0.10455322265625,0.43079614639282227,2.1617960929870605,9.606700897216797,2.906292676925659
5_20251106_145508,1762412075419,5,0.21843533217906952,0.27886518836021423,0.5215820074081421,0.7761909365653992,1.607733964920044,2.025296688079834,-0.4323960840702057,1.9887781143188477,9.595141410827637,3.010294198989868,-0.09153807163238525,-0.04619664326310158,-0.14662282168865204,16.2006893157959,-35.93146514892578,14.574300765991211,-0.1384143829345703,-0.009247779846191406,0.08320116996765137,2.127192497253418,9.604389190673828,2.927093029022217
5_20251106_145508,1762412075439,5,0.21999695897102356,0.2780795097351074,0.5209994316101074,0.7764230370521545,1.602582573890686,2.0288782119750977,-0.4241926968097687,1.8678760528564453,9.76991081237793,2.8953773975372314,-0.0994793176651001,-0.13538289070129395,-0.11974476277828217,16.248306274414062,-35.96460723876953,14.4403076171875,-0.20745301246643066,0.1324176788330078,-0.025372743606567383,2.075329065322876,9.637493133544922,2.920750141143799
5_20251106_145508,1762412075458,5,0.22181959450244904,0.27797457575798035,0.520462155342102,0.7763023972511292,1.5971311330795288,2.033055305480957,-0.4165303409099579,1.7828855514526367,9.98178768157959,3.015082359313965,-0.12635736167430878,-0.19280417263507843,-0.10325141251087189,16.317068099975586,-36.05854034423828,14.265426635742188,-0.23395490646362305,0.2754354476928711,0.07546591758728027,2.0168404579162598,9.706352233886719,2.9396164417266846
5_20251106_145508,1762412075478,5,0.22399531304836273,0.27861931920051575,0.5194914937019348,0.7760966420173645,1.5909392833709717,2.0376806259155273,-0.40886014699935913,1.6476190090179443,9.945876121520996,3.0821173191070557,-0.12635736167430878,-0.19280417263507843,-0.10325141251087189,16.36589813232422,-36.06684112548828,14.158994674682617,-0.29537713527679443,0.1916189193725586,0.11400079727172852,1.9429961442947388,9.754257202148438,2.968116521835327
5_20251106_145508,1762412075496,5,0.22624841332435608,0.2791871428489685,0.5185478329658508,0.7758700847625732,1.5839182138442993,2.0416972637176514,-0.40200620889663696,1.527914047241211,9.616687774658203,2.810387134552002,-0.056718792766332626,-0.019929461181163788,-0.2364199310541153,16.36589813232422,-36.06684112548828,14.158994674682617,-0.3320657014846802,-0.11005592346191406,-0.12618350982666016,1.8599797487258911,9.726743698120117,2.936570644378662
5_20251106_145508,1762412075516,5,0.22851471602916718,0.27875351905822754,0.5183217525482178,0.7755127549171448,1.5757784843444824,2.043767213821411,-0.39708244800567627,1.4920026063919067,9.086395263671875,2.3016409873962402,-0.06404916197061539,0.0839175432920456,-0.29567378759384155,16.441003799438477,-36.047767639160156,13.986490249633789,-0.2943817377090454,-0.5122785568237305,-0.5079436302185059,1.7863843441009521,9.598673820495605,2.809584617614746
5_20251106_145508,1762412075535,5,0.23056082427501678,0.2769820988178253,0.5188257098197937,0.7752047777175903,1.5680910348892212,2.043198585510254,-0.395194947719574,1.661983609199524,8.710521697998047,1.8778854608535767,-0.1605657935142517,0.12789981067180634,-0.3249952793121338,16.531326293945312,-35.965782165527344,13.883377075195312,-0.09952068328857422,-0.7105216979980469,-0.7453593015670776,1.7615042924880981,9.421043395996094,2.6232447624206543
5_20251106_145508,1762412075554,5,0.23281081020832062,0.2745186686515808,0.5191867351531982,0.775166928768158,1.560804009437561,2.0405218601226807,-0.3953581154346466,1.7673239707946777,8.642289161682129,1.9102058410644531,-0.3157253861427307,0.1395062357187271,-0.38424918055534363,16.64431381225586,-35.90772247314453,13.821266174316406,0.0046558380126953125,-0.6230030059814453,-0.5704312324523926,1.7626681327819824,9.265292167663574,2.4806370735168457
5_20251106_145508,1762412075574,5,0.23547601699829102,0.2713947892189026,0.5187761187553406,0.7757365703582764,1.5532602071762085,2.0364930629730225,-0.39529484510421753,1.536293387413025,8.723690032958984,2.560203790664673,-0.44278526306152344,0.08513927459716797,-0.3909686803817749,16.816808700561523,-35.882423400878906,13.666200637817383,-0.1810997724533081,-0.43328189849853516,0.06365323066711426,1.717393159866333,9.15697193145752,2.4965505599975586
5_20251106_145508,1762412075594,5,0.23904874920845032,0.26791492104530334,0.5172975659370422,0.776840090751648,1.5445396900177002,2.032134532928467,-0.3928084373474121,1.478835105895996,9.118715286254883,3.218580722808838,-0.45744603872299194,0.030772309750318527,-0.2871216833591461,16.94016456604004,-35.86084747314453,13.563238143920898,-0.19084644317626953,-0.030605316162109375,0.5776243209838867,1.6696815490722656,9.149320602416992,2.640956401824951
5_20251106_145508,1762412075611,5,0.24273738265037537,0.26502054929733276,0.51491379737854,0.7782714366912842,1.5375086069107056,2.0298144817352295,-0.38870474696159363,1.5219287872314453,9.619081497192383,3.638745069503784,-0.42140501737594604,-0.027259837836027145,-0.18388555943965912,17.089698791503906,-35.81201934814453,13.407720565795898,-0.11820220947265625,0.3758087158203125,0.7982308864593506,1.6401309967041016,9.24327278137207,2.8405141830444336
5_20251106_145508,1762412075630,5,0.24566684663295746,0.26293155550956726,0.5122318267822266,0.7798290252685547,1.5296499729156494,2.028690814971924,-0.38131678104400635,1.4967907667160034,9.731603622436523,3.945189952850342,-0.3511555790901184,-0.07857246696949005,-0.12402081489562988,17.243757247924805,-35.68744659423828,13.213237762451172,-0.11467218399047852,0.39066410064697266,0.8837406635284424,1.611462950706482,9.34093952178955,3.0614492893218994
5_20251106_145508,1762412075648,5,0.24810858070850372,0.2617422938346863,0.509533166885376,0.7812228202819824,1.5219323635101318,2.028529405593872,-0.3724561333656311,1.3495537042617798,9.686117172241211,3.959554433822632,-0.25708240270614624,-0.09078976511955261,-0.0922558456659317,17.407974243164062,-35.611228942871094,12.910058975219727,-0.2095273733139038,0.2761421203613281,0.7184841632843018,1.5590810775756836,9.409975051879883,3.24107027053833
5_20251106_145508,1762412075668,5,0.2502410411834717,0.2612049877643585,0.5072609186172485,0.7822005748748779,1.5219323635101318,2.028529405593872,-0.3724561333656311,1.3495537042617798,9.686117172241211,3.959554433822632,-0.18988731503486633,-0.08468112349510193,-0.06598866730928421,17.517621994018555,-35.62731170654297,12.72471809387207,-0.2095273733139038,0.2761421203613281,0.7184841632843018,1.5590810775756836,9.409975051879883,3.24107027053833
5_20251106_145508,1762412075687,5,0.2519325613975525,0.2609750032424927,0.505551815032959,0.7828406095504761,1.5044918060302734,2.0305585861206055,-0.3495507836341858,1.3112481832504272,9.665766716003418,3.8099231719970703,-0.15445715188980103,-0.06879863142967224,-0.06293433904647827,17.688596725463867,-35.638877868652344,12.487764358520508,-0.16071975231170654,0.15527915954589844,0.34950971603393555,1.4719679355621338,9.51048755645752,3.4604134559631348
5_20251106_145508,1762412075707,5,0.2532997727394104,0.26083260774612427,0.5042039752006531,0.7833159565925598,1.4951362609863281,2.032106399536133,-0.33757129311561584,1.2071048021316528,9.611900329589844,3.625577449798584,-0.11414007097482681,-0.03886626660823822,-0.08370374143123627,17.823617935180664,-35.640403747558594,12.263118743896484,-0.2118905782699585,0.0811300277709961,0.13213109970092773,1.4189953804016113,9.530770301818848,3.4934463500976562
