session_id,timestamp,label,quaternion_w,quaternion_x,quaternion_y,quaternion_z,position_x,position_y,position_z,accelerometer_x,accelerometer_y,accelerometer_z,gyroscope_x,gyroscope_y,gyroscope_z,magnetometer_x,magnetometer_y,magnetometer_z,linear_acceleration_x,linear_acceleration_y,linear_acceleration_z,gravity_x,gravity_y,gravity_z
1_20251106_212525,1762435488640,1,0.3971102237701416,0.5897062420845032,0.5841073989868164,0.3916229009628296,0.4511001408100128,2.7784690856933594,1.429641842842102,-0.6806420087814331,7.854630470275879,-3.1437368392944336,0.1498069316148758,0.0011835502227768302,0.4617946445941925,38.15945053100586,-17.262420654296875,11.157487869262695,0.5095899105072021,0.6487207412719727,-0.7937197685241699,-1.1902319192886353,7.205909729003906,-2.3500170707702637
1_20251106_212525,1762435488659,1,0.3943164348602295,0.5922714471817017,0.5826277136802673,0.39277732372283936,0.41963431239128113,2.772839307785034,1.328670620918274,0.3643820881843567,8.823043823242188,-3.4274373054504395,0.1498069316148758,0.0011835502227768302,0.4617946445941925,37.998207092285156,-17.547531127929688,11.078214645385742,1.0761609077453613,1.1280479431152344,-0.7360901832580566,-0.7117787599563599,7.694995880126953,-2.691347122192383
1_20251106_212525,1762435488680,1,0.3909624516963959,0.5948823094367981,0.581864058971405,0.39331623911857605,0.408066064119339,2.776313066482544,1.268941044807434,0.3883230686187744,9.216873168945312,-4.365923881530762,0.3703291118144989,-0.014088068157434464,0.24310506880283356,37.874534606933594,-17.805686950683594,11.05500602722168,0.8800814747810364,1.2175016403198242,-1.3396613597869873,-0.49175840616226196,7.999371528625488,-3.0262625217437744
1_20251106_212525,1762435488699,1,0.3877356946468353,0.5972130298614502,0.582220196723938,0.39245036244392395,0.408066064119339,2.776313066482544,1.268941044807434,0.3883230686187744,9.216873168945312,-4.365923881530762,0.29152756929397583,-0.012866338714957237,0.10443878173828125,37.874534606933594,-17.805686950683594,11.05500602722168,0.8800814747810364,1.2175016403198242,-1.3396613597869873,-0.49175840616226196,7.999371528625488,-3.0262625217437744
1_20251106_212525,1762435488718,1,0.3853994607925415,0.5985720157623291,0.5830939412117004,0.39138251543045044,0.39893078804016113,2.7841074466705322,1.2019460201263428,0.22552436590194702,9.29109001159668,-5.23857307434082,0.07100538909435272,-0.005535961594432592,0.0195285826921463,37.57231903076172,-18.201744079589844,11.143938064575195,0.5738261938095093,1.0333747863769531,-1.769848346710205,-0.34830185770988464,8.257715225219727,-3.4687247276306152
1_20251106_212525,1762435488736,1,0.38456428050994873,0.598747193813324,0.583666980266571,0.391081839799881,0.38651832938194275,2.804588556289673,1.0833027362823486,-0.14675799012184143,9.352140426635742,-4.813620567321777,-0.1128648966550827,0.08670461177825928,-0.018345028162002563,37.57231903076172,-18.201744079589844,11.143938064575195,0.10504710674285889,0.6839609146118164,-0.7745456695556641,-0.2518050968647003,8.668179512023926,-4.039074897766113
1_20251106_212525,1762435488755,1,0.38446030020713806,0.5977135300636292,0.5840945839881897,0.39212533831596375,0.38651832938194275,2.804588556289673,1.0833027362823486,-0.14675799012184143,9.352140426635742,-4.813620567321777,-0.17395135760307312,0.15878665447235107,-1.9088387489318848e-05,37.456607818603516,-18.309890747070312,11.191476821899414,0.10504710674285889,0.6839609146118164,-0.7745456695556641,-0.2518050968647003,8.668179512023926,-4.039074897766113
1_20251106_212525,1762435488775,1,0.3842569887638092,0.5961391925811768,0.5845173001289368,0.39408648014068604,0.3775516152381897,2.8308117389678955,0.9653502702713013,0.26023876667022705,9.303060531616211,-4.258189678192139,-0.11469748616218567,0.07631991058588028,0.051293548196554184,37.32771301269531,-18.431793212890625,11.278810501098633,0.36850351095199585,0.4136018753051758,-0.11399364471435547,-0.1082647517323494,8.889458656311035,-4.144196033477783
1_20251106_212525,1762435488794,1,0.3840094804763794,0.595370352268219,0.5845125317573547,0.39549461007118225,0.3775516152381897,2.8308117389678955,0.9653502702713013,0.26023876667022705,9.303060531616211,-4.258189678192139,-0.05300015211105347,-0.06173551082611084,0.10138446092605591,37.24895477294922,-18.537017822265625,11.27375602722168,0.36850351095199585,0.4136018753051758,-0.11399364471435547,-0.1082647517323494,8.889458656311035,-4.144196033477783
1_20251106_212525,1762435488813,1,0.3839971125125885,0.595663845539093,0.5838807821273804,0.395997554063797,0.3745567202568054,2.8599400520324707,0.8591583967208862,0.5116192102432251,9.469450950622559,-3.8966805934906006,-0.05300015211105347,-0.06173551082611084,0.10138446092605591,37.174034118652344,-18.56743621826172,11.324350357055664,0.4216243624687195,0.3807716369628906,0.19556641578674316,0.08999483287334442,9.088679313659668,-4.092247009277344
1_20251106_212525,1762435488831,1,0.38450589776039124,0.5967191457748413,0.5825819969177246,0.39582791924476624,0.37508830428123474,2.8752148151397705,0.8115140795707703,0.5343630313873291,9.526908874511719,-3.7099409103393555,-0.050556689500808716,-0.1356501579284668,0.05984565243124962,37.135066986083984,-18.607894897460938,11.362634658813477,0.35549455881118774,0.3505840301513672,0.305844783782959,0.17886847257614136,9.176324844360352,-4.0157856941223145
1_20251106_212525,1762435488851,1,0.38501447439193726,0.5969739556312561,0.5819444060325623,0.3958870768547058,0.3764306902885437,2.8907663822174072,0.7680172324180603,0.4840870201587677,9.555638313293457,-3.37237286567688,-0.050556689500808716,-0.1356501579284668,0.05984565243124962,37.08501434326172,-18.63604736328125,11.346628189086914,0.24417483806610107,0.3034505844116211,0.5147302150726318,0.23991218209266663,9.252187728881836,-3.8871030807495117
1_20251106_212525,1762435488871,1,0.3855538070201874,0.5961825251579285,0.5820004343986511,0.39647215604782104,0.3764306902885437,2.8907663822174072,0.7680172324180603,0.4840870201587677,9.555638313293457,-3.37237286567688,-0.11897353827953339,0.11358266323804855,-0.1246354877948761,37.04753875732422,-18.662872314453125,11.277048110961914,0.24417483806610107,0.3034505844116211,0.5147302150726318,0.23991218209266663,9.252187728881836,-3.8871030807495117
1_20251106_212525,1762435488890,1,0.38582172989845276,0.5941510200500488,0.5830397009849548,0.397732138633728,0.3785853385925293,2.908456563949585,0.7227025628089905,0.4242345690727234,9.410795211791992,-3.198801040649414,-0.09392808377742767,0.18994075059890747,-0.18511110544204712,37.05054473876953,-18.623985290527344,11.156194686889648,0.14745792746543884,0.12688636779785156,0.5506417751312256,0.27677664160728455,9.28390884399414,-3.7494428157806396
1_20251106_212525,1762435488911,1,0.3857942521572113,0.5916095972061157,0.5847458243370056,0.3990403711795807,0.3813808262348175,2.9354121685028076,0.6564329862594604,0.05075514316558838,9.09118366241455,-3.087475299835205,-0.041393719613552094,0.2143753468990326,-0.18327850103378296,36.98699188232422,-18.67791748046875,11.125654220581055,-0.1785542070865631,-0.14671039581298828,0.43419337272644043,0.2293093502521515,9.237894058227539,-3.5216686725616455
1_20251106_212525,1762435488928,1,0.38538604974746704,0.5892329216003418,0.586670994758606,0.40012407302856445,0.3820439577102661,2.9476478099823,0.6275632381439209,0.09265188127756119,9.123503684997559,-2.8420801162719727,0.03252091258764267,0.23209041357040405,-0.1337984800338745,36.986480712890625,-18.690200805664062,11.098356246948242,-0.10932596772909164,-0.09151268005371094,0.543670654296875,0.20197784900665283,9.21501636505127,-3.3857507705688477
1_20251106_212525,1762435488947,1,0.38424596190452576,0.5872310400009155,0.5887587666511536,0.40109577775001526,0.38245609402656555,2.9590864181518555,0.6015694737434387,0.12257810682058334,9.147443771362305,-2.8636269569396973,0.16141337156295776,0.24797290563583374,-0.0989791676402092,36.94941711425781,-18.704872131347656,11.069589614868164,-0.06351978331804276,-0.054058074951171875,0.41769909858703613,0.1860978901386261,9.201501846313477,-3.2813260555267334
1_20251106_212525,1762435488966,1,0.3821975886821747,0.5858219265937805,0.5911532640457153,0.4015911817550659,0.38274428248405457,2.9691832065582275,0.5782574415206909,0.1525043398141861,9.121109008789062,-3.247879981994629,0.2579299807548523,0.2956203520298004,-0.06721420586109161,36.87610626220703,-18.70990753173828,11.093679428100586,-0.026874855160713196,-0.0643148422241211,0.026756763458251953,0.1793791949748993,9.185423851013184,-3.274636745452881
1_20251106_212525,1762435488985,1,0.37926244735717773,0.5848221182823181,0.5938318371772766,0.40187913179397583,0.38274428248405457,2.9691832065582275,0.5782574415206909,0.1525043398141861,9.121109008789062,-3.247879981994629,0.25059962272644043,0.3078376352787018,-0.030562322586774826,36.916015625,-18.621780395507812,11.313257217407227,-0.026874855160713196,-0.0643148422241211,0.026756763458251953,0.1793791949748993,9.185423851013184,-3.274636745452881
1_20251106_212525,1762435489004,1,0.3761006295681,0.5839730501174927,0.5963489413261414,0.4023577570915222,0.3832705318927765,2.98001766204834,0.5495728254318237,0.24108600616455078,9.079212188720703,-4.124120235443115,0.16691115498542786,0.1728365421295166,0.009143882431089878,36.85762023925781,-18.564315795898438,11.447286605834961,0.049365460872650146,-0.08496952056884766,-0.6795868873596191,0.19172054529190063,9.16418170928955,-3.444533348083496
1_20251106_212525,1762435489023,1,0.37384894490242004,0.5835774540901184,0.5979681015014648,0.40262696146965027,0.3844459652900696,2.9964590072631836,0.49695029854774475,0.2087656706571579,9.021754264831543,-4.249810218811035,0.028244854882359505,0.10136537253856659,0.03663279488682747,36.8719482421875,-18.50262451171875,11.638326644897461,0.003822341561317444,-0.09670734405517578,-0.4707512855529785,0.20494332909584045,9.118461608886719,-3.7790589332580566
1_20251106_212525,1762435489042,1,0.3727222681045532,0.5833054780960083,0.5985295176506042,0.40323102474212646,0.3844459652900696,2.9964590072631836,0.49695029854774475,0.2087656706571579,9.021754264831543,-4.249810218811035,-0.07315868139266968,0.16672788560390472,0.060456518083810806,36.837345123291016,-18.432762145996094,11.949312210083008,0.003822341561317444,-0.09670734405517578,-0.4707512855529785,0.20494332909584045,9.118461608886719,-3.7790589332580566
1_20251106_212525,1762435489061,1,0.3717222213745117,0.5825057625770569,0.5988025069236755,0.4049014151096344,0.38631197810173035,3.0110535621643066,0.4420199692249298,0.3955053687095642,8.979856491088867,-4.079829216003418,-0.09453894942998886,0.20765583217144012,0.08366937935352325,36.86274719238281,-18.394989013671875,12.099763870239258,0.14475151896476746,-0.08717536926269531,-0.2049422264099121,0.25075384974479675,9.067031860351562,-3.874886989593506
1_20251106_212525,1762435489080,1,0.3704937696456909,0.5815195441246033,0.5990493893623352,0.407073974609375,0.38823455572128296,3.0174970626831055,0.4166335165500641,0.5571069717407227,9.07801628112793,-4.003218173980713,-0.11469748616218567,0.1991037130355835,0.09833014011383057,36.8259162902832,-18.374549865722656,12.328596115112305,0.24508249759674072,0.008788108825683594,-0.10266494750976562,0.31202447414398193,9.069228172302246,-3.9005532264709473
1_20251106_212525,1762435489099,1,0.3693833649158478,0.5806658267974854,0.5990317463874817,0.40932145714759827,0.38823455572128296,3.0174970626831055,0.4166335165500641,0.5571069717407227,9.07801628112793,-4.003218173980713,-0.08171079307794571,0.13862811028957367,0.09588667750358582,36.76471710205078,-18.355697631835938,12.556447982788086,0.24508249759674072,0.008788108825683594,-0.10266494750976562,0.31202447414398193,9.069228172302246,-3.9005532264709473
1_20251106_212525,1762435489120,1,0.3683997392654419,0.5801004767417908,0.5989684462547302,0.4110983610153198,0.3916804790496826,3.0246694087982178,0.39042001962661743,0.7378615140914917,9.19053840637207,-3.7685961723327637,-0.004741838201880455,0.06715694069862366,0.07267381250858307,36.73714065551758,-18.396438598632812,12.703351974487305,0.3406696319580078,0.09704780578613281,0.10556554794311523,0.3971918821334839,9.093490600585938,-3.874161720275879
1_20251106_212525,1762435489139,1,0.3675166666507721,0.5799680948257446,0.5990177989006042,0.41200268268585205,0.39982926845550537,3.0379507541656494,0.34783753752708435,0.68519127368927,9.239617347717285,-3.747049331665039,-0.004741838201880455,0.06715694069862366,0.07267381250858307,36.69715881347656,-18.461471557617188,12.687044143676758,0.17263638973236084,0.07973098754882812,0.09878110885620117,0.5125548839569092,9.159886360168457,-3.8458304405212402
1_20251106_212525,1762435489157,1,0.3668750524520874,0.5797598958015442,0.5991462469100952,0.4126802086830139,0.40405359864234924,3.043776512145996,0.3293710947036743,0.6373093128204346,9.056468963623047,-3.6453003883361816,-0.03956113010644913,0.10380882769823074,0.020750312134623528,36.69715881347656,-18.461471557617188,12.687044143676758,0.09980356693267822,-0.0827341079711914,0.16042423248291016,0.5375057458877563,9.139203071594238,-3.805724620819092
1_20251106_212525,1762435489176,1,0.36619338393211365,0.5790513157844543,0.5994786024093628,0.4137962758541107,0.40405359864234924,3.043776512145996,0.3293710947036743,0.6373093128204346,9.056468963623047,-3.6453003883361816,-0.06766090542078018,0.13435205817222595,0.006700423080474138,36.708946228027344,-18.461219787597656,12.741598129272461,0.09980356693267822,-0.0827341079711914,0.16042423248291016,0.5375057458877563,9.139203071594238,-3.805724620819092
1_20251106_212525,1762435489196,1,0.36556750535964966,0.5780540704727173,0.5998697876930237,0.41517484188079834,0.41318538784980774,3.0547800064086914,0.29375573992729187,0.49605754017829895,8.978660583496094,-3.3843436241149902,-0.06766090542078018,0.13435205817222595,0.006700423080474138,36.6334342956543,-18.492446899414062,12.873289108276367,-0.04682883620262146,-0.11194038391113281,0.29860448837280273,0.5428863763809204,9.090600967407227,-3.682948112487793
1_20251106_212525,1762435489214,1,0.3649693727493286,0.5767911076545715,0.6003914475440979,0.4167007505893707,0.41318538784980774,3.0547800064086914,0.29375573992729187,0.49605754017829895,8.978660583496094,-3.3843436241149902,-0.07560214400291443,0.162451833486557,-0.020177625119686127,36.56556701660156,-18.610244750976562,12.949560165405273,-0.04682883620262146,-0.11194038391113281,0.29860448837280273,0.5428863763809204,9.090600967407227,-3.682948112487793
1_20251106_212525,1762435489234,1,0.3643454313278198,0.5754187107086182,0.6010332107543945,0.41821619868278503,0.4188585877418518,3.060859441757202,0.2667538821697235,0.2087656557559967,8.606378555297852,-3.3807525634765625,-0.060330525040626526,0.13068687915802002,-0.0018516825512051582,36.47796630859375,-18.642135620117188,13.067243576049805,-0.23107478022575378,-0.33231163024902344,0.18765926361083984,0.4398404359817505,8.938690185546875,-3.5684118270874023
1_20251106_212525,1762435489252,1,0.3639634847640991,0.5739723443984985,0.6015843749046326,0.41974109411239624,0.420179545879364,3.0620968341827393,0.2558564841747284,0.11539581418037415,8.572860717773438,-3.3125205039978027,-0.05849792808294296,0.09953277558088303,0.01647425815463066,36.42408752441406,-18.733482360839844,13.09046745300293,-0.2595556974411011,-0.29266357421875,0.2047128677368164,0.3749515116214752,8.865524291992188,-3.517233371734619
1_20251106_212525,1762435489271,1,0.36393821239471436,0.5731138586997986,0.6017338633537292,0.4207206070423126,0.420179545879364,3.0620968341827393,0.2558564841747284,0.11539581418037415,8.572860717773438,-3.3125205039978027,-0.057276204228401184,0.12763255834579468,0.01525252964347601,36.32408905029297,-18.778045654296875,13.13981819152832,-0.2595556974411011,-0.29266357421875,0.2047128677368164,0.3749515116214752,8.865524291992188,-3.517233371734619
1_20251106_212525,1762435489290,1,0.3636983633041382,0.5717914700508118,0.602278470993042,0.42194628715515137,0.41934308409690857,3.0617241859436035,0.2361672967672348,-0.16830487549304962,8.490264892578125,-3.369978904724121,-0.0768238753080368,0.20093631744384766,-0.023842811584472656,36.335784912109375,-18.777923583984375,13.207891464233398,-0.3695182800292969,-0.24265575408935547,0.07834601402282715,0.20121338963508606,8.73292064666748,-3.4483249187469482
1_20251106_212525,1762435489309,1,0.36344221234321594,0.5697845220565796,0.6033094525337219,0.4234064817428589,0.41646069288253784,3.0600924491882324,0.22746601700782776,-0.4867199957370758,8.34661865234375,-3.354417085647583,-0.12202785909175873,0.28890082240104675,-0.09103792905807495,36.32079315185547,-18.81732940673828,13.30122184753418,-0.5503467321395874,-0.30904197692871094,0.07512640953063965,0.0636267215013504,8.655660629272461,-3.4295434951782227
1_20251106_212525,1762435489330,1,0.36326250433921814,0.5669417977333069,0.6049221158027649,0.42507249116897583,0.41646069288253784,3.0600924491882324,0.22746601700782776,-0.4867199957370758,8.34661865234375,-3.354417085647583,-0.12202785909175873,0.28890082240104675,-0.09103792905807495,36.22008514404297,-18.87445068359375,13.350309371948242,-0.5503467321395874,-0.30904197692871094,0.07512640953063965,0.0636267215013504,8.655660629272461,-3.4295434951782227
1_20251106_212525,1762435489350,1,0.3623685836791992,0.5637913942337036,0.6065285801887512,0.4277280867099762,0.4015285074710846,3.052079916000366,0.21066950261592865,-1.28036367893219,7.914483070373535,-3.45377254486084,-0.2270965874195099,0.4923187792301178,-0.06171642616391182,36.20267105102539,-18.963546752929688,13.388521194458008,-0.9168460965156555,-0.5132341384887695,-0.026615142822265625,-0.3635175824165344,8.427717208862305,-3.427157402038574
1_20251106_212525,1762435489368,1,0.36105796694755554,0.5603414177894592,0.6079273819923401,0.4313686490058899,0.39046916365623474,3.046053409576416,0.20327621698379517,-1.4383742809295654,7.830689430236816,-3.4238462448120117,-0.3199480175971985,0.5650116205215454,0.0964975357055664,36.11636734008789,-18.982070922851562,13.425374984741211,-0.8598853349685669,-0.47762203216552734,0.0026488304138183594,-0.5784889459609985,8.308311462402344,-3.42649507522583
1_20251106_212525,1762435489386,1,0.3591878414154053,0.5571516752243042,0.6083878874778748,0.43638312816619873,0.37897905707359314,3.0393002033233643,0.19715934991836548,-1.2025556564331055,7.7684431076049805,-3.2083773612976074,-0.3590433597564697,0.5845593214035034,0.3371782600879669,36.00316619873047,-19.052001953125,13.419641494750977,-0.49925339221954346,-0.43189525604248047,0.17449426651000977,-0.703302264213562,8.200338363647461,-3.382871627807617
1_20251106_212525,1762435489405,1,0.3564298450946808,0.5551199913024902,0.607459545135498,0.44248443841934204,0.37897905707359314,3.0393002033233643,0.19715934991836548,-1.2025556564331055,7.7684431076049805,-3.2083773612976074,-0.3443826138973236,0.5472965836524963,0.5992391705513,35.81687927246094,-19.103469848632812,13.60072135925293,-0.49925339221954346,-0.43189525604248047,0.17449426651000977,-0.703302264213562,8.200338363647461,-3.382871627807617
1_20251106_212525,1762435489424,1,0.35270369052886963,0.5548275709152222,0.6049805879592896,0.44918254017829895,0.3672506511211395,3.0315029621124268,0.19085830450057983,-0.5717105865478516,7.980320930480957,-3.3316733837127686,-0.3199480175971985,0.41657155752182007,0.7592857480049133,35.698265075683594,-19.2503662109375,13.755598068237305,0.1052733063697815,-0.17601394653320312,0.04095864295959473,-0.6769838929176331,8.15633487701416,-3.3726320266723633
1_20251106_212525,1762435489443,1,0.34872350096702576,0.5560262203216553,0.6013315320014954,0.45566120743751526,0.35374894738197327,3.020051956176758,0.18072175979614258,0.6037919521331787,8.727279663085938,-3.0814900398254395,-0.30589812994003296,0.30539414286613464,0.7910507321357727,35.37983703613281,-19.49773406982422,13.887266159057617,0.9035857915878296,0.4351205825805664,0.23153138160705566,-0.2997938394546509,8.292159080505371,-3.313021421432495
1_20251106_212525,1762435489462,1,0.3451111912727356,0.558006763458252,0.5970565676689148,0.46157360076904297,0.3522070050239563,3.0178163051605225,0.1773754209280014,0.9413598775863647,9.201312065124512,-2.916297197341919,-0.25825071334838867,0.31944406032562256,0.7006427049636841,35.00862503051758,-19.83496856689453,13.893476486206055,0.9929229617118835,0.7273225784301758,0.3173792362213135,-0.05156309902667999,8.473989486694336,-3.2336764335632324
1_20251106_212525,1762435489481,1,0.34152209758758545,0.5595203638076782,0.5934158563613892,0.4670730233192444,0.3540443480014801,3.018108367919922,0.17494235932826996,1.1520404815673828,9.354534149169922,-2.961785078048706,-0.24297907948493958,0.4355083405971527,0.5717502236366272,34.644378662109375,-20.248092651367188,14.033758163452148,0.9628828763961792,0.7044363021850586,0.2175130844116211,0.1891576051712036,8.650097846984863,-3.179298162460327
1_20251106_212525,1762435489500,1,0.3378087878227234,0.5598611831665039,0.5907708406448364,0.4726843535900116,0.359305202960968,3.020003080368042,0.17317844927310944,1.4704556465148926,9.239616394042969,-2.979740619659424,-0.2576398551464081,0.5564595460891724,0.49111616611480713,34.195831298828125,-20.65381622314453,14.130319595336914,1.025038480758667,0.4716148376464844,0.15964603424072266,0.445417195558548,8.768001556396484,-3.1393866539001465
1_20251106_212525,1762435489520,1,0.33378952741622925,0.5591024160385132,0.5888797044754028,0.4787585735321045,0.3684754967689514,3.0231823921203613,0.17140495777130127,1.731412410736084,9.19053840637207,-3.1425395011901855,-0.27535492181777954,0.617546021938324,0.44835564494132996,33.7327880859375,-21.09827423095703,14.252630233764648,1.0287961959838867,0.3380298614501953,-0.0025222301483154297,0.7026162147521973,8.852508544921875,-3.14001727104187
1_20251106_212525,1762435489540,1,0.3296535611152649,0.5577815771102905,0.5872754454612732,0.4850935935974121,0.38106808066368103,3.0276925563812256,0.16977433860301971,1.9792016744613647,9.34256362915039,-3.122189521789551,-0.34316086769104004,0.6535870432853699,0.41720151901245117,33.24245071411133,-21.594688415527344,14.386423110961914,1.021268367767334,0.3920440673828125,0.014262199401855469,0.9579333066940308,8.950519561767578,-3.1364517211914062
1_20251106_212525,1762435489560,1,0.3257603645324707,0.5559340715408325,0.5855888724327087,0.4918365776538849,0.3955468535423279,3.033318042755127,0.1693369597196579,2.092921495437622,9.517332077026367,-2.759483575820923,-0.4024147391319275,0.6725238561630249,0.3530607521533966,32.750083923339844,-22.14025115966797,14.411027908325195,0.907990574836731,0.45345020294189453,0.3015744686126709,1.1849309206008911,9.063881874084473,-3.0610580444335938
1_20251106_212525,1762435489579,1,0.3223778009414673,0.5534871220588684,0.5839224457740784,0.49875763058662415,0.41294601559638977,3.0403692722320557,0.1715194284915924,2.1455914974212646,9.532894134521484,-2.1992645263671875,-0.37859103083610535,0.6670260429382324,0.291974276304245,32.750083923339844,-22.14025115966797,14.411027908325195,0.7685284614562988,0.3752098083496094,0.6894350051879883,1.3770630359649658,9.157684326171875,-2.888699531555176
1_20251106_212525,1762435489597,1,0.3191797435283661,0.5507010221481323,0.5826317667961121,0.505364179611206,0.4300036132335663,3.046900510787964,0.17468222975730896,2.2629024982452393,9.361716270446777,-2.362063407897949,-0.2881830334663391,0.6639717817306519,0.2907525300979614,32.17353057861328,-22.666664123535156,14.47327995300293,0.7086715698242188,0.1632251739501953,0.4213087558746338,1.5542309284210205,9.198491096496582,-2.783372163772583
1_20251106_212525,1762435489615,1,0.3155438005924225,0.5480886697769165,0.5817155838012695,0.5115054845809937,0.4483836889266968,3.053575038909912,0.17804047465324402,2.437671661376953,9.38924789428711,-2.6397788524627686,-0.2863504886627197,0.5961657762527466,0.3371782600879669,31.682987213134766,-23.174957275390625,14.539228439331055,0.7067526578903198,0.15260601043701172,0.11487460136413574,1.7309190034866333,9.236641883850098,-2.7546534538269043
1_20251106_212525,1762435489635,1,0.3120538294315338,0.5461514592170715,0.5802838206291199,0.5173119902610779,0.47012266516685486,3.0615243911743164,0.1830771565437317,2.4999184608459473,9.53409194946289,-2.2639052867889404,-0.3401065468788147,0.5271379947662354,0.3548933267593384,31.18498992919922,-23.596420288085938,14.633565902709961,0.6151995658874512,0.2379598617553711,0.39259839057922363,1.884718894958496,9.29613208770752,-2.656503677368164
1_20251106_212525,1762435489654,1,0.3091498911380768,0.544592559337616,0.5782115459442139,0.5229882597923279,0.4903510808944702,3.0690250396728516,0.18958236277103424,2.551391124725342,9.581974029541016,-1.7635388374328613,-0.343771755695343,0.5674550533294678,0.3335130512714386,30.713184356689453,-23.979026794433594,14.770223617553711,0.5333378314971924,0.22867393493652344,0.7143716812133789,2.0180532932281494,9.353300094604492,-2.4779105186462402
1_20251106_212525,1762435489673,1,0.30607661604881287,0.542523980140686,0.5763977766036987,0.5289143919944763,0.4903510808944702,3.0690250396728516,0.18958236277103424,2.551391124725342,9.581974029541016,-1.7635388374328613,-0.2979568839073181,0.6425914764404297,0.3274044096469879,30.16564178466797,-24.416358947753906,14.875852584838867,0.5333378314971924,0.22867393493652344,0.7143716812133789,2.0180532932281494,9.353300094604492,-2.4779105186462402
1_20251106_212525,1762435489692,1,0.3024042248725891,0.5400846004486084,0.5750055313110352,0.535003662109375,0.5387161374092102,3.085155725479126,0.2073919177055359,3.1750540733337402,9.38446044921875,-1.9861900806427002,-0.2777983546257019,0.6432023048400879,0.323739230632782,29.73954963684082,-24.857894897460938,14.94556999206543,0.7883625030517578,-0.0009336471557617188,0.2955482006072998,2.3866915702819824,9.385394096374512,-2.28173828125
1_20251106_212525,1762435489710,1,0.2985958456993103,0.5377315282821655,0.5736663341522217,0.5409179329872131,0.5629733800888062,3.0919883251190186,0.21617400646209717,3.3641879558563232,9.371292114257812,-1.986189842224121,-0.28024181723594666,0.5955548882484436,0.291363388299942,29.315881729125977,-25.249740600585938,15.070409774780273,0.7819972038269043,-0.011281967163085938,0.23643875122070312,2.582190752029419,9.382574081420898,-2.222628593444824
1_20251106_212525,1762435489730,1,0.29521840810775757,0.5355352163314819,0.572245180606842,0.5464279651641846,0.590962827205658,3.0993118286132812,0.22627194225788116,3.366582155227661,9.419175148010254,-1.950278401374817,-0.28635045886039734,0.5778397917747498,0.24005074799060822,28.857067108154297,-25.618858337402344,15.194307327270508,0.6275129318237305,0.029280662536621094,0.21788012981414795,2.7390692234039307,9.389894485473633,-2.168158531188965
1_20251106_212525,1762435489750,1,0.2921893894672394,0.5331220626831055,0.5709810256958008,0.551712691783905,0.590962827205658,3.0993118286132812,0.22627194225788116,3.366582155227661,9.419175148010254,-1.950278401374817,-0.28635045886039734,0.5778397917747498,0.24005074799060822,28.47569465637207,-25.907730102539062,15.309213638305664,0.6275129318237305,0.029280662536621094,0.21788012981414795,2.7390692234039307,9.389894485473633,-2.168158531188965
1_20251106_212525,1762435489769,1,0.28936243057250977,0.5303452610969543,0.5699200630187988,0.5569509863853455,0.6477028131484985,3.1118569374084473,0.2466953992843628,3.5174102783203125,9.158218383789062,-1.8126177787780762,-0.31567198038101196,0.6004418134689331,0.13437114655971527,28.045368194580078,-26.21166229248047,15.354314804077148,0.5065655708312988,-0.1794910430908203,0.2482311725616455,3.0108447074890137,9.337709426879883,-2.0608489513397217
1_20251106_212525,1762435489788,1,0.28688427805900574,0.5271203517913818,0.5690659284591675,0.5621437430381775,0.675447404384613,3.1166160106658936,0.25706225633621216,3.5174102783203125,9.127094268798828,-1.7802975177764893,-0.3486586809158325,0.6315958499908447,0.07694986462593079,27.63832664489746,-26.51549530029297,15.549074172973633,0.40525245666503906,-0.16849231719970703,0.2244410514831543,3.1121578216552734,9.295586585998535,-2.0047385692596436
1_20251106_212525,1762435489806,1,0.2847759425640106,0.523398756980896,0.5682941675186157,0.5674487948417664,0.7011649012565613,3.120652437210083,0.2666915953159332,3.415661096572876,9.19532585144043,-1.8832436800003052,-0.37553671002388,0.6303741931915283,0.034800201654434204,27.243444442749023,-26.841758728027344,15.554567337036133,0.24280261993408203,-0.08020877838134766,0.09719598293304443,3.172858476638794,9.275534629821777,-1.9804396629333496
1_20251106_212525,1762435489825,1,0.2829561233520508,0.5192958116531372,0.5676288604736328,0.5727697014808655,0.7274163961410522,3.1246933937072754,0.2766997516155243,3.3414440155029297,9.2731351852417,-1.8521205186843872,-0.4005821645259857,0.607772171497345,0.04946095123887062,26.89077377319336,-27.053565979003906,15.65852165222168,0.13486838340759277,-0.0019197463989257812,0.10265529155731201,3.206575632095337,9.275054931640625,-1.9547758102416992
1_20251106_212525,1762435489845,1,0.2813901901245117,0.5153972506523132,0.5666242241859436,0.5780330896377563,0.7274163961410522,3.1246933937072754,0.2766997516155243,3.3414440155029297,9.2731351852417,-1.8521205186843872,-0.40424734354019165,0.5094229578971863,0.11054743081331253,26.539003372192383,-27.252548217773438,15.735708236694336,0.13486838340759277,-0.0019197463989257812,0.10265529155731201,3.206575632095337,9.275054931640625,-1.9547758102416992
1_20251106_212525,1762435489863,1,0.2799517512321472,0.5122398734092712,0.5651142001152039,0.5829950571060181,0.7786991000175476,3.1320035457611084,0.2981545329093933,3.6431002616882324,9.262361526489258,-1.2452163696289062,-0.40424734354019165,0.5094229578971863,0.11054743081331253,26.173019409179688,-27.50147247314453,15.703218460083008,0.3036997318267822,-0.005249977111816406,0.5295801162719727,3.33940052986145,9.267611503601074,-1.774796485900879
1_20251106_212525,1762435489883,1,0.2790566384792328,0.5102220177650452,0.563109278678894,0.5871191024780273,0.8050402998924255,3.136068820953369,0.31186050176620483,3.634721040725708,9.439523696899414,-0.9974271655082703,-0.35721075534820557,0.31455713510513306,0.11604521423578262,25.867557525634766,-27.758583068847656,15.632368087768555,0.23625636100769043,0.1375293731689453,0.6218954920768738,3.3984646797180176,9.301994323730469,-1.619322657585144
1_20251106_212525,1762435489901,1,0.2784744203090668,0.5083311200141907,0.5611341595649719,0.5909144878387451,0.8050402998924255,3.136068820953369,0.31186050176620483,3.634721040725708,9.439523696899414,-0.9974271655082703,-0.35232385993003845,0.36037197709083557,0.06289997696876526,25.562503814697266,-28.0035400390625,15.602331161499023,0.23625636100769043,0.1375293731689453,0.6218954920768738,3.3984646797180176,9.301994323730469,-1.619322657585144
1_20251106_212525,1762435489922,1,0.2779279351234436,0.5058475136756897,0.559558093547821,0.5947849750518799,0.8304951786994934,3.140716314315796,0.32677537202835083,3.540153980255127,9.560426712036133,-0.9962300658226013,-0.37370413541793823,0.41168463230133057,0.02013944834470749,25.271862030029297,-28.198280334472656,15.654935836791992,0.11335158348083496,0.20674610137939453,0.4984741806983948,3.426802396774292,9.353680610656738,-1.494704246520996
1_20251106_212525,1762435489940,1,0.2774200141429901,0.5027220249176025,0.558253288269043,0.5988839268684387,0.8748894333839417,3.149930000305176,0.35533735156059265,3.48030161857605,9.492194175720215,-1.084811806678772,-0.40974515676498413,0.4239019453525543,-0.000629953108727932,24.908376693725586,-28.420608520507812,15.474294662475586,0.027344465255737305,0.0825204849243164,0.26501262187957764,3.4529571533203125,9.409673690795898,-1.3498244285583496
1_20251106_212525,1762435489959,1,0.2771247923374176,0.4993334412574768,0.5568802952766418,0.6031188368797302,0.8956067562103271,3.1546127796173096,0.3706889748573303,3.323488235473633,9.477829933166504,-0.8394166231155396,-0.41890811920166016,0.39213696122169495,-0.0030734119936823845,24.546733856201172,-28.582443237304688,15.524747848510742,-0.10357522964477539,0.05452537536621094,0.40832626819610596,3.427063465118408,9.423304557800293,-1.2477428913116455
1_20251106_212525,1762435489979,1,0.27713635563850403,0.49616047739982605,0.555308997631073,0.6071673035621643,0.9158527255058289,3.159468650817871,0.38746383786201477,3.27201509475708,9.480224609375,-0.7795641422271729,-0.38775402307510376,0.3738110363483429,0.040908847004175186,24.332706451416016,-28.732864379882812,15.39185905456543,-0.1240386962890625,0.045536041259765625,0.3745429515838623,3.3960537910461426,9.434688568115234,-1.1541070938110352
1_20251106_212525,1762435490000,1,0.2767057418823242,0.4932039678096771,0.5537846684455872,0.6111516356468201,0.9339650273323059,3.163729667663574,0.4035782217979431,3.337852954864502,9.390445709228516,-0.7987169027328491,-0.3358305096626282,0.3084484934806824,0.11360174417495728,23.980812072753906,-28.95520782470703,15.292806625366211,-0.04656076431274414,-0.03539466857910156,0.2843121290206909,3.384413719177246,9.425840377807617,-1.08302903175354
1_20251106_212525,1762435490016,1,0.27604466676712036,0.4912109076976776,0.5519759058952332,0.6146818399429321,0.9508087635040283,3.1675097942352295,0.4184747040271759,3.604794979095459,9.40361213684082,-0.9232101440429688,-0.29001563787460327,0.20215803384780884,0.21439442038536072,23.980812072753906,-28.95520782470703,15.292806625366211,0.17630505561828613,-0.017782211303710938,0.1278550624847412,3.428489923477173,9.421394348144531,-1.05106520652771
1_20251106_212525,1762435490036,1,0.27511361241340637,0.49049729108810425,0.5496832132339478,0.6177161931991577,0.9508087635040283,3.1675097942352295,0.4184747040271759,3.604794979095459,9.40361213684082,-0.9232101440429688,-0.26619192957878113,0.04699840769171715,0.24921371042728424,23.623077392578125,-29.065330505371094,15.195638656616211,0.17630505561828613,-0.017782211303710938,0.1278550624847412,3.428489923477173,9.421394348144531,-1.05106520652771
1_20251106_212525,1762435490054,1,0.2746725082397461,0.49101999402046204,0.5469164252281189,0.6199489831924438,0.9860523343086243,3.1763362884521484,0.4500219523906708,3.601203680038452,9.640628814697266,-0.39890241622924805,-0.26619192957878113,0.04699840769171715,0.24921371042728424,23.219318389892578,-29.1285400390625,15.111082077026367,0.08774495124816895,0.1485462188720703,0.4934207797050476,3.513458728790283,9.492082595825195,-0.8923231959342957
1_20251106_212525,1762435490074,1,0.27480921149253845,0.4912061393260956,0.5442882180213928,0.6220504641532898,0.9860523343086243,3.1763362884521484,0.4500219523906708,3.601203680038452,9.640628814697266,-0.39890241622924805,-0.32727840542793274,0.18016691505908966,0.08305851370096207,22.859058380126953,-29.288490295410156,14.972311019897461,0.08774495124816895,0.1485462188720703,0.4934207797050476,3.513458728790283,9.492082595825195,-0.8923231959342957
1_20251106_212525,1762435490093,1,0.27492597699165344,0.4897671937942505,0.5422951579093933,0.6248677968978882,1.017729640007019,3.184584617614746,0.4860555827617645,3.289970874786377,9.313834190368652,-0.4324198365211487,-0.3352196216583252,0.337159126996994,0.05190441384911537,22.573522567749023,-29.418289184570312,14.809976577758789,-0.15892887115478516,-0.14223384857177734,0.254308819770813,3.448899745941162,9.45606803894043,-0.6867286562919617
1_20251106_212525,1762435490113,1,0.27448591589927673,0.48716485500335693,0.5408075451850891,0.6283749341964722,1.0321019887924194,3.1875956058502197,0.5033120512962341,3.339049816131592,9.245603561401367,-0.7663966417312622,-0.3694280683994293,0.34998729825019836,0.12337557971477509,22.365543365478516,-29.456100463867188,14.720014572143555,-0.08787989616394043,-0.16837120056152344,-0.06373441219329834,3.4269297122955322,9.41397476196289,-0.7026622295379639
1_20251106_212525,1762435490131,1,0.27363160252571106,0.484737753868103,0.5388994216918945,0.6322519183158875,1.0444245338439941,3.189896821975708,0.5180302858352661,3.4407992362976074,9.303060531616211,-0.7173175811767578,-0.3975278437137604,0.22720348834991455,0.2156161516904831,22.143943786621094,-29.543045043945312,14.439275741577148,0.011095523834228516,-0.08873176574707031,-0.011724293231964111,3.429703712463379,9.391792297363281,-0.7055932879447937
1_20251106_212525,1762435490151,1,0.2730873227119446,0.48361942172050476,0.5360002517700195,0.6357981562614441,1.0444245338439941,3.189896821975708,0.5180302858352661,3.4407992362976074,9.303060531616211,-0.7173175811767578,-0.3975278437137604,0.22720348834991455,0.2156161516904831,21.809650421142578,-29.687637329101562,14.18010139465332,0.011095523834228516,-0.08873176574707031,-0.011724293231964111,3.429703712463379,9.391792297363281,-0.7055932879447937
1_20251106_212525,1762435490169,1,0.2730080187320709,0.48358458280563354,0.5325388312339783,0.638760507106781,1.0584923028945923,3.192491054534912,0.5356356501579285,3.552124500274658,9.404809951782227,-0.3198971748352051,-0.36881721019744873,0.07937423884868622,0.20767492055892944,21.516258239746094,-29.742752075195312,14.005342483520508,0.09793663024902344,0.01041412353515625,0.3085569143295288,3.4541878700256348,9.39439582824707,-0.6284540891647339
1_20251106_212525,1762435490190,1,0.2731553316116333,0.48335886001586914,0.5293872356414795,0.6414822936058044,1.0706030130386353,3.1948578357696533,0.5525898933410645,3.461148738861084,9.444313049316406,0.03562647104263306,-0.3712606430053711,0.2033797800540924,0.13559287786483765,21.23352813720703,-29.833938598632812,13.749185562133789,0.005568742752075195,0.03993415832519531,0.5312644243240356,3.455579996109009,9.404378890991211,-0.495637983083725
1_20251106_212525,1762435490208,1,0.2730261981487274,0.4818274974822998,0.5269520878791809,0.6446863412857056,1.082796335220337,3.1974406242370605,0.5722847580909729,3.2995471954345703,9.433539390563965,0.0691438540816307,-0.4231841564178467,0.35609593987464905,0.1019953191280365,21.036609649658203,-29.907272338867188,13.523759841918945,-0.12482643127441406,0.02332782745361328,0.45182546973228455,3.4243736267089844,9.410211563110352,-0.38268160820007324
1_20251106_212525,1762435490228,1,0.27268874645233154,0.47910404205322266,0.524695098400116,0.6486873030662537,1.0919963121414185,3.1993448734283447,0.5893697142601013,3.1283693313598633,9.32939624786377,0.04280877113342285,-0.467777281999588,0.42268019914627075,0.1588057279586792,20.744216918945312,-29.949424743652344,13.308717727661133,-0.23680329322814941,-0.0646524429321289,0.3403922915458679,3.3651726245880127,9.394048690795898,-0.29758352041244507
1_20251106_212525,1762435490245,1,0.27183428406715393,0.4760809540748596,0.5221267938613892,0.6533273458480835,1.100670576095581,3.2002623081207275,0.6076002717018127,3.164280652999878,9.032527923583984,0.10266124457120895,-0.4518948197364807,0.36098286509513855,0.27487003803253174,20.4261417388916,-30.018142700195312,13.078649520874023,-0.16071367263793945,-0.2892169952392578,0.3201958239078522,3.3249943256378174,9.321744918823242,-0.21753457188606262
1_20251106_212525,1762435490265,1,0.27044323086738586,0.4740447700023651,0.5189607739448547,0.6578918695449829,1.1085032224655151,3.2000162601470947,0.6249730587005615,3.335458755493164,8.88648796081543,0.17448419332504272,-0.4066908061504364,0.22598177194595337,0.43430572748184204,20.081989288330078,-30.113975524902344,12.88762092590332,0.008371353149414062,-0.34820556640625,0.31361502408981323,3.32708740234375,9.23469352722168,-0.1391308307647705
1_20251106_212525,1762435490284,1,0.26852136850357056,0.47379615902900696,0.5149458646774292,0.6620001792907715,1.117477536201477,3.1986138820648193,0.6430443525314331,3.7352733612060547,8.813467025756836,0.09787304699420929,-0.385310560464859,0.07448732107877731,0.5552569031715393,19.739246368408203,-30.1846923828125,12.697122573852539,0.32654881477355957,-0.33698081970214844,0.18960310518741608,3.408724546432495,9.150447845458984,-0.09173005819320679
1_20251106_212525,1762435490304,1,0.26642295718193054,0.47520026564598083,0.510086715221405,0.6655938029289246,1.1282422542572021,3.1967084407806396,0.6608997583389282,4.2248663902282715,8.941551208496094,0.15892255306243896,-0.3504912555217743,-0.02569449692964554,0.5442613959312439,19.398630142211914,-30.20612335205078,12.602293014526367,0.6529135704040527,-0.16711711883544922,0.20052209496498108,3.5719528198242188,9.108668327331543,-0.041599538177251816
1_20251106_212525,1762435490322,1,0.2646839916706085,0.4773115813732147,0.5051706433296204,0.6685197353363037,1.1554261445999146,3.1947519779205322,0.6981585621833801,4.702488899230957,9.506559371948242,0.8352554440498352,-0.31200677156448364,0.05493964999914169,0.3689431846141815,19.05829620361328,-30.23876190185547,12.372037887573242,0.7384824752807617,0.2988929748535156,0.6046640872955322,3.9640064239501953,9.207666397094727,0.23059138655662537
1_20251106_212525,1762435490341,1,0.26340165734291077,0.4780592620372772,0.5014829635620117,0.671262800693512,1.170995831489563,3.1952476501464844,0.7178881168365479,4.50497579574585,9.550849914550781,0.6245747804641724,-0.31200677156448364,0.05493964999914169,0.3689431846141815,18.727739334106445,-30.308685302734375,12.182027816772461,0.43277549743652344,0.27454662322998047,0.3151867091655731,4.072200298309326,9.2763032913208,0.30938807129859924
1_20251106_212525,1762435490360,1,0.26309797167778015,0.47586163878440857,0.49922364950180054,0.6746190786361694,1.170995831489563,3.1952476501464844,0.7178881168365479,4.50497579574585,9.550849914550781,0.6245747804641724,-0.49587708711624146,0.4397844076156616,-0.17900244891643524,18.358001708984375,-30.430946350097656,11.962457656860352,0.43277549743652344,0.27454662322998047,0.3151867091655731,4.072200298309326,9.2763032913208,0.30938807129859924
1_20251106_212525,1762435490380,1,0.26445186138153076,0.47110065817832947,0.49776503443717957,0.678497850894928,1.1986827850341797,3.1972482204437256,0.7576491236686707,3.402493476867676,9.313834190368652,0.7658265829086304,-0.6040001511573792,0.4978165924549103,-0.3506554067134857,18.055341720581055,-30.436492919921875,11.774747848510742,-0.5328032970428467,0.0008440017700195312,0.33540594577789307,3.9352967739105225,9.312990188598633,0.4304206371307373
1_20251106_212525,1762435490399,1,0.26711881160736084,0.4648149907588959,0.4965966045856476,0.6826319694519043,1.206943392753601,3.1971287727355957,0.7778406739234924,2.7309484481811523,8.94035530090332,1.0495272874832153,-0.6125522255897522,0.5051469206809998,-0.354931503534317,17.813907623291016,-30.437667846679688,11.548940658569336,-0.9634785652160645,-0.2981081008911133,0.4952853322029114,3.694427013397217,9.238463401794434,0.554241955280304
1_20251106_212525,1762435490420,1,0.26978009939193726,0.4582458436489105,0.4954906702041626,0.6868175864219666,1.206943392753601,3.1971287727355957,0.7778406739234924,2.7309484481811523,8.94035530090332,1.0495272874832153,-0.5905610918998718,0.43428662419319153,-0.15151354670524597,17.654855728149414,-30.483642578125,11.339029312133789,-0.9634785652160645,-0.2981081008911133,0.4952853322029114,3.694427013397217,9.238463401794434,0.554241955280304
1_20251106_212525,1762435490439,1,0.2714477479457855,0.4530670642852783,0.49343401193618774,0.6910638213157654,1.2129899263381958,3.1920199394226074,0.8213480710983276,2.659125804901123,8.666231155395508,1.1524734497070312,-0.6101087927818298,0.286457359790802,0.16063833236694336,17.54777717590332,-30.46405792236328,11.172948837280273,-0.6283092498779297,-0.36603736877441406,0.4108312129974365,3.2874350547790527,9.032268524169922,0.7416422367095947
1_20251106_212525,1762435490456,1,0.2718341052532196,0.4502502679824829,0.4895420968532562,0.6955065727233887,1.2144101858139038,3.18937611579895,0.8408809304237366,3.2983503341674805,9.000207901000977,1.5714406967163086,-0.6168282628059387,0.14840194582939148,0.3909343481063843,17.54777717590332,-30.46405792236328,11.172948837280273,0.008732080459594727,-0.025648117065429688,0.6638387441635132,3.2896182537078857,9.025856018066406,0.9076019525527954
1_20251106_212525,1762435490475,1,0.2713002860546112,0.4493768811225891,0.4842309057712555,0.6999835968017578,1.2174758911132812,3.187293291091919,0.8646534085273743,3.857372283935547,9.289894104003906,2.0131521224975586,-0.6168282628059387,0.14840194582939148,0.3909343481063843,17.435653686523438,-30.54412078857422,10.92365837097168,0.45420336723327637,0.21123027801513672,0.8844401836395264,3.4031689167022705,9.07866382598877,1.1287119388580322
1_20251106_212525,1762435490494,1,0.27077266573905945,0.4488976299762726,0.47871869802474976,0.7042737007141113,1.2174758911132812,3.187293291091919,0.8646534085273743,3.857372283935547,9.289894104003906,2.0131521224975586,-0.602167546749115,0.1728365421295166,0.22355739772319794,17.300060272216797,-30.612945556640625,10.646617889404297,0.45420336723327637,0.21123027801513672,0.8844401836395264,3.4031689167022705,9.07866382598877,1.1287119388580322
1_20251106_212525,1762435490513,1,0.27109891176223755,0.4471442401409149,0.4740619659423828,0.7084014415740967,1.2266916036605835,3.1864466667175293,0.918658435344696,3.538957118988037,9.38206672668457,2.7493374347686768,-0.621715247631073,0.3389917314052582,-0.04094702750444412,17.176565170288086,-30.66950225830078,10.478462219238281,0.014698505401611328,0.17406749725341797,1.113236904144287,3.524258613586426,9.207999229431152,1.6361005306243896
1_20251106_212525,1762435490532,1,0.2724761962890625,0.4429576098918915,0.47082990407943726,0.7126460671424866,1.2299721240997314,3.1856019496917725,0.947912871837616,3.16068959236145,8.93796157836914,2.5446419715881348,-0.6046109795570374,0.5790615081787109,-0.1447940319776535,17.14319610595703,-30.64434814453125,10.23422622680664,-0.29085516929626465,-0.21603012084960938,0.7268331050872803,3.451544761657715,9.15399169921875,1.8178088665008545
1_20251106_212525,1762435490551,1,0.27339574694633484,0.43654829263687134,0.46878570318222046,0.7175794839859009,1.2299721240997314,3.1856019496917725,0.947912871837616,3.16068959236145,8.93796157836914,2.5446419715881348,-0.5423027873039246,0.5827267169952393,-0.06538160890340805,17.071550369262695,-30.658706665039062,9.933660507202148,-0.29085516929626465,-0.21603012084960938,0.7268331050872803,3.451544761657715,9.15399169921875,1.8178088665008545
1_20251106_212525,1762435490571,1,0.2735527753829956,0.4306594133377075,0.46682897210121155,0.7223379015922546,1.2328650951385498,3.1803343296051025,1.0061662197113037,2.993102550506592,8.663836479187012,2.1711626052856445,-0.48060545325279236,0.38663917779922485,0.10077358782291412,16.92427635192871,-30.716041564941406,9.683425903320312,-0.3029794692993164,-0.32193565368652344,0.23533976078033447,3.296082019805908,8.985772132873535,1.93582284450531
1_20251106_212525,1762435490590,1,0.2731815576553345,0.427089661359787,0.4641304910182953,0.7263258099555969,1.2328650951385498,3.1803343296051025,1.0061662197113037,2.993102550506592,8.663836479187012,2.1711626052856445,-0.40852341055870056,0.2046014964580536,0.29075250029563904,16.730375289916992,-30.73888397216797,9.432022094726562,-0.3029794692993164,-0.32193565368652344,0.23533976078033447,3.296082019805908,8.985772132873535,1.93582284450531
1_20251106_212525,1762435490610,1,0.2720129191875458,0.42579272389411926,0.46067821979522705,0.7297157645225525,1.2333142757415771,3.176483631134033,1.0353156328201294,3.1714630126953125,8.729674339294434,2.307626247406006,-0.343771755695343,0.0958675891160965,0.44835564494132996,16.544923782348633,-30.835594177246094,9.111944198608398,-0.09969520568847656,-0.2048778533935547,0.2974426746368408,3.271158218383789,8.934552192687988,2.010183572769165
1_20251106_212525,1762435490629,1,0.26992326974868774,0.42609265446662903,0.4567399322986603,0.7327858805656433,1.2345223426818848,3.1731488704681396,1.0639190673828125,3.5281834602355957,9.04090690612793,2.3100204467773438,-0.333997905254364,0.06349175423383713,0.5222702622413635,16.303178787231445,-30.848785400390625,8.831809997558594,0.20562028884887695,0.0850839614868164,0.2398695945739746,3.3225631713867188,8.955822944641113,2.070150852203369
1_20251106_212525,1762435490647,1,0.2674729526042938,0.42704492807388306,0.45242738723754883,0.7357990741729736,1.242395281791687,3.1700594425201416,1.1142385005950928,4.463079452514648,9.391643524169922,2.5661890506744385,-0.39447352290153503,0.12579995393753052,0.4837857782840729,16.12046241760254,-30.8837890625,8.62118148803711,0.7967739105224609,0.29616260528564453,0.34600210189819336,3.6663055419921875,9.095480918884277,2.220186948776245
1_20251106_212525,1762435490666,1,0.26519376039505005,0.4272649586200714,0.44797685742378235,0.7392114996910095,1.2500519752502441,3.1695687770843506,1.1410032510757446,4.599542617797852,9.295879364013672,2.8295397758483887,-0.39447352290153503,0.12579995393753052,0.4837857782840729,15.899368286132812,-30.95844268798828,8.367740631103516,0.7465896606445312,0.16031837463378906,0.48748230934143066,3.8529529571533203,9.135560989379883,2.342057466506958
1_20251106_212525,1762435490686,1,0.2637411952018738,0.4260767102241516,0.44412344694137573,0.7427338361740112,1.2600001096725464,3.1687612533569336,1.1693991422653198,4.606724739074707,9.031331062316895,2.8786187171936035,-0.43967750668525696,0.32494184374809265,0.15514054894447327,15.591068267822266,-31.06444549560547,8.177919387817383,0.6030173301696777,-0.08338356018066406,0.4292490482330322,4.003707408905029,9.114714622497559,2.4493696689605713
1_20251106_212525,1762435490705,1,0.2630513906478882,0.42337632179260254,0.44109004735946655,0.7463216781616211,1.2695720195770264,3.1680009365081787,1.1941510438919067,4.436744213104248,9.086395263671875,2.6416029930114746,-0.4433426856994629,0.38236311078071594,0.06656516343355179,15.351655006408691,-31.24102783203125,7.989458084106445,0.34642934799194336,-0.022655487060546875,0.15378665924072266,4.090314865112305,9.109050750732422,2.487816333770752
1_20251106_212525,1762435490724,1,0.26271629333496094,0.41987258195877075,0.438520222902298,0.7499247789382935,1.2796415090560913,3.1670351028442383,1.219006061553955,4.261974811553955,9.034921646118164,2.5003511905670166,-0.41463205218315125,0.33532652258872986,0.05618046596646309,15.104890823364258,-31.330642700195312,7.81587028503418,0.1373281478881836,-0.05930328369140625,0.010027885437011719,4.1246466636657715,9.09422492980957,2.490323305130005
1_20251106_212525,1762435490743,1,0.2625919282436371,0.41677096486091614,0.4361114203929901,0.7530964612960815,1.2896263599395752,3.1654233932495117,1.2448413372039795,4.0967817306518555,8.881698608398438,2.8127810955047607,-0.40363651514053345,0.22292745113372803,0.0812259167432785,14.88209056854248,-31.430816650390625,7.602451324462891,-0.022292137145996094,-0.17002105712890625,0.2579662799835205,4.119073867797852,9.051719665527344,2.5548148155212402
1_20251106_212525,1762435490763,1,0.26271843910217285,0.41460520029067993,0.43344029784202576,0.7557850480079651,1.297560214996338,3.1633553504943848,1.2687240839004517,3.874130964279175,8.771571159362793,3.283221483230591,-0.4256276488304138,0.20643410086631775,0.09527580440044403,14.633212089538574,-31.55809783935547,7.428071975708008,-0.1959545612335205,-0.2241191864013672,0.5827252864837646,4.070085525512695,8.99569034576416,2.700496196746826
1_20251106_212525,1762435490781,1,0.26291316747665405,0.41249388456344604,0.43048548698425293,0.7585563063621521,1.3054555654525757,3.160294771194458,1.2959271669387817,3.9124364852905273,8.706930160522461,3.3562417030334473,-0.44395357370376587,0.3072267472743988,0.12948423624038696,14.422499656677246,-31.657615661621094,7.228658676147461,-0.12611913681030273,-0.23100852966308594,0.5245962142944336,4.03855562210083,8.937938690185547,2.8316454887390137
1_20251106_212525,1762435490800,1,0.2624953091144562,0.4096185863018036,0.42750486731529236,0.7619372606277466,1.3128888607025146,3.157492160797119,1.3193339109420776,4.3158416748046875,8.862546920776367,2.8917863368988037,-0.47144246101379395,0.38663917779922485,0.21928134560585022,14.173917770385742,-31.78449249267578,7.013731002807617,0.22182893753051758,-0.06031322479248047,0.04811263084411621,4.09401273727417,8.922860145568848,2.8436737060546875
1_20251106_212525,1762435490820,1,0.2611819803714752,0.40645280480384827,0.42416292428970337,0.7659412026405334,1.322726845741272,3.154914617538452,1.3439216613769531,4.749174118041992,9.048089981079102,2.8044016361236572,-0.49709880352020264,0.2852356433868408,0.2510462999343872,14.013556480407715,-31.855445861816406,6.789775848388672,0.5241293907165527,0.10018444061279297,-0.0314176082611084,4.2250447273254395,8.947905540466309,2.8358192443847656
1_20251106_212525,1762435490839,1,0.260140597820282,0.4042494297027588,0.4202634394168854,0.7696024179458618,1.334026575088501,3.1534764766693115,1.3685563802719116,4.867682456970215,9.280317306518555,3.2556893825531006,-0.5368050336837769,0.14840194582939148,0.1789642721414566,13.850671768188477,-31.976226806640625,6.5242156982421875,0.5141100883483887,0.2659292221069336,0.33589601516723633,4.353572368621826,9.014388084411621,2.9197933673858643
1_20251106_212525,1762435490859,1,0.2603640854358673,0.40278416872024536,0.4159543216228485,0.7726302146911621,1.3455817699432373,3.1530678272247314,1.3947890996932983,4.623483657836914,9.32939624786377,3.8506226539611816,-0.5368050336837769,0.14840194582939148,0.1789642721414566,13.690409660339355,-32.04704284667969,6.2867431640625,0.2159290313720703,0.25200653076171875,0.7446634769439697,4.407554626464844,9.07738971710205,3.105959177017212
1_20251106_212525,1762435490876,1,0.2618013620376587,0.4006516635417938,0.412059485912323,0.7753356099128723,1.3547296524047852,3.1528260707855225,1.4178600311279297,4.324221611022949,9.117518424987793,3.9655399322509766,-0.528863787651062,0.28828996419906616,-0.09714657813310623,13.690409660339355,-32.04704284667969,6.2867431640625,-0.0666661262512207,0.03210258483886719,0.6876645088195801,4.39088773727417,9.085415840148926,3.2778754234313965
1_20251106_212525,1762435490895,1,0.26341891288757324,0.3968539834022522,0.409189909696579,0.7782551050186157,1.363993525505066,3.1525161266326904,1.4436218738555908,4.227260589599609,9.066045761108398,3.7392971515655518,-0.49770963191986084,0.3939695656299591,-0.09470312297344208,13.527228355407715,-32.16822814941406,6.061731338500977,-0.13090181350708008,-0.015496253967285156,0.3691375255584717,4.3581624031066895,9.081542015075684,3.37015962600708
1_20251106_212525,1762435490916,1,0.2644292414188385,0.3922702372074127,0.40683987736701965,0.7814618349075317,1.3734865188598633,3.152407646179199,1.4720293283462524,4.2883100509643555,9.146247863769531,3.7752087116241455,-0.49770963191986084,0.3939695656299591,-0.09470312297344208,13.378545761108398,-32.25067138671875,5.810968399047852,-0.05588197708129883,0.051764488220214844,0.3240392208099365,4.344192028045654,9.094483375549316,3.451169490814209
1_20251106_212525,1762435490933,1,0.26514381170272827,0.3884579837322235,0.4041707217693329,0.784503161907196,1.3734865188598633,3.152407646179199,1.4720293283462524,4.2883100509643555,9.146247863769531,3.7752087116241455,-0.45983606576919556,0.23209041357040405,0.03968711569905281,13.266830444335938,-32.318580627441406,5.60249137878418,-0.05588197708129883,0.051764488220214844,0.3240392208099365,4.344192028045654,9.094483375549316,3.451169490814209
1_20251106_212525,1762435490953,1,0.265664666891098,0.38576337695121765,0.40120360255241394,0.7871750593185425,1.3818408250808716,3.1528899669647217,1.4983566999435425,4.415197372436523,9.304258346557617,4.147490978240967,-0.4011930227279663,0.19177335500717163,0.05984565243124962,13.191362380981445,-32.39612579345703,5.341156005859375,0.05680418014526367,0.16781997680664062,0.5570573806762695,4.35839319229126,9.136438369750977,3.5904335975646973
1_20251106_212525,1762435490972,1,0.26600831747055054,0.38358837366104126,0.3984423577785492,0.7895208597183228,1.3986908197402954,3.1568498611450195,1.5526491403579712,4.715656280517578,9.574790954589844,4.520970344543457,-0.30711984634399414,0.2033797800540924,0.028691552579402924,13.128786087036133,-32.46031951904297,5.080574035644531,0.25527095794677734,0.2834177017211914,0.5968842506408691,4.460385322570801,9.291373252868652,3.924086093902588
1_20251106_212525,1762435490991,1,0.2661418914794922,0.3813917636871338,0.3965328335762024,0.7914988994598389,1.4078973531723022,3.1598708629608154,1.5807793140411377,4.752764701843262,9.54127311706543,4.439570903778076,-0.25397464632987976,0.19055160880088806,-0.0421687550842762,13.065320014953613,-32.525726318359375,4.941638946533203,0.2339034080505371,0.1999197006225586,0.4123878479003906,4.518861293792725,9.341353416442871,4.0271830558776855
1_20251106_212525,1762435491010,1,0.26666364073753357,0.3792048990726471,0.3952258825302124,0.7930262684822083,1.4078973531723022,3.1598708629608154,1.5807793140411377,4.752764701843262,9.54127311706543,4.439570903778076,-0.2729114294052124,0.17955604195594788,-0.10997474193572998,13.054616928100586,-32.524497985839844,4.738405227661133,0.2339034080505371,0.1999197006225586,0.4123878479003906,4.518861293792725,9.341353416442871,4.0271830558776855
1_20251106_212525,1762435491030,1,0.2677212655544281,0.37679028511047363,0.3940330445766449,0.7944132089614868,1.4262032508850098,3.1657228469848633,1.6386445760726929,4.576798915863037,9.29109001159668,4.578428268432617,-0.2894047796726227,0.1887190192937851,-0.14173971116542816,13.041996002197266,-32.5606689453125,4.507345199584961,0.028461456298828125,-0.04653358459472656,0.357393741607666,4.548337459564209,9.337623596191406,4.221034526824951
1_20251106_212525,1762435491050,1,0.269143283367157,0.3741694390773773,0.39278873801231384,0.7957864999771118,1.4346178770065308,3.1682353019714355,1.6663223505020142,4.594754695892334,9.322214126586914,4.595187187194824,-0.24847686290740967,0.15939751267433167,-0.17900246381759644,13.05738353729248,-32.520721435546875,4.359949111938477,0.03713369369506836,-0.012327194213867188,0.29932212829589844,4.557621002197266,9.334541320800781,4.295865058898926
1_20251106_212525,1762435491069,1,0.2708236575126648,0.37174442410469055,0.3918962776660919,0.7967922687530518,1.4429852962493896,3.170950412750244,1.6953321695327759,4.542084693908691,9.40121841430664,4.734045028686523,-0.24847686290740967,0.15939751267433167,-0.17900246381759644,13.070051193237305,-32.53086853027344,4.197980880737305,-0.012429237365722656,0.05334186553955078,0.3505439758300781,4.554513931274414,9.34787654876709,4.383501052856445
1_20251106_212525,1762435491087,1,0.2727780044078827,0.36930975317955017,0.39165252447128296,0.7973774671554565,1.4498553276062012,3.173311710357666,1.7212905883789062,4.439138412475586,9.364110946655273,4.852552890777588,-0.1635666787624359,0.20765581727027893,-0.3476010859012604,13.170036315917969,-32.49791717529297,4.053752899169922,-0.0923004150390625,0.012987136840820312,0.3752412796020508,4.531438827514648,9.351123809814453,4.477311611175537
1_20251106_212525,1762435491106,1,0.2752171456813812,0.36608919501304626,0.3921268880367279,0.7977911829948425,1.4560610055923462,3.1753244400024414,1.7484885454177856,4.28232479095459,9.221662521362305,4.902828693389893,-0.1635666787624359,0.20765581727027893,-0.3476010859012604,13.232053756713867,-32.492462158203125,3.9075260162353516,-0.19929122924804688,-0.10356903076171875,0.34041357040405273,4.481616020202637,9.325231552124023,4.56241512298584
1_20251106_212525,1762435491126,1,0.27809086441993713,0.36169153451919556,0.39319005608558655,0.7982770800590515,1.4610604047775269,3.176607608795166,1.7765830755233765,4.084811210632324,9.085197448730469,4.8573408126831055,-0.16051234304904938,0.3518199026584625,-0.5100911259651184,13.3698091506958,-32.432281494140625,3.792329788208008,-0.31744384765625,-0.19202709197998047,0.23594045639038086,4.402255058288574,9.27722454071045,4.621400356292725
1_20251106_212525,1762435491146,1,0.2812235355377197,0.35675036907196045,0.39457133412361145,0.798721432685852,1.464411735534668,3.1770172119140625,1.8032914400100708,3.9423627853393555,9.010980606079102,4.627508163452148,-0.16051234304904938,0.3518199026584625,-0.5100911259651184,13.569087982177734,-32.36732482910156,3.5984878540039062,-0.36791372299194336,-0.2129955291748047,0.004886150360107422,4.310276508331299,9.223976135253906,4.622622013092041
1_20251106_212525,1762435491163,1,0.28450801968574524,0.3522581160068512,0.3962322175502777,0.7987298965454102,1.4660022258758545,3.176814317703247,1.8243249654769897,3.8023080825805664,8.981054306030273,4.379718780517578,-0.07010436058044434,0.17405825853347778,-0.5369692444801331,13.8438081741333,-32.248046875,3.476226806640625,-0.4063749313354492,-0.1943378448486328,-0.1943225860595703,4.208683013916016,9.175392150878906,4.574041366577148
1_20251106_212525,1762435491183,1,0.2882309556007385,0.34884047508239746,0.39789658784866333,0.7980673909187317,1.4660505056381226,3.175967216491699,1.8463313579559326,3.6107802391052246,8.94514274597168,4.455132484436035,-0.07865646481513977,0.06410261988639832,-0.552240788936615,14.03424072265625,-32.10975646972656,3.4051246643066406,-0.47832202911376953,-0.18419933319091797,-0.09512710571289062,4.089102268218994,9.129342079162598,4.550259590148926
1_20251106_212525,1762435491201,1,0.2926144301891327,0.34625259041786194,0.3992200493812561,0.7969374656677246,1.4642289876937866,3.1750710010528564,1.8675708770751953,3.4084787368774414,9.095972061157227,4.6717987060546875,-0.12691478431224823,0.04027889668941498,-0.5864492058753967,14.381470680236816,-31.998138427734375,3.2720260620117188,-0.5444989204406738,-0.026696205139160156,0.09723138809204102,3.9529776573181152,9.122668266296387,4.5745673179626465
1_20251106_212525,1762435491221,1,0.29737985134124756,0.3434832692146301,0.40026384592056274,0.7958475351333618,1.4599734544754028,3.174159049987793,1.889837384223938,3.1523101329803467,9.117517471313477,4.912405967712402,-0.14524072408676147,0.0903698056936264,-0.6475357413291931,14.753283500671387,-31.873046875,3.207754135131836,-0.6405339241027832,-0.004120826721191406,0.27027082443237305,3.79284405708313,9.121638298034668,4.642135143280029
1_20251106_212525,1762435491240,1,0.3025304675102234,0.34001898765563965,0.40147602558135986,0.7947826385498047,1.4541653394699097,3.1728179454803467,1.9096763134002686,2.911703109741211,8.893670082092285,4.967469692230225,-0.14524072408676147,0.0903698056936264,-0.6475357413291931,15.017833709716797,-31.717025756835938,3.0993099212646484,-0.7049126625061035,-0.1823749542236328,0.2602677345275879,3.6166157722473145,9.076045036315918,4.707201957702637
1_20251106_212525,1762435491260,1,0.30763188004493713,0.3359481394290924,0.40332111716270447,0.7936205267906189,1.4442942142486572,3.170154571533203,1.9320553541183472,2.5920910835266113,8.724885940551758,4.82382345199585,-0.026732968166470528,0.16550616919994354,-0.7104547619819641,15.46336841583252,-31.574745178222656,3.051759719848633,-0.8196196556091309,-0.2809276580810547,0.09329700469970703,3.411710739135742,9.005813598632812,4.730526447296143
1_20251106_212525,1762435491280,1,0.3125016987323761,0.3318690061569214,0.4058145582675934,0.7921617031097412,1.4319690465927124,3.166548728942871,1.9518698453903198,2.295222759246826,8.612363815307617,4.588005065917969,0.0019776737317442894,0.1679496169090271,-0.6683050990104675,15.961482048034668,-31.35448455810547,3.0618209838867188,-0.8931903839111328,-0.3147602081298828,-0.11401700973510742,3.188413143157959,8.9271240234375,4.702022075653076
1_20251106_212525,1762435491298,1,0.3170187175273895,0.3280238211154938,0.4083724617958069,0.7906525731086731,1.418874979019165,3.1627025604248047,1.9683358669281006,2.1503796577453613,8.617151260375977,4.508999824523926,-0.021235186606645584,0.162451833486557,-0.5571277737617493,16.411556243896484,-31.124839782714844,3.0701847076416016,-0.8304266929626465,-0.24797821044921875,-0.1544179916381836,2.980806350708008,8.865129470825195,4.663417816162109
1_20251106_212525,1762435491316,1,0.3207959234714508,0.32456985116004944,0.4104146659374237,0.7894961833953857,1.4046088457107544,3.158508777618408,1.9832594394683838,2.2389614582061768,8.645881652832031,4.371339321136475,-0.013904809020459652,0.13251946866512299,-0.4074658453464508,16.411556243896484,-31.124839782714844,3.0701847076416016,-0.5934760570526123,-0.1753978729248047,-0.23366308212280273,2.832437515258789,8.821279525756836,4.605002403259277
1_20251106_212525,1762435491335,1,0.3235277235507965,0.3219388723373413,0.41196829080581665,0.7886490225791931,1.389039397239685,3.1535167694091797,1.9972286224365234,2.3718340396881104,8.534555435180664,4.242057800292969,0.05267944931983948,0.015233436599373817,-0.29628846049308777,16.845623016357422,-30.959182739257812,3.1172866821289062,-0.3684828281402588,-0.22937870025634766,-0.2903556823730469,2.740316867828369,8.763934135437012,4.532413482666016
1_20251106_212525,1762435491354,1,0.32571056485176086,0.32090210914611816,0.41329577565193176,0.7874776721000671,1.3730831146240234,3.148207426071167,2.0097849369049072,2.315572738647461,8.55729866027832,4.271984100341797,0.09421824663877487,-0.08555923402309418,-0.25108447670936584,17.352596282958984,-30.800643920898438,3.099485397338867,-0.3397953510284424,-0.16530799865722656,-0.208343505859375,2.6553680896759033,8.722606658935547,4.480327606201172
1_20251106_212525,1762435491374,1,0.3278414011001587,0.3209953010082245,0.41444575786590576,0.7859495878219604,1.3730831146240234,3.148207426071167,2.0097849369049072,2.315572738647461,8.55729866027832,4.271984100341797,0.066729336977005,-0.06601156294345856,-0.23886719346046448,17.71394157409668,-30.63921356201172,3.089578628540039,-0.3397953510284424,-0.16530799865722656,-0.208343505859375,2.6553680896759033,8.722606658935547,4.480327606201172
1_20251106_212525,1762435491393,1,0.32986024022102356,0.32087773084640503,0.41541925072669983,0.7846378684043884,1.3548129796981812,3.1425960063934326,2.022282838821411,2.203049898147583,8.71171760559082,4.275575160980225,0.024579668417572975,0.013400844298303127,-0.22970423102378845,18.04145050048828,-30.430068969726562,3.0927734375,-0.36185455322265625,-0.008710861206054688,-0.1638021469116211,2.5649044513702393,8.720428466796875,4.439377307891846
1_20251106_212525,1762435491413,1,0.3314691185951233,0.3199681043624878,0.4163855314254761,0.7838186621665955,1.3369499444961548,3.1375834941864014,2.0326266288757324,2.126438617706299,8.741644859313965,4.1223530769348145,-0.0035201087594032288,0.0598265640437603,-0.20465877652168274,18.449934005737305,-30.290847778320312,3.1113338470458984,-0.3507726192474365,0.016973495483398438,-0.2536196708679199,2.4772112369537354,8.724671363830566,4.375972747802734
1_20251106_212525,1762435491431,1,0.33294546604156494,0.3188154101371765,0.4171755313873291,0.783242404460907,1.3043056726455688,3.1292026042938232,2.0476222038269043,2.0510246753692627,8.733264923095703,4.091229438781738,-0.0035201087594032288,0.0598265640437603,-0.20465877652168274,18.72871208190918,-30.073272705078125,3.2074451446533203,-0.2781221866607666,0.007414817810058594,-0.1715102195739746,2.3291468620300293,8.725850105285645,4.262739658355713
1_20251106_212525,1762435491450,1,0.33421590924263,0.3177182674407959,0.41756772994995117,0.7829380631446838,1.2871015071868896,3.1254079341888428,2.05464243888855,2.01271915435791,8.826635360717773,4.25642204284668,-0.04872409254312515,0.04394408315420151,-0.1093638688325882,18.926210403442383,-30.0107421875,3.25689697265625,-0.2531421184539795,0.0806283950805664,-0.005053997039794922,2.2658612728118896,8.746006965637207,4.261476039886475
1_20251106_212525,1762435491469,1,0.33516255021095276,0.31691187620162964,0.41769176721572876,0.7827940583229065,1.2698692083358765,3.122030735015869,2.0615344047546387,1.9420931339263916,8.829029083251953,4.3426103591918945,-0.004741838201880455,0.028061596676707268,-0.07210112363100052,19.111412048339844,-29.96075439453125,3.224496841430664,-0.2590146064758301,0.06641769409179688,0.06490755081176758,2.2011077404022217,8.762611389160156,4.277702808380127
1_20251106_212525,1762435491488,1,0.335722953081131,0.3164660334587097,0.4179874062538147,0.7825764417648315,1.252774715423584,3.1187191009521484,2.068089008331299,1.937304973602295,8.724885940551758,4.280363082885742,0.03313177824020386,0.016455167904496193,-0.018345031887292862,19.21181869506836,-29.904037475585938,3.2159595489501953,-0.21104216575622559,-0.030180931091308594,0.002128124237060547,2.1483471393585205,8.755066871643066,4.278234958648682
1_20251106_212525,1762435491507,1,0.33589968085289,0.31646057963371277,0.4183291494846344,0.7823201417922974,1.2360938787460327,3.1154112815856934,2.0744729042053223,1.9875811338424683,8.69615650177002,4.335427284240723,0.02946658618748188,-0.006757691036909819,0.043963171541690826,19.286752700805664,-29.86200714111328,3.260242462158203,-0.12861287593841553,-0.04712867736816406,0.04575395584106445,2.116194009780884,8.743285179138184,4.289673328399658
1_20251106_212525,1762435491526,1,0.3356858193874359,0.3168543875217438,0.4183898866176605,0.7822200655937195,1.2200945615768433,3.112060785293579,2.0811524391174316,2.060600996017456,8.667428016662598,4.513788223266602,0.011751508340239525,0.010346520692110062,0.10077358782291412,19.334793090820312,-29.871383666992188,3.2619400024414062,-0.04447436332702637,-0.06068611145019531,0.1792922019958496,2.1050753593444824,8.728114128112793,4.334496021270752
1_20251106_212525,1762435491545,1,0.3349974453449249,0.3172721564769745,0.4181988835334778,0.7824479341506958,1.205377459526062,3.108872175216675,2.087947130203247,2.280858039855957,8.726083755493164,4.498226165771484,0.023357940837740898,0.028672462329268456,0.13009509444236755,19.370038986206055,-29.89398193359375,3.2493667602539062,0.1406261920928955,-0.0016241073608398438,0.13098430633544922,2.1402318477630615,8.727707862854004,4.367241859436035
1_20251106_212525,1762435491565,1,0.33397531509399414,0.31769129633903503,0.418030709028244,0.7828046083450317,1.191815733909607,3.1057770252227783,2.094972610473633,2.520267963409424,8.758403778076172,4.443161964416504,0.04534906893968582,0.0011835502227768302,0.12093213200569153,19.345977783203125,-29.88355255126953,3.302715301513672,0.3040289878845215,0.024557113647460938,0.06073617935180664,2.2162389755249023,8.733846664428711,4.382425785064697
1_20251106_212525,1762435491584,1,0.33308207988739014,0.31840944290161133,0.4179352819919586,0.78294438123703,1.1813139915466309,3.1032028198242188,2.1010022163391113,2.660322666168213,8.763191223144531,4.391688823699951,0.053290314972400665,-0.053183406591415405,0.0555696003139019,19.318279266357422,-29.947654724121094,3.2733821868896484,0.3552670478820801,0.02347564697265625,0.007410526275634766,2.305055618286133,8.739715576171875,4.384278297424316
1_20251106_212525,1762435491602,1,0.33281612396240234,0.3193303942680359,0.41792032122612,0.7826902866363525,1.1813139915466309,3.1032028198242188,2.1010022163391113,2.660322666168213,8.763191223144531,4.391688823699951,0.015416696667671204,-0.07150934636592865,-0.0525534562766552,19.280607223510742,-29.974746704101562,3.2308349609375,0.3552670478820801,0.02347564697265625,0.007410526275634766,2.305055618286133,8.739715576171875,4.384278297424316
1_20251106_212525,1762435491622,1,0.3335651755332947,0.3198864161968231,0.4178697168827057,0.7821712493896484,1.1704801321029663,3.1005167961120605,2.108163356781006,2.5454061031341553,8.789525985717773,4.526955604553223,0.015416696667671204,-0.07150934636592865,-0.0525534562766552,19.197023391723633,-29.94317626953125,3.282258987426758,0.19228029251098633,0.03984832763671875,0.11414194107055664,2.353125810623169,8.749677658081055,4.412813663482666
1_20251106_212525,1762435491641,1,0.3350447714328766,0.31926339864730835,0.41785258054733276,0.7818024754524231,1.1523452997207642,3.096405029296875,2.1220905780792236,2.169532537460327,8.750024795532227,4.710103988647461,-0.09331721812486649,0.0854828804731369,-0.23336941003799438,19.183835983276367,-29.956932067871094,3.322053909301758,-0.14642047882080078,-0.008587837219238281,0.18835067749023438,2.315953016281128,8.758612632751465,4.521753311157227
1_20251106_212525,1762435491660,1,0.33679822087287903,0.31744828820228577,0.4180634617805481,0.7816754579544067,1.1425732374191284,3.0942561626434326,2.129464864730835,1.9756104946136475,8.691368103027344,4.690951347351074,-0.09331721812486649,0.0854828804731369,-0.23336941003799438,19.235401153564453,-29.903526306152344,3.325071334838867,-0.2722740173339844,-0.053795814514160156,0.13535833358764648,2.247884511947632,8.745163917541504,4.555593013763428
1_20251106_212525,1762435491680,1,0.33854424953460693,0.31517302989959717,0.41837993264198303,0.7816725373268127,1.1315840482711792,3.092020273208618,2.137181520462036,1.8475263118743896,8.716506958007812,4.668207168579102,-0.06216312199831009,0.11602611839771271,-0.24192151427268982,19.299150466918945,-29.849327087402344,3.3285789489746094,-0.32028651237487793,-0.022925376892089844,0.09009122848510742,2.1678128242492676,8.739432334899902,4.578115940093994
1_20251106_212525,1762435491699,1,0.34018853306770325,0.31293705105781555,0.4189063608646393,0.781575083732605,1.1315840482711792,3.092020273208618,2.137181520462036,1.8475263118743896,8.716506958007812,4.668207168579102,-0.06216312199831009,0.11602611839771271,-0.24192151427268982,19.299150466918945,-29.849327087402344,3.3285789489746094,-0.32028651237487793,-0.022925376892089844,0.09009122848510742,2.1678128242492676,8.739432334899902,4.578115940093994
1_20251106_212525,1762435491720,1,0.34158310294151306,0.3109414875507355,0.4195595681667328,0.7814128994941711,1.109087586402893,3.087557315826416,2.152585506439209,1.974413514137268,8.644683837890625,4.716089248657227,-0.014515673741698265,0.07387645542621613,-0.18999801576137543,19.40047264099121,-29.768173217773438,3.388151168823242,-0.1080702543258667,-0.07481193542480469,0.08964395523071289,2.0824837684631348,8.71949577331543,4.626445293426514
1_20251106_212525,1762435491736,1,0.34285178780555725,0.3093683123588562,0.42018815875053406,0.7811439037322998,1.1003086566925049,3.0855507850646973,2.1585540771484375,1.9337139129638672,8.594407081604004,4.69454288482666,0.017860157415270805,0.035391975194215775,-0.19977185130119324,19.488889694213867,-29.71198272705078,3.352090835571289,-0.11901593208312988,-0.10007095336914062,0.05447816848754883,2.052729845046997,8.694478034973145,4.640064716339111
1_20251106_212525,1762435491756,1,0.34419170022010803,0.3083249628543854,0.4207681119441986,0.7806548476219177,1.0891942977905273,3.0826563835144043,2.1658148765563965,1.8259793519973755,8.526176452636719,4.69693660736084,0.0019776737317442894,0.04699840396642685,-0.20282617211341858,19.58939552307129,-29.655136108398438,3.330038070678711,-0.18140041828155518,-0.1346416473388672,0.04549741744995117,2.0073797702789307,8.660818099975586,4.651439189910889
1_20251106_212525,1762435491774,1,0.3455517292022705,0.3071397840976715,0.42126762866973877,0.7802517414093018,1.0891942977905273,3.0826563835144043,2.1658148765563965,1.8259793519973755,8.526176452636719,4.69693660736084,-0.028565561398863792,0.08609375357627869,-0.18816542625427246,19.704090118408203,-29.571571350097656,3.2279052734375,-0.18140041828155518,-0.1346416473388672,0.04549741744995117,2.0073797702789307,8.660818099975586,4.651439189910889
1_20251106_212525,1762435491793,1,0.34682759642601013,0.305555135011673,0.42162084579467773,0.7801169753074646,1.0785247087478638,3.0794875621795654,2.1722757816314697,1.7745063304901123,8.4579439163208,4.617931365966797,-0.03895026445388794,0.08914807438850403,-0.16189825534820557,19.952831268310547,-29.479263305664062,3.1311683654785156,-0.18629884719848633,-0.16229915618896484,-0.026806354522705078,1.9608051776885986,8.620243072509766,4.644737720489502
1_20251106_212525,1762435491812,1,0.3480164706707001,0.3041156530380249,0.42184874415397644,0.7800267934799194,1.0580569505691528,3.072467565536499,2.1829280853271484,1.8020384311676025,8.534555435180664,4.367748260498047,-0.03650680184364319,0.04088975861668587,-0.14173971116542816,20.092897415161133,-29.381141662597656,2.9897327423095703,-0.10410070419311523,-0.03836822509765625,-0.2040872573852539,1.9061391353607178,8.57292366027832,4.571835517883301
1_20251106_212525,1762435491831,1,0.34895795583724976,0.3031671941280365,0.42198142409324646,0.7799036502838135,1.0477079153060913,3.0693721771240234,2.187086343765259,1.715850830078125,8.674610137939453,4.366550922393799,-0.03650680184364319,0.04088975861668587,-0.14173971116542816,20.195110321044922,-29.29876708984375,2.9276580810546875,-0.1522306203842163,0.08134937286376953,-0.16422796249389648,1.8680814504623413,8.593260765075684,4.530778884887695
1_20251106_212525,1762435491851,1,0.35042399168014526,0.3028865158557892,0.4220573902130127,0.7793140411376953,1.037074327468872,3.0669405460357666,2.1905665397644043,1.5757960081100464,8.778753280639648,4.359368324279785,-0.03833939880132675,-0.0018707733834162354,-0.14357230067253113,20.333175659179688,-29.22657012939453,2.866790771484375,-0.23382842540740967,0.14839458465576172,-0.13712835311889648,1.809624433517456,8.630358695983887,4.496496677398682
1_20251106_212525,1762435491870,1,0.35186702013015747,0.3020411431789398,0.42223668098449707,0.7788946628570557,1.037074327468872,3.0669405460357666,2.1905665397644043,1.5757960081100464,8.778753280639648,4.359368324279785,-0.10431278496980667,0.11358266323804855,-0.13807451725006104,20.459041595458984,-29.166778564453125,2.7105560302734375,-0.23382842540740967,0.14839458465576172,-0.13712835311889648,1.809624433517456,8.630358695983887,4.496496677398682
1_20251106_212525,1762435491889,1,0.3531012237071991,0.300537109375,0.42252853512763977,0.7787596583366394,1.0143101215362549,3.0633254051208496,2.195840835571289,1.4943965673446655,8.75002384185791,4.319866180419922,-0.11591921746730804,0.13496291637420654,-0.09042706340551376,20.571521759033203,-29.121017456054688,2.6211490631103516,-0.2011711597442627,0.07486248016357422,-0.1149587631225586,1.6955677270889282,8.675161361694336,4.4348249435424805
1_20251106_212525,1762435491909,1,0.354021281003952,0.29902389645576477,0.42271721363067627,0.7788220643997192,1.0033124685287476,3.0619542598724365,2.197744846343994,1.5518549680709839,8.722492218017578,4.334230422973633,-0.08781944215297699,0.08181770145893097,-0.0165124349296093,20.62507438659668,-29.053298950195312,2.448719024658203,-0.11497032642364502,0.03786468505859375,-0.0804753303527832,1.666825294494629,8.684627532958984,4.414705753326416
1_20251106_212525,1762435491928,1,0.35445162653923035,0.29830729961395264,0.4227460026741028,0.7788854837417603,0.9928744435310364,3.0608606338500977,2.1990997791290283,1.670362949371338,8.760797500610352,4.249239921569824,-0.08781944215297699,0.08181770145893097,-0.0165124349296093,20.70130729675293,-28.997901916503906,2.412168502807617,0.0028301477432250977,0.06093597412109375,-0.13237285614013672,1.6675328016281128,8.699861526489258,4.381612777709961
1_20251106_212525,1762435491947,1,0.35467079281806946,0.29881662130355835,0.4224042296409607,0.7787759304046631,0.9827361702919006,3.060669183731079,2.200390577316284,1.7661269903182983,8.99661636352539,4.360565662384033,-0.09087376296520233,-0.0898352861404419,0.10138446092605591,20.712181091308594,-29.02208709716797,2.3986148834228516,0.07887542247772217,0.23740386962890625,-0.016837596893310547,1.6872515678405762,8.759212493896484,4.377403259277344
1_20251106_212525,1762435491965,1,0.3549356758594513,0.30016300082206726,0.4214150905609131,0.7786733508110046,0.9827361702919006,3.060669183731079,2.200390577316284,1.7661269903182983,8.99661636352539,4.360565662384033,-0.159290611743927,-0.08250491321086884,0.10077358782291412,20.7623233795166,-29.005409240722656,2.3062267303466797,0.07887542247772217,0.23740386962890625,-0.016837596893310547,1.6872515678405762,8.759212493896484,4.377403259277344
1_20251106_212525,1762435491984,1,0.3553515076637268,0.30127575993537903,0.41995540261268616,0.7788425087928772,0.974147617816925,3.061479330062866,2.2025866508483887,1.8918170928955078,9.117517471313477,4.75319766998291,-0.15134936571121216,-0.02874881960451603,0.05923479050397873,20.796653747558594,-29.052444458007812,2.225543975830078,0.1636524200439453,0.28664398193359375,0.30063533782958984,1.7281646728515625,8.830873489379883,4.45256233215332
1_20251106_212525,1762435492003,1,0.35580775141716003,0.30168914794921875,0.41849765181541443,0.7792587280273438,0.9601430892944336,3.0649895668029785,2.2110648155212402,1.9492754936218262,9.09238052368164,5.044081211090088,-0.07987819612026215,0.018898626789450645,0.007311288267374039,20.79795265197754,-29.039077758789062,2.1447105407714844,0.1445753574371338,0.1616191864013672,0.3695707321166992,1.8047001361846924,8.930761337280273,4.674510478973389
1_20251106_212525,1762435492023,1,0.35603079199790955,0.3014165461063385,0.41764068603515625,0.7797220349311829,0.9535800814628601,3.0670392513275146,2.2165281772613525,1.8678761720657349,8.936763763427734,4.869312286376953,-0.07987819612026215,0.018898626789450645,0.007311288267374039,20.732891082763672,-29.118255615234375,2.1271591186523438,0.050540804862976074,0.004801750183105469,0.15584135055541992,1.8173353672027588,8.931962013244629,4.713470935821533
1_20251106_212525,1762435492041,1,0.35647091269493103,0.30130481719970703,0.4172561764717102,0.7797699570655823,0.9477630257606506,3.068594455718994,2.2213590145111084,1.7338066101074219,8.851774215698242,4.7783355712890625,-0.027954697608947754,-0.005535961594432592,-0.03789270296692848,20.68313217163086,-29.146011352539062,2.0706043243408203,-0.06682300567626953,-0.06414985656738281,0.05189180374145508,1.8006296157836914,8.915924072265625,4.726443767547607
1_20251106_212525,1762435492061,1,0.3569818139076233,0.3013116121292114,0.41698628664016724,0.7796779870986938,0.9411394596099854,3.069859027862549,2.2264811992645264,1.6416337490081787,8.79192066192627,4.734045028686523,-0.03467421233654022,0.004237873945385218,-0.02628627046942711,20.77911376953125,-29.16490936279297,2.0875167846679688,-0.12719666957855225,-0.09920310974121094,0.006081104278564453,1.768830418586731,8.89112377166748,4.727963924407959
1_20251106_212525,1762435492080,1,0.35744449496269226,0.30115756392478943,0.41680899262428284,0.7796202898025513,0.9411394596099854,3.069859027862549,2.2264811992645264,1.6416337490081787,8.79192066192627,4.734045028686523,-0.02001345530152321,0.010957385413348675,-0.0030734119936823845,20.75333023071289,-29.191612243652344,2.086008071899414,-0.12719666957855225,-0.09920310974121094,0.006081104278564453,1.768830418586731,8.89112377166748,4.727963924407959
1_20251106_212525,1762435492099,1,0.35778936743736267,0.3010478615760803,0.4167422354221344,0.7795401811599731,0.9282594323158264,3.0708811283111572,2.2339329719543457,1.5949488878250122,8.726083755493164,4.471891403198242,-0.02001345530152321,0.010957385413348675,-0.0030734119936823845,20.755149841308594,-29.154342651367188,2.127347946166992,-0.11549782752990723,-0.10734939575195312,-0.17499494552612305,1.7104467153549194,8.833433151245117,4.646886348724365
1_20251106_212525,1762435492119,1,0.35796159505844116,0.3014279901981354,0.41671907901763916,0.7793265581130981,0.921453595161438,3.07090163230896,2.2368054389953613,1.5961458683013916,8.738053321838379,4.5006208419799805,-0.009017891250550747,-0.04218784347176552,0.053737007081508636,20.75425910949707,-29.155555725097656,2.248994827270508,-0.09144067764282227,-0.07630443572998047,-0.11701250076293945,1.6875865459442139,8.81435775756836,4.61763334274292
1_20251106_212525,1762435492139,1,0.3586609661579132,0.3024211525917053,0.416401743888855,0.7787896990776062,0.921453595161438,3.07090163230896,2.2368054389953613,1.5961458683013916,8.738053321838379,4.5006208419799805,-0.012072214856743813,-0.029970547184348106,0.05190441384911537,20.777729034423828,-29.166793823242188,2.276744842529297,-0.09144067764282227,-0.07630443572998047,-0.11701250076293945,1.6875865459442139,8.81435775756836,4.61763334274292
1_20251106_212525,1762435492158,1,0.35869741439819336,0.30292579531669617,0.41633740067481995,0.7786111235618591,0.9081949591636658,3.0699315071105957,2.2423040866851807,1.6105104684829712,8.639896392822266,4.637084007263184,-0.013293944299221039,0.03050505556166172,0.061067383736371994,20.777729034423828,-29.166793823242188,2.276744842529297,-0.04128456115722656,-0.12276363372802734,0.008809566497802734,1.6517950296401978,8.762660026550293,4.628274440765381
1_20251106_212525,1762435492177,1,0.3584001362323761,0.3027816414833069,0.4163302779197693,0.7788078784942627,0.9029387831687927,3.0690712928771973,2.2442798614501953,1.714653730392456,8.632713317871094,4.514985084533691,-0.017569996416568756,0.032337650656700134,0.09405408054590225,20.726573944091797,-29.208045959472656,2.3145408630371094,0.05028700828552246,-0.1039571762084961,-0.09063148498535156,1.6643667221069336,8.73667049407959,4.605616569519043
1_20251106_212525,1762435492195,1,0.35779520869255066,0.3027874529361725,0.4161602854728699,0.7791745066642761,0.8980706930160522,3.068148612976074,2.246227502822876,1.9241374731063843,8.733264923095703,4.550896644592285,-0.03223074972629547,-0.021418442949652672,0.15514054894447327,20.716205596923828,-29.17156982421875,2.3553905487060547,0.20781660079956055,-0.0027246475219726562,-0.04377603530883789,1.7163208723068237,8.735989570617676,4.594672679901123
1_20251106_212525,1762435492215,1,0.35700559616088867,0.30363908410072327,0.41554346680641174,0.7795344591140747,0.894345760345459,3.0677764415740967,2.2486953735351562,2.1300299167633057,8.914019584655762,4.720877647399902,-0.05238928645849228,-0.09288960695266724,0.18812724947929382,20.76435661315918,-29.169204711914062,2.4384498596191406,0.3309671878814697,0.1424236297607422,0.10096406936645508,1.799062728881836,8.77159595489502,4.619913578033447
1_20251106_212525,1762435492233,1,0.3562798798084259,0.3053315579891205,0.4143161177635193,0.7798585891723633,0.8923751711845398,3.0680510997772217,2.25195574760437,2.2305819988250732,9.006192207336426,5.127874374389648,-0.05238928645849228,-0.09288960695266724,0.18812724947929382,20.641803741455078,-29.17809295654297,2.5281600952148438,0.3452153205871582,0.18767738342285156,0.4063687324523926,1.885366678237915,8.818514823913574,4.721505641937256
1_20251106_212525,1762435492253,1,0.35582709312438965,0.3071909546852112,0.4128395617008209,0.7801181077957153,0.8923751711845398,3.0680510997772217,2.25195574760437,2.2305819988250732,9.006192207336426,5.127874374389648,-0.04444804787635803,-0.08311577886343002,0.09222148358821869,20.61561393737793,-29.216949462890625,2.485837936401367,0.3452153205871582,0.18767738342285156,0.4063687324523926,1.885366678237915,8.818514823913574,4.721505641937256
1_20251106_212525,1762435492272,1,0.35543930530548096,0.30818286538124084,0.4115561246871948,0.7805817127227783,0.8917189240455627,3.069788932800293,2.2630321979522705,2.2617053985595703,8.821846961975098,5.311022758483887,-0.04444804787635803,-0.08311577886343002,0.09222148358821869,20.55527687072754,-29.220108032226562,2.4022884368896484,0.23300433158874512,-0.030043601989746094,0.3748011589050293,2.028701066970825,8.851890563964844,4.936221599578857
1_20251106_212525,1762435492290,1,0.35539010167121887,0.30875730514526367,0.4108823239803314,0.7807320356369019,0.8921217918395996,3.069887399673462,2.268749713897705,2.1479856967926025,8.61355972290039,4.937542915344238,0.022136209532618523,-0.04463130235671997,0.010365611873567104,20.47793197631836,-29.300216674804688,2.3977622985839844,0.0954277515411377,-0.19066429138183594,0.0010571479797363281,2.052557945251465,8.804224014282227,4.936485767364502
1_20251106_212525,1762435492311,1,0.3554122745990753,0.308965802192688,0.4108477830886841,0.7806576490402222,0.8925235867500305,3.0688581466674805,2.2737414836883545,2.046236515045166,8.466323852539062,4.634690284729004,0.08139009028673172,-0.012255473993718624,-0.04277961701154709,20.37076759338379,-29.26915740966797,2.3400745391845703,-0.005057096481323242,-0.27031993865966797,-0.24143648147583008,2.0512936115264893,8.73664379119873,4.876126766204834
1_20251106_212525,1762435492330,1,0.35577988624572754,0.30923280119895935,0.4111613631248474,0.7802192568778992,0.892684280872345,3.067110300064087,2.2773005962371826,1.983989953994751,8.422033309936523,4.609551906585693,0.006253726780414581,-0.03546833246946335,-0.10325522720813751,20.393421173095703,-29.304702758789062,2.2861976623535156,-0.053843021392822266,-0.25168800354003906,-0.21326017379760742,2.0378329753875732,8.673721313476562,4.822812080383301
1_20251106_212525,1762435492349,1,0.35676655173301697,0.3094620108604431,0.4111410975456238,0.77968829870224,0.8927023410797119,3.064943313598633,2.280592679977417,1.9887781143188477,8.489067077636719,4.790306091308594,-0.0872085690498352,-0.0250836331397295,-0.13624192774295807,20.46483039855957,-29.325454711914062,2.329160690307617,-0.03924393653869629,-0.14772319793701172,-0.026004791259765625,2.028022050857544,8.63679027557373,4.816310882568359
1_20251106_212525,1762435492369,1,0.3582586348056793,0.3091295063495636,0.4106021523475647,0.779420018196106,0.8922240734100342,3.062985897064209,2.284140110015869,1.8271764516830444,8.633910179138184,5.053657531738281,-0.13607776165008545,-0.026305362582206726,-0.20893482863903046,20.439542770385742,-29.351486206054688,2.26007080078125,-0.1606764793395996,-0.0023040771484375,0.18987751007080078,1.987852931022644,8.636214256286621,4.8637800216674805
1_20251106_212525,1762435492386,1,0.3603004217147827,0.3081940710544586,0.4098421037197113,0.7792493104934692,0.8907196521759033,3.0615451335906982,2.2887234687805176,1.5614314079284668,8.806285858154297,5.356511116027832,-0.13729947805404663,0.010346520692110062,-0.284682035446167,20.501361846923828,-29.346298217773438,2.1408767700195312,-0.341137170791626,0.13605785369873047,0.39418506622314453,1.9025685787200928,8.670228004455566,4.9623260498046875
1_20251106_212525,1762435492406,1,0.3627685606479645,0.3063015639781952,0.4094371497631073,0.7790632247924805,0.8870062232017517,3.060889720916748,2.294783353805542,1.2920953035354614,8.951128005981445,5.254761695861816,-0.13729947805404663,0.010346520692110062,-0.284682035446167,20.614152908325195,-29.28851318359375,2.1057987213134766,-0.488378643989563,0.22472000122070312,0.2339487075805664,1.7804739475250244,8.726408004760742,5.02081298828125
1_20251106_212525,1762435492425,1,0.3652113378047943,0.3032994866371155,0.4098334312438965,0.7788881063461304,0.881824254989624,3.0611729621887207,2.3001773357391357,1.055079460144043,9.034921646118164,5.088372230529785,-0.09087376296520233,0.08792634308338165,-0.3311077654361725,20.711332321166992,-29.294174194335938,2.0553932189941406,-0.5803155899047852,0.2468109130859375,0.0540471076965332,1.6353950500488281,8.788110733032227,5.034325122833252
1_20251106_212525,1762435492443,1,0.36735495924949646,0.30014654994010925,0.41095200181007385,0.7785119414329529,0.8753247261047363,3.061932325363159,2.3049733638763428,0.889886736869812,8.993024826049805,5.010563850402832,-0.021235186606645584,0.1312977373600006,-0.2071022391319275,20.850399017333984,-29.209014892578125,1.9542407989501953,-0.5964066982269287,0.16393184661865234,-0.019009113311767578,1.4862934350967407,8.829092979431152,5.0295729637146
1_20251106_212525,1762435492462,1,0.3687799870967865,0.2974211871623993,0.4123399555683136,0.778150200843811,0.8673646450042725,3.062897205352783,2.30971097946167,0.9605126976966858,8.903246879577637,5.00338077545166,-0.021235186606645584,0.1312977373600006,-0.2071022391319275,21.045881271362305,-29.18402099609375,1.9893836975097656,-0.42062467336654663,0.05932331085205078,-0.020953655242919922,1.3811373710632324,8.843923568725586,5.02433443069458
1_20251106_212525,1762435492482,1,0.36927518248558044,0.2955271005630493,0.4136761426925659,0.7779277563095093,0.8589409589767456,3.0639259815216064,2.3140573501586914,1.228651762008667,8.864940643310547,4.895647048950195,0.08139009028673172,0.070211261510849,0.05007181689143181,21.14881134033203,-29.077476501464844,2.022451400756836,-0.12198853492736816,0.016813278198242188,-0.1029500961303711,1.3506402969360352,8.848127365112305,4.998597145080566
1_20251106_212525,1762435492501,1,0.36870482563972473,0.294603168964386,0.4148821234703064,0.7779065370559692,0.8519629240036011,3.0649073123931885,2.3167877197265625,1.5781900882720947,8.867334365844727,4.564064025878906,0.10399208962917328,0.04699840769171715,0.15269708633422852,21.201982498168945,-28.998687744140625,1.9989643096923828,0.18203973770141602,0.0153656005859375,-0.3476266860961914,1.3961503505706787,8.851968765258789,4.911690711975098
1_20251106_212525,1762435492520,1,0.3673381507396698,0.29481250047683716,0.4156912565231323,0.7780418395996094,0.8466115593910217,3.066338062286377,2.318253755569458,1.8618907928466797,9.033724784851074,4.5006208419799805,0.10399208962917328,0.04699840769171715,0.15269708633422852,21.252941131591797,-28.95770263671875,1.9882011413574219,0.37259232997894287,0.14540481567382812,-0.3288559913635254,1.4892984628677368,8.888319969177246,4.829476833343506
1_20251106_212525,1762435492539,1,0.36583849787712097,0.29690325260162354,0.4157344102859497,0.7779303193092346,0.8466115593910217,3.066338062286377,2.318253755569458,1.8618907928466797,9.033724784851074,4.5006208419799805,0.09666170924901962,-0.155808687210083,0.23455294966697693,21.316097259521484,-28.904312133789062,2.0728073120117188,0.37259232997894287,0.14540481567382812,-0.3288559913635254,1.4892984628677368,8.888319969177246,4.829476833343506
1_20251106_212525,1762435492559,1,0.36467456817626953,0.30013540387153625,0.41541168093681335,0.7774087190628052,0.8425102233886719,3.0689175128936768,2.3201873302459717,1.9420932531356812,9.209692001342773,4.94711971282959,0.09666170924901962,-0.155808687210083,0.23455294966697693,21.26525115966797,-28.933547973632812,2.1649322509765625,0.3622359037399292,0.2570972442626953,0.09411430358886719,1.579857349395752,8.952594757080078,4.853005409240723
1_20251106_212525,1762435492578,1,0.36360034346580505,0.3026321232318878,0.4155500531196594,0.7768698334693909,0.8397194147109985,3.071669340133667,2.3227415084838867,1.8475263118743896,9.147443771362305,5.178150177001953,0.2622060775756836,-0.01897498592734337,0.07694987207651138,21.26525115966797,-28.933547973632812,2.1649322509765625,0.21413516998291016,0.15587902069091797,0.2601156234741211,1.6333911418914795,8.991564750671387,4.918034553527832
1_20251106_212525,1762435492596,1,0.3623199164867401,0.3038434684276581,0.41692933440208435,0.7762559652328491,0.8342358469963074,3.0735764503479004,2.3261828422546387,1.3459625244140625,8.272401809692383,4.439570903778076,0.2622060775756836,-0.01897498592734337,0.07694987207651138,21.215618133544922,-28.937942504882812,2.284616470336914,-0.2295379638671875,-0.5257663726806641,-0.37880563735961914,1.57550048828125,8.798168182373047,4.818376541137695
1_20251106_212525,1762435492616,1,0.36069998145103455,0.30433711409568787,0.41869792342185974,0.7758649587631226,0.830520510673523,3.071587324142456,2.325446605682373,1.4022239446640015,8.106011390686035,4.200160980224609,0.1546938419342041,0.08181770145893097,0.22844432294368744,21.15430450439453,-28.93083953857422,2.4311065673828125,-0.13862121105194092,-0.5537252426147461,-0.49457263946533203,1.5408451557159424,8.659736633300781,4.694733619689941
1_20251106_212525,1762435492635,1,0.35838791728019714,0.3047322928905487,0.4196634292602539,0.7762596011161804,0.8282387256622314,3.068634271621704,2.3231492042541504,1.9313197135925293,8.237687110900879,4.099609375,0.05512291193008423,-3.8180151022970676e-05,0.41903412342071533,21.055814743041992,-28.950157165527344,2.46746826171875,0.3123795986175537,-0.33763980865478516,-0.47609949111938477,1.6189401149749756,8.575326919555664,4.575708866119385
1_20251106_212525,1762435492654,1,0.35530632734298706,0.30665042996406555,0.41882866621017456,0.7773708701133728,0.828231930732727,3.066042184829712,2.3207345008850098,2.406548500061035,8.65306282043457,4.491044044494629,0.0129732396453619,-0.20101267099380493,0.48500749468803406,20.917762756347656,-29.0107421875,2.6232128143310547,0.6300867795944214,0.06218910217285156,-0.06773185729980469,1.7764617204666138,8.590873718261719,4.558775901794434
1_20251106_212525,1762435492673,1,0.35248807072639465,0.3102070987224579,0.41682279109954834,0.7783203125,0.828231930732727,3.066042184829712,2.3207345008850098,2.406548500061035,8.65306282043457,4.491044044494629,0.0129732396453619,-0.20101267099380493,0.48500749468803406,20.752704620361328,-29.134490966796875,2.655010223388672,0.6300867795944214,0.06218910217285156,-0.06773185729980469,1.7764617204666138,8.590873718261719,4.558775901794434
1_20251106_212525,1762435492692,1,0.35085558891296387,0.31368768215179443,0.414608895778656,0.7788451910018921,0.8341651558876038,3.0650479793548584,2.3230650424957275,2.5238595008850098,9.166597366333008,5.714428901672363,-0.04994582384824753,-0.08678096532821655,0.12887336313724518,20.627531051635742,-29.193336486816406,2.7166309356689453,0.4702904224395752,0.38608360290527344,0.8012905120849609,2.0535690784454346,8.780513763427734,4.913138389587402
1_20251106_212525,1762435492711,1,0.3504122793674469,0.3147309422492981,0.4134100079536438,0.77926105260849,0.8383989334106445,3.065603733062744,2.3270103931427,2.311981678009033,8.916414260864258,5.4726243019104,-0.029787292703986168,0.1367955207824707,-0.0989791750907898,20.43890380859375,-29.30597686767578,2.7341957092285156,0.20673012733459473,0.10872077941894531,0.4475889205932617,2.1052515506744385,8.807693481445312,5.025035381317139
1_20251106_212525,1762435492730,1,0.3507400453090668,0.31323179602622986,0.4137525260448456,0.7795358300209045,0.8383989334106445,3.065603733062744,2.3270103931427,2.311981678009033,8.916414260864258,5.4726243019104,-0.029787292703986168,0.1367955207824707,-0.0989791750907898,20.316238403320312,-29.326614379882812,2.742544174194336,0.20673012733459473,0.10872077941894531,0.4475889205932617,2.1052515506744385,8.807693481445312,5.025035381317139
1_20251106_212525,1762435492751,1,0.35148340463638306,0.31096184253692627,0.41483062505722046,0.7795368432998657,0.8449568748474121,3.0646228790283203,2.3327064514160156,1.7302154302597046,8.436397552490234,4.7508039474487305,-0.0029092440381646156,0.19727112352848053,-0.19916099309921265,20.214929580688477,-29.396156311035156,2.7778491973876953,-0.28330838680267334,-0.26482582092285156,-0.1866168975830078,2.013523817062378,8.701223373413086,4.937420845031738
1_20251106_212525,1762435492770,1,0.35250410437583923,0.30956101417541504,0.41540586948394775,0.7793271541595459,0.8465571403503418,3.062981367111206,2.335031747817993,1.6966979503631592,8.428018569946289,4.966272354125977,-0.05483274161815643,0.05493964999914169,-0.06965766102075577,20.127613067626953,-29.439254760742188,2.7601070404052734,-0.25346076488494873,-0.21856403350830078,0.023081302642822266,1.950158715248108,8.64658260345459,4.943191051483154
1_20251106_212525,1762435492788,1,0.3530048131942749,0.30865561962127686,0.4153594970703125,0.7794843316078186,0.8479272127151489,3.0608158111572266,2.3366506099700928,1.8954081535339355,8.425623893737793,4.728059768676758,-0.05483274161815643,0.05493964999914169,-0.06965766102075577,20.00303077697754,-29.497291564941406,2.740631103515625,-0.0438004732131958,-0.17676734924316406,-0.1721048355102539,1.9392086267471313,8.602391242980957,4.900164604187012
1_20251106_212525,1762435492806,1,0.35274291038513184,0.3080722689628601,0.41543442010879517,0.7797936797142029,0.8479272127151489,3.0608158111572266,2.3366506099700928,1.8954081535339355,8.425623893737793,4.728059768676758,0.04962512105703354,0.0445549450814724,0.03663279488682747,19.988618850708008,-29.547508239746094,2.657987594604492,-0.0438004732131958,-0.17676734924316406,-0.1721048355102539,1.9392086267471313,8.602391242980957,4.900164604187012
1_20251106_212525,1762435492825,1,0.3522527515888214,0.3080976903438568,0.4157666563987732,0.7798281311988831,0.8513985276222229,3.0565621852874756,2.3349428176879883,2.079753875732422,8.584831237792969,4.225298881530762,0.04962512105703354,0.0445549450814724,0.03663279488682747,20.001707077026367,-29.533889770507812,2.6317100524902344,0.09071505069732666,-0.004534721374511719,-0.44014978408813477,1.9890388250350952,8.58936595916748,4.6654486656188965
1_20251106_212525,1762435492845,1,0.3521150052547455,0.30824047327041626,0.41584932804107666,0.7797898054122925,0.8534924387931824,3.0544750690460205,2.332503318786621,2.0570099353790283,8.603984832763672,4.389294624328613,-0.06277398765087128,0.051885321736335754,0.006089558359235525,20.037363052368164,-29.544334411621094,2.6599502563476562,0.054376840591430664,0.011694908142089844,-0.22092342376708984,2.0026330947875977,8.592289924621582,4.610218048095703
1_20251106_212525,1762435492864,1,0.35216468572616577,0.3078351318836212,0.41551050543785095,0.7801080346107483,0.8556791543960571,3.0525546073913574,2.3298959732055664,2.11087703704834,8.578845977783203,4.462314605712891,-0.08904116600751877,0.11297179758548737,0.02930241823196411,20.0737361907959,-29.530609130859375,2.7833328247070312,0.08659529685974121,-0.010755538940429688,-0.11832284927368164,2.0242817401885986,8.589601516723633,4.580637454986572
1_20251106_212525,1762435492884,1,0.35185131430625916,0.30694061517715454,0.41510897874832153,0.7808153629302979,0.8586640954017639,3.050638198852539,2.3269267082214355,2.3550753593444824,8.55610179901123,4.4012651443481445,-0.0615522563457489,0.08365029096603394,0.10810397565364838,20.105472564697266,-29.60437774658203,2.86431884765625,0.2646348476409912,-0.02679920196533203,-0.14349794387817383,2.090440511703491,8.582901000976562,4.544763088226318
1_20251106_212525,1762435492902,1,0.35087060928344727,0.30660998821258545,0.41461116075515747,0.7816506028175354,0.8586640954017639,3.050638198852539,2.3269267082214355,2.3550753593444824,8.55610179901123,4.4012651443481445,-0.046280637383461,-0.013477202504873276,0.18262946605682373,20.125812530517578,-29.67786407470703,2.8366832733154297,0.2646348476409912,-0.02679920196533203,-0.14349794387817383,2.090440511703491,8.582901000976562,4.544763088226318
1_20251106_212525,1762435492922,1,0.3497156798839569,0.30743345618247986,0.41364040970802307,0.7823587656021118,0.869369387626648,3.047516345977783,2.320985794067383,2.8853683471679688,8.717703819274902,4.627508163452148,-0.06766090542078018,-0.059902921319007874,0.18873810768127441,20.088043212890625,-29.705093383789062,2.8076515197753906,0.5489747524261475,0.10312843322753906,0.08206892013549805,2.3363935947418213,8.614575386047363,4.54543924331665
1_20251106_212525,1762435492941,1,0.34880784153938293,0.30863454937934875,0.41228193044662476,0.7830079197883606,0.8770440220832825,3.04695987701416,2.319308042526245,3.0326051712036133,8.860153198242188,4.858537673950195,-0.10981056839227676,-0.04096611216664314,0.11299088597297668,20.038394927978516,-29.721099853515625,2.83245849609375,0.556969165802002,0.19646263122558594,0.25047874450683594,2.4756360054016113,8.663690567016602,4.608058929443359
1_20251106_212525,1762435492959,1,0.3485355079174042,0.3092978298664093,0.4108409583568573,0.7836245894432068,0.8852077126502991,3.0470163822174072,2.3187389373779297,2.9859201908111572,8.890079498291016,4.990213394165039,-0.12752564251422882,0.01706603355705738,-0.01406897697597742,20.012516021728516,-29.747940063476562,2.8444652557373047,0.40822744369506836,0.18111133575439453,0.3057236671447754,2.577692747116089,8.708968162536621,4.684489727020264
1_20251106_212525,1762435492980,1,0.348984956741333,0.30894917249679565,0.4098230302333832,0.7840949892997742,0.8852077126502991,3.0470163822174072,2.3187389373779297,2.9859201908111572,8.890079498291016,4.990213394165039,-0.10248018801212311,0.05616137757897377,-0.13563105463981628,19.959442138671875,-29.82659149169922,2.8544368743896484,0.40822744369506836,0.18111133575439453,0.3057236671447754,2.577692747116089,8.708968162536621,4.684489727020264
1_20251106_212525,1762435493000,1,0.3500957787036896,0.30788272619247437,0.409482479095459,0.784197211265564,0.9024686217308044,3.04783034324646,2.320744752883911,2.329936981201172,8.711719512939453,4.975849151611328,-0.05605447292327881,0.07876337319612503,-0.17167207598686218,19.88611602783203,-29.843238830566406,2.783649444580078,-0.21602225303649902,-0.01566791534423828,0.17038202285766602,2.545959234237671,8.727387428283691,4.805467128753662
1_20251106_212525,1762435493018,1,0.3512100577354431,0.30656424164772034,0.40970978140830994,0.7840967774391174,0.9080706834793091,3.0478241443634033,2.321417808532715,2.126438856124878,8.60158920288086,4.631098747253418,0.01663842611014843,0.07265472412109375,-0.1295224130153656,19.858911514282227,-29.90666961669922,2.686735153198242,-0.3356163501739502,-0.10063838958740234,-0.1394948959350586,2.462055206298828,8.702227592468262,4.770593643188477
1_20251106_212525,1762435493035,1,0.35190144181251526,0.3056739866733551,0.4103565216064453,0.7837960720062256,0.9123177528381348,3.047821044921875,2.3204691410064697,2.107285976409912,8.703338623046875,4.063697814941406,0.06611847132444382,0.01706603169441223,-0.053775183856487274,19.858911514282227,-29.90666961669922,2.686735153198242,-0.2838153839111328,0.000888824462890625,-0.565516471862793,2.391101360321045,8.702449798583984,4.629214286804199
1_20251106_212525,1762435493056,1,0.35204988718032837,0.30563345551490784,0.4110453128814697,0.7833842039108276,0.9123177528381348,3.047821044921875,2.3204691410064697,2.107285976409912,8.703338623046875,4.063697814941406,0.06611847132444382,0.01706603169441223,-0.053775183856487274,19.87441062927246,-29.85497283935547,2.6207008361816406,-0.2838153839111328,0.000888824462890625,-0.565516471862793,2.391101360321045,8.702449798583984,4.629214286804199
1_20251106_212525,1762435493074,1,0.3522719144821167,0.3064662516117096,0.41128286719322205,0.7828341722488403,0.9171801209449768,3.048884391784668,2.315369129180908,2.200655937194824,8.946340560913086,3.75485897064209,0.05512291193008423,-0.059292055666446686,-0.0024625472724437714,19.85174560546875,-29.831039428710938,2.5796985626220703,-0.15235638618469238,0.1951122283935547,-0.6994843482971191,2.3530123233795166,8.751228332519531,4.454343318939209
1_20251106_212525,1762435493093,1,0.3530162572860718,0.30707839131355286,0.4110881984233856,0.7823610901832581,0.9200121164321899,3.050426483154297,2.3111672401428223,2.2257938385009766,9.19771957397461,3.954766273498535,-0.017569996416568756,-0.07150934636592865,-0.037281837314367294,19.948331832885742,-29.837509155273438,2.610391616821289,-0.10177493095397949,0.3571929931640625,-0.3996615409851074,2.327568769454956,8.840526580810547,4.354427814483643
1_20251106_212525,1762435493112,1,0.35455742478370667,0.3064708411693573,0.41093629598617554,0.7819821238517761,0.9241726398468018,3.056976318359375,2.30411958694458,1.9444873332977295,9.23004150390625,4.961484909057617,-0.10125845670700073,0.11419352889060974,-0.2687995731830597,20.094465255737305,-29.828109741210938,2.629793167114258,-0.273709774017334,0.2341594696044922,0.46991634368896484,2.2181971073150635,8.995882034301758,4.491568565368652
1_20251106_212525,1762435493133,1,0.35644546151161194,0.3043665885925293,0.4114112854003906,0.7816958427429199,0.9243302345275879,3.060889959335327,2.3026576042175293,1.7601416110992432,9.012178421020508,4.907617568969727,-0.10125845670700073,0.11419352889060974,-0.2687995731830597,20.168781280517578,-29.81011199951172,2.565418243408203,-0.36644434928894043,0.013036727905273438,0.3328394889831543,2.1265859603881836,8.999141693115234,4.574778079986572
1_20251106_212525,1762435493153,1,0.35816118121147156,0.30160847306251526,0.41254621744155884,0.7813824415206909,0.9229476451873779,3.064124822616577,2.3014843463897705,1.6248750686645508,8.898458480834961,4.6239166259765625,0.02946658991277218,0.14107157289981842,-0.24864104390144348,20.306350708007812,-29.73858642578125,2.572132110595703,-0.4013686180114746,-0.08054637908935547,0.03931093215942383,2.0262436866760254,8.979004859924316,4.584605693817139
1_20251106_212525,1762435493171,1,0.3594735562801361,0.29973337054252625,0.41394108533859253,0.7807633876800537,0.9229476451873779,3.064124822616577,2.3014843463897705,1.6248750686645508,8.898458480834961,4.6239166259765625,0.0514577180147171,0.03355938196182251,-0.1551787257194519,20.466487884521484,-29.691131591796875,2.633363723754883,-0.4013686180114746,-0.08054637908935547,0.03931093215942383,2.0262436866760254,8.979004859924316,4.584605693817139
1_20251106_212525,1762435493189,1,0.3604200482368469,0.29909661412239075,0.41491225361824036,0.7800554037094116,0.9173600673675537,3.070026397705078,2.299774169921875,1.5338993072509766,9.101957321166992,4.799882888793945,0.03374263644218445,-0.03913351893424988,-0.09959003329277039,20.632251739501953,-29.554832458496094,2.6018295288085938,-0.3191225528717041,0.09018135070800781,0.17761516571044922,1.8530218601226807,9.011775970458984,4.622267723083496
1_20251106_212525,1762435493209,1,0.36132365465164185,0.2991779148578644,0.41535791754722595,0.7793686985969543,0.9129719734191895,3.073103666305542,2.300485610961914,1.5243228673934937,8.979856491088867,5.0488691329956055,0.04290561378002167,-0.025694498792290688,-0.10447695106267929,20.803363800048828,-29.53142547607422,2.6359920501708984,-0.2629591226577759,-0.02553558349609375,0.3412809371948242,1.7872819900512695,9.005392074584961,4.707588195800781
1_20251106_212525,1762435493227,1,0.36223945021629333,0.2991659939289093,0.4158836901187897,0.7786675095558167,0.9083928465843201,3.074946641921997,2.3021583557128906,1.4513030052185059,8.685382843017578,5.13984489440918,0.06856193393468857,0.06532435119152069,-0.13807451725006104,20.965009689331055,-29.458717346191406,2.684236526489258,-0.26878321170806885,-0.25600719451904297,0.34580516815185547,1.7200862169265747,8.941390037536621,4.794039726257324
1_20251106_212525,1762435493246,1,0.36291512846946716,0.29836979508399963,0.41697993874549866,0.7780718207359314,0.903050422668457,3.0754683017730713,2.304347515106201,1.44651460647583,8.4579439163208,4.980637550354004,0.06306415051221848,0.16611702740192413,-0.128911554813385,21.05191993713379,-29.427772521972656,2.661165237426758,-0.2188572883605957,-0.38675689697265625,0.1492781639099121,1.6653718948364258,8.844700813293457,4.831359386444092
1_20251106_212525,1762435493266,1,0.3630954623222351,0.2967895567417145,0.418334424495697,0.7778649926185608,0.8969553112983704,3.0748579502105713,2.3065502643585205,1.41778564453125,8.472309112548828,4.835794448852539,0.03313177824020386,0.18199950456619263,-0.09653571248054504,21.127756118774414,-29.372909545898438,2.678680419921875,-0.19806909561157227,-0.2979135513305664,0.003548145294189453,1.6158547401428223,8.770222663879395,4.83224630355835
1_20251106_212525,1762435493285,1,0.3630920350551605,0.29515737295150757,0.41940784454345703,0.7779096364974976,0.8906811475753784,3.0741138458251953,2.308600425720215,1.3339920043945312,8.699748992919922,4.854947090148926,0.03313177824020386,0.18199950456619263,-0.09653571248054504,21.255268096923828,-29.252899169921875,2.7805747985839844,-0.22549021244049072,-0.05637931823730469,0.01816082000732422,1.559482216835022,8.756128311157227,4.836786270141602
1_20251106_212525,1762435493304,1,0.3630276918411255,0.29354792833328247,0.4200953543186188,0.7781776189804077,0.884352445602417,3.0739006996154785,2.310561180114746,1.282518982887268,8.94155216217041,4.883676052093506,-0.024289509281516075,0.1936059445142746,-0.0574403740465641,21.342586517333984,-29.209800720214844,2.7983150482177734,-0.22157061100006104,0.14833927154541016,0.03751182556152344,1.504089593887329,8.793212890625,4.846164226531982
1_20251106_212525,1762435493323,1,0.36285755038261414,0.29180338978767395,0.42071765661239624,0.7785767912864685,0.8772668838500977,3.0741660594940186,2.312331438064575,1.2346370220184326,8.967886924743652,4.774744987487793,0.020914480090141296,0.23819905519485474,-0.05988383665680885,21.431427001953125,-29.129844665527344,2.8979454040527344,-0.215562105178833,0.1397390365600586,-0.057135581970214844,1.4501991271972656,8.828147888183594,4.831880569458008
1_20251106_212525,1762435493342,1,0.3624010980129242,0.28987327218055725,0.42185840010643005,0.7788930535316467,0.8772668838500977,3.0741660594940186,2.312331438064575,1.2346370220184326,8.967886924743652,4.774744987487793,0.05878809094429016,0.27424007654190063,-0.0574403740465641,21.45077896118164,-29.204681396484375,3.005472183227539,-0.215562105178833,0.1397390365600586,-0.057135581970214844,1.4501991271972656,8.828147888183594,4.831880569458008
1_20251106_212525,1762435493361,1,0.36165252327919006,0.2878144383430481,0.4234226644039154,0.7791556715965271,0.8620134592056274,3.0753226280212402,2.313866376876831,1.2645632028579712,8.965493202209473,4.489847183227539,0.027023127302527428,0.30905935168266296,-0.050109993666410446,21.42833709716797,-29.157257080078125,3.1271934509277344,-0.11133754253387451,0.10092449188232422,-0.24514055252075195,1.3759007453918457,8.864568710327148,4.734987735748291
1_20251106_212525,1762435493380,1,0.3607538938522339,0.2854115962982178,0.42486682534217834,0.7796698212623596,0.8549951314926147,3.0762522220611572,2.3134610652923584,1.3890563249588013,8.951128005981445,4.487452507019043,-0.056665338575839996,0.31394627690315247,-0.05499691516160965,21.477798461914062,-29.129913330078125,3.2242965698242188,0.010524392127990723,0.06924724578857422,-0.1980280876159668,1.3785319328308105,8.881880760192871,4.68548059463501
1_20251106_212525,1762435493400,1,0.3601031005382538,0.2827123701572418,0.42573243379592896,0.7804815173149109,0.8486849665641785,3.0771021842956543,2.313035249710083,1.5087612867355347,8.869729995727539,4.670601844787598,-0.12752565741539001,0.25774672627449036,-0.07943150401115417,21.50400161743164,-29.079444885253906,3.3614959716796875,0.10418355464935303,-0.009720802307128906,-0.011902809143066406,1.4045777320861816,8.879450798034668,4.682504653930664
1_20251106_212525,1762435493419,1,0.36010774970054626,0.2801606059074402,0.4258987307548523,0.7813083529472351,0.8486849665641785,3.0771021842956543,2.313035249710083,1.5087612867355347,8.869729995727539,4.670601844787598,-0.16662099957466125,0.1936059445142746,-0.11241820454597473,21.50400161743164,-29.079444885253906,3.3614959716796875,0.10418355464935303,-0.009720802307128906,-0.011902809143066406,1.4045777320861816,8.879450798034668,4.682504653930664
1_20251106_212525,1762435493438,1,0.3606890141963959,0.27781614661216736,0.4255997836589813,0.7820399403572083,0.8418848514556885,3.0782787799835205,2.3136942386627197,1.4429235458374023,8.94514274597168,4.989016532897949,-0.159290611743927,0.20582324266433716,-0.128911554813385,21.529796600341797,-29.04113006591797,3.4578819274902344,0.030676603317260742,0.05255317687988281,0.2452092170715332,1.4122469425201416,8.892589569091797,4.743807315826416
1_20251106_212525,1762435493456,1,0.3613159954547882,0.2752932608127594,0.4254137873649597,0.7827435731887817,0.8311912417411804,3.0803840160369873,2.317553997039795,1.2466074228286743,8.922399520874023,5.169771194458008,-0.08354339003562927,0.2559141218662262,-0.13563105463981628,21.565860748291016,-29.03942108154297,3.5269336700439453,-0.12094855308532715,0.012948989868164062,0.2684030532836914,1.3675559759140015,8.90945053100586,4.901368141174316
1_20251106_212525,1762435493477,1,0.3616027534008026,0.27259963750839233,0.425960898399353,0.7832561731338501,0.8248963356018066,3.0810580253601074,2.3196921348571777,1.094582200050354,8.763191223144531,4.8262176513671875,0.05023598670959473,0.26874229311943054,-0.13379846513271332,21.642711639404297,-28.959983825683594,3.599040985107422,-0.21837902069091797,-0.11700725555419922,-0.060120582580566406,1.312961220741272,8.88019847869873,4.886338233947754
1_20251106_212525,1762435493495,1,0.36147207021713257,0.2702693045139313,0.4273892641067505,0.7833459377288818,0.8172788619995117,3.080608606338501,2.3207123279571533,0.8779162764549255,8.510614395141602,4.518576145172119,0.15163952112197876,0.21987313032150269,-0.12035945057868958,21.655010223388672,-28.94744110107422,3.6808929443359375,-0.348035991191864,-0.2956676483154297,-0.29420995712280273,1.2259522676467896,8.806282043457031,4.812786102294922
1_20251106_212525,1762435493513,1,0.3611556589603424,0.26873570680618286,0.4296764135360718,0.7827681303024292,0.8095434308052063,3.078942060470581,2.3209307193756104,0.7294821739196777,8.285569190979004,4.547305107116699,0.13697877526283264,0.18261036276817322,-0.056829508394002914,21.756839752197266,-28.85399627685547,3.76776123046875,-0.39717602729797363,-0.41657066345214844,-0.21238470077514648,1.1266582012176514,8.702139854431152,4.759689807891846
1_20251106_212525,1762435493533,1,0.36069455742836,0.2676205635070801,0.4317869246006012,0.7822011709213257,0.8095434308052063,3.078942060470581,2.3209307193756104,0.7294821739196777,8.285569190979004,4.547305107116699,0.09849430620670319,0.16917136311531067,0.04213057830929756,21.821504592895508,-28.775352478027344,3.8393783569335938,-0.39717602729797363,-0.41657066345214844,-0.21238470077514648,1.1266582012176514,8.702139854431152,4.759689807891846
1_20251106_212525,1762435493551,1,0.35951679944992065,0.2664856016635895,0.43328219652175903,0.782304048538208,0.7925153374671936,3.071688652038574,2.321693181991577,1.0622618198394775,8.259233474731445,4.807065010070801,0.14064395427703857,0.12518909573554993,0.11787780374288559,21.886478424072266,-28.6846923828125,3.9653244018554688,-0.0044403076171875,-0.26871299743652344,0.03127765655517578,1.066702127456665,8.527946472167969,4.775787353515625
1_20251106_212525,1762435493571,1,0.3577911853790283,0.26602140069007874,0.43432241678237915,0.7826762795448303,0.7849095463752747,3.067500352859497,2.321563720703125,1.158025860786438,8.378938674926758,4.582019805908203,0.18768054246902466,0.03294851630926132,0.13376028835773468,21.97199249267578,-28.667251586914062,4.036602020263672,0.07305896282196045,-0.11920642852783203,-0.1550140380859375,1.0849668979644775,8.49814510345459,4.737033843994141
1_20251106_212525,1762435493591,1,0.35619160532951355,0.2668241560459137,0.4351864457130432,0.7826526165008545,0.777072012424469,3.0631041526794434,2.3208601474761963,1.1292966604232788,8.49864387512207,4.567655086517334,0.1333135962486267,-0.03241400420665741,0.10810396820306778,22.05851936340332,-28.62523651123047,4.162473678588867,0.035463809967041016,0.0003986358642578125,-0.13550281524658203,1.0938328504562378,8.498245239257812,4.703157901763916
1_20251106_212525,1762435493610,1,0.3553164601325989,0.2682183086872101,0.4356478452682495,0.7823171615600586,0.7703244090080261,3.059638738632202,2.320678472518921,1.0897940397262573,8.612363815307617,4.857341289520264,0.1333135962486267,-0.03241400420665741,0.10810396820306778,22.03215789794922,-28.641136169433594,4.336940765380859,-0.003231048583984375,0.09129524230957031,0.12334680557250977,1.0930250883102417,8.521068572998047,4.733994483947754
1_20251106_212525,1762435493629,1,0.35501357913017273,0.26864898204803467,0.4356144070625305,0.7823255062103271,0.7636359930038452,3.0567777156829834,2.3214945793151855,0.9916359186172485,8.678201675415039,5.094356536865234,-0.051167555153369904,0.13984984159469604,-0.02262108400464058,22.005090713500977,-28.669593811035156,4.511142730712891,-0.08111131191253662,0.12570667266845703,0.28828954696655273,1.0727472305297852,8.552495002746582,4.806066989898682
