session_id,timestamp,label,quaternion_w,quaternion_x,quaternion_y,quaternion_z,position_x,position_y,position_z,accelerometer_x,accelerometer_y,accelerometer_z,gyroscope_x,gyroscope_y,gyroscope_z,magnetometer_x,magnetometer_y,magnetometer_z,linear_acceleration_x,linear_acceleration_y,linear_acceleration_z,gravity_x,gravity_y,gravity_z
9_20251106_211008,1762434571569,9,0.3392146825790405,0.33311107754707336,0.5994102358818054,0.6439548134803772,0.7040444016456604,2.3093161582946777,1.8299500942230225,-1.0349687337875366,9.311440467834473,1.2554197311401367,-0.33463552594184875,-0.25815141201019287,0.08272252976894379,28.09015655517578,-28.15298080444336,18.885028839111328,-0.9971206784248352,1.4984102249145508,-0.40635061264038086,-0.037848055362701416,7.813030242919922,1.6617703437805176
9_20251106_211008,1762434571589,9,0.3412797152996063,0.33369147777557373,0.5962755680084229,0.6454716324806213,0.6773126125335693,2.3369903564453125,1.7932039499282837,-0.9200519323348999,9.336578369140625,1.542711615562439,-0.39755457639694214,-0.2703687250614166,0.2623167932033539,28.24616241455078,-28.486446380615234,18.181659698486328,-0.7057631015777588,1.2188386917114258,-0.09524691104888916,-0.21428881585597992,8.1177396774292,1.6379585266113281
9_20251106_211008,1762434571607,9,0.34264010190963745,0.335228830575943,0.5921599268913269,0.6477391719818115,0.6544817686080933,2.3639447689056396,1.761940598487854,-0.2042163908481598,9.455086708068848,1.700722098350525,-0.40244150161743164,-0.2776991128921509,0.4364132285118103,28.33712387084961,-28.88747787475586,17.555614471435547,0.008057937026023865,1.0698776245117188,0.05021083354949951,-0.21227432787418365,8.385209083557129,1.6505112648010254
9_20251106_211008,1762434571626,9,0.3429332971572876,0.3377155065536499,0.5874006748199463,0.6506192684173584,0.6338658928871155,2.3949406147003174,1.7313520908355713,0.6181565523147583,9.83095932006836,1.92816162109375,-0.344409316778183,-0.33023345470428467,0.48955848813056946,28.409053802490234,-29.190044403076172,16.971248626708984,0.6643447279930115,1.156599998474121,0.2221202850341797,-0.04618815332651138,8.674359321594238,1.7060413360595703
9_20251106_211008,1762434571646,9,0.34292104840278625,0.3411157727241516,0.5825549960136414,0.653203547000885,0.6175222396850586,2.42895245552063,1.7031586170196533,1.1352819204330444,10.338508605957031,2.021531343460083,-0.29859450459480286,-0.31007492542266846,0.3551682233810425,28.42953109741211,-29.53427505493164,16.465229034423828,0.9451760649681091,1.331319808959961,0.252392053604126,0.1901058405637741,9.00718879699707,1.769139289855957
9_20251106_211008,1762434571664,9,0.34342992305755615,0.34393563866615295,0.5783599019050598,0.6551823616027832,0.6045134663581848,2.4653663635253906,1.6765910387039185,1.1077498197555542,10.502504348754883,1.847959280014038,-0.29859450459480286,-0.31007492542266846,0.3551682233810425,28.427669525146484,-29.830944061279297,16.067413330078125,0.7341151833534241,1.1962528228759766,0.06305599212646484,0.3736346364021301,9.306251525878906,1.7849032878875732
9_20251106_211008,1762434571684,9,0.3446512818336487,0.34448906779289246,0.5753660202026367,0.6568840742111206,0.6045134663581848,2.4653663635253906,1.6765910387039185,1.1077498197555542,10.502504348754883,1.847959280014038,-0.3065357506275177,-0.1536935716867447,0.10471366345882416,28.35430908203125,-30.095378875732422,15.735027313232422,0.7341151833534241,1.1962528228759766,0.06305599212646484,0.3736346364021301,9.306251525878906,1.7849032878875732
9_20251106_211008,1762434571703,9,0.34636372327804565,0.3429781496524811,0.5735946893692017,0.6583215594291687,0.5824376940727234,2.541536569595337,1.6224567890167236,0.4769047498703003,9.900388717651367,1.1476852893829346,-0.3059248626232147,-0.013805541209876537,-0.10725639760494232,28.243671417236328,-30.386363983154297,15.306026458740234,0.014954924583435059,0.3296842575073242,-0.4543607234954834,0.46194982528686523,9.570704460144043,1.602046012878418
9_20251106_211008,1762434571722,9,0.3482706844806671,0.3405589759349823,0.5721018314361572,0.6598686575889587,0.572295606136322,2.577005386352539,1.5956875085830688,0.37276142835617065,9.817792892456055,0.992068886756897,-0.4091610014438629,0.0625525489449501,-0.10114774852991104,28.184120178222656,-30.61301040649414,15.042503356933594,-0.07135069370269775,0.19767093658447266,-0.4879816770553589,0.4441121220588684,9.620121955871582,1.4800505638122559
9_20251106_211008,1762434571740,9,0.349933385848999,0.33828750252723694,0.5700446963310242,0.6619344353675842,0.5633310079574585,2.6096115112304688,1.5707354545593262,0.5104221105575562,9.897994995117188,1.1309266090393066,-0.4354281723499298,-0.025411972776055336,0.017970874905586243,28.136947631835938,-30.83858871459961,14.752437591552734,0.053048014640808105,0.22229862213134766,-0.27929913997650146,0.45737409591674805,9.67569637298584,1.410225749015808
9_20251106_211008,1762434571760,9,0.3514229357242584,0.3371528685092926,0.5671668648719788,0.6641924381256104,0.554877519607544,2.645439863204956,1.5443923473358154,0.7893345952033997,10.139798164367676,1.408642053604126,-0.4097718894481659,-0.14086540043354034,0.09371809661388397,28.193302154541016,-30.95681381225586,14.414344787597656,0.2655683755874634,0.37128162384033203,-0.0012669563293457031,0.5237662196159363,9.768516540527344,1.4099090099334717
9_20251106_211008,1762434571780,9,0.3529696464538574,0.33726584911346436,0.5637848377227783,0.6661912798881531,0.5483644008636475,2.678957939147949,1.5215961933135986,0.9305864572525024,10.199650764465332,1.7665598392486572,-0.3725091218948364,-0.19095630943775177,0.07111610472202301,28.207271575927734,-31.16653823852539,14.194576263427734,0.3254562020301819,0.3449077606201172,0.2853207588195801,0.6051302552223206,9.854743003845215,1.4812390804290771
9_20251106_211008,1762434571799,9,0.35486823320388794,0.33779072761535645,0.5604389309883118,0.6677380800247192,0.5425568222999573,2.7136409282684326,1.500144124031067,0.8372166156768799,10.237957000732422,1.9233732223510742,-0.363957017660141,-0.12009599804878235,-0.0064637125469744205,28.260421752929688,-31.323925018310547,14.00436782836914,0.18566906452178955,0.30657196044921875,0.35370731353759766,0.6515475511550903,9.931385040283203,1.5696659088134766
9_20251106_211008,1762434571819,9,0.3567131757736206,0.3373490273952484,0.5576428174972534,0.6693174839019775,0.5372830033302307,2.7457375526428223,1.4816128015518188,0.6397034525871277,10.221198081970215,1.8719000816345215,-0.38106122612953186,0.030176715925335884,-0.058998074382543564,28.297138214111328,-31.35611343383789,13.694171905517578,-0.009475290775299072,0.23185062408447266,0.24178731441497803,0.6491787433624268,9.989347457885742,1.6301127672195435
9_20251106_211008,1762434571836,9,0.3581695258617401,0.3355880379676819,0.5554038882255554,0.6712836623191833,0.532701849937439,2.7753663063049316,1.4645012617111206,0.7163146138191223,10.290626525878906,1.454129934310913,-0.3883916139602661,0.10531308501958847,-0.0363960824906826,28.297138214111328,-31.35611343383789,13.694171905517578,0.053708672523498535,0.24102306365966797,-0.1407862901687622,0.6626059412956238,10.049603462219238,1.5949162244796753
9_20251106_211008,1762434571857,9,0.35915178060531616,0.3334450125694275,0.5533170104026794,0.6735463738441467,0.528968334197998,2.8075084686279297,1.4459784030914307,1.025153398513794,10.334917068481445,1.4433565139770508,-0.3938893973827362,0.022235477343201637,0.030188169330358505,28.355113983154297,-31.43734359741211,13.424449920654297,0.29003793001174927,0.22825050354003906,-0.12124776840209961,0.7351154685020447,10.106666564941406,1.5646042823791504
9_20251106_211008,1762434571875,9,0.36018291115760803,0.3322855830192566,0.5507291555404663,0.6756862998008728,0.5278429388999939,2.8371660709381104,1.4293164014816284,1.5530520677566528,10.34329605102539,1.5846083164215088,-0.36640045046806335,-0.10543524473905563,0.08394426107406616,28.452465057373047,-31.465961456298828,13.157257080078125,0.6543493270874023,0.18930339813232422,0.016003131866455078,0.8987027406692505,10.153992652893066,1.5686051845550537
9_20251106_211008,1762434571893,9,0.3614344000816345,0.3324061632156372,0.5476713180541992,0.6774418354034424,0.5296528339385986,2.8645331859588623,1.4148846864700317,2.045039415359497,10.428287506103516,1.7976831197738647,-0.33463552594184875,-0.22455386817455292,0.059509675949811935,28.47156524658203,-31.587520599365234,12.912303924560547,0.9170694351196289,0.2194356918334961,0.18326246738433838,1.1279699802398682,10.20885181427002,1.6144206523895264
9_20251106_211008,1762434571913,9,0.3632553517818451,0.33331629633903503,0.5444351434707642,0.678628146648407,0.5347369313240051,2.893734931945801,1.4012454748153687,2.171926736831665,10.312173843383789,2.1388421058654785,-0.33463552594184875,-0.22455386817455292,0.059509675949811935,28.50074005126953,-31.745952606201172,12.667049407958984,0.8351653814315796,0.0826568603515625,0.4195370674133301,1.3367613554000854,10.229516983032227,1.7193050384521484
9_20251106_211008,1762434571933,9,0.36585262417793274,0.33387771248817444,0.5413821935653687,0.6793988943099976,0.5347369313240051,2.893734931945801,1.4012454748153687,2.171926736831665,10.312173843383789,2.1388421058654785,-0.38167208433151245,-0.12681551277637482,-0.1909448653459549,28.433242797851562,-31.886432647705078,12.499500274658203,0.8351653814315796,0.0826568603515625,0.4195370674133301,1.3367613554000854,10.229516983032227,1.7193050384521484
9_20251106_211008,1762434571952,9,0.36884284019470215,0.33271485567092896,0.538848876953125,0.680365800857544,0.5508264899253845,2.9461469650268555,1.3801085948944092,2.2090351581573486,10.082340240478516,2.1532068252563477,-0.38167208433151245,-0.12681551277637482,-0.1909448653459549,28.38082504272461,-31.998981475830078,12.13022232055664,0.562085747718811,-0.11564445495605469,0.2761650085449219,1.6469494104385376,10.19798469543457,1.8770418167114258
9_20251106_211008,1762434571971,9,0.3722330331802368,0.3296610116958618,0.5367342829704285,0.6816762089729309,0.5606581568717957,2.9687554836273193,1.3718724250793457,2.2425527572631836,9.912359237670898,2.1711626052856445,-0.45986276865005493,0.008796452544629574,-0.3302219808101654,28.419456481933594,-31.993770599365234,11.847850799560547,0.476482629776001,-0.2285003662109375,0.2352966070175171,1.7660701274871826,10.140859603881836,1.9358659982681274
9_20251106_211008,1762434571990,9,0.3761191666126251,0.3255184590816498,0.5348535180091858,0.6830108761787415,0.5606581568717957,2.9687554836273193,1.3718724250793457,2.2425527572631836,9.912359237670898,2.1711626052856445,-0.5056775808334351,0.08087848871946335,-0.4340690076351166,28.50411605834961,-32.03547286987305,11.55286979675293,0.476482629776001,-0.2285003662109375,0.2352966070175171,1.7660701274871826,10.140859603881836,1.9358659982681274
9_20251106_211008,1762434572009,9,0.38060566782951355,0.3218992054462433,0.5328150987625122,0.6838335394859314,0.5794751048088074,3.0065741539001465,1.3596950769424438,1.6033281087875366,9.498180389404297,2.465636730194092,-0.48918429017066956,-0.011972947046160698,-0.465223103761673,28.67639923095703,-32.02206039428711,11.329959869384766,-0.16065573692321777,-0.4352560043334961,0.36797404289245605,1.7639838457107544,9.933436393737793,2.0976626873016357
9_20251106_211008,1762434572028,9,0.38526055216789246,0.3208045959472656,0.5301745533943176,0.6837935447692871,0.587963342666626,3.022568941116333,1.3557181358337402,1.7852797508239746,9.656190872192383,2.476410150527954,-0.2136843055486679,-0.5336514115333557,-0.12008455395698547,28.848670959472656,-32.020259857177734,11.012170791625977,0.017036795616149902,-0.22179603576660156,0.30299806594848633,1.7682429552078247,9.877986907958984,2.1734120845794678
9_20251106_211008,1762434572047,9,0.38929685950279236,0.3231453597545624,0.5269820690155029,0.6828725337982178,0.5972693562507629,3.038032293319702,1.3523213863372803,2.221005916595459,9.97580337524414,2.3124144077301025,-0.046307362616062164,-0.7773864269256592,0.03385335952043533,29.085186004638672,-31.96358871459961,10.63031005859375,0.3622102737426758,0.07825279235839844,0.11120176315307617,1.8587956428527832,9.897550582885742,2.2012126445770264
9_20251106_211008,1762434572066,9,0.3930625915527344,0.32853057980537415,0.5234383940696716,0.68086838722229,0.6078789234161377,3.0542311668395996,1.3488839864730835,2.503509521484375,10.447441101074219,2.1244778633117676,0.0037835435941815376,-0.8488576412200928,0.03263162821531296,29.32452392578125,-31.856685638427734,10.249504089355469,0.5157711505889893,0.4399127960205078,-0.06138777732849121,1.9877383708953857,10.007528305053711,2.185865640640259
9_20251106_211008,1762434572085,9,0.3969862759113312,0.3346589505672455,0.5199011564254761,0.6783126592636108,0.6199083924293518,3.0713491439819336,1.344477891921997,2.6986284255981445,10.637771606445312,1.7701510190963745,0.0037835435941815376,-0.8488576412200928,0.03263162821531296,29.62287139892578,-31.783214569091797,9.843326568603516,0.5687119960784912,0.5041952133178711,-0.3325716257095337,2.1299164295196533,10.133576393127441,2.102722644805908
9_20251106_211008,1762434572105,9,0.4014975428581238,0.3395184576511383,0.5165152549743652,0.6758246421813965,0.6331068873405457,3.0886893272399902,1.3385192155838013,2.7752394676208496,10.526445388793945,1.4565240144729614,-0.1886388659477234,-0.7181325554847717,-0.19827523827552795,30.02041244506836,-31.677875518798828,9.401050567626953,0.5162584781646729,0.31429481506347656,-0.5169589519500732,2.2589809894561768,10.212150573730469,1.9734829664230347
9_20251106_211008,1762434572123,9,0.40680018067359924,0.3430803120136261,0.512948751449585,0.6735674738883972,0.647321343421936,3.1062774658203125,1.3311576843261719,2.8698062896728516,10.61861801147461,1.3535778522491455,-0.27293819189071655,-0.7657800316810608,-0.2422574907541275,30.304546356201172,-31.654346466064453,8.885196685791016,0.4886603355407715,0.32517433166503906,-0.49592411518096924,2.38114595413208,10.29344367980957,1.8495019674301147
9_20251106_211008,1762434572142,9,0.41298484802246094,0.34654542803764343,0.5087306499481201,0.6712248921394348,0.6625040173530579,3.1247191429138184,1.3233225345611572,2.993102550506592,10.925063133239746,1.542711615562439,-0.3315812051296234,-0.8293099403381348,-0.2746333181858063,30.636425018310547,-31.640605926513672,8.411588668823242,0.489565372467041,0.5052947998046875,-0.24543225765228271,2.503537178039551,10.419768333435059,1.7881438732147217
9_20251106_211008,1762434572162,9,0.41979286074638367,0.3500122129917145,0.5039863586425781,0.668777346611023,0.6783364415168762,3.1442391872406006,1.3162928819656372,3.0170435905456543,11.148910522460938,1.9389350414276123,-0.37739601731300354,-0.8946725130081177,-0.3357197940349579,30.93474578857422,-31.59036636352539,7.815654754638672,0.41080522537231445,0.5833139419555664,0.12063288688659668,2.60623836517334,10.565596580505371,1.8183021545410156
9_20251106_211008,1762434572180,9,0.42737576365470886,0.35337239503860474,0.4988420307636261,0.6660589575767517,0.6944156289100647,3.1652047634124756,1.3118011951446533,2.9847230911254883,11.448173522949219,2.615267753601074,-0.37739601731300354,-0.8946725130081177,-0.3357197940349579,31.29428482055664,-31.547359466552734,7.0867462158203125,0.30278778076171875,0.7060613632202148,0.6375725269317627,2.6819353103637695,10.742112159729004,1.9776952266693115
9_20251106_211008,1762434572200,9,0.4359080493450165,0.35648268461227417,0.49291905760765076,0.6632760167121887,0.6944156289100647,3.1652047634124756,1.3118011951446533,2.9847230911254883,11.448173522949219,2.615267753601074,-0.5185057520866394,-1.0754884481430054,-0.4438428282737732,31.70538330078125,-31.450946807861328,6.3608551025390625,0.30278778076171875,0.7060613632202148,0.6375725269317627,2.6819353103637695,10.742112159729004,1.9776952266693115
9_20251106_211008,1762434572219,9,0.44551530480384827,0.3597548305988312,0.4862326979637146,0.6600532531738281,0.7265609502792358,3.21488094329834,1.3195664882659912,2.8135452270507812,12.278925895690918,4.790306091308594,-0.44825634360313416,-1.1939961910247803,-0.526309609413147,32.15404510498047,-31.339191436767578,5.596151351928711,0.07120633125305176,1.0590229034423828,1.981064796447754,2.7423388957977295,11.219902992248535,2.80924129486084
9_20251106_211008,1762434572239,9,0.4557991325855255,0.36340171098709106,0.47965332865715027,0.6558346152305603,0.7265609502792358,3.21488094329834,1.3195664882659912,2.8135452270507812,12.278925895690918,4.790306091308594,-0.24667099118232727,-1.2685216665267944,-0.6875779032707214,32.60429763793945,-31.213665008544922,4.710063934326172,0.07120633125305176,1.0590229034423828,1.981064796447754,2.7423388957977295,11.219902992248535,2.80924129486084
9_20251106_211008,1762434572258,9,0.46657800674438477,0.3673570156097412,0.4744317829608917,0.6498216986656189,0.7505472898483276,3.2775721549987793,1.3577015399932861,1.5291111469268799,13.162347793579102,6.091499328613281,-0.24667099118232727,-1.2685216665267944,-0.6875779032707214,32.60429763793945,-31.213665008544922,4.710063934326172,-0.8994266986846924,1.2868337631225586,2.164041042327881,2.4285378456115723,11.875514030456543,3.9274582862854004
9_20251106_211008,1762434572276,9,0.47751590609550476,0.3711106479167938,0.47147446870803833,0.641846776008606,0.7550123333930969,3.3097095489501953,1.3829716444015503,0.6756148934364319,13.253323554992676,6.195642471313477,0.006227000616490841,-1.2440871000289917,-0.8842763304710388,33.1602897644043,-30.942981719970703,3.763223648071289,-1.4023385047912598,1.102248191833496,1.8145475387573242,2.077953338623047,12.15107536315918,4.381094932556152
9_20251106_211008,1762434572295,9,0.4885568916797638,0.3743661046028137,0.4702807068824768,0.6324540972709656,0.753326952457428,3.3456039428710938,1.413940668106079,-0.16830489039421082,13.487945556640625,6.4326581954956055,0.17482565343379974,-1.1720050573349,-1.0351598262786865,33.790000915527344,-30.655109405517578,2.8331050872802734,-1.797006607055664,1.0694961547851562,1.6412506103515625,1.6287016868591309,12.418449401855469,4.791407585144043
9_20251106_211008,1762434572315,9,0.4993523955345154,0.37677833437919617,0.4702480435371399,0.6225367784500122,0.7437623739242554,3.385179042816162,1.4507360458374023,-0.9631457328796387,13.629197120666504,6.707979202270508,0.24690771102905273,-1.0870949029922485,-1.1212917566299438,34.41305160522461,-30.27932357788086,1.8232460021972656,-2.0734779834747314,0.968597412109375,1.5332574844360352,1.1103322505950928,12.660599708557129,5.174721717834473
9_20251106_211008,1762434572334,9,0.5098027586936951,0.3787054419517517,0.4714386761188507,0.6119059920310974,0.726567804813385,3.42311954498291,1.488662838935852,-2.010563850402832,13.471187591552734,6.894719123840332,0.5645573735237122,-0.9728631973266602,-1.2691210508346558,35.006690979003906,-30.420345306396484,1.2321395874023438,-2.4967169761657715,0.6484699249267578,1.375997543334961,0.4861530363559723,12.822717666625977,5.518721580505371
9_20251106_211008,1762434572353,9,0.5196428298950195,0.38080018758773804,0.4742578864097595,0.6000350117683411,0.7008278369903564,3.459089756011963,1.5281894207000732,-2.941868305206299,12.796051025390625,6.792970180511475,0.7966859936714172,-0.9013919830322266,-1.240410327911377,35.72835159301758,-29.788936614990234,0.3391227722167969,-2.742417097091675,-0.021332740783691406,1.0193986892700195,-0.19945117831230164,12.817383766174316,5.773571491241455
9_20251106_211008,1762434572372,9,0.5279704928398132,0.38335588574409485,0.47868627309799194,0.5874903202056885,0.6673269271850586,3.4915149211883545,1.5672457218170166,-3.4972991943359375,12.180767059326172,6.3225297927856445,0.7966859936714172,-0.9013919830322266,-1.240410327911377,36.47499084472656,-29.14352035522461,-0.5391330718994141,-2.6382784843444824,-0.5092935562133789,0.4391665458679199,-0.8590207099914551,12.69006061553955,5.883363246917725
9_20251106_211008,1762434572391,9,0.5347477793693542,0.38684356212615967,0.48368144035339355,0.5748470425605774,0.6269916892051697,3.5202088356018066,1.6040138006210327,-3.960557222366333,11.921008110046387,5.76111364364624,1.050805687904358,-0.8177034854888916,-0.9545257687568665,37.20965576171875,-28.487010955810547,-1.3500328063964844,-2.481229305267334,-0.6152429580688477,-0.09779977798461914,-1.479327917098999,12.536251068115234,5.858913421630859
9_20251106_211008,1762434572410,9,0.540263831615448,0.3913019001483917,0.4886414706707001,0.5623409152030945,0.5808377265930176,3.5440526008605957,1.6376570463180542,-4.335233688354492,11.291359901428223,5.39002799987793,1.14182448387146,-0.8464142084121704,-0.8378506302833557,38.02943801879883,-27.813602447509766,-2.0355892181396484,-2.284724712371826,-0.9959135055541992,-0.3751087188720703,-2.050508975982666,12.287273406982422,5.76513671875
9_20251106_211008,1762434572430,9,0.5448647737503052,0.39684686064720154,0.4934445023536682,0.5496794581413269,0.5305457711219788,3.5626449584960938,1.6676102876663208,-4.399874687194824,10.807751655578613,5.0333075523376465,1.2016891241073608,-0.7975449562072754,-0.6930756568908691,38.74067306518555,-27.111019134521484,-2.5896053314208984,-1.8794925212860107,-1.1836175918579102,-0.5854635238647461,-2.5203821659088135,11.991369247436523,5.618771076202393
9_20251106_211008,1762434572450,9,0.5481895804405212,0.40302062034606934,0.4981696307659149,0.5374844670295715,0.47517332434654236,3.5761725902557373,1.6951359510421753,-4.191587448120117,10.325340270996094,4.820232391357422,1.2016891241073608,-0.7975449562072754,-0.6930756568908691,39.404273986816406,-26.386898040771484,-3.1045074462890625,-1.3369643688201904,-1.3328237533569336,-0.6388311386108398,-2.8546230792999268,11.658164024353027,5.459063529968262
9_20251106_211008,1762434572468,9,0.5503753423690796,0.40852782130241394,0.5031847953796387,0.5263051390647888,0.42211291193962097,3.5827999114990234,1.7179065942764282,-3.9797098636627197,9.623869895935059,4.704118728637695,1.0801271200180054,-0.3644419014453888,-0.6704736351966858,39.98883819580078,-25.756793975830078,-3.4890365600585938,-0.9000694751739502,-1.6274356842041016,-0.6039557456970215,-3.0796403884887695,11.25130558013916,5.308074474334717
9_20251106_211008,1762434572486,9,0.5518519878387451,0.4119575023651123,0.509178876876831,0.5162240266799927,0.37187397480010986,3.5823607444763184,1.7367626428604126,-4.088641166687012,8.65066909790039,4.643069267272949,0.9720041155815125,-0.08038979768753052,-0.8305202126502991,40.509979248046875,-25.15726089477539,-3.7278671264648438,-0.8072004318237305,-2.0805091857910156,-0.5320038795471191,-3.2814407348632812,10.731178283691406,5.175073146820068
9_20251106_211008,1762434572506,9,0.5530614256858826,0.4125901460647583,0.5166392922401428,0.5069282650947571,0.31816092133522034,3.573781967163086,1.7534725666046143,-4.496835231781006,7.764852046966553,4.3737335205078125,0.9115285277366638,0.18839067220687866,-0.9789603352546692,40.97313690185547,-24.701053619384766,-3.768817901611328,-0.972315788269043,-2.373060703277588,-0.6410717964172363,-3.524519443511963,10.13791275024414,5.014805316925049
9_20251106_211008,1762434572525,9,0.5538121461868286,0.41072729229927063,0.5257405638694763,0.4981887936592102,0.25993454456329346,3.5549213886260986,1.7667962312698364,-5.009172439575195,6.755739212036133,3.9008989334106445,0.9396283030509949,0.3814239501953125,-1.0388250350952148,41.35362243652344,-24.188831329345703,-3.690235137939453,-1.1877224445343018,-2.7057390213012695,-0.8911247253417969,-3.8214499950408936,9.461478233337402,4.792023658752441
9_20251106_211008,1762434572543,9,0.5537418723106384,0.4076973497867584,0.5361550450325012,0.48958203196525574,0.25993454456329346,3.5549213886260986,1.7667962312698364,-5.009172439575195,6.755739212036133,3.9008989334106445,1.0031582117080688,0.5213119387626648,-0.9618561267852783,41.72365951538086,-23.628658294677734,-3.4624080657958984,-1.1877224445343018,-2.7057390213012695,-0.8911247253417969,-3.8214499950408936,9.461478233337402,4.792023658752441
9_20251106_211008,1762434572563,9,0.552305281162262,0.40464118123054504,0.5472663044929504,0.4813772141933441,0.144395112991333,3.493131160736084,1.780110239982605,-5.714234352111816,5.382723808288574,3.091693639755249,1.1076160669326782,0.6911323070526123,-0.7883705496788025,42.022003173828125,-23.03652572631836,-3.142118453979492,-1.257157325744629,-2.687588691711426,-1.17439866065979,-4.4570770263671875,8.0703125,4.266092300415039
9_20251106_211008,1762434572581,9,0.5487105846405029,0.40210556983947754,0.5590302348136902,0.4740390479564667,0.08862920105457306,3.4542627334594727,1.7790098190307617,-5.753737449645996,4.993682861328125,2.2034828662872314,1.1076160669326782,0.6911323070526123,-0.7883705496788025,42.254730224609375,-22.48953628540039,-2.4736499786376953,-1.0373282432556152,-2.4613037109375,-1.650087594985962,-4.716409206390381,7.454986572265625,3.8535704612731934
9_20251106_211008,1762434572601,9,0.5430288314819336,0.4009576439857483,0.5711913108825684,0.4670043885707855,0.02672450989484787,3.404311418533325,1.7703938484191895,-5.716628551483154,4.519651412963867,1.401459813117981,1.3776181936264038,0.8078075051307678,-0.3961953818798065,42.46391296386719,-21.908214569091797,-1.629659652709961,-0.800175666809082,-2.3482680320739746,-1.9616886377334595,-4.916452884674072,6.867919445037842,3.3631484508514404
9_20251106_211008,1762434572620,9,0.5357561111450195,0.40137046575546265,0.5831418037414551,0.46023115515708923,-0.030909601598978043,3.351716995239258,1.755751371383667,-5.559815406799316,4.12941312789917,0.8603934645652771,1.3898354768753052,0.8597310185432434,-0.18117104470729828,42.648231506347656,-21.329158782958984,-0.7190685272216797,-0.5146899223327637,-2.190804958343506,-2.002203941345215,-5.045125484466553,6.320218086242676,2.8625974655151367
9_20251106_211008,1762434572639,9,0.5270391702651978,0.4028242826461792,0.5945072174072266,0.45444849133491516,-0.08626618981361389,3.295107841491699,1.734784483909607,-5.265340805053711,3.8983829021453857,0.2905980050563812,1.3464641571044922,0.994732141494751,0.00880790501832962,42.783721923828125,-20.741802215576172,0.2979545593261719,-0.17617225646972656,-1.9374682903289795,-2.0575995445251465,-5.089168548583984,5.835851192474365,2.3481974601745605
9_20251106_211008,1762434572659,9,0.5168009400367737,0.4046168327331543,0.6054575443267822,0.45013687014579773,-0.14142689108848572,3.232346773147583,1.7053571939468384,-5.024734020233154,3.812195301055908,-0.434813916683197,1.2756038904190063,1.1309549808502197,0.15785889327526093,42.707462310791016,-20.208988189697266,1.6437568664550781,0.05154752731323242,-1.618924617767334,-2.2264091968536377,-5.076281547546387,5.431119918823242,1.791595220565796
9_20251106_211008,1762434572678,9,0.5052189230918884,0.40634050965309143,0.6160646677017212,0.44733157753944397,-0.1908183991909027,3.17098069190979,1.6710913181304932,-4.93375825881958,3.7092490196228027,-1.0177769660949707,1.1448787450790405,1.2317476272583008,0.3020229935646057,42.707462310791016,-20.208988189697266,1.6437568664550781,0.11401844024658203,-1.3774967193603516,-2.247497797012329,-5.047776699066162,5.086745738983154,1.2297208309173584
9_20251106_211008,1762434572697,9,0.49261510372161865,0.40770307183265686,0.62602698802948,0.4463169276714325,-0.23730599880218506,3.108778953552246,1.631239414215088,-4.889467239379883,3.6637611389160156,-1.430759072303772,1.0062124729156494,1.3019970655441284,0.49016931653022766,42.623252868652344,-19.814571380615234,3.0136871337890625,0.1266474723815918,-1.138387680053711,-2.1283841133117676,-5.016114711761475,4.802148818969727,0.697624921798706
9_20251106_211008,1762434572716,9,0.47923195362091064,0.40930959582328796,0.6348113417625427,0.4470088481903076,-0.28054702281951904,3.046380043029785,1.5862663984298706,-4.679984092712402,3.596726417541504,-1.8952140808105469,0.8852613568305969,1.4064549207687378,0.7717779278755188,42.463417053222656,-19.463130950927734,4.433948516845703,0.2689046859741211,-0.9643378257751465,-2.0742712020874023,-4.948888778686523,4.56106424331665,0.17905712127685547
9_20251106_211008,1762434572735,9,0.46434569358825684,0.4115675091743469,0.6423031091690063,0.4499354660511017,-0.28054702281951904,3.046380043029785,1.5862663984298706,-4.679984092712402,3.596726417541504,-1.8952140808105469,0.7417080998420715,1.4925868511199951,1.1499032974243164,42.14750671386719,-19.273799896240234,6.034383773803711,0.2689046859741211,-0.9643378257751465,-2.0742712020874023,-4.948888778686523,4.56106424331665,0.17905712127685547
9_20251106_211008,1762434572754,9,0.4476558268070221,0.41504502296447754,0.6479142904281616,0.45557543635368347,-0.3518349826335907,2.920719623565674,1.4810245037078857,-3.0855140686035156,3.3381636142730713,-2.9893174171447754,0.5315706729888916,1.464487075805664,1.576286792755127,41.63824462890625,-19.273120880126953,7.718381881713867,1.3467397689819336,-0.7723138332366943,-2.104945659637451,-4.432253837585449,4.110477447509766,-0.8843718767166138
9_20251106_211008,1762434572773,9,0.42974939942359924,0.42025241255760193,0.6506481766700745,0.46406927704811096,-0.3518349826335907,2.920719623565674,1.4810245037078857,-3.0855140686035156,3.3381636142730713,-2.9893174171447754,0.3428134620189667,1.2861145734786987,1.9030994176864624,40.94749450683594,-19.483936309814453,9.337224960327148,1.3467397689819336,-0.7723138332366943,-2.104945659637451,-4.432253837585449,4.110477447509766,-0.8843718767166138
9_20251106_211008,1762434572793,9,0.4120748043060303,0.4277142882347107,0.6500402688980103,0.47402799129486084,-0.37674084305763245,2.8581793308258057,1.4198261499404907,-1.9997904300689697,4.062378406524658,-2.994105339050293,0.27256402373313904,1.057651162147522,2.07108736038208,40.156436920166016,-19.751338958740234,10.951089859008789,1.9459707736968994,-0.03847932815551758,-1.6877868175506592,-3.945761203765869,4.100857734680176,-1.3063185214996338
9_20251106_211008,1762434572811,9,0.39505648612976074,0.4369204342365265,0.6470861434936523,0.4840562045574188,-0.3930675983428955,2.756922483444214,1.306780219078064,0.6289299726486206,5.405467987060547,-2.365654468536377,0.4020673334598541,1.002062439918518,2.1010196208953857,39.27021026611328,-20.20009994506836,12.55782699584961,3.1409730911254883,0.9402909278869629,-0.669164776802063,-2.512042999267578,4.465177059173584,-1.696489691734314
9_20251106_211008,1762434572831,9,0.3774075508117676,0.4468882977962494,0.6438930630683899,0.49320998787879944,-0.3834967613220215,2.712027072906494,1.2448034286499023,1.5638256072998047,5.802887916564941,-3.1425395011901855,0.4020673334598541,1.002062439918518,2.1010196208953857,38.25775909423828,-20.980060577392578,13.909992218017578,3.260694980621338,1.0701684951782227,-1.1568398475646973,-1.6968693733215332,4.732719421386719,-1.9856996536254883
9_20251106_211008,1762434572851,9,0.359352171421051,0.4564993977546692,0.641735851764679,0.5006490349769592,-0.36282530426979065,2.673553943634033,1.180763840675354,2.112074136734009,6.106938362121582,-3.683605909347534,0.5847159028053284,0.9971755743026733,1.953801155090332,37.0994873046875,-21.757404327392578,15.29708480834961,3.0471549034118652,1.0993752479553223,-1.3583250045776367,-0.9350807666778564,5.00756311416626,-2.3252809047698975
9_20251106_211008,1762434572869,9,0.34275251626968384,0.46505820751190186,0.6399284601211548,0.5066884160041809,-0.3372853398323059,2.643381357192993,1.1213300228118896,2.2593111991882324,6.112923622131348,-4.225869655609131,0.43566492199897766,0.8811112642288208,1.5017613172531128,35.88349151611328,-22.712512969970703,16.556873321533203,2.555513620376587,0.8842883110046387,-1.5204710960388184,-0.2962024211883545,5.228635311126709,-2.7053985595703125
9_20251106_211008,1762434572889,9,0.3278019428253174,0.47195965051651,0.6380645036697388,0.5125170350074768,-0.3372853398323059,2.643381357192993,1.1213300228118896,2.2593111991882324,6.112923622131348,-4.225869655609131,0.24140992760658264,0.8792786598205566,1.4345662593841553,34.62346267700195,-23.606395721435547,17.653827667236328,2.555513620376587,0.8842883110046387,-1.5204710960388184,-0.2962024211883545,5.228635311126709,-2.7053985595703125
9_20251106_211008,1762434572908,9,0.31403854489326477,0.4778757095336914,0.6353257298469543,0.519014298915863,-0.268332302570343,2.5916836261749268,0.9942052960395813,2.7812249660491943,6.032721519470215,-4.635260105133057,-0.029203146696090698,0.9281478524208069,1.4864897727966309,33.36058807373047,-24.573734283447266,18.559967041015625,2.041184902191162,0.5130825042724609,-1.2523488998413086,0.7400399446487427,5.519639015197754,-3.382911205291748
9_20251106_211008,1762434572926,9,0.3008943796157837,0.48295333981513977,0.6309988498687744,0.5273130536079407,-0.268332302570343,2.5916836261749268,0.9942052960395813,2.7812249660491943,6.032721519470215,-4.635260105133057,-0.3749525845050812,1.002062439918518,1.5329153537750244,32.172733306884766,-25.510517120361328,19.401996612548828,2.041184902191162,0.5130825042724609,-1.2523488998413086,0.7400399446487427,5.519639015197754,-3.382911205291748
9_20251106_211008,1762434572945,9,0.28850483894348145,0.48679691553115845,0.6247534155845642,0.5380306243896484,-0.17223410308361053,2.5512216091156006,0.8638945817947388,4.221275329589844,6.725812911987305,-3.6129798889160156,-0.7585756182670593,1.1578329801559448,1.469996452331543,30.95718002319336,-26.511402130126953,20.21469497680664,2.3446311950683594,0.8458809852600098,-0.05224609375,1.8766441345214844,5.879931926727295,-3.5607337951660156
9_20251106_211008,1762434572964,9,0.2771717607975006,0.48824724555015564,0.6169458627700806,0.5515145063400269,-0.11707001179456711,2.538038730621338,0.8075451850891113,4.803041458129883,7.185480117797852,-2.7187838554382324,-0.7585756182670593,1.1578329801559448,1.469996452331543,29.732234954833984,-27.486080169677734,20.83820343017578,2.3411178588867188,1.044438362121582,0.6735599040985107,2.461923599243164,6.1410417556762695,-3.392343759536743
9_20251106_211008,1762434572983,9,0.2669912278652191,0.4864804446697235,0.6082107424736023,0.5675668716430664,-0.057314883917570114,2.528705596923828,0.7583408355712891,5.140609264373779,7.303987979888916,-1.815011739730835,-1.3419514894485474,1.527406096458435,1.1413512229919434,28.507966995239258,-28.471431732177734,21.272216796875,2.142948627471924,0.930356502532959,1.2618656158447266,2.9976606369018555,6.373631477355957,-3.0768773555755615
9_20251106_211008,1762434573002,9,0.2577408254146576,0.4820016920566559,0.5990446209907532,0.585140585899353,0.005134832113981247,2.5229697227478027,0.7178471088409424,5.068786144256592,7.5146684646606445,-0.7987169623374939,-1.4641244411468506,1.5493972301483154,1.0191781520843506,27.315706253051758,-29.55337142944336,21.55691146850586,1.656900405883789,0.9128298759460449,1.8225281238555908,3.4118857383728027,6.6018385887146,-2.6212451457977295
9_20251106_211008,1762434573021,9,0.2495083212852478,0.4760810136795044,0.589430034160614,0.603046178817749,0.005134832113981247,2.5229697227478027,0.7178471088409424,5.068786144256592,7.5146684646606445,-0.7987169623374939,-1.4506853818893433,1.4687631130218506,1.007571816444397,26.113262176513672,-30.610179901123047,21.760547637939453,1.656900405883789,0.9128298759460449,1.8225281238555908,3.4118857383728027,6.6018385887146,-2.6212451457977295
9_20251106_211008,1762434573041,9,0.24164673686027527,0.4701453149318695,0.5794620513916016,0.6203176379203796,0.13913895189762115,2.5181894302368164,0.6628396511077881,5.494935989379883,7.2680768966674805,0.3049625754356384,-1.4506853818893433,1.4687631130218506,1.007571816444397,24.84876251220703,-31.707286834716797,21.825775146484375,1.3827581405639648,0.40398406982421875,1.9135682582855225,4.112177848815918,6.864092826843262,-1.6086057424545288
9_20251106_211008,1762434573059,9,0.2335277795791626,0.4661572277545929,0.5691269040107727,0.6358119249343872,0.20290809869766235,2.518970251083374,0.6470756530761719,5.900735378265381,7.744502544403076,0.26186880469322205,-1.0994383096694946,0.8340746760368347,1.2958998680114746,23.531757354736328,-32.90546798706055,21.630123138427734,1.4308462142944336,0.7043280601501465,1.4963797330856323,4.469889163970947,7.04017448425293,-1.234510898590088
9_20251106_211008,1762434573080,9,0.22558847069740295,0.46588900685310364,0.5580325722694397,0.6485807299613953,0.20290809869766235,2.518970251083374,0.6470756530761719,5.900735378265381,7.744502544403076,0.26186880469322205,-0.9296177625656128,0.449840784072876,1.3227779865264893,22.219276428222656,-34.02790451049805,21.395503997802734,1.4308462142944336,0.7043280601501465,1.4963797330856323,4.469889163970947,7.04017448425293,-1.234510898590088
9_20251106_211008,1762434573101,9,0.21876956522464752,0.46843719482421875,0.5468470454216003,0.6585323214530945,0.35520923137664795,2.5298285484313965,0.6330339312553406,5.931859016418457,7.8127336502075195,1.1572617292404175,-0.7982818484306335,0.3875325918197632,1.245198130607605,20.933666229248047,-35.12215042114258,21.013713836669922,0.9249353408813477,0.44789648056030273,1.5862776041030884,5.006923675537109,7.364837169647217,-0.4290158748626709
9_20251106_211008,1762434573119,9,0.21211116015911102,0.4709622859954834,0.5366089344024658,0.6672737002372742,0.4201917052268982,2.5351364612579346,0.6330593824386597,6.270623207092285,7.460801124572754,0.7239298820495605,-0.7885079979896545,0.5976700782775879,1.2323700189590454,19.718120574951172,-36.46120071411133,20.834117889404297,1.0109596252441406,0.07677078247070312,0.9223566055297852,5.2596635818481445,7.384030342102051,-0.1984267234802246
9_20251106_211008,1762434573136,9,0.2044025957584381,0.47194263339042664,0.5267881155014038,0.6767451763153076,0.4824012219905853,2.5401620864868164,0.6333175897598267,7.037932395935059,7.503894805908203,-0.09126074612140656,-0.7885079979896545,0.5976700782775879,1.2323700189590454,19.718120574951172,-36.46120071411133,20.834117889404297,1.4226150512695312,0.09589195251464844,0.08573278784751892,5.615317344665527,7.408002853393555,-0.17699353396892548
9_20251106_211008,1762434573155,9,0.19630035758018494,0.4721249043941498,0.5162827968597412,0.6870344281196594,0.4824012219905853,2.5401620864868164,0.6333175897598267,7.037932395935059,7.503894805908203,-0.09126074612140656,-1.0456820726394653,0.6385979652404785,1.2012159824371338,18.466537475585938,-37.38994216918945,20.38916015625,1.4226150512695312,0.09589195251464844,0.08573278784751892,5.615317344665527,7.408002853393555,-0.17699353396892548
9_20251106_211008,1762434573175,9,0.18969053030014038,0.47243639826774597,0.5047019124031067,0.6972067952156067,0.562079668045044,2.5488085746765137,0.6325960159301758,7.606530666351318,8.228111267089844,-0.48269593715667725,-1.1941221952438354,0.5268096923828125,1.0472779273986816,17.266803741455078,-38.276485443115234,19.81179428100586,1.592970848083496,0.6560864448547363,-0.24456192553043365,6.013559818267822,7.572024822235107,-0.2381340116262436
9_20251106_211008,1762434573194,9,0.1854415088891983,0.47255799174308777,0.49246150255203247,0.7069526314735413,0.7067488431930542,2.5695130825042725,0.6341274976730347,8.19906997680664,8.364574432373047,0.6473187208175659,-1.1941221952438354,0.5268096923828125,1.0472779273986816,16.04481315612793,-39.126949310302734,19.234237670898438,1.4456510543823242,0.48137474060058594,0.6840963959693909,6.753418922424316,7.883199691772461,-0.03677766025066376
9_20251106_211008,1762434573212,9,0.18254446983337402,0.4715239703655243,0.4799267053604126,0.7169470191001892,0.7784982919692993,2.5809149742126465,0.6379404664039612,8.592899322509766,8.436397552490234,0.807723343372345,-1.3902097940444946,0.5927830934524536,0.7956016659736633,14.910040855407715,-39.934452056884766,18.687938690185547,1.4715843200683594,0.44255828857421875,0.6756008267402649,7.121315002441406,7.993839263916016,0.13212253153324127
9_20251106_211008,1762434573234,9,0.18044114112854004,0.46928510069847107,0.4673338532447815,0.7271943092346191,0.868453323841095,2.5976309776306152,0.6454296708106995,8.928072929382324,8.939157485961914,0.9645367860794067,-1.432970404624939,0.5304749011993408,0.6770939230918884,13.855506896972656,-40.634708404541016,17.943950653076172,1.445406436920166,0.7562541961669922,0.6659314036369324,7.482666492462158,8.182903289794922,0.29860538244247437
9_20251106_211008,1762434573251,9,0.17942340672016144,0.4667021632194519,0.45484185218811035,0.7369635105133057,0.9380707144737244,2.611673593521118,0.6537178158760071,9.113615989685059,8.989434242248535,1.5690467357635498,-1.486115574836731,0.4235736131668091,0.5219342708587646,12.849702835083008,-41.34340286254883,17.10704803466797,1.3047599792480469,0.6452245712280273,1.0163531303405762,7.808856010437012,8.344209671020508,0.5526936650276184
9_20251106_211008,1762434573271,9,0.1803571581840515,0.4641170799732208,0.4423114061355591,0.7459405064582825,0.9380707144737244,2.611673593521118,0.6537178158760071,9.113615989685059,8.989434242248535,1.5690467357635498,-1.4971110820770264,0.32888954877853394,0.40281566977500916,11.981977462768555,-41.96828079223633,16.304153442382812,1.3047599792480469,0.6452245712280273,1.0163531303405762,7.808856010437012,8.344209671020508,0.5526936650276184
9_20251106_211008,1762434573289,9,0.18248555064201355,0.4614834189414978,0.4299830496311188,0.7542192339897156,1.0245590209960938,2.6306445598602295,0.6677934527397156,9.238109588623047,9.087592124938965,1.8503532409667969,-1.447020173072815,0.13768890500068665,0.3796028196811676,11.066286087036133,-42.606876373291016,15.29629135131836,1.1434030532836914,0.5947055816650391,1.0381276607513428,8.094706535339355,8.492886543273926,0.8122255802154541
9_20251106_211008,1762434573308,9,0.18528856337070465,0.46008923649787903,0.41773420572280884,0.7612385749816895,1.103013515472412,2.6493899822235107,0.6832162141799927,9.594829559326172,9.38206672668457,2.023925542831421,-1.3920423984527588,-0.14147627353668213,0.3808245360851288,10.411620140075684,-43.1522331237793,14.178665161132812,1.2000980377197266,0.7113447189331055,0.9693599939346313,8.394731521606445,8.670722007751465,1.0545655488967896
9_20251106_211008,1762434573328,9,0.1890001744031906,0.4607972204685211,0.40528199076652527,0.766610324382782,1.2549920082092285,2.69043231010437,0.7206860780715942,10.843351364135742,10.170921325683594,3.0701467990875244,-1.3920423984527588,-0.14147627353668213,0.3808245360851288,9.820914268493652,-43.63151168823242,13.132392883300781,1.6580924987792969,1.0344409942626953,1.4075701236724854,9.185258865356445,9.136480331420898,1.662576675415039
9_20251106_211008,1762434573347,9,0.19483928382396698,0.4628393054008484,0.3929044008255005,0.7703529000282288,1.3412078619003296,2.717172861099243,0.7496632933616638,10.96904182434082,10.435469627380371,4.097214698791504,-1.3865445852279663,-0.4969995617866516,-0.06327413767576218,9.380755424499512,-44.03739547729492,11.98519515991211,1.4270267486572266,1.0391912460327148,1.9477105140686035,9.542015075683594,9.396278381347656,2.1495041847229004
9_20251106_211008,1762434573365,9,0.20306244492530823,0.4642960727214813,0.38156792521476746,0.7730463743209839,1.4180737733840942,2.7430310249328613,0.7806968688964844,10.821805953979492,10.612632751464844,4.690951347351074,-1.313240885734558,-0.4499629735946655,-0.40474751591682434,9.073418617248535,-44.47099685668945,10.720952987670898,1.0238323211669922,0.97308349609375,2.0331578254699707,9.7979736328125,9.639549255371094,2.6577935218811035
9_20251106_211008,1762434573384,9,0.2131807804107666,0.46402886509895325,0.37230879068374634,0.7749950289726257,1.4180737733840942,2.7430310249328613,0.7806968688964844,10.821805953979492,10.612632751464844,4.690951347351074,-1.2350502014160156,-0.39803946018218994,-0.7535513043403625,9.02562427520752,-44.81338882446289,9.549692153930664,1.0238323211669922,0.97308349609375,2.0331578254699707,9.7979736328125,9.639549255371094,2.6577935218811035
9_20251106_211008,1762434573404,9,0.22526679933071136,0.46209952235221863,0.36523351073265076,0.7760949730873108,1.5752795934677124,2.8040084838867188,0.8635578155517578,9.669047355651855,10.76585578918457,5.563600540161133,-1.2350502014160156,-0.39803946018218994,-0.7535513043403625,9.127882957458496,-45.08305740356445,8.345087051391602,-0.20087718963623047,0.7189207077026367,1.9405415058135986,9.869924545288086,10.046935081481934,3.623059034347534
9_20251106_211008,1762434573423,9,0.23944729566574097,0.45885780453681946,0.3597705066204071,0.776324450969696,1.6431283950805664,2.834311008453369,0.9113598465919495,8.902935028076172,10.626997947692871,6.224371433258057,-1.106157660484314,-0.5024973154067993,-1.2275822162628174,9.377685546875,-45.31821060180664,7.160411834716797,-0.7735919952392578,0.46405029296875,2.081049919128418,9.67652702331543,10.162947654724121,4.143321514129639
9_20251106_211008,1762434573441,9,0.25482049584388733,0.4559432864189148,0.3553656339645386,0.7751758098602295,1.7003036737442017,2.8631651401519775,0.9612185955047607,8.097321510314941,10.805357933044434,6.919857025146484,-1.106157660484314,-0.5024973154067993,-1.2275822162628174,9.840091705322266,-45.43967819213867,6.013217926025391,-1.2633647918701172,0.5139274597167969,2.22122859954834,9.360686302185059,10.291430473327637,4.6986284255981445
9_20251106_211008,1762434573460,9,0.27014756202697754,0.4549124240875244,0.3521912097930908,0.7720338702201843,1.7523915767669678,2.893864154815674,1.0174249410629272,7.448520183563232,10.934638977050781,6.961753845214844,-0.5276687145233154,-0.9630893468856812,-1.2758405208587646,10.551067352294922,-45.44588088989258,4.986074447631836,-1.5297331809997559,0.5145664215087891,1.810500144958496,8.978253364562988,10.420072555541992,5.151253700256348
9_20251106_211008,1762434573480,9,0.28466105461120605,0.4559743404388428,0.3510787785053253,0.7666805982589722,1.7979367971420288,2.926131010055542,1.0779489278793335,6.826054573059082,10.935836791992188,6.571516036987305,-0.19780181348323822,-1.1225249767303467,-1.2941665649414062,11.37524127960205,-45.38215255737305,3.9646644592285156,-1.7217588424682617,0.4126110076904297,1.136209487915039,8.547813415527344,10.523225784301758,5.435306549072266
9_20251106_211008,1762434573499,9,0.29841309785842896,0.4588457942008972,0.3519689738750458,0.7592944502830505,1.832951307296753,2.956357717514038,1.134352445602417,6.328082084655762,10.926259994506836,6.084316730499268,-0.001714237965643406,-1.1860549449920654,-1.3131033182144165,12.382119178771973,-45.2950325012207,3.0590057373046875,-1.7757844924926758,0.32242679595947266,0.5192084312438965,8.103866577148438,10.603833198547363,5.565108299255371
9_20251106_211008,1762434573520,9,0.3116494119167328,0.4625456929206848,0.3541354537010193,0.7506758570671082,1.832951307296753,2.956357717514038,1.134352445602417,6.328082084655762,10.926259994506836,6.084316730499268,-0.001714237965643406,-1.1860549449920654,-1.3131033182144165,12.382119178771973,-45.2950325012207,3.0590057373046875,-1.7757844924926758,0.32242679595947266,0.5192084312438965,8.103866577148438,10.603833198547363,5.565108299255371
9_20251106_211008,1762434573539,9,0.3248412311077118,0.4660811722278595,0.3570461869239807,0.7414610981941223,1.8809475898742676,3.0157768726348877,1.2453819513320923,5.266299247741699,10.467790603637695,5.416363716125488,0.11251746118068695,-1.152457356452942,-1.4731498956680298,13.503915786743164,-45.1008415222168,2.213937759399414,-1.9135308265686035,-0.12633132934570312,-0.14882469177246094,7.179830074310303,10.594121932983398,5.565188407897949
9_20251106_211008,1762434573557,9,0.3384648263454437,0.4691024422645569,0.36068350076675415,0.7316364049911499,1.8907470703125,3.039163827896118,1.2903286218643188,4.33978271484375,10.150571823120117,5.184135913848877,0.15894317626953125,-1.107864260673523,-1.5745534896850586,14.728555679321289,-44.788631439208984,1.5103321075439453,-2.272037982940674,-0.3548402786254883,-0.3048419952392578,6.611820697784424,10.505412101745605,5.488977909088135
9_20251106_211008,1762434573575,9,0.3524128496646881,0.4714808166027069,0.36510875821113586,0.721253514289856,1.8921363353729248,3.0602099895477295,1.3312397003173828,3.3953113555908203,10.029669761657715,4.762774467468262,0.20170369744300842,-1.0284518003463745,-1.5879924297332764,16.02742576599121,-44.44694137573242,0.8507461547851562,-2.5732078552246094,-0.38059425354003906,-0.5809626579284668,5.96851921081543,10.410264015197754,5.3437371253967285
9_20251106_211008,1762434573594,9,0.3659449517726898,0.4731924533843994,0.37007859349250793,0.7107847929000854,1.8841772079467773,3.0803985595703125,1.369701623916626,2.5597708225250244,10.07635498046875,4.409644603729248,0.2389664649963379,-0.9979085922241211,-1.528127670288086,17.270397186279297,-44.02119064331055,0.17703819274902344,-2.726999044418335,-0.26712799072265625,-0.7472739219665527,5.286769866943359,10.343482971191406,5.156918525695801
9_20251106_211008,1762434573614,9,0.3787713348865509,0.47485774755477905,0.37509971857070923,0.700244665145874,1.8841772079467773,3.0803985595703125,1.369701623916626,2.5597708225250244,10.07635498046875,4.409644603729248,0.2389664649963379,-0.9979085922241211,-1.528127670288086,18.575538635253906,-43.543399810791016,-0.2769012451171875,-2.726999044418335,-0.26712799072265625,-0.7472739219665527,5.286769866943359,10.343482971191406,5.156918525695801
9_20251106_211008,1762434573634,9,0.39048251509666443,0.4771398603916168,0.3799740970134735,0.689551055431366,1.8387194871902466,3.1180830001831055,1.434738278388977,0.980862557888031,10.162542343139648,4.1977667808532715,0.4222258925437927,-1.0736558437347412,-1.2733970880508423,19.8332462310791,-43.04380416870117,-0.7187576293945312,-2.8839125633239746,-0.13323211669921875,-0.5996842384338379,3.8647751808166504,10.295774459838867,4.797451019287109
9_20251106_211008,1762434573652,9,0.4009430706501007,0.48050639033317566,0.3847750425338745,0.6784588694572449,1.8387194871902466,3.1180830001831055,1.434738278388977,0.980862557888031,10.162542343139648,4.1977667808532715,0.571887731552124,-1.0217323303222656,-1.0736443996429443,21.07826042175293,-42.55729293823242,-1.1884021759033203,-2.8839125633239746,-0.13323211669921875,-0.5996842384338379,3.8647751808166504,10.295774459838867,4.797451019287109
9_20251106_211008,1762434573671,9,0.4092244505882263,0.48460063338279724,0.38977524638175964,0.6676622033119202,1.7650703191757202,3.146392583847046,1.4814203977584839,0.7701818346977234,9.654993057250977,3.2580833435058594,0.6525219082832336,-0.9691979885101318,-0.8610634803771973,22.242202758789062,-42.00099563598633,-1.6598949432373047,-1.9575562477111816,-0.42714691162109375,-1.0872797966003418,2.72773814201355,10.08213996887207,4.345363140106201
9_20251106_211008,1762434573690,9,0.4156014919281006,0.48941004276275635,0.3943699896335602,0.6574386358261108,1.7650703191757202,3.146392583847046,1.4814203977584839,0.7701818346977234,9.654993057250977,3.2580833435058594,0.5847159028053284,-0.8916181325912476,-0.7590490579605103,23.356918334960938,-41.43693923950195,-1.9708900451660156,-1.9575562477111816,-0.42714691162109375,-1.0872797966003418,2.72773814201355,10.08213996887207,4.345363140106201
9_20251106_211008,1762434573710,9,0.4213208258152008,0.4939265251159668,0.3982371985912323,0.6480219960212708,1.6769490242004395,3.168290853500366,1.5134401321411133,1.219075322151184,9.666963577270508,3.7297210693359375,0.5847159028053284,-0.8916181325912476,-0.7590490579605103,24.33214569091797,-40.981807708740234,-2.316425323486328,-0.9316438436508179,-0.2779712677001953,-0.3177824020385742,2.150719165802002,9.944934844970703,4.047503471374512
9_20251106_211008,1762434573729,9,0.4268462061882019,0.49656546115875244,0.40219324827194214,0.6398950219154358,1.6337519884109497,3.176989793777466,1.5267013311386108,1.439332365989685,9.695693016052246,3.8254849910736084,0.4429952800273895,-0.4426325559616089,-0.8561765551567078,25.24655532836914,-40.51890182495117,-2.583049774169922,-0.569109320640564,-0.19939327239990234,-0.17761492729187012,2.008441686630249,9.895086288452148,4.0030999183654785
9_20251106_211008,1762434573749,9,0.43193966150283813,0.4972226619720459,0.4072050154209137,0.632757306098938,1.5906836986541748,3.184555768966675,1.5376232862472534,1.2681543827056885,9.640628814697266,3.392153024673462,0.5749420523643494,-0.3039662837982178,-0.933756411075592,26.13439178466797,-40.08377456665039,-2.743053436279297,-0.5922298431396484,-0.2035655975341797,-0.4887576103210449,1.860384225845337,9.844194412231445,3.880910634994507
9_20251106_211008,1762434573766,9,0.43625399470329285,0.4972432255744934,0.4138314127922058,0.6254400014877319,1.5906836986541748,3.184555768966675,1.5376232862472534,1.2681543827056885,9.640628814697266,3.392153024673462,0.5749420523643494,-0.3039662837982178,-0.933756411075592,26.960384368896484,-39.677059173583984,-2.9736194610595703,-0.5922298431396484,-0.2035655975341797,-0.4887576103210449,1.860384225845337,9.844194412231445,3.880910634994507
9_20251106_211008,1762434573786,9,0.43981727957725525,0.49758824706077576,0.4212908148765564,0.617641270160675,1.549688696861267,3.1904983520507812,1.5449084043502808,0.9533303380012512,9.492195129394531,2.8474955558776855,0.8076815009117126,-0.2563188374042511,-0.8867197632789612,27.795570373535156,-39.296817779541016,-2.9879627227783203,-0.7256430983543396,-0.2815990447998047,-0.8267319202423096,1.6789734363555908,9.773794174194336,3.674227476119995
9_20251106_211008,1762434573805,9,0.442560076713562,0.49854743480682373,0.4291253983974457,0.6094607710838318,1.4564297199249268,3.1962766647338867,1.5496447086334229,0.11539582163095474,8.590816497802734,1.9317526817321777,0.9158045649528503,-0.17018692195415497,-0.7816510796546936,28.546581268310547,-38.88581466674805,-2.869783401489258,-1.0583395957946777,-0.8471240997314453,-1.227036476135254,1.1737353801727295,9.43794059753418,3.1587891578674316
9_20251106_211008,1762434573823,9,0.4437403976917267,0.4997592568397522,0.4374730885028839,0.6016248464584351,1.411667823791504,3.194042921066284,1.5448336601257324,-0.2257632464170456,8.071296691894531,1.1668381690979004,0.8999220728874207,-0.06450731307268143,-0.6344326734542847,29.211090087890625,-38.49360275268555,-2.6877212524414062,-1.1195988655090332,-1.0933151245117188,-1.5935609340667725,0.8938356637954712,9.16461181640625,2.760399103164673
9_20251106_211008,1762434573843,9,0.4437014162540436,0.5009589791297913,0.4454294741153717,0.5947787165641785,1.411667823791504,3.194042921066284,1.5448336601257324,-0.2257632464170456,8.071296691894531,1.1668381690979004,0.7068888545036316,0.04667006805539131,-0.4536166489124298,29.850830078125,-38.103519439697266,-2.452573776245117,-1.1195988655090332,-1.0933151245117188,-1.5935609340667725,0.8938356637954712,9.16461181640625,2.760399103164673
9_20251106_211008,1762434573862,9,0.4430989623069763,0.5015686750411987,0.4518703520298004,0.5898350477218628,1.3588379621505737,3.1830203533172607,1.5332216024398804,-0.0665556862950325,6.614487648010254,0.8867285847663879,0.40695425868034363,0.045448340475559235,-0.23859231173992157,30.417877197265625,-37.69443130493164,-2.0846786499023438,-0.7683130502700806,-2.0400991439819336,-1.498936653137207,0.7017573714256287,8.654586791992188,2.38566517829895
9_20251106_211008,1762434573882,9,0.4426015317440033,0.5018699765205383,0.45554184913635254,0.587121844291687,1.310490608215332,3.1645712852478027,1.5187699794769287,0.5211955308914185,5.866331577301025,1.0878329277038574,0.24079903960227966,-0.07061596214771271,-0.14818434417247772,30.90777587890625,-37.36518478393555,-1.748342514038086,-0.14444947242736816,-2.2306036949157715,-1.0382657051086426,0.6656450033187866,8.096935272216797,2.1260986328125
9_20251106_211008,1762434573900,9,0.4428052008152008,0.5025454163551331,0.457232266664505,0.585072934627533,1.233335256576538,3.1288514137268066,1.4902253150939941,1.393844485282898,8.206563949584961,1.834791660308838,0.32815271615982056,-0.20622794330120087,-0.25080958008766174,31.37310791015625,-37.03779983520508,-1.3859539031982422,0.5095245838165283,0.25173139572143555,-0.1100168228149414,0.8843199014663696,7.954832553863525,1.9448084831237793
9_20251106_211008,1762434573921,9,0.4437292814254761,0.5039238333702087,0.4592324197292328,0.581610381603241,1.1935802698135376,3.112196207046509,1.4754693508148193,1.1556317806243896,8.59440803527832,2.1843302249908447,0.42222586274147034,-0.12986983358860016,-0.44506457448005676,31.762401580810547,-36.76553726196289,-1.014047622680664,0.2170494794845581,0.5116605758666992,0.19161736965179443,0.9385823011398315,8.082747459411621,1.9927128553390503
9_20251106_211008,1762434573940,9,0.4448641538619995,0.504290759563446,0.4630119204521179,0.5774137377738953,1.16057550907135,3.100177049636841,1.4630944728851318,0.6816002130508423,8.70932388305664,1.8467621803283691,0.42589107155799866,0.12363902479410172,-0.5586854815483093,32.0674934387207,-36.48574447631836,-0.6993751525878906,-0.20558571815490723,0.5012607574462891,-0.1167604923248291,0.8871859312057495,8.208063125610352,1.9635226726531982
9_20251106_211008,1762434573958,9,0.4455437958240509,0.5026830434799194,0.4683908224105835,0.5739429593086243,1.1254371404647827,3.089562177658081,1.4498294591903687,0.14292794466018677,8.73206901550293,1.6516430377960205,0.3770218789577484,0.27757692337036133,-0.5153140425682068,32.33270263671875,-36.27084732055664,-0.41452789306640625,-0.5954064130783081,0.4192047119140625,-0.2495037317276001,0.7383343577384949,8.312864303588867,1.9011467695236206
9_20251106_211008,1762434573977,9,0.4455466568470001,0.5001934766769409,0.47400617599487305,0.5715004801750183,1.0920487642288208,3.0807933807373047,1.437359094619751,0.02202596515417099,8.631516456604004,1.6851603984832764,0.36908063292503357,0.2891833782196045,-0.30700913071632385,32.56024932861328,-36.07143020629883,-0.07735061645507812,-0.5730467438697815,0.25492191314697266,-0.1727890968322754,0.5950726866722107,8.376594543457031,1.8579494953155518
9_20251106_211008,1762434573996,9,0.4444706439971924,0.49852344393730164,0.4786611497402191,0.5699155330657959,1.0556237697601318,3.0729639530181885,1.42226243019104,0.20637156069278717,8.84578800201416,1.2219023704528809,0.4912535846233368,0.1560148447751999,-0.03761781379580498,32.56024932861328,-36.07143020629883,-0.07735061645507812,-0.31096088886260986,0.3753547668457031,-0.5088376998901367,0.5173324346542358,8.470433235168457,1.7307400703430176
9_20251106_211008,1762434574015,9,0.44191741943359375,0.4992474615573883,0.48216503858566284,0.5683113932609558,1.0226787328720093,3.0678210258483887,1.4055107831954956,0.4912693202495575,9.171384811401367,0.5910574197769165,0.6690152287483215,-0.1121547594666481,0.1804608851671219,32.81074905395508,-35.90715408325195,0.16540145874023438,-0.02085050940513611,0.5607614517211914,-0.9117461442947388,0.5121198296546936,8.610623359680176,1.5028035640716553
9_20251106_211008,1762434574034,9,0.43856531381607056,0.5032849907875061,0.484417587518692,0.5654240250587463,0.9919182062149048,3.065094470977783,1.3858243227005005,0.7079352140426636,9.397627830505371,0.12779927253723145,0.6690152287483215,-0.1121547594666481,0.1804608851671219,33.000823974609375,-35.734561920166016,0.4329986572265625,0.1566523313522339,0.629603385925293,-1.1000034809112549,0.5512828826904297,8.768024444580078,1.2278027534484863
9_20251106_211008,1762434574053,9,0.4350009858608246,0.5096427202224731,0.48566070199012756,0.561401903629303,0.9636871218681335,3.0647997856140137,1.3630565404891968,0.9126306772232056,9.604717254638672,-0.25405949354171753,0.7808035016059875,-0.36688536405563354,0.31057509779930115,33.16754150390625,-35.53898239135742,0.7542076110839844,0.2890782356262207,0.6693544387817383,-1.1854898929595947,0.6235524415969849,8.935362815856934,0.9314303398132324
9_20251106_211008,1762434574073,9,0.43149101734161377,0.5162869691848755,0.4867333173751831,0.5570942163467407,0.9380876421928406,3.066474437713623,1.336775541305542,1.0682470798492432,9.647810935974121,-0.7640025019645691,0.6983367800712585,-0.23188425600528717,0.18229348957538605,33.2308235168457,-35.46223068237305,1.0150527954101562,0.35575568675994873,0.5699586868286133,-1.3563463687896729,0.7124913930892944,9.077852249145508,0.592343807220459
9_20251106_211008,1762434574091,9,0.42822265625,0.5211669206619263,0.48866844177246094,0.5533656477928162,0.9140347838401794,3.0692808628082275,1.3074009418487549,0.8096844553947449,9.520923614501953,-1.0141857862472534,0.6983367800712585,-0.23188425600528717,0.18229348957538605,33.26803970336914,-35.40097427368164,1.4098167419433594,0.0777544379234314,0.35445690155029297,-1.2852237224578857,0.7319300174713135,9.16646671295166,0.27103790640830994
9_20251106_211008,1762434574110,9,0.42635104060173035,0.5235124826431274,0.4912925660610199,0.5502645969390869,0.8898969888687134,3.07230544090271,1.275670051574707,0.2626328766345978,9.297075271606445,-1.1231173276901245,0.5138556361198425,-0.039461858570575714,-0.04311559721827507,33.148048400878906,-35.325199127197266,1.8257637023925781,-0.37543776631355286,0.10448741912841797,-1.1153242588043213,0.6380706429481506,9.192587852478027,-0.007793128490447998
9_20251106_211008,1762434574131,9,0.42549487948417664,0.5227561593055725,0.49470651149749756,0.548585057258606,0.8634352087974548,3.0744030475616455,1.2405085563659668,-0.1264081746339798,8.88768482208252,-1.1362848281860352,0.07525471597909927,0.4113563001155853,-0.32228076457977295,33.08526611328125,-35.30850601196289,2.269876480102539,-0.6115830540657043,-0.24392223358154297,-0.9027934074401855,0.48517486453056335,9.131607055664062,-0.233491450548172
9_20251106_211008,1762434574150,9,0.4251220226287842,0.5195194482803345,0.49842411279678345,0.5485838055610657,0.8634352087974548,3.0744030475616455,1.2405085563659668,-0.1264081746339798,8.88768482208252,-1.1362848281860352,-0.10739383846521378,0.47122102975845337,-0.3033439517021179,33.07121276855469,-35.30025100708008,2.621072769165039,-0.6115830540657043,-0.24392223358154297,-0.9027934074401855,0.48517486453056335,9.131607055664062,-0.233491450548172
9_20251106_211008,1762434574168,9,0.42529401183128357,0.5152797102928162,0.5013611912727356,0.5497716069221497,0.8097847700119019,3.072505235671997,1.1733038425445557,-0.5106610059738159,8.216140747070312,-0.6167654395103455,-0.10739383846521378,0.47122102975845337,-0.3033439517021179,33.049713134765625,-35.20515823364258,3.000659942626953,-0.6607013940811157,-0.6274595260620117,-0.18783700466156006,0.15004035830497742,8.843600273132324,-0.4289284348487854
9_20251106_211008,1762434574187,9,0.42604899406433105,0.5112850666046143,0.5028209090232849,0.5515804290771484,0.7814536690711975,3.0685853958129883,1.1431968212127686,-0.7716177701950073,8.104814529418945,-0.0002850145101547241,-0.24300581216812134,0.39486294984817505,-0.21293599903583527,33.06475830078125,-35.11929702758789,3.2868404388427734,-0.7373265027999878,-0.5910282135009766,0.34291476011276245,-0.034291259944438934,8.695842742919922,-0.343199759721756
9_20251106_211008,1762434574207,9,0.42732346057891846,0.5082154870033264,0.5032868385314941,0.5530045628547668,0.7521648406982422,3.0617949962615967,1.1164259910583496,-0.8997020125389099,7.578112602233887,0.3241153657436371,-0.15992820262908936,0.11753036826848984,-0.0675501823425293,33.10396194458008,-35.04372787475586,3.506155014038086,-0.6923286318778992,-0.8941841125488281,0.5338521003723145,-0.20737339556217194,8.472296714782715,-0.20973676443099976
9_20251106_211008,1762434574225,9,0.4282573461532593,0.506454586982727,0.5033718943595886,0.5538196563720703,0.7221716642379761,3.05267071723938,1.0916175842285156,-0.9978600740432739,7.497910499572754,0.017670724540948868,-0.15992820262908936,0.11753036826848984,-0.0675501823425293,33.15838623046875,-34.90525436401367,3.794862747192383,-0.6323893666267395,-0.7795085906982422,0.18192599713802338,-0.3654707074165344,8.277419090270996,-0.1642552763223648
9_20251106_211008,1762434574244,9,0.4282413125038147,0.5062407851219177,0.5031062364578247,0.5542686581611633,0.6925079822540283,3.0424716472625732,1.0672383308410645,-0.7919676303863525,7.719364166259766,-0.4599519968032837,-0.019429314881563187,0.0026878048665821552,0.22871918976306915,33.176841735839844,-34.76835250854492,4.001001358032227,-0.34119755029678345,-0.4464435577392578,-0.23655737936496735,-0.4507700800895691,8.165807723999023,-0.22339461743831635
9_20251106_211008,1762434574264,9,0.4274594783782959,0.5070245265960693,0.5020920634269714,0.5550748705863953,0.6621636748313904,3.030715227127075,1.0422563552856445,-0.6746567487716675,7.653526306152344,-0.4216463565826416,-0.11533508449792862,-0.06267472356557846,0.3038555681705475,33.23978805541992,-34.72684860229492,4.01776123046875,-0.1791093349456787,-0.40982532501220703,-0.15860140323638916,-0.49554741382598877,8.06335163116455,-0.26304495334625244
9_20251106_211008,1762434574283,9,0.4270244538784027,0.5082367658615112,0.4999406635761261,0.5562416911125183,0.6621636748313904,3.030715227127075,1.0422563552856445,-0.6746567487716675,7.653526306152344,-0.4216463565826416,-0.28759893774986267,-0.06145298853516579,0.3631094694137573,33.24331283569336,-34.664066314697266,4.019081115722656,-0.1791093349456787,-0.40982532501220703,-0.15860140323638916,-0.49554741382598877,8.06335163116455,-0.26304495334625244
9_20251106_211008,1762434574302,9,0.4271574020385742,0.5090855956077576,0.49651339650154114,0.558428943157196,0.6078341603279114,3.009345054626465,1.003791093826294,-0.3909560441970825,8.19219970703125,0.9824925065040588,-0.4720800817012787,0.07232638448476791,0.45351746678352356,33.15660095214844,-34.69473648071289,4.015119552612305,0.1182679533958435,0.13321781158447266,0.9189557433128357,-0.509223997592926,8.058981895446777,0.06353676319122314
9_20251106_211008,1762434574321,9,0.42702996730804443,0.5086919069290161,0.49224212765693665,0.5626505613327026,0.6078341603279114,3.009345054626465,1.003791093826294,-0.3909560441970825,8.19219970703125,0.9824925065040588,-0.5380534529685974,0.21465785801410675,0.5518666505813599,32.95466232299805,-34.8444938659668,3.896238327026367,0.1182679533958435,0.13321781158447266,0.9189557433128357,-0.509223997592926,8.058981895446777,0.06353676319122314
9_20251106_211008,1762434574340,9,0.4259451627731323,0.5075470805168152,0.4876841604709625,0.5684459805488586,0.5674039721488953,2.9942572116851807,0.9773027896881104,0.9796654582023621,8.706930160522461,0.4713524580001831,-0.47879958152770996,0.1346345841884613,0.5439253449440002,32.674686431884766,-35.0753059387207,3.8674449920654297,1.0496108531951904,0.4508857727050781,0.19454187154769897,-0.06994542479515076,8.256044387817383,0.27681058645248413
9_20251106_211008,1762434574360,9,0.4249025881290436,0.5071575045585632,0.48303505778312683,0.573520839214325,0.5536620020866394,2.9876880645751953,0.966354250907898,1.095779299736023,8.129952430725098,0.630560040473938,-0.38594815135002136,-0.01136208325624466,0.39731788635253906,32.3603515625,-35.28230667114258,3.7295780181884766,0.932579755783081,-0.10087299346923828,0.28299957513809204,0.1631995141506195,8.230825424194336,0.34756046533584595
9_20251106_211008,1762434574380,9,0.4247390925884247,0.5073656439781189,0.47899991273880005,0.57683265209198,0.5419471859931946,2.978370428085327,0.9564515948295593,0.8300343155860901,7.3267316818237305,0.6916095018386841,-0.3590700924396515,0.07110465317964554,0.2305517941713333,32.0810546875,-35.52378463745117,3.511293411254883,0.5334678888320923,-0.7232751846313477,0.2752392292022705,0.2965664565563202,8.050006866455078,0.4163702726364136
9_20251106_211008,1762434574398,9,0.42505133152008057,0.5065313577651978,0.4761309325695038,0.5797039866447449,0.5419471859931946,2.978370428085327,0.9564515948295593,0.8300343155860901,7.3267316818237305,0.6916095018386841,-0.40671756863594055,0.366763174533844,0.20245200395584106,32.0810546875,-35.52378463745117,3.511293411254883,0.5334678888320923,-0.7232751846313477,0.2752392292022705,0.2965664565563202,8.050006866455078,0.4163702726364136
9_20251106_211008,1762434574416,9,0.4243914484977722,0.5036819577217102,0.47436287999153137,0.5841029286384583,0.5319814682006836,2.964060068130493,0.9447840452194214,0.8096844553947449,6.55343770980835,-0.1175958588719368,-0.5563793778419495,0.5054294466972351,0.3686072528362274,31.815662384033203,-35.72733688354492,3.348356246948242,0.4104943871498108,-1.1972556114196777,-0.4271729290485382,0.3991900682449341,7.750693321228027,0.309577077627182
9_20251106_211008,1762434574436,9,0.422811895608902,0.5003343224525452,0.4715673327445984,0.5903557538986206,0.5259745717048645,2.932109832763672,0.9145445227622986,2.565755844116211,6.743768692016602,-2.034071922302246,-0.8056122064590454,0.17372992634773254,0.5848533511161804,31.475643157958984,-35.96090316772461,3.195465087890625,1.558211088180542,-0.5170660018920898,-1.607765555381775,1.007544755935669,7.260834693908691,-0.4263063371181488
9_20251106_211008,1762434574455,9,0.42265793681144714,0.49923527240753174,0.46483534574508667,0.5967013835906982,0.5320473313331604,2.915245294570923,0.8945050835609436,3.2205419540405273,7.543397903442383,-0.9052543640136719,-0.8056122064590454,0.17372992634773254,0.5848533511161804,31.123130798339844,-36.207279205322266,2.9877548217773438,1.7703977823257446,0.22605085372924805,-0.38315844535827637,1.4501441717147827,7.317347049713135,-0.5220959186553955
9_20251106_211008,1762434574474,9,0.42559921741485596,0.5000337958335876,0.4552200436592102,0.6013370156288147,0.5422933101654053,2.9007108211517334,0.8795391917228699,3.1870245933532715,7.567338943481445,0.6149983406066895,-1.0542341470718384,-0.3021336793899536,0.2714797556400299,30.748249053955078,-36.429325103759766,2.6984939575195312,1.3895044326782227,0.19999361038208008,0.9096754193305969,1.7975201606750488,7.367345333099365,-0.29467707872390747
9_20251106_211008,1762434574494,9,0.4302713871002197,0.4992751181125641,0.44638970494270325,0.6052496433258057,0.556739091873169,2.886561870574951,0.8690325617790222,3.5150160789489746,7.24293851852417,1.0579066276550293,-1.0291887521743774,0.03384190797805786,0.059509679675102234,30.497032165527344,-36.61777877807617,2.3605995178222656,1.3739967346191406,-0.09952592849731445,1.0820670127868652,2.141019344329834,7.342464447021484,-0.024160340428352356
9_20251106_211008,1762434574513,9,0.43451032042503357,0.495357871055603,0.44006475806236267,0.610052764415741,0.577068567276001,2.871164083480835,0.8608328700065613,4.076432228088379,6.931705474853516,0.7347033023834229,-1.0291887521743774,0.03384190797805786,0.059509679675102234,30.285873413085938,-36.764286041259766,1.8357410430908203,1.548330307006836,-0.32860708236694336,0.607090950012207,2.528101921081543,7.260312557220459,0.1276123821735382
9_20251106_211008,1762434574532,9,0.4382033050060272,0.48973068594932556,0.4354190230369568,0.6152657866477966,0.6009414792060852,2.8568947315216064,0.8539454936981201,4.542084217071533,7.1244306564331055,0.31453898549079895,-1.0450712442398071,0.17434078454971313,-0.16101248562335968,30.089828491210938,-36.848026275634766,1.393789291381836,1.6111857891082764,-0.10870552062988281,0.14954128861427307,2.930898427963257,7.233136177062988,0.16499769687652588
9_20251106_211008,1762434574550,9,0.4430363178253174,0.48411062359809875,0.43034934997558594,0.6198025345802307,0.6254069805145264,2.8440322875976562,0.8492676019668579,4.141073226928711,7.224983215332031,0.7825852632522583,-1.0450712442398071,0.17434078454971313,-0.16101248562335968,29.873729705810547,-36.86948776245117,0.8440475463867188,0.9681398868560791,-0.006522178649902344,0.49407005310058594,3.172933340072632,7.231505393981934,0.28851521015167236
9_20251106_211008,1762434574571,9,0.4511219561100006,0.47954848408699036,0.42338401079177856,0.6223087906837463,0.6254069805145264,2.8440322875976562,0.8492676019668579,4.141073226928711,7.224983215332031,0.7825852632522583,-1.3431731462478638,-0.41880887746810913,-0.45056232810020447,29.672225952148438,-36.85207748413086,0.2550392150878906,0.9681398868560791,-0.006522178649902344,0.49407005310058594,3.172933340072632,7.231505393981934,0.28851521015167236
9_20251106_211008,1762434574589,9,0.4613300561904907,0.4749252200126648,0.4152478277683258,0.6238508224487305,0.6717758774757385,2.816030979156494,0.8594167828559875,2.031871795654297,6.906567573547363,3.4268674850463867,-1.382879376411438,-0.2459341436624527,-0.5360834002494812,29.69397735595703,-36.76865768432617,-0.4727649688720703,-0.9024629592895508,-0.22251605987548828,2.1692373752593994,2.9343347549438477,7.129083633422852,1.2576301097869873
9_20251106_211008,1762434574608,9,0.47136613726615906,0.4680873155593872,0.40815335512161255,0.6261941194534302,0.6717758774757385,2.816030979156494,0.8594167828559875,2.031871795654297,6.906567573547363,3.4268674850463867,-1.553310751914978,0.2641378939151764,-0.5421921014785767,29.774627685546875,-36.51747512817383,-1.3303394317626953,-0.9024629592895508,-0.22251605987548828,2.1692373752593994,2.9343347549438477,7.129083633422852,1.2576301097869873
9_20251106_211008,1762434574627,9,0.4802796542644501,0.4570351541042328,0.4023214280605316,0.6313380599021912,0.6962192058563232,2.7903456687927246,0.8901720643043518,1.1472523212432861,7.008316516876221,3.126408100128174,-1.8727929592132568,0.697240948677063,-0.3564891815185547,30.00271987915039,-36.23191452026367,-2.154468536376953,-1.1638431549072266,-0.07250308990478516,1.145837664604187,2.3110954761505127,7.080819606781006,1.9805704355239868
9_20251106_211008,1762434574646,9,0.48778462409973145,0.4424748122692108,0.39568063616752625,0.6400929689407349,0.6962192058563232,2.7903456687927246,0.8901720643043518,1.1472523212432861,7.008316516876221,3.126408100128174,-2.1959400177001953,0.6007243394851685,0.0063644456677138805,30.122943878173828,-35.927852630615234,-3.036548614501953,-1.1638431549072266,-0.07250308990478516,1.145837664604187,2.3110954761505127,7.080819606781006,1.9805704355239868
9_20251106_211008,1762434574665,9,0.4945932626724243,0.428303599357605,0.3849603831768036,0.6509523987770081,0.713671088218689,2.7703957557678223,0.938933789730072,2.7489044666290283,7.8809661865234375,4.724468231201172,-2.303452253341675,0.09248492121696472,0.37654849886894226,30.346691131591797,-35.51643753051758,-3.9666576385498047,0.4393575191497803,0.5615081787109375,1.9361307621002197,2.309546947479248,7.3194580078125,2.788337469100952
9_20251106_211008,1762434574683,9,0.5011264681816101,0.4180471897125244,0.3693934679031372,0.6615567207336426,0.7256139516830444,2.765211820602417,0.9705839157104492,3.8501899242401123,8.301130294799805,5.931094169616699,-2.303452253341675,0.09248492121696472,0.37654849886894226,30.507278442382812,-35.15841293334961,-4.981372833251953,1.2325143814086914,0.7853379249572754,2.5142054557800293,2.617675542831421,7.515792369842529,3.41688871383667
9_20251106_211008,1762434574703,9,0.5071840286254883,0.41229161620140076,0.3511524498462677,0.6704267263412476,0.7429242134094238,2.7650420665740967,1.0135060548782349,4.165013790130615,9.259967803955078,6.546378135681152,-1.9424315690994263,-0.5660272836685181,0.4834498465061188,30.656387329101562,-34.78862380981445,-5.996315002441406,1.237870693206787,1.3953404426574707,2.503591537475586,2.927143096923828,7.864627361297607,4.042786598205566
9_20251106_211008,1762434574722,9,0.5132430195808411,0.4079732298851013,0.33362773060798645,0.6773713827133179,0.7600414156913757,2.7698371410369873,1.0597032308578491,3.4719223976135254,9.668161392211914,6.761846542358398,-1.8703495264053345,-0.37238311767578125,0.1688544601202011,30.778377532958984,-34.49374771118164,-7.216565132141113,0.4358234405517578,1.4428272247314453,2.175248146057129,3.0360989570617676,8.225334167480469,4.5865983963012695
9_20251106_211008,1762434574741,9,0.5202447175979614,0.4016568660736084,0.3186550438404083,0.6829906105995178,0.7760961055755615,2.776761531829834,1.1098705530166626,2.960782051086426,9.088788986206055,6.875566482543945,-1.9369337558746338,0.04056141898036003,-0.06021980568766594,30.74878692626953,-34.09550857543945,-8.508397102355957,-0.06025362014770508,0.6907634735107422,1.831174373626709,3.021035671234131,8.398025512695312,5.044392108917236
9_20251106_211008,1762434574760,9,0.5276577472686768,0.39145347476005554,0.306234747171402,0.688884437084198,0.7909364104270935,2.783520460128784,1.1616339683532715,2.8710036277770996,8.463930130004883,6.540392875671387,-1.9369337558746338,0.04056141898036003,-0.06021980568766594,30.65414810180664,-33.764835357666016,-9.72290325164795,-0.120025634765625,0.05272388458251953,1.1968002319335938,2.9910292625427246,8.411206245422363,5.343592643737793
9_20251106_211008,1762434574780,9,0.5345003604888916,0.37928664684295654,0.29437336325645447,0.6955539584159851,0.8043572902679443,2.7895967960357666,1.214729905128479,2.7441163063049316,8.285569190979004,6.77262020111084,-1.9686987400054932,0.0576656274497509,0.144419863820076,30.52808380126953,-33.3483772277832,-10.964065551757812,-0.19753026962280273,-0.1005096435546875,1.1432218551635742,2.9416465759277344,8.386078834533691,5.629398345947266
9_20251106_211008,1762434574798,9,0.5402754545211792,0.36916908621788025,0.2809237837791443,0.7020672559738159,0.8164929151535034,2.7958948612213135,1.2704062461853027,2.7177813053131104,8.57765007019043,7.537534713745117,-1.800710916519165,-0.3119075298309326,0.39853963255882263,30.52808380126953,-33.3483772277832,-10.964065551757812,-0.1790921688079834,0.1532573699951172,1.5265092849731445,2.8968734741210938,8.424392700195312,6.011025428771973
9_20251106_211008,1762434574819,9,0.5445497035980225,0.36292222142219543,0.2657599449157715,0.707901656627655,0.8293130993843079,2.803579092025757,1.3355512619018555,2.9200825691223145,8.744039535522461,8.00558090209961,-1.4934459924697876,-0.42858269810676575,0.5830207467079163,30.1048583984375,-32.52724838256836,-13.385675430297852,0.01856708526611328,0.25571727752685547,1.595644474029541,2.901515483856201,8.488322257995605,6.409936428070068
9_20251106_211008,1762434574838,9,0.5466330647468567,0.35933762788772583,0.25142019987106323,0.7133418917655945,0.8420746922492981,2.8108625411987305,1.3952397108078003,3.536562919616699,8.735660552978516,7.756594657897949,-1.2613173723220825,-0.27953168749809265,0.6575462222099304,30.1048583984375,-32.52724838256836,-13.385675430297852,0.508037805557251,0.19787025451660156,1.077326774597168,3.0285251140594482,8.537790298461914,6.679267883300781
9_20251106_211008,1762434574856,9,0.5470349192619324,0.3560831546783447,0.2390945851802826,0.7188820242881775,0.8566386103630066,2.818282127380371,1.451340913772583,4.278733253479004,8.88888168334961,7.646466255187988,-1.2924714088439941,-0.12192859500646591,0.5787447094917297,29.80728530883789,-32.13473892211914,-14.606935501098633,1.000166416168213,0.28087329864501953,0.7737588882446289,3.278566837310791,8.60800838470459,6.872707366943359
9_20251106_211008,1762434574876,9,0.5476604700088501,0.3515440821647644,0.22754310071468353,0.7243679761886597,0.8566386103630066,2.818282127380371,1.451340913772583,4.278733253479004,8.88888168334961,7.646466255187988,-1.46107017993927,-0.021746782585978508,0.3032447099685669,29.542354583740234,-31.803165435791016,-15.773978233337402,1.000166416168213,0.28087329864501953,0.7737588882446289,3.278566837310791,8.60800838470459,6.872707366943359
9_20251106_211008,1762434574895,9,0.5503705143928528,0.3449643552303314,0.21620264649391174,0.7289364337921143,0.8957353234291077,2.8363521099090576,1.5726789236068726,4.188954830169678,8.951128005981445,8.329980850219727,-1.5209349393844604,-0.036407534033060074,-0.02784397453069687,29.254371643066406,-31.436588287353516,-16.833080291748047,0.5115911960601807,0.20848751068115234,1.0243964195251465,3.677363634109497,8.742640495300293,7.30558443069458
9_20251106_211008,1762434574914,9,0.5554675459861755,0.33752700686454773,0.20542582869529724,0.7316635251045227,0.9133852124214172,2.844524621963501,1.6336256265640259,3.3797495365142822,8.627925872802734,8.979978561401367,-1.5209349393844604,-0.036407534033060074,-0.02784397453069687,28.983440399169922,-30.95822525024414,-17.686573028564453,-0.23809123039245605,-0.09177207946777344,1.339515209197998,3.6178407669067383,8.719697952270508,7.640463352203369
9_20251106_211008,1762434574933,9,0.5617163181304932,0.33012914657592773,0.19624635577201843,0.7327870726585388,0.9279196858406067,2.849839687347412,1.6959915161132812,2.803968906402588,7.827098846435547,9.268468856811523,-1.173352837562561,0.03811796009540558,-0.27707675099372864,28.698699951171875,-30.517658233642578,-18.608928680419922,-0.651097297668457,-0.7140789031982422,1.3024044036865234,3.455066204071045,8.541177749633789,7.966064453125
9_20251106_211008,1762434574952,9,0.5672944784164429,0.32311883568763733,0.1891385316848755,0.7334833145141602,0.9389258027076721,2.8521013259887695,1.7546322345733643,2.612441062927246,7.517063140869141,8.985963821411133,-1.0065867900848389,0.13891063630580902,-0.15307125449180603,28.425552368164062,-30.077106475830078,-19.449695587158203,-0.6741001605987549,-0.8192920684814453,0.8159189224243164,3.286541223526001,8.336355209350586,8.170044898986816
9_20251106_211008,1762434574970,9,0.5710262060165405,0.31625813245773315,0.1834351122379303,0.7350247502326965,0.9389258027076721,2.8521013259887695,1.7546322345733643,2.612441062927246,7.517063140869141,8.985963821411133,-0.9064049124717712,0.11081086099147797,-0.04250473156571388,28.187862396240234,-29.647266387939453,-20.235191345214844,-0.6741001605987549,-0.8192920684814453,0.8159189224243164,3.286541223526001,8.336355209350586,8.170044898986816
9_20251106_211008,1762434574990,9,0.573676586151123,0.31032806634902954,0.17796136438846588,0.7368320226669312,0.9498920440673828,2.85154128074646,1.8215298652648926,2.9188857078552246,7.421298980712891,8.738174438476562,-0.8801377415657043,-0.029077159240841866,-0.005241983104497194,28.02743148803711,-29.125835418701172,-20.907764434814453,-0.2941246032714844,-0.7320451736450195,0.45450401306152344,3.213010311126709,8.15334415435791,8.283670425415039
9_20251106_211008,1762434575013,9,0.5761709809303284,0.30568400025367737,0.17175497114658356,0.7382983565330505,0.9719021320343018,2.8396313190460205,1.9515228271484375,3.669435501098633,6.668354511260986,9.713769912719727,-0.8990744948387146,-0.1634674072265625,-0.07549142837524414,27.953330993652344,-28.56265640258789,-21.42743682861328,0.345548152923584,-1.0126404762268066,1.0167732238769531,3.323887348175049,7.680994987487793,8.696996688842773
9_20251106_211008,1762434575032,9,0.5794562101364136,0.30178335309028625,0.16471756994724274,0.7389353513717651,0.9719021320343018,2.8396313190460205,1.9515228271484375,3.669435501098633,6.668354511260986,9.713769912719727,-0.9693239331245422,-0.1329241693019867,-0.2642486095428467,27.884063720703125,-27.91171646118164,-21.931743621826172,0.345548152923584,-1.0126404762268066,1.0167732238769531,3.323887348175049,7.680994987487793,8.696996688842773
9_20251106_211008,1762434575047,9,0.5840549468994141,0.2968975305557251,0.15780174732208252,0.7388032674789429,0.9912592768669128,2.8211052417755127,2.062898874282837,3.133157253265381,7.24174165725708,10.114782333374023,-0.9693239331245422,-0.1329241693019867,-0.2642486095428467,27.851356506347656,-27.25838851928711,-22.43457794189453,-0.2134261131286621,-0.16869497299194336,0.8688859939575195,3.346583366394043,7.410436630249023,9.245896339416504
9_20251106_211008,1762434575066,9,0.5899583101272583,0.28954797983169556,0.15260526537895203,0.7381211519241333,0.9987341165542603,2.8116650581359863,2.121393918991089,2.55258846282959,7.527836322784424,9.24931526184082,-0.9149569869041443,0.36431974172592163,-0.6099980473518372,27.81432342529297,-26.680538177490234,-22.92548179626465,-0.6351959705352783,0.09391975402832031,0.002735137939453125,3.187784433364868,7.4339165687561035,9.246580123901367
9_20251106_211008,1762434575085,9,0.596004843711853,0.28091904520988464,0.14997261762619019,0.7371370196342468,0.9987341165542603,2.8116650581359863,2.121393918991089,2.55258846282959,7.527836322784424,9.24931526184082,-0.7213128805160522,0.26597049832344055,-0.4591144621372223,27.901287078857422,-26.03384780883789,-23.220932006835938,-0.6351959705352783,0.09391975402832031,0.002735137939453125,3.187784433364868,7.4339165687561035,9.246580123901367
9_20251106_211008,1762434575104,9,0.6007409691810608,0.2744002938270569,0.147852823138237,0.7361754179000854,1.0041929483413696,2.801875114440918,2.1797096729278564,2.4747800827026367,7.470377445220947,8.320405960083008,-0.7213128805160522,0.26597049832344055,-0.4591144621372223,27.962966918945312,-25.413188934326172,-23.585474014282227,-0.5704035758972168,0.02916860580444336,-0.7409391403198242,3.0451836585998535,7.441208839416504,9.061345100402832
9_20251106_211008,1762434575123,9,0.6037878394126892,0.27205944061279297,0.14439506828784943,0.7352373600006104,1.0082199573516846,2.793980598449707,2.227442502975464,2.80277156829834,7.630782127380371,8.189926147460938,-0.37373086810112,-0.34611594676971436,-0.13230185210704803,28.01447296142578,-24.755786895751953,-23.93619728088379,-0.19392967224121094,0.1516585350036621,-0.6971349716186523,2.996701240539551,7.479123592376709,8.88706111907959
9_20251106_211008,1762434575143,9,0.6062182784080505,0.27251139283180237,0.1403578370809555,0.7338505387306213,1.0126901865005493,2.7877440452575684,2.270106315612793,3.3402466773986816,7.8318867683410645,8.766904830932617,-0.3627353012561798,-0.30091196298599243,-0.299678772687912,28.05984878540039,-24.199512481689453,-24.221450805664062,0.27483630180358887,0.2822108268737793,-0.09612560272216797,3.0654103755950928,7.549675941467285,8.863030433654785
9_20251106_211008,1762434575161,9,0.6097143888473511,0.272528737783432,0.1370074599981308,0.7315773963928223,1.0265511274337769,2.7779300212860107,2.3567054271698,3.7556228637695312,7.625994682312012,10.090841293334961,-0.41221532225608826,-0.08222238719463348,-0.6802474856376648,28.081558227539062,-23.632274627685547,-24.507421493530273,0.4313936233520508,0.0003876686096191406,0.9030132293701172,3.3242292404174805,7.625607013702393,9.187828063964844
9_20251106_211008,1762434575180,9,0.6156509518623352,0.2702566385269165,0.13547536730766296,0.7277236580848694,1.0329231023788452,2.7722911834716797,2.4023311138153076,2.9966936111450195,7.266879081726074,10.314689636230469,-0.44764548540115356,0.21832303702831268,-1.0828073024749756,28.178890228271484,-23.022052764892578,-24.84372329711914,-0.26202869415283203,-0.28698253631591797,0.9014892578125,3.2587223052978516,7.553861618041992,9.413200378417969
9_20251106_211008,1762434575199,9,0.6239271759986877,0.26502230763435364,0.13643261790275574,0.7224016785621643,1.0350652933120728,2.764629602432251,2.448237657546997,1.8331615924835205,6.713842391967773,10.347009658813477,-0.40121975541114807,0.43212568759918213,-1.299053430557251,28.36255645751953,-22.37009048461914,-25.027118682861328,-1.1404485702514648,-0.6720151901245117,0.7470474243164062,2.9736101627349854,7.385857582092285,9.59996223449707
9_20251106_211008,1762434575219,9,0.6332417726516724,0.2581208050251007,0.13953043520450592,0.716177225112915,1.0302907228469849,2.7530581951141357,2.4949522018432617,0.6983588933944702,6.099756240844727,9.865795135498047,-0.281490296125412,0.5164250135421753,-1.1976499557495117,28.64632797241211,-21.661808013916016,-25.178504943847656,-1.82020103931427,-1.0288810729980469,0.21266651153564453,2.5185599327087402,7.128637313842773,9.653128623962402
9_20251106_211008,1762434575241,9,0.6413431167602539,0.2512248456478119,0.14377403259277344,0.7105590105056763,1.0302907228469849,2.7530581951141357,2.4949522018432617,0.6983588933944702,6.099756240844727,9.865795135498047,-0.12266545742750168,0.35271328687667847,-0.7981444001197815,28.86977767944336,-20.945079803466797,-25.318561553955078,-1.82020103931427,-1.0288810729980469,0.21266651153564453,2.5185599327087402,7.128637313842773,9.653128623962402
9_20251106_211008,1762434575260,9,0.6466352939605713,0.24676400423049927,0.147185280919075,0.7066164612770081,1.0005061626434326,2.723066806793213,2.573894500732422,-0.10725536942481995,6.243402481079102,8.763313293457031,-0.026148825883865356,0.09553924947977066,-0.29723531007766724,29.15671157836914,-19.699687957763672,-25.88877296447754,-1.6998661756515503,-0.5284366607666016,-0.6054887771606445,1.5926108360290527,6.771839141845703,9.368802070617676
9_20251106_211008,1762434575276,9,0.6487589478492737,0.2453293651342392,0.148589089512825,0.7048735022544861,0.9819914102554321,2.7092576026916504,2.605803966522217,0.2662240266799927,6.664763450622559,9.087713241577148,0.007448731921613216,-0.046181369572877884,0.08822030574083328,29.15671157836914,-19.699687957763672,-25.88877296447754,-1.0611095428466797,-0.08566045761108398,-0.2248706817626953,1.3273335695266724,6.750423908233643,9.312583923339844
9_20251106_211008,1762434575296,9,0.648461103439331,0.24564950168132782,0.1484891176223755,0.7050570845603943,0.9610017538070679,2.6947193145751953,2.6400325298309326,0.8515812158584595,6.762921333312988,9.492316246032715,0.06914607435464859,0.007574723567813635,0.3197380602359772,29.421463012695312,-19.105892181396484,-25.97544288635254,-0.3806018829345703,0.009997844696044922,0.14378643035888672,1.2321830987930298,6.752923488616943,9.348529815673828
9_20251106_211008,1762434575314,9,0.6463384628295898,0.2463863343000412,0.14858385920524597,0.7067270874977112,0.9436629414558411,2.6826555728912354,2.669929027557373,1.478835105895996,6.901779651641846,9.604839324951172,0.23224693536758423,0.11630865186452866,0.40342655777931213,29.705154418945312,-18.599079132080078,-25.995399475097656,0.19732165336608887,0.11908483505249023,0.205047607421875,1.2815134525299072,6.7826948165893555,9.399791717529297
9_20251106_211008,1762434575334,9,0.643049418926239,0.2475590854883194,0.15014877915382385,0.708983302116394,0.9279040098190308,2.670130968093872,2.700472116470337,2.1180593967437744,6.851503372192383,9.066166877746582,0.23224693536758423,0.11630865186452866,0.40342655777931213,29.996112823486328,-18.16775894165039,-25.921833038330078,0.6692367792129517,0.05504655838012695,-0.26690006256103516,1.4488226175308228,6.796456813812256,9.333066940307617
9_20251106_211008,1762434575353,9,0.6394074559211731,0.24961329996585846,0.15345948934555054,0.7108455896377563,0.9165909290313721,2.659130573272705,2.724199056625366,2.326345920562744,6.67793083190918,8.36349868774414,0.5804398655891418,0.04483747109770775,0.24032564461231232,30.21759796142578,-17.879619598388672,-25.745492935180664,0.7020187377929688,-0.09482097625732422,-0.7756547927856445,1.6243271827697754,6.772751808166504,9.139153480529785
9_20251106_211008,1762434575372,9,0.6363685727119446,0.25338369607925415,0.1571389138698578,0.711434543132782,0.9060847759246826,2.64695405960083,2.7455761432647705,2.09651255607605,6.586955547332764,7.932560920715332,0.5938788652420044,-0.15063925087451935,0.09921588003635406,30.29888916015625,-17.712963104248047,-25.60395622253418,0.37774837017059326,-0.1486368179321289,-0.9652738571166992,1.7187641859054565,6.735592365264893,8.897834777832031
9_20251106_211008,1762434575391,9,0.6346569657325745,0.25844523310661316,0.15997403860092163,0.7105103135108948,0.9060847759246826,2.64695405960083,2.7455761432647705,2.09651255607605,6.586955547332764,7.932560920715332,0.41489550471305847,-0.15552616119384766,-0.06510673463344574,30.278564453125,-17.840808868408203,-25.45840835571289,0.37774837017059326,-0.1486368179321289,-0.9652738571166992,1.7187641859054565,6.735592365264893,8.897834777832031
9_20251106_211008,1762434575411,9,0.6344703435897827,0.2621731460094452,0.16201499104499817,0.7088467478752136,0.8866308331489563,2.6232194900512695,2.777254343032837,1.5410815477371216,6.505556106567383,8.095359802246094,0.20109283924102783,0.009407317265868187,-0.23981402814388275,30.29086685180664,-18.041210174560547,-25.353519439697266,-0.14206314086914062,-0.1516280174255371,-0.4978790283203125,1.6831446886062622,6.65718412399292,8.593238830566406
9_20251106_211008,1762434575430,9,0.6357160210609436,0.26312392950057983,0.1640954613685608,0.7068971395492554,0.8769515156745911,2.611426591873169,2.789853572845459,1.4345442056655884,6.346348285675049,8.297660827636719,0.06487002223730087,0.19388845562934875,-0.3815346360206604,30.22864532470703,-18.271495819091797,-25.25210189819336,-0.19888043403625488,-0.24866867065429688,-0.23646259307861328,1.6334246397018433,6.595016956329346,8.534123420715332
9_20251106_211008,1762434575450,9,0.6379753351211548,0.2617422342300415,0.16673071682453156,0.7047548294067383,0.8663110136985779,2.597844362258911,2.8021161556243896,1.3172334432601929,6.006386756896973,8.423351287841797,0.02027689293026924,0.2531423270702362,-0.41635391116142273,30.180835723876953,-18.45156478881836,-25.068042755126953,-0.2529529333114624,-0.4709043502807617,-0.08861732482910156,1.5701863765716553,6.477291107177734,8.511968612670898
9_20251106_211008,1762434575467,9,0.6404455900192261,0.2595732510089874,0.1694868803024292,0.7026559114456177,0.8563718199729919,2.5849273204803467,2.8119890689849854,0.9569215774536133,5.589813232421875,8.498764991760254,0.1308434009552002,0.01490510068833828,-0.31311777234077454,30.258914947509766,-18.54861831665039,-24.850460052490234,-0.4906119108200073,-0.7099819183349609,-0.010562896728515625,1.4475334882736206,6.299795150756836,8.50932788848877
9_20251106_211008,1762434575487,9,0.6422712802886963,0.25975167751312256,0.17124076187610626,0.7004950046539307,0.8428584337234497,2.567964792251587,2.8236937522888184,0.6564621329307556,5.468911170959473,8.729795455932617,0.3379265367984772,-0.23371686041355133,-0.1292475312948227,30.30263900756836,-18.62186050415039,-24.74195098876953,-0.6328571438789368,-0.6647071838378906,0.1763744354248047,1.2893192768096924,6.133618354797363,8.553421020507812
9_20251106_211008,1762434575506,9,0.6427338719367981,0.26301470398902893,0.1724010556936264,0.6985659003257751,0.8428584337234497,2.567964792251587,2.8236937522888184,0.6564621329307556,5.468911170959473,8.729795455932617,0.3379265367984772,-0.23371686041355133,-0.1292475312948227,30.301738739013672,-18.634685516357422,-24.71518325805664,-0.6328571438789368,-0.6647071838378906,0.1763744354248047,1.2893192768096924,6.133618354797363,8.553421020507812
9_20251106_211008,1762434575524,9,0.6417407989501953,0.2665785253047943,0.174368217587471,0.6976391077041626,0.8151425123214722,2.534041404724121,2.8407859802246094,0.7965168952941895,5.507216930389404,7.599781036376953,0.44666048884391785,-0.1579696238040924,0.02835557609796524,30.461566925048828,-18.599246978759766,-24.70827865600586,-0.2857067584991455,-0.392852783203125,-0.7340564727783203,1.082223653793335,5.900069713592529,8.333837509155273
9_20251106_211008,1762434575544,9,0.6400843858718872,0.2692244350910187,0.1769503951072693,0.6974945664405823,0.8004923462867737,2.5156240463256836,2.8446927070617676,0.9748772978782654,5.632906913757324,7.221513748168945,0.4332214295864105,-0.006475165020674467,0.10837884992361069,30.53661346435547,-18.545467376708984,-24.58263397216797,-0.08587712049484253,-0.2137303352355957,-0.8898591995239258,1.060754418373108,5.84663724899292,8.111372947692871
9_20251106_211008,1762434575563,9,0.6385990381240845,0.2709667980670929,0.17896176874637604,0.697668194770813,0.787596583366394,2.4987871646881104,2.84718918800354,1.1795727014541626,5.768173694610596,7.736245155334473,0.3104376494884491,0.04056141898036003,0.1230396032333374,30.546188354492188,-18.583019256591797,-24.51535415649414,0.09505462646484375,-0.06277084350585938,-0.30010223388671875,1.0845180749893188,5.830944538116455,8.036347389221191
9_20251106_211008,1762434575581,9,0.6377987265586853,0.2718278765678406,0.17994751036167145,0.6978117823600769,0.787596583366394,2.4987871646881104,2.84718918800354,1.1795727014541626,5.768173694610596,7.736245155334473,0.11923696845769882,0.06010909005999565,0.005142717156559229,30.594440460205078,-18.580516815185547,-24.445812225341797,0.09505462646484375,-0.06277084350585938,-0.30010223388671875,1.0845180749893188,5.830944538116455,8.036347389221191
9_20251106_211008,1762434575601,9,0.6374555230140686,0.2721213400363922,0.18109130859375,0.6977151036262512,0.7653111219406128,2.465343475341797,2.851431369781494,1.2525928020477295,5.51200532913208,7.762579917907715,0.11923696845769882,0.06010909005999565,0.005142717156559229,30.699996948242188,-18.636959075927734,-24.36161994934082,0.0964592695236206,-0.21082448959350586,-0.22788190841674805,1.1561335325241089,5.722829818725586,7.990461826324463
9_20251106_211008,1762434575620,9,0.6370382905006409,0.2731112539768219,0.18230247497558594,0.6973938941955566,0.7557742595672607,2.4495084285736084,2.852473020553589,1.375888705253601,5.713109493255615,7.793703079223633,0.19070813059806824,-0.0913853570818901,0.05340103060007095,30.67874526977539,-18.800861358642578,-24.379058837890625,0.17580413818359375,-0.0077762603759765625,-0.15740728378295898,1.2000845670700073,5.720885753631592,7.951110363006592
9_20251106_211008,1762434575640,9,0.6364209651947021,0.2748890519142151,0.18282662332057953,0.697121798992157,0.7557742595672607,2.4495084285736084,2.852473020553589,1.375888705253601,5.713109493255615,7.793703079223633,0.19070813059806824,-0.0913853570818901,0.05340103060007095,30.646930694580078,-18.92856216430664,-24.32861328125,0.17580413818359375,-0.0077762603759765625,-0.15740728378295898,1.2000845670700073,5.720885753631592,7.951110363006592
9_20251106_211008,1762434575661,9,0.6360224485397339,0.2763791084289551,0.18303942680358887,0.6968404054641724,0.7408468723297119,2.421914577484131,2.8557863235473633,1.6823334693908691,6.2098846435546875,8.285690307617188,0.09174806624650955,-0.013194679282605648,-0.054722025990486145,30.625396728515625,-19.081256866455078,-24.21062469482422,0.32702600955963135,0.35203123092651367,0.2532024383544922,1.3553074598312378,5.857853412628174,8.032487869262695
9_20251106_211008,1762434575679,9,0.6362404227256775,0.2769095301628113,0.1836438775062561,0.6962716579437256,0.7348015904426575,2.4103097915649414,2.859001398086548,1.5003819465637207,6.133274078369141,8.424548149108887,0.10824141651391983,0.058276496827602386,-0.18789054453372955,30.54181671142578,-19.262630462646484,-24.136165618896484,0.11605954170227051,0.2203369140625,0.3136482238769531,1.3843224048614502,5.912937164306641,8.110899925231934
9_20251106_211008,1762434575697,9,0.6371693015098572,0.27684980630874634,0.18513059616088867,0.6950511932373047,0.7293257117271423,2.401054620742798,2.861737012863159,1.1137349605560303,5.965686798095703,8.174365043640137,0.14489328861236572,0.1444084197282791,-0.24531181156635284,30.54181671142578,-19.262630462646484,-24.136165618896484,-0.21647000312805176,0.04219961166381836,0.050772666931152344,1.330204963684082,5.923487186431885,8.123592376708984
9_20251106_211008,1762434575716,9,0.6381979584693909,0.27627459168434143,0.18754731118679047,0.6936870217323303,0.7217869758605957,2.3902275562286377,2.8638534545898438,0.863551676273346,5.764582633972168,7.814053535461426,0.1412280946969986,0.17189733684062958,-0.17261894047260284,30.563270568847656,-19.311405181884766,-24.122724533081055,-0.37332266569137573,-0.12712383270263672,-0.24763107299804688,1.2368743419647217,5.891706466674805,8.061684608459473
9_20251106_211008,1762434575734,9,0.6387633681297302,0.27558663487434387,0.1899453103542328,0.692787230014801,0.7217869758605957,2.3902275562286377,2.8638534545898438,0.863551676273346,5.764582633972168,7.814053535461426,0.11923696845769882,0.11203259229660034,-0.0009659291245043278,30.647682189941406,-19.307056427001953,-23.997644424438477,-0.37332266569137573,-0.12712383270263672,-0.24763107299804688,1.2368743419647217,5.891706466674805,8.061684608459473
9_20251106_211008,1762434575755,9,0.6383275389671326,0.2754404544830322,0.19143110513687134,0.6928381323814392,0.7046999335289001,2.368837833404541,2.861345052719116,0.8084874153137207,5.676000595092773,7.098217964172363,0.11923696845769882,0.11203259229660034,-0.0009659291245043278,30.69403076171875,-19.330341339111328,-23.861047744750977,-0.2728269100189209,-0.13498735427856445,-0.6579885482788086,1.0813143253326416,5.810987949371338,7.756206512451172
9_20251106_211008,1762434575775,9,0.6369209885597229,0.27622053027153015,0.19155025482177734,0.6937884092330933,0.6960372924804688,2.358776092529297,2.8567395210266113,1.0598677396774292,5.919001579284668,7.02280330657959,0.08808287233114243,0.0032986695878207684,0.19389991462230682,30.69302749633789,-19.343303680419922,-23.820762634277344,-0.01715719699859619,0.0864109992980957,-0.5867223739624023,1.0770249366760254,5.832590579986572,7.609525680541992
9_20251106_211008,1762434575792,9,0.634872555732727,0.276883065700531,0.1905590146780014,0.6956722736358643,0.6960372924804688,2.358776092529297,2.8567395210266113,1.0598677396774292,5.919001579284668,7.02280330657959,-0.1416022628545761,0.016737693920731544,0.3704398572444916,30.694252014160156,-19.306842803955078,-23.69832420349121,-0.01715719699859619,0.0864109992980957,-0.5867223739624023,1.0770249366760254,5.832590579986572,7.609525680541992
9_20251106_211008,1762434575811,9,0.632794976234436,0.27659252285957336,0.18882058560848236,0.6981502771377563,0.6842936873435974,2.344385862350464,2.8464856147766113,1.6895157098770142,6.342757225036621,7.488455772399902,-0.24911445379257202,0.05705476552248001,0.27331236004829407,30.715312957763672,-19.356151580810547,-23.630817413330078,0.4425574541091919,0.3636631965637207,-0.017536640167236328,1.2469582557678223,5.9790940284729,7.505992412567139
9_20251106_211008,1762434575832,9,0.6316899657249451,0.27530986070632935,0.18678639829158783,0.700202226638794,0.6808637976646423,2.3393733501434326,2.8425276279449463,1.8307676315307617,6.501965045928955,7.896649360656738,-0.31386610865592957,0.1291368007659912,0.09127463400363922,30.773632049560547,-19.390522003173828,-23.56157684326172,0.46704745292663574,0.41829681396484375,0.31252574920654297,1.363720178604126,6.083668231964111,7.584123611450195
9_20251106_211008,1762434575850,9,0.6317815184593201,0.27285951375961304,0.18520615994930267,0.7014973163604736,0.6780604124069214,2.335203170776367,2.840374708175659,1.5698107481002808,6.360713005065918,8.177955627441406,-0.31508782505989075,0.2177121788263321,-0.11092159152030945,30.746749877929688,-19.43032455444336,-23.50928497314453,0.16487252712249756,0.2216358184814453,0.4750657081604004,1.4049382209777832,6.139077186584473,7.702889919281006
9_20251106_211008,1762434575869,9,0.6330518126487732,0.26945433020591736,0.1846514344215393,0.7018145322799683,0.6751353740692139,2.331177234649658,2.8395676612854004,1.260972023010254,6.043495178222656,8.116907119750977,-0.31508782505989075,0.2177121788263321,-0.11092159152030945,30.755115509033203,-19.492717742919922,-23.46956443786621,-0.11517298221588135,-0.07646560668945312,0.33121395111083984,1.3761450052261353,6.119960784912109,7.785693168640137
9_20251106_211008,1762434575889,9,0.6347792744636536,0.26569265127182007,0.18493948876857758,0.7016124725341797,0.6710050702095032,2.3263330459594727,2.8396475315093994,0.9796654582023621,5.850769996643066,8.077404022216797,-0.2753816246986389,0.264748752117157,-0.21537946164608002,30.693073272705078,-19.52139663696289,-23.513093948364258,-0.3171836733818054,-0.21535301208496094,0.2333688735961914,1.2968491315841675,6.066123008728027,7.8440351486206055
9_20251106_211008,1762434575909,9,0.6364098191261292,0.2626938819885254,0.18503934144973755,0.7012381553649902,0.6656257510185242,2.3201847076416016,2.841029644012451,0.8180637955665588,5.557493209838867,8.273719787597656,-0.1623716652393341,0.10775654017925262,-0.07976748049259186,30.743328094482422,-19.492969512939453,-23.524120330810547,-0.38302820920944214,-0.4069042205810547,0.3437480926513672,1.201092004776001,5.964397430419922,7.929971694946289
9_20251106_211008,1762434575926,9,0.6372256278991699,0.2607775628566742,0.18482591211795807,0.7012687921524048,0.660661518573761,2.31437611579895,2.842832326889038,0.9186159372329712,5.580236911773682,8.242596626281738,-0.06280071288347244,0.08026763051748276,0.059509675949811935,30.804664611816406,-19.476848602294922,-23.480854034423828,-0.22598087787628174,-0.3073287010192871,0.25010013580322266,1.144596815109253,5.887565612792969,7.992496490478516
9_20251106_211008,1762434575947,9,0.6369149684906006,0.2598116099834442,0.18473953008651733,0.7019320130348206,0.660661518573761,2.31437611579895,2.842832326889038,0.9186159372329712,5.580236911773682,8.242596626281738,0.028218135237693787,0.052167847752571106,0.14808505773544312,30.88050079345703,-19.421993255615234,-23.463340759277344,-0.22598087787628174,-0.3073287010192871,0.25010013580322266,1.144596815109253,5.887565612792969,7.992496490478516
9_20251106_211008,1762434575965,9,0.6357936263084412,0.25975772738456726,0.18487435579299927,0.7029323577880859,0.6510747671127319,2.300534963607788,2.8469185829162598,1.3734946250915527,5.599389553070068,7.966078281402588,0.08014164119958878,0.03506363555788994,0.17190878093242645,30.932571411132812,-19.356304168701172,-23.433025360107422,0.175223708152771,-0.19745683670043945,-0.03184700012207031,1.1982709169387817,5.796846389770508,7.997925281524658
9_20251106_211008,1762434575983,9,0.634445309638977,0.26026642322540283,0.18515785038471222,0.7038871645927429,0.6476079821586609,2.293036460876465,2.8481574058532715,1.4417264461517334,5.506019592285156,7.781732559204102,0.08686114847660065,0.049113526940345764,0.15663714706897736,30.95956802368164,-19.304759979248047,-23.40395736694336,0.1947643756866455,-0.23266172409057617,-0.17295408248901367,1.246962070465088,5.738681316375732,7.954686641693115
9_20251106_211008,1762434576003,9,0.6331186890602112,0.2607142925262451,0.1855846643447876,0.704802930355072,0.6446025967597961,2.285015106201172,2.8486757278442383,1.3519477844238281,5.4114532470703125,7.71469783782959,0.08686114847660065,0.049113526940345764,0.15663714706897736,31.035404205322266,-19.24990463256836,-23.386442184448242,0.08398854732513428,-0.2617826461791992,-0.19199085235595703,1.2679592370986938,5.673235893249512,7.906688690185547
9_20251106_211008,1762434576022,9,0.6319949626922607,0.2606523334980011,0.185911625623703,0.7057475447654724,0.6415650248527527,2.2759504318237305,2.8488070964813232,1.2573809623718262,5.330053329467773,7.779338836669922,0.039213698357343674,0.08087848871946335,0.13770036399364471,31.095840454101562,-19.24660873413086,-23.316408157348633,-0.008462667465209961,-0.27454614639282227,-0.10188007354736328,1.2658436298370361,5.604599475860596,7.881218910217285
9_20251106_211008,1762434576040,9,0.63089519739151,0.2596087157726288,0.1861533224582672,0.7070512771606445,0.6389058232307434,2.267341375350952,2.8486742973327637,1.2406222820281982,5.255836486816406,7.781732559204102,-0.0854027047753334,0.23176206648349762,0.1596914827823639,31.167644500732422,-19.266826629638672,-23.327510833740234,-0.020177125930786133,-0.2790107727050781,-0.0795888900756836,1.2607994079589844,5.534847259521484,7.861321449279785
9_20251106_211008,1762434576060,9,0.629638135433197,0.2577624022960663,0.18651273846626282,0.7087506055831909,0.6389058232307434,2.267341375350952,2.8486742973327637,1.2406222820281982,5.255836486816406,7.781732559204102,-0.07990492135286331,0.2781878113746643,0.1590806096792221,31.111557006835938,-19.395977020263672,-23.291563034057617,-0.020177125930786133,-0.2790107727050781,-0.0795888900756836,1.2607994079589844,5.534847259521484,7.861321449279785
9_20251106_211008,1762434576079,9,0.6283520460128784,0.2556447982788086,0.18715567886829376,0.7104873061180115,0.633059024810791,2.2460336685180664,2.846719264984131,1.1687992811203003,4.907495021820068,7.508805751800537,-0.08418097347021103,0.3557676076889038,0.14503072202205658,31.059906005859375,-19.437908172607422,-23.186185836791992,-0.06577515602111816,-0.4319586753845215,-0.2574033737182617,1.2345744371414185,5.33945369720459,7.766209125518799
9_20251106_211008,1762434576099,9,0.6269477009773254,0.2529209852218628,0.18828114867210388,0.7124028205871582,0.633059024810791,2.2460336685180664,2.846719264984131,1.1687992811203003,4.907495021820068,7.508805751800537,-0.08418097347021103,0.3557676076889038,0.14503072202205658,31.05408477783203,-19.527019500732422,-23.066387176513672,-0.06577515602111816,-0.4319586753845215,-0.2574033737182617,1.2345744371414185,5.33945369720459,7.766209125518799
9_20251106_211008,1762434576117,9,0.6258100271224976,0.24863100051879883,0.189910888671875,0.7144776582717896,0.6268412470817566,2.221144676208496,2.841181755065918,1.1173261404037476,4.640552997589111,7.351991653442383,-0.28393372893333435,0.7626035213470459,-0.019902735948562622,31.05408477783203,-19.527019500732422,-23.066387176513672,-0.07657122611999512,-0.4670238494873047,-0.27199459075927734,1.1938973665237427,5.107576847076416,7.62398624420166
9_20251106_211008,1762434576137,9,0.6252267360687256,0.24164935946464539,0.19246704876422882,0.7166963219642639,0.6268412470817566,2.221144676208496,2.841181755065918,1.1173261404037476,4.640552997589111,7.351991653442383,-0.28393372893333435,0.7626035213470459,-0.019902735948562622,31.111007690429688,-19.574893951416016,-22.902795791625977,-0.07657122611999512,-0.4670238494873047,-0.27199459075927734,1.1938973665237427,5.107576847076416,7.62398624420166
9_20251106_211008,1762434576155,9,0.6254450082778931,0.23171363770961761,0.19615307450294495,0.7187845706939697,0.6196136474609375,2.1897547245025635,2.8336148262023926,0.96170973777771,3.9438705444335938,7.476485252380371,-0.4103827178478241,1.0405470132827759,-0.18117102980613708,31.229778289794922,-19.594356536865234,-22.668643951416016,-0.1604747772216797,-0.7888236045837402,-0.07907867431640625,1.1221845149993896,4.732694149017334,7.555563926696777
9_20251106_211008,1762434576175,9,0.62632817029953,0.21936054527759552,0.20072788000106812,0.7206262946128845,0.6196136474609375,2.1897547245025635,2.8336148262023926,0.96170973777771,3.9438705444335938,7.476485252380371,-0.5637097954750061,1.3551422357559204,-0.45239493250846863,31.41411590576172,-19.522350311279297,-22.38964080810547,-0.1604747772216797,-0.7888236045837402,-0.07907867431640625,1.1221845149993896,4.732694149017334,7.555563926696777
9_20251106_211008,1762434576194,9,0.6279163956642151,0.20572592318058014,0.20563605427742004,0.7218806743621826,0.6144195199012756,2.1670892238616943,2.829092502593994,0.8408077359199524,3.5284945964813232,7.46451473236084,-0.5637097954750061,1.3551422357559204,-0.45239493250846863,31.666248321533203,-19.309459686279297,-21.9836368560791,-0.22510141134262085,-0.9633595943450928,-0.07283926010131836,1.0659091472625732,4.491854190826416,7.537353992462158
9_20251106_211008,1762434576213,9,0.6300223469734192,0.19222232699394226,0.20971786975860596,0.7225931286811829,0.6024409532546997,2.122748374938965,2.8219964504241943,0.2781945466995239,2.8521616458892822,7.608160972595215,-0.6107463240623474,1.2683994770050049,-0.5110380053520203,31.969364166259766,-19.032360076904297,-21.398639678955078,-0.5485718250274658,-1.093071699142456,0.0700230598449707,0.8267663717269897,3.9452333450317383,7.538137912750244
9_20251106_211008,1762434576231,9,0.6320814490318298,0.1803121715784073,0.2115492969751358,0.7233307957649231,0.5941604375839233,2.0979883670806885,2.81923246383667,0.04476989805698395,2.874905586242676,7.705121994018555,-0.7207019925117493,0.6660869121551514,-0.2538639008998871,32.362606048583984,-18.67354965209961,-20.889724731445312,-0.6255972385406494,-0.85626220703125,0.13358736038208008,0.6703671216964722,3.731167793273926,7.571534633636475
9_20251106_211008,1762434576251,9,0.6335579752922058,0.17061658203601837,0.2107151746749878,0.7246332764625549,0.5836199522018433,2.070974826812744,2.8171322345733643,0.0782872885465622,3.4423069953918457,7.840388298034668,-0.7817884683609009,0.28673988580703735,-0.0571654848754406,32.693702697753906,-18.343555450439453,-20.41082000732422,-0.473663866519928,-0.23108863830566406,0.21508312225341797,0.5519511699676514,3.6733956336975098,7.62530517578125
9_20251106_211008,1762434576272,9,0.6345056891441345,0.16354520618915558,0.20686177909374237,0.7265422940254211,0.5722320675849915,2.046159505844116,2.81689715385437,0.09983417391777039,3.9522500038146973,8.204291343688965,-0.8349336981773376,-0.12070686370134354,0.07783561944961548,33.0196647644043,-17.888782501220703,-19.929767608642578,-0.3616936206817627,0.22308349609375,0.46318912506103516,0.4615277945995331,3.7291665077209473,7.74110221862793
9_20251106_211008,1762434576291,9,0.6353520154953003,0.15933570265769958,0.20003663003444672,0.7286462187767029,0.5613572001457214,2.0271897315979004,2.8198351860046387,-0.0007179826498031616,4.641750335693359,9.015890121459961,-0.8502053618431091,-0.518379807472229,0.24826686084270477,33.34641647338867,-17.432933807373047,-19.55684471130371,-0.36979663372039795,0.7300670146942139,1.0198302268981934,0.369078665971756,3.9116833209991455,7.996059894561768
9_20251106_211008,1762434576309,9,0.6358233094215393,0.15819598734378815,0.19047878682613373,0.7310407757759094,0.5492197871208191,2.0112411975860596,2.8278162479400635,0.1525043398141861,5.2522454261779785,9.601247787475586,-0.7677385807037354,-0.6814807057380676,0.3991504907608032,33.53992462158203,-16.973125457763672,-19.20256996154785,-0.1732594519853592,1.0724496841430664,1.2841501235961914,0.3257637917995453,4.179795742034912,8.317097663879395
9_20251106_211008,1762434576328,9,0.635381281375885,0.15897805988788605,0.18035633862018585,0.7338175773620605,0.5379250645637512,2.001202344894409,2.8392715454101562,0.2015833705663681,5.766976356506348,9.866992950439453,-0.6791631579399109,-0.6155073046684265,0.4266394078731537,33.69071578979492,-16.640064239501953,-18.97405242919922,-0.09934432804584503,1.269744873046875,1.2399158477783203,0.30092769861221313,4.497231483459473,8.627077102661133
9_20251106_211008,1762434576347,9,0.6344529390335083,0.15993960201740265,0.1712629199028015,0.7365851998329163,0.5379250645637512,2.001202344894409,2.8392715454101562,0.2015833705663681,5.766976356506348,9.866992950439453,-0.6791631579399109,-0.6155073046684265,0.4266394078731537,33.59442138671875,-16.420238494873047,-19.068328857421875,-0.09934432804584503,1.269744873046875,1.2399158477783203,0.30092769861221313,4.497231483459473,8.627077102661133
9_20251106_211008,1762434576366,9,0.6332697868347168,0.159142404794693,0.16336917877197266,0.7395631074905396,0.5265575647354126,1.996504545211792,2.8555915355682373,0.27699747681617737,6.254175186157227,10.227304458618164,-0.7775124311447144,-0.21722351014614105,0.410146027803421,33.410186767578125,-16.26754379272461,-19.289005279541016,-0.019144177436828613,1.4055547714233398,1.280181884765625,0.296141654253006,4.848620414733887,8.947122573852539
9_20251106_211008,1762434576385,9,0.631949245929718,0.15680180490016937,0.15616033971309662,0.7427431344985962,0.5165972709655762,1.9971392154693604,2.874758720397949,0.40508174896240234,6.625260829925537,10.564872741699219,-0.6761088967323303,-0.2502101957798004,0.45535001158714294,33.159584045410156,-16.219013214111328,-19.541276931762695,0.08715206384658813,1.4213123321533203,1.2941999435424805,0.3179296851158142,5.203948497772217,9.270672798156738
9_20251106_211008,1762434576404,9,0.6301851868629456,0.1554267257452011,0.1494506150484085,0.7459045648574829,0.5016924738883972,2.010669231414795,2.9220008850097656,0.9377686977386475,7.205829620361328,11.298664093017578,-0.6761088967323303,-0.2502101957798004,0.45535001158714294,32.93606185913086,-16.130413055419922,-19.872875213623047,0.44342976808547974,1.3488130569458008,1.3630342483520508,0.4943389296531677,5.857016563415527,9.935629844665527
9_20251106_211008,1762434576422,9,0.6281251907348633,0.15655961632728577,0.1434125304222107,0.7485858201980591,0.4970455467700958,2.0229389667510986,2.949627637863159,1.0538824796676636,7.524245262145996,11.66974925994873,-0.44886723160743713,-0.4053698182106018,0.46878907084465027,32.571937561035156,-16.17544174194336,-20.280088424682617,0.44763481616973877,1.3337831497192383,1.3872957229614258,0.6062476634979248,6.190462112426758,10.282453536987305
9_20251106_211008,1762434576442,9,0.626395583152771,0.15963810682296753,0.13865022361278534,0.7502802014350891,0.493643194437027,2.0397229194641113,2.983152151107788,1.1005674600601196,7.451225280761719,11.717630386352539,0.016000840812921524,-0.3742157220840454,0.24032562971115112,32.22764587402344,-16.30624771118164,-20.742233276367188,0.39545583724975586,1.008610725402832,1.148141860961914,0.7051116228103638,6.442614555358887,10.569488525390625
9_20251106_211008,1762434576461,9,0.6252869963645935,0.16310767829418182,0.1364927738904953,0.7508540749549866,0.493643194437027,2.0397229194641113,2.983152151107788,1.1005674600601196,7.451225280761719,11.717630386352539,0.18337775766849518,-0.16713258624076843,0.056455355137586594,31.867938995361328,-16.500225067138672,-21.246736526489258,0.39545583724975586,1.008610725402832,1.148141860961914,0.7051116228103638,6.442614555358887,10.569488525390625
9_20251106_211008,1762434576482,9,0.6249343156814575,0.1658196896314621,0.13703443109989166,0.750454843044281,0.4891044497489929,2.075010061264038,3.046119451522827,0.7905316352844238,7.033454895019531,10.654651641845703,0.27806180715560913,-0.025411972776055336,-0.07915662229061127,31.512996673583984,-16.58334732055664,-21.532604217529297,0.029578685760498047,0.3404064178466797,-0.04623889923095703,0.7609529495239258,6.693048477172852,10.70089054107666
9_20251106_211008,1762434576499,9,0.6251683831214905,0.16786062717437744,0.13932941854000092,0.7493828535079956,0.486716628074646,2.0918116569519043,3.074181318283081,0.6373093128204346,6.665960788726807,10.349403381347656,0.33975914120674133,-0.00219911290332675,-0.15734730660915375,31.327770233154297,-16.656566619873047,-21.689960479736328,-0.09891492128372192,-0.021669864654541016,-0.2811899185180664,0.7362242341041565,6.687630653381348,10.630593299865723
9_20251106_211008,1762434576520,9,0.6258299350738525,0.16997477412223816,0.14233210682868958,0.74778813123703,0.4837369918823242,2.1075031757354736,3.1008098125457764,0.5415453910827637,6.3224077224731445,10.159072875976562,0.41000857949256897,-0.01747073046863079,-0.17872758209705353,31.188369750976562,-16.776966094970703,-21.83289337158203,-0.15574312210083008,-0.2921786308288574,-0.3772163391113281,0.6972885131835938,6.614586353302002,10.53628921508789
9_20251106_211008,1762434576539,9,0.6265600919723511,0.1725202202796936,0.1457342952489853,0.7459361553192139,0.4800325930118561,2.1205391883850098,3.1243960857391357,0.4098699688911438,5.999203681945801,9.973529815673828,0.5053035020828247,-0.059009529650211334,-0.18239276111125946,31.188369750976562,-16.776966094970703,-21.83289337158203,-0.22993481159210205,-0.4923062324523926,-0.4502077102661133,0.6398047804832458,6.491509914398193,10.423737525939941
9_20251106_211008,1762434576557,9,0.627143383026123,0.17584213614463806,0.14953026175498962,0.7439162731170654,0.4759041666984558,2.1293821334838867,3.143085479736328,0.24946534633636475,5.556296348571777,9.823899269104004,0.5981549620628357,-0.08833103626966476,-0.1494060605764389,31.08855438232422,-16.832874298095703,-21.905452728271484,-0.3122715950012207,-0.7481708526611328,-0.4798707962036133,0.5617369413375854,6.30446720123291,10.303770065307617
9_20251106_211008,1762434576576,9,0.6273343563079834,0.17988835275173187,0.15371282398700714,0.7419326901435852,0.4710039496421814,2.1350033283233643,3.1588363647460938,0.16447484493255615,5.175634384155273,9.489921569824219,0.6787890791893005,-0.058398663997650146,-0.08587612956762314,30.98824691772461,-16.889453887939453,-21.910432815551758,-0.31780967116355896,-0.9030661582946777,-0.6510791778564453,0.4822845160961151,6.078700542449951,10.141000747680664
