session_id,timestamp,label,quaternion_w,quaternion_x,quaternion_y,quaternion_z,position_x,position_y,position_z,accelerometer_x,accelerometer_y,accelerometer_z,gyroscope_x,gyroscope_y,gyroscope_z,magnetometer_x,magnetometer_y,magnetometer_z,linear_acceleration_x,linear_acceleration_y,linear_acceleration_z,gravity_x,gravity_y,gravity_z
8_20251106_181551,1762424114295,8,0.21079829335212708,0.2041129618883133,0.6704468131065369,0.6814712285995483,0.27958598732948303,2.039989709854126,-0.8380773067474365,0.26742109656333923,10.120645523071289,0.18046945333480835,-0.04736873880028725,-0.14594320952892303,-0.07692695409059525,19.54941749572754,-26.682586669921875,28.17902374267578,0.2198752611875534,0.14861011505126953,-0.03073929250240326,0.04754583165049553,9.97203540802002,0.2112087458372116
8_20251106_181551,1762424114313,8,0.2121591418981552,0.20504003763198853,0.6697326898574829,0.6814727783203125,0.28235435485839844,2.040148973464966,-0.8392007350921631,0.1489132046699524,10.048822402954102,0.3265094757080078,-0.06325121968984604,-0.17954076826572418,-0.13312652707099915,19.562307357788086,-26.669235229492188,28.179779052734375,0.08109389990568161,0.06142997741699219,0.0922406017780304,0.06781930476427078,9.98739242553711,0.23426887392997742
8_20251106_181551,1762424114333,8,0.21416127681732178,0.20586904883384705,0.6690475344657898,0.681269645690918,0.28235435485839844,2.040148973464966,-0.8392007350921631,0.1489132046699524,10.048822402954102,0.3265094757080078,-0.07791198045015335,-0.16549088060855865,-0.18016311526298523,19.599458694458008,-26.666046142578125,28.10015106201172,0.08109389990568161,0.06142997741699219,0.0922406017780304,0.06781930476427078,9.98739242553711,0.23426887392997742
8_20251106_181551,1762424114352,8,0.21640487015247345,0.20596390962600708,0.6683151721954346,0.6812507510185242,0.28514930605888367,2.0405113697052,-0.8399236798286438,-0.04620583355426788,10.035655975341797,0.39234718680381775,-0.07791198045015335,-0.16549088060855865,-0.18016311526298523,19.637907028198242,-26.649490356445312,27.93968963623047,-0.09122011065483093,0.03861045837402344,0.1264626383781433,0.04501427710056305,9.997045516967773,0.26588454842567444
8_20251106_181551,1762424114371,8,0.2187749594449997,0.20547665655612946,0.6677049994468689,0.6812392473220825,0.28729405999183655,2.040708065032959,-0.84054034948349,-0.3849708139896393,9.935103416442871,0.27264225482940674,-0.06813813745975494,-0.1630474328994751,-0.1862717568874359,19.72430992126465,-26.630836486816406,27.889320373535156,-0.3056434094905853,-0.04213237762451172,-0.011763423681259155,-0.07932741194963455,9.977235794067383,0.2844056785106659
8_20251106_181551,1762424114390,8,0.22119289636611938,0.2050667703151703,0.6671751737594604,0.6811010241508484,0.28729405999183655,2.040708065032959,-0.84054034948349,-0.3849708139896393,9.935103416442871,0.27264225482940674,-0.060807764530181885,-0.1887037456035614,-0.14778727293014526,19.91776466369629,-26.654991149902344,27.815277099609375,-0.3056434094905853,-0.04213237762451172,-0.011763423681259155,-0.07932741194963455,9.977235794067383,0.2844056785106659
8_20251106_181551,1762424114410,8,0.22355851531028748,0.20485450327396393,0.6667750477790833,0.680784285068512,0.28650006651878357,2.040414571762085,-0.8404579758644104,-0.5357990264892578,9.870461463928223,0.4222733974456787,-0.051644790917634964,-0.16915607452392578,-0.09036598354578018,20.080385208129883,-26.592552185058594,27.633480072021484,-0.36517730355262756,-0.0854196548461914,0.1102941632270813,-0.17062172293663025,9.955881118774414,0.3119792342185974
8_20251106_181551,1762424114430,8,0.2254980355501175,0.2046012133359909,0.6662759184837341,0.6807094812393188,0.2817024290561676,2.039968967437744,-0.8393825888633728,-0.5681193470954895,10.018896102905273,0.36720916628837585,-0.04614701122045517,-0.1526627391576767,-0.043329399079084396,20.273630142211914,-26.628585815429688,27.491592407226562,-0.24980181455612183,0.05239582061767578,0.021557152271270752,-0.3183175325393677,9.966500282287598,0.3456520140171051
8_20251106_181551,1762424114448,8,0.22704580426216125,0.20447967946529388,0.6657567620277405,0.6807394623756409,0.27874818444252014,2.0400662422180176,-0.8387832045555115,-0.5238285660743713,10.048822402954102,0.38875603675842285,-0.039427500218153,-0.1477758139371872,-0.012786162085831165,20.463048934936523,-26.514869689941406,27.36589813232422,-0.1644088327884674,0.0658578872680664,0.03448319435119629,-0.35941973328590393,9.982964515686035,0.35427284240722656
8_20251106_181551,1762424114466,8,0.22831709682941437,0.20467433333396912,0.6653150320053101,0.6806876063346863,0.27572840452194214,2.0405447483062744,-0.8376808166503906,-0.44602036476135254,10.139799118041992,0.5707075595855713,-0.03392971679568291,-0.14960840344429016,0.01958966627717018,20.65801429748535,-26.513778686523438,27.27886962890625,-0.06928050518035889,0.12546825408935547,0.1731477975845337,-0.37673985958099365,10.014330863952637,0.3975597620010376
8_20251106_181551,1762424114486,8,0.22936487197875977,0.2051912546157837,0.6647974252700806,0.6806854605674744,0.27263590693473816,2.0415186882019043,-0.8359034657478333,-0.3454681932926178,10.168527603149414,0.5994367599487305,0.0057764919474720955,-0.14655408263206482,0.04035906866192818,20.8297061920166,-26.501174926757812,27.13705825805664,0.025017350912094116,0.12335681915283203,0.16150158643722534,-0.3704855442047119,10.045170783996582,0.4379351735115051
8_20251106_181551,1762424114504,8,0.23008733987808228,0.20586876571178436,0.6642929315567017,0.6807295680046082,0.2702479660511017,2.0425872802734375,-0.8346788883209229,-0.26646292209625244,10.140995025634766,0.31813013553619385,0.04548269882798195,-0.16732348501682281,0.05135463550686836,21.03767204284668,-26.47498321533203,27.13214111328125,0.08321809768676758,0.0766592025756836,-0.09584403038024902,-0.34968101978302,10.064335823059082,0.41397416591644287
8_20251106_181551,1762424114524,8,0.23080292344093323,0.20704393088817596,0.6638801693916321,0.6805335283279419,0.2682860195636749,2.0438754558563232,-0.8336666822433472,-0.16591079533100128,10.11705493927002,0.32172128558158875,0.03631972521543503,-0.1935906559228897,0.05868501216173172,21.18520164489746,-26.45208740234375,27.057193756103516,0.14701618254184723,0.04217529296875,-0.07380232214927673,-0.3129269778728485,10.07487964630127,0.3955236077308655
8_20251106_181551,1762424114543,8,0.2316577434539795,0.20877572894096375,0.6635761857032776,0.6800103187561035,0.2673095464706421,2.045334577560425,-0.8330344557762146,-0.02346191555261612,10.182891845703125,0.29299208521842957,0.023491568863391876,-0.1887037456035614,0.04341339319944382,21.236738204956055,-26.421905517578125,26.87045669555664,0.23157206177711487,0.0864095687866211,-0.0820252001285553,-0.2550339698791504,10.096482276916504,0.37501728534698486
8_20251106_181551,1762424114562,8,0.2325408011674881,0.21048223972320557,0.6631748080253601,0.6795742511749268,0.2673811912536621,2.046804428100586,-0.8328384160995483,0.1309574544429779,10.160148620605469,0.22356322407722473,0.03143281117081642,-0.1996993124485016,-0.00301232747733593,21.342985153198242,-26.47740936279297,26.860034942626953,0.3087931275367737,0.050933837890625,-0.1211632490158081,-0.17783568799495697,10.109214782714844,0.34472647309303284
8_20251106_181551,1762424114581,8,0.23377738893032074,0.21231214702129364,0.6628177165985107,0.6789288520812988,0.2687830328941345,2.0484378337860107,-0.8334307670593262,0.30692368745803833,10.167329788208008,0.057173363864421844,0.02532416209578514,-0.2143600732088089,-0.030501239001750946,21.40732765197754,-26.422401428222656,26.78244400024414,0.3878074884414673,0.04649162292480469,-0.2300424873828888,-0.08088381588459015,10.120838165283203,0.28721585869789124
8_20251106_181551,1762424114600,8,0.23519667983055115,0.21433193981647491,0.6624281406402588,0.6781837940216064,0.2687830328941345,2.0484378337860107,-0.8334307670593262,0.30692368745803833,10.167329788208008,0.057173363864421844,0.02532416209578514,-0.2143600732088089,-0.030501239001750946,21.40732765197754,-26.422401428222656,26.78244400024414,0.3878074884414673,0.04649162292480469,-0.2300424873828888,-0.08088381588459015,10.120838165283203,0.28721585869789124
8_20251106_181551,1762424114620,8,0.23683427274227142,0.2167963683605194,0.6618242859840393,0.6774197220802307,0.27754107117652893,2.0536091327667236,-0.8362910151481628,0.8025021553039551,10.507291793823242,0.060764506459236145,-0.024155881255865097,-0.26200753450393677,-0.047605451196432114,21.478315353393555,-26.4669189453125,26.689716339111328,0.6050133109092712,0.2819957733154297,-0.15086622536182404,0.19748884439468384,10.225296020507812,0.21163073182106018
8_20251106_181551,1762424114639,8,0.23859643936157227,0.21973328292369843,0.6609135866165161,0.6767438650131226,0.27754107117652893,2.0536091327667236,-0.8362910151481628,0.8025021553039551,10.507291793823242,0.060764506459236145,-0.024155881255865097,-0.26200753450393677,-0.047605451196432114,21.589372634887695,-26.4578857421875,26.504901885986328,0.6050133109092712,0.2819957733154297,-0.15086622536182404,0.19748884439468384,10.225296020507812,0.21163073182106018
8_20251106_181551,1762424114658,8,0.24056100845336914,0.22342649102210999,0.6598811745643616,0.6758460402488708,0.29386672377586365,2.0635812282562256,-0.8406723737716675,1.1460552215576172,10.96097469329834,0.017670731991529465,0.030211079865694046,-0.39212170243263245,-0.07875955104827881,21.700345993041992,-26.43737030029297,26.428482055664062,0.6208724975585938,0.5022449493408203,-0.1258581578731537,0.5251827239990234,10.45872974395752,0.14352889358997345
8_20251106_181551,1762424114676,8,0.2430238127708435,0.22800956666469574,0.6588378548622131,0.674450695514679,0.30333414673805237,2.0701558589935303,-0.8428102731704712,1.069444179534912,11.033994674682617,0.13498157262802124,0.06991728395223618,-0.4703123867511749,-0.13373738527297974,21.762758255004883,-26.431373596191406,26.228191375732422,0.43540918827056885,0.46021175384521484,-0.006837859749794006,0.6340349912643433,10.573782920837402,0.14181943237781525
8_20251106_181551,1762424114695,8,0.24660806357860565,0.2307373285293579,0.6583994030952454,0.6726477146148682,0.31304702162742615,2.078376054763794,-0.8448020815849304,0.7139204740524292,11.16686725616455,0.19722813367843628,0.0735824778676033,-0.510629415512085,-0.20459769666194916,21.908666610717773,-26.445472717285156,26.084869384765625,0.06390833854675293,0.47446727752685547,0.044326961040496826,0.6500121355056763,10.692399978637695,0.15290117263793945
8_20251106_181551,1762424114714,8,0.2509077489376068,0.23327262699604034,0.658007025718689,0.6705638766288757,0.3215201795101166,2.087552547454834,-0.846145749092102,0.375155508518219,11.190807342529297,0.3528445363044739,0.07052815705537796,-0.5008556246757507,-0.25224512815475464,22.079862594604492,-26.433547973632812,26.010639190673828,-0.21988528966903687,0.3987264633178711,0.15995469689369202,0.5950407981872559,10.792080879211426,0.19288983941078186
8_20251106_181551,1762424114734,8,0.2554382383823395,0.23531027138233185,0.6577355265617371,0.6684043407440186,0.328779011964798,2.09806489944458,-0.8465774059295654,0.19559812545776367,11.231507301330566,0.4928993284702301,0.1047365739941597,-0.475810170173645,-0.26079726219177246,22.33967399597168,-26.365158081054688,25.873313903808594,-0.3195541501045227,0.35154056549072266,0.24000757932662964,0.5151522755622864,10.879966735839844,0.25289174914360046
8_20251106_181551,1762424114753,8,0.25979286432266235,0.23710696399211884,0.6577486395835876,0.6660740971565247,0.3342497646808624,2.1085004806518555,-0.845792829990387,0.12138105183839798,11.225522994995117,0.6808360815048218,0.1047365739941597,-0.475810170173645,-0.26079726219177246,22.695863723754883,-26.31512451171875,25.698837280273438,-0.3150169849395752,0.2764444351196289,0.3423554599285126,0.4363980293273926,10.949078559875488,0.3384806215763092
8_20251106_181551,1762424114773,8,0.264050155878067,0.23923464119434357,0.6579937934875488,0.663391649723053,0.338356077671051,2.119067668914795,-0.8441312313079834,0.03878465294837952,11.187216758728027,0.6724567413330078,0.2635613977909088,-0.5509465336799622,-0.21986931562423706,23.066862106323242,-26.214340209960938,25.552940368652344,-0.3180907070636749,0.19051074981689453,0.2671809196472168,0.35687536001205444,10.996706008911133,0.405275821685791
8_20251106_181551,1762424114792,8,0.26832786202430725,0.2421330064535141,0.6586203575134277,0.6599931716918945,0.34116432070732117,2.1296751499176025,-0.8425586223602295,-0.041417643427848816,11.203975677490234,0.40312063694000244,0.3667975664138794,-0.622417688369751,-0.18932607769966125,23.366350173950195,-26.092933654785156,25.377593994140625,-0.31863439083099365,0.1658153533935547,-0.001724153757095337,0.27721676230430603,11.03816032409668,0.4048447906970978
8_20251106_181551,1762424114811,8,0.27259477972984314,0.24588777124881744,0.6596180200576782,0.6558470726013184,0.34252721071243286,2.1406664848327637,-0.8409402966499329,-0.19823111593723297,11.164472579956055,0.41987931728363037,0.4040603041648865,-0.6810607314109802,-0.17283272743225098,23.753355026245117,-25.92816162109375,25.192955017089844,-0.3803583085536957,0.10104942321777344,0.012027621269226074,0.1821271926164627,11.063423156738281,0.4078516960144043
8_20251106_181551,1762424114829,8,0.2770119607448578,0.2501940131187439,0.6606586575508118,0.6513044238090515,0.34252721071243286,2.1406664848327637,-0.8409402966499329,-0.19823111593723297,11.164472579956055,0.41987931728363037,0.4132232666015625,-0.6584587097167969,-0.17283272743225098,24.181455612182617,-25.67364501953125,25.06570053100586,-0.3803583085536957,0.10104942321777344,0.012027621269226074,0.1821271926164627,11.063423156738281,0.4078516960144043
8_20251106_181551,1762424114849,8,0.28127655386924744,0.2543458938598633,0.661768913269043,0.6467252373695374,0.3423891067504883,2.1513681411743164,-0.839377224445343,-0.289206862449646,11.148910522460938,0.4162881672382355,0.4132232666015625,-0.6584587097167969,-0.17283272743225098,24.66917610168457,-25.440139770507812,24.926856994628906,-0.3770672380924225,0.068389892578125,0.006749182939529419,0.08786038309335709,11.080520629882812,0.40953898429870605
8_20251106_181551,1762424114869,8,0.28530460596084595,0.25821489095687866,0.6630566120147705,0.6420921087265015,0.33877697587013245,2.1702725887298584,-0.8378757834434509,-0.31195083260536194,11.101029396057129,0.17927239835262299,0.4425447881221771,-0.6083678007125854,-0.16916754841804504,25.2071475982666,-25.178207397460938,24.77698516845703,-0.24572820961475372,0.016571998596191406,-0.1628843992948532,-0.06622262299060822,11.084457397460938,0.3421567976474762
8_20251106_181551,1762424114887,8,0.2891446650028229,0.2621139883995056,0.66440349817276,0.6373850107192993,0.33656251430511475,2.179020881652832,-0.8381415009498596,-0.16591079533100128,11.265024185180664,0.07153795659542084,0.48225098848342896,-0.6425762176513672,-0.1667240858078003,25.66373634338379,-24.858505249023438,24.570934295654297,-0.07975053787231445,0.1444530487060547,-0.216495081782341,-0.08616025745868683,11.12057113647461,0.28803303837776184
8_20251106_181551,1762424114905,8,0.29310551285743713,0.2664027214050293,0.6658255457878113,0.6322935223579407,0.334094375371933,2.1877994537353516,-0.8386352062225342,-0.23414260149002075,11.31051254272461,0.19004583358764648,0.5512786507606506,-0.7067170143127441,-0.20581942796707153,26.046518325805664,-24.544517517089844,24.456554412841797,-0.11838588118553162,0.15195369720458984,-0.07838976383209229,-0.11575672030448914,11.15855884552002,0.26843559741973877
8_20251106_181551,1762424114925,8,0.2975083887577057,0.27106690406799316,0.6675130128860474,0.6264486312866211,0.33068162202835083,2.1975059509277344,-0.8394564986228943,-0.3813796937465668,11.303329467773438,0.16969600319862366,0.602591335773468,-0.6890019178390503,-0.24796909093856812,26.463842391967773,-24.26567840576172,24.32933807373047,-0.21249838173389435,0.11581611633300781,-0.07899168133735657,-0.16888131201267242,11.18751335144043,0.24868768453598022
8_20251106_181551,1762424114944,8,0.3018253445625305,0.2753722071647644,0.6696147322654724,0.6202319860458374,0.32684454321861267,2.206324338912964,-0.8409136533737183,-0.444823294878006,11.20876407623291,-0.012255504727363586,0.6209172606468201,-0.6285263299942017,-0.2858426868915558,26.923166275024414,-23.88427734375,24.232738494873047,-0.22075358033180237,0.017000198364257812,-0.2087545543909073,-0.2240697145462036,11.191763877868652,0.1964990496635437
8_20251106_181551,1762424114962,8,0.3059234619140625,0.2790842354297638,0.6720389127731323,0.6139108538627625,0.3229743242263794,2.214264392852783,-0.8432283997535706,-0.39335015416145325,11.193201065063477,-0.21096567809581757,0.6264150738716125,-0.6016483306884766,-0.31944024562835693,27.381784439086914,-23.515426635742188,24.135875701904297,-0.13542434573173523,0.0011501312255859375,-0.325971782207489,-0.257925808429718,11.19205093383789,0.11500611901283264
8_20251106_181551,1762424114983,8,0.3100017011165619,0.2824229896068573,0.674622118473053,0.6074711084365845,0.31794610619544983,2.2233052253723145,-0.8466377258300781,-0.47834065556526184,11.26382827758789,-0.13674862682819366,0.6233606934547424,-0.6523500680923462,-0.3579247295856476,27.886316299438477,-23.205245971679688,23.94504165649414,-0.17633187770843506,0.05742168426513672,-0.20140379667282104,-0.3020087778568268,11.206406593322754,0.06465516984462738
8_20251106_181551,1762424115002,8,0.3146224617958069,0.2858438789844513,0.6770742535591125,0.6007299423217773,0.31292524933815,2.2306699752807617,-0.8492141962051392,-0.6782479286193848,11.207566261291504,0.14575502276420593,0.6777276396751404,-0.7183234691619873,-0.39152228832244873,28.334863662719727,-22.799522399902344,23.848480224609375,-0.30099132657051086,0.0009279251098632812,0.0648798868060112,-0.3772566020488739,11.20663833618164,0.08087513595819473
8_20251106_181551,1762424115021,8,0.31976181268692017,0.28962481021881104,0.6796051859855652,0.5933014154434204,0.30569878220558167,2.2383010387420654,-0.8523624539375305,-1.0110276937484741,11.159685134887695,-0.06013748049736023,0.7669139504432678,-0.733595073223114,-0.4190112054347992,28.334863662719727,-22.799522399902344,23.848480224609375,-0.5070168972015381,-0.037563323974609375,-0.11281009763479233,-0.504010796546936,11.197248458862305,0.0526726171374321
8_20251106_181551,1762424115041,8,0.32479068636894226,0.29335781931877136,0.6826075315475464,0.5852342844009399,0.29735496640205383,2.244414806365967,-0.8557682633399963,-1.383310079574585,11.030403137207031,-0.23730076849460602,0.8035658001899719,-0.714658260345459,-0.42634159326553345,28.799715042114258,-22.32940673828125,23.672630310058594,-0.703439474105835,-0.13347625732421875,-0.23197871446609497,-0.67987060546875,11.16387939453125,-0.005322054028511047
8_20251106_181551,1762424115059,8,0.32970839738845825,0.29708150029182434,0.6857978701591492,0.5768155455589294,0.29735496640205383,2.244414806365967,-0.8557682633399963,-1.383310079574585,11.030403137207031,-0.23730076849460602,0.7931811213493347,-0.6731194853782654,-0.42206552624702454,29.30133628845215,-21.84502410888672,23.566097259521484,-0.703439474105835,-0.13347625732421875,-0.23197871446609497,-0.67987060546875,11.16387939453125,-0.005322054028511047
8_20251106_181551,1762424115079,8,0.3343266248703003,0.3004588484764099,0.6890136003494263,0.5685160160064697,0.2710801064968109,2.256862163543701,-0.8646880984306335,-1.8645237684249878,11.213552474975586,-0.16787193715572357,0.7730225920677185,-0.6199742555618286,-0.42573070526123047,29.853914260864258,-21.319664001464844,23.448802947998047,-0.7836512327194214,0.04787921905517578,-0.08909275382757187,-1.0808725357055664,11.16567325592041,-0.0787791833281517
8_20251106_181551,1762424115097,8,0.33863377571105957,0.30333250761032104,0.6922441720962524,0.5604592561721802,0.2566834092140198,2.262467622756958,-0.8680379986763,-1.9602876901626587,11.306921005249023,0.12779927253723145,0.8353307843208313,-0.6089786291122437,-0.46726951003074646,30.37154197692871,-20.77130126953125,23.303531646728516,-0.7035320997238159,0.11299800872802734,0.16526277363300323,-1.2567555904388428,11.193922996520996,-0.03746349737048149
8_20251106_181551,1762424115117,8,0.34277644753456116,0.3058620095252991,0.6959233283996582,0.551945149898529,0.23949216306209564,2.2687532901763916,-0.871442973613739,-2.260746955871582,11.436203002929688,-0.0541522279381752,0.8353307843208313,-0.6089786291122437,-0.46726951003074646,30.9357967376709,-20.257431030273438,23.15943145751953,-0.8031930923461914,0.19382476806640625,-0.013350985944271088,-1.4575538635253906,11.242378234863281,-0.040801241993904114
8_20251106_181551,1762424115135,8,0.34694594144821167,0.30782654881477356,0.7003219723701477,0.5426052808761597,0.2195216417312622,2.2748098373413086,-0.8749803304672241,-2.783857822418213,11.273404121398926,-0.15111324191093445,0.9562819600105286,-0.5234576463699341,-0.6865699291229248,31.455228805541992,-19.68341064453125,22.960620880126953,-1.0610431432724,0.024820327758789062,-0.08824960142374039,-1.722814679145813,11.248583793640137,-0.06286364048719406
8_20251106_181551,1762424115155,8,0.35135072469711304,0.3088096082210541,0.7052738666534424,0.5327082276344299,0.2195216417312622,2.2748098373413086,-0.8749803304672241,-2.783857822418213,11.273404121398926,-0.15111324191093445,0.9843817353248596,-0.4159454107284546,-0.7329956293106079,31.95595359802246,-18.98729705810547,22.95269775390625,-1.0610431432724,0.024820327758789062,-0.08824960142374039,-1.722814679145813,11.248583793640137,-0.06286364048719406
8_20251106_181551,1762424115174,8,0.3552149534225464,0.3089456856250763,0.7107664346694946,0.5226719379425049,0.16693764925003052,2.2818028926849365,-0.8817065954208374,-3.8396551609039307,10.370828628540039,-0.24328602850437164,1.004540205001831,-0.2668944299221039,-0.698176383972168,32.457664489746094,-18.289840698242188,22.809612274169922,-1.4264094829559326,-0.6339693069458008,-0.15741494297981262,-2.413245677947998,11.00479793548584,-0.08587108552455902
8_20251106_181551,1762424115193,8,0.3578089773654938,0.3083842992782593,0.7167062759399414,0.5130341053009033,0.13624154031276703,2.2809698581695557,-0.8859590291976929,-4.09103536605835,9.947072982788086,-0.4348139464855194,1.004540205001831,-0.16915607452392578,-0.6187639236450195,32.9735107421875,-17.530960083007812,22.884597778320312,-1.3422317504882812,-0.8461799621582031,-0.27915430068969727,-2.7488036155700684,10.793252944946289,-0.15565964579582214
8_20251106_181551,1762424115213,8,0.35938313603401184,0.307849258184433,0.7226741313934326,0.5038002729415894,0.13624154031276703,2.2809698581695557,-0.8859590291976929,-4.09103536605835,9.947072982788086,-0.4348139464855194,1.004540205001831,-0.16915607452392578,-0.6187639236450195,33.456207275390625,-16.723419189453125,22.878070831298828,-1.3422317504882812,-0.8461799621582031,-0.27915430068969727,-2.7488036155700684,10.793252944946289,-0.15565964579582214
8_20251106_181551,1762424115230,8,0.3601875603199005,0.3075660169124603,0.7287103533744812,0.49462032318115234,0.07008049637079239,2.2704997062683105,-0.896841824054718,-4.208346366882324,9.170188903808594,-0.6586621999740601,1.1517586708068848,-0.12028689682483673,-0.48742806911468506,33.862571716308594,-15.971412658691406,22.921607971191406,-0.9371719360351562,-1.1260976791381836,-0.3368608355522156,-3.271174430847168,10.296286582946777,-0.3218013644218445
8_20251106_181551,1762424115251,8,0.3603579103946686,0.30816200375556946,0.7349699139595032,0.48476552963256836,0.030467715114355087,2.2581474781036377,-0.9043292999267578,-4.263410568237305,8.837408065795898,-0.6790120005607605,1.2940900325775146,-0.13983456790447235,-0.42145466804504395,34.238014221191406,-15.121330261230469,22.96578598022461,-0.7937889099121094,-1.1671028137207031,-0.2857685089111328,-3.4696216583251953,10.004510879516602,-0.3932434916496277
8_20251106_181551,1762424115269,8,0.35986533761024475,0.3096989691257477,0.7415428757667542,0.4740228056907654,-0.004002425819635391,2.244905948638916,-0.9114630222320557,-4.368751525878906,8.711719512939453,-0.8142786026000977,1.3631178140640259,-0.08852193504571915,-0.38480275869369507,34.58116149902344,-14.175064086914062,23.199832916259766,-0.7193038463592529,-1.0342330932617188,-0.3368280827999115,-3.6494476795196533,9.745952606201172,-0.47745051980018616
8_20251106_181551,1762424115289,8,0.358630895614624,0.3114777207374573,0.7483406066894531,0.4629814624786377,-0.04072899743914604,2.228405714035034,-0.9205719232559204,-4.436983108520508,8.571663856506348,-1.1901520490646362,1.339905023574829,0.05930732935667038,-0.39091143012046814,34.885528564453125,-13.268989562988281,23.445133209228516,-0.630028247833252,-0.9394311904907227,-0.5701612234115601,-3.806954860687256,9.51109504699707,-0.6199908256530762
8_20251106_181551,1762424115308,8,0.35631459951400757,0.3122851550579071,0.7554808855056763,0.45251137018203735,-0.07735764235258102,2.2095947265625,-0.9315154552459717,-4.4405741691589355,8.368165969848633,-1.454699993133545,1.339905023574829,0.05930732935667038,-0.39091143012046814,35.178619384765625,-12.350883483886719,23.66317367553711,-0.5068955421447754,-0.9143428802490234,-0.667767345905304,-3.93367862701416,9.282508850097656,-0.786932647228241
8_20251106_181551,1762424115326,8,0.3531106412410736,0.31184861063957214,0.7628602385520935,0.4428403675556183,-0.07735764235258102,2.2095947265625,-0.9315154552459717,-4.4405741691589355,8.368165969848633,-1.454699993133545,1.1908539533615112,0.42521530389785767,-0.48926064372062683,35.361045837402344,-11.441268920898438,24.011962890625,-0.5068955421447754,-0.9143428802490234,-0.667767345905304,-3.93367862701416,9.282508850097656,-0.786932647228241
8_20251106_181551,1762424115345,8,0.34896543622016907,0.3099481165409088,0.7706169486045837,0.4339410662651062,-0.11796597391366959,2.1853585243225098,-0.9461469650268555,-4.574643135070801,7.944409370422363,-1.7240360975265503,1.1908539533615112,0.42521530389785767,-0.48926064372062683,35.32421875,-10.545822143554688,24.338409423828125,-0.5127716064453125,-1.070479393005371,-0.7496827840805054,-4.061871528625488,9.014888763427734,-0.9743533134460449
8_20251106_181551,1762424115364,8,0.34375107288360596,0.3068176507949829,0.7785133123397827,0.42616331577301025,-0.18758463859558105,2.133836030960083,-0.9776264429092407,-4.951714515686035,6.77249813079834,-2.4793739318847656,0.9599471688270569,0.7654669284820557,-0.41717860102653503,35.259918212890625,-9.69097900390625,24.79824447631836,-0.602442741394043,-1.514805793762207,-1.035419225692749,-4.349271774291992,8.287303924560547,-1.4439547061920166
8_20251106_181551,1762424115383,8,0.33734607696533203,0.30306628346443176,0.7861173152923584,0.41996192932128906,-0.22226905822753906,2.1034672260284424,-0.9970202445983887,-4.982837677001953,6.560620307922363,-2.772651195526123,0.831665575504303,0.8583183288574219,-0.2962273955345154,35.21375274658203,-8.722869873046875,25.31501007080078,-0.5068526268005371,-1.3813467025756836,-1.0629572868347168,-4.475985050201416,7.941967010498047,-1.7096939086914062
8_20251106_181551,1762424115404,8,0.3301292359828949,0.29944443702697754,0.7930809259414673,0.41517508029937744,-0.2615993022918701,2.064821481704712,-1.0199271440505981,-4.741033554077148,6.454083442687988,-2.131032943725586,0.831665575504303,0.8583183288574219,-0.2962273955345154,35.07726287841797,-7.836738586425781,25.934890747070312,-0.21203899383544922,-1.1903071403503418,-0.33707118034362793,-4.528994560241699,7.64439058303833,-1.793961763381958
8_20251106_181551,1762424115422,8,0.32229745388031006,0.29610201716423035,0.7996881008148193,0.41103148460388184,-0.29455769062042236,2.027402877807617,-1.0401993989944458,-4.2203168869018555,6.112923622131348,-2.0065395832061768,0.9593362808227539,0.9957629442214966,-0.16000458598136902,34.720924377441406,-6.977195739746094,26.518646240234375,0.24694204330444336,-1.2251734733581543,-0.17006230354309082,-4.467258930206299,7.338097095489502,-1.836477279663086
8_20251106_181551,1762424115442,8,0.3130732774734497,0.2932044267654419,0.8069232702255249,0.4060679078102112,-0.29455769062042236,2.027402877807617,-1.0401993989944458,-4.2203168869018555,6.112923622131348,-2.0065395832061768,1.1468716859817505,1.0256953239440918,-0.13312652707099915,34.720924377441406,-6.977195739746094,26.518646240234375,0.24694204330444336,-1.2251734733581543,-0.17006230354309082,-4.467258930206299,7.338097095489502,-1.836477279663086
8_20251106_181551,1762424115460,8,0.30282238125801086,0.29081931710243225,0.8147686123847961,0.3998435139656067,-0.35126808285713196,1.9442076683044434,-1.0867925882339478,-3.818108320236206,5.367161750793457,-3.341249465942383,1.1468716859817505,1.0256953239440918,-0.13312652707099915,34.278289794921875,-6.1245574951171875,27.234130859375,0.42943787574768066,-1.3039178848266602,-1.0396652221679688,-4.247546195983887,6.671079635620117,-2.301584243774414
8_20251106_181551,1762424115479,8,0.29250675439834595,0.28871217370033264,0.8222907185554504,0.3936026394367218,-0.37539738416671753,1.898566722869873,-1.1122699975967407,-3.759453058242798,4.815322399139404,-3.1245837211608887,1.1206045150756836,1.0159215927124023,-0.10808106511831284,33.73585510253906,-5.316215515136719,27.97193145751953,0.3904745578765869,-1.4846062660217285,-0.6583995819091797,-4.149927616119385,6.299928665161133,-2.466184139251709
8_20251106_181551,1762424115499,8,0.2818973958492279,0.2861018776893616,0.8294340968132019,0.3882250189781189,-0.37539738416671753,1.898566722869873,-1.1122699975967407,-3.759453058242798,4.815322399139404,-3.1245837211608887,0.8982498049736023,1.3347928524017334,-0.02561432123184204,33.192108154296875,-4.5328521728515625,28.695690155029297,0.3904745578765869,-1.4846062660217285,-0.6583995819091797,-4.149927616119385,6.299928665161133,-2.466184139251709
8_20251106_181551,1762424115518,8,0.26928451657295227,0.28280678391456604,0.8364390730857849,0.3845462501049042,-0.3988948464393616,1.8441795110702515,-1.1417615413665771,-3.601442337036133,4.371216773986816,-3.2837915420532227,0.7504205703735352,1.6041841506958008,0.1576450914144516,32.57637023925781,-3.7179336547851562,29.552459716796875,0.43878841400146484,-1.5429697036743164,-0.6540858745574951,-4.040230751037598,5.914186477661133,-2.6297056674957275
8_20251106_181551,1762424115536,8,0.254080593585968,0.27935993671417236,0.8429751992225647,0.38313692808151245,-0.4300401210784912,1.7447768449783325,-1.1974953413009644,-2.765902042388916,3.8205742835998535,-4.084617614746094,0.601980447769165,1.7465157508850098,0.3683934211730957,31.787015914916992,-2.964630126953125,30.428340911865234,0.8971614837646484,-1.3935399055480957,-0.9723219871520996,-3.6630635261535645,5.214114189147949,-3.112295627593994
8_20251106_181551,1762424115555,8,0.23732046782970428,0.2769329845905304,0.8484631180763245,0.3835328221321106,-0.4300401210784912,1.7447768449783325,-1.1974953413009644,-2.765902042388916,3.8205742835998535,-4.084617614746094,0.43521440029144287,1.8430323600769043,0.5412681698799133,30.870569229125977,-2.3075714111328125,31.33802032470703,0.8971614837646484,-1.3935399055480957,-0.9723219871520996,-3.6630635261535645,5.214114189147949,-3.112295627593994
8_20251106_181551,1762424115575,8,0.219467431306839,0.27524009346961975,0.852816104888916,0.38572216033935547,-0.44570139050483704,1.628517508506775,-1.261488676071167,-1.8812824487686157,3.3980159759521484,-4.107361316680908,0.2647831439971924,1.9939160346984863,0.7196406126022339,29.903669357299805,-1.6792068481445312,32.28575897216797,1.2104393243789673,-1.1487045288085938,-0.6782121658325195,-3.091721773147583,4.546720504760742,-3.4291491508483887
8_20251106_181551,1762424115594,8,0.200058251619339,0.2740170359611511,0.8560702204704285,0.3899167776107788,-0.44570139050483704,1.628517508506775,-1.261488676071167,-1.8812824487686157,3.3980159759521484,-4.107361316680908,0.18414899706840515,2.0776045322418213,0.8833523988723755,28.734758377075195,-1.1775131225585938,33.31788635253906,1.2104393243789673,-1.1487045288085938,-0.6782121658325195,-3.091721773147583,4.546720504760742,-3.4291491508483887
8_20251106_181551,1762424115612,8,0.17945270240306854,0.2736620306968689,0.8583678007125854,0.39510825276374817,-0.44030311703681946,1.51705801486969,-1.3254328966140747,-0.4819318354129791,3.3716812133789062,-4.488022804260254,0.18414899706840515,2.104482412338257,1.024462103843689,27.487192153930664,-0.7809066772460938,34.331443786621094,1.7962909936904907,-0.7736678123474121,-0.7067916393280029,-2.2782227993011475,4.145349025726318,-3.781231164932251
8_20251106_181551,1762424115633,8,0.1578131467103958,0.27404582500457764,0.8600044250488281,0.40048253536224365,-0.44030311703681946,1.51705801486969,-1.3254328966140747,-0.4819318354129791,3.3716812133789062,-4.488022804260254,0.18414899706840515,2.104482412338257,1.024462103843689,26.122507095336914,-0.5175552368164062,35.39201354980469,1.7962909936904907,-0.7736678123474121,-0.7067916393280029,-2.2782227993011475,4.145349025726318,-3.781231164932251
8_20251106_181551,1762424115651,8,0.13606779277324677,0.27567195892333984,0.8607243299484253,0.4057636857032776,-0.42486172914505005,1.45163094997406,-1.3655434846878052,0.21475091576576233,3.3656957149505615,-4.7968621253967285,0.1456645131111145,1.9737573862075806,1.281636118888855,24.619447708129883,-0.3384246826171875,36.45912170410156,1.9943790435791016,-0.6237225532531738,-0.812504768371582,-1.7796281576156616,3.9894182682037354,-3.9843573570251465
8_20251106_181551,1762424115671,8,0.11434325575828552,0.2787456214427948,0.8604185581207275,0.410982221364975,-0.38281548023223877,1.3506416082382202,-1.433150291442871,1.8235853910446167,3.3944249153137207,-5.457633018493652,0.13955587148666382,1.842421531677246,1.43801748752594,23.034910202026367,-0.314605712890625,37.5066032409668,2.4523839950561523,-0.3631751537322998,-0.9850330352783203,-0.6287987232208252,3.7576000690460205,-4.472599983215332
8_20251106_181551,1762424115690,8,0.09296303987503052,0.28361207246780396,0.8590848445892334,0.4158068001270294,-0.3467198610305786,1.2959752082824707,-1.4737341403961182,2.6507463455200195,3.499765396118164,-5.565367698669434,0.15421661734580994,1.6811531782150269,1.51071035861969,21.48118019104004,-0.40061187744140625,38.47208023071289,2.623636245727539,-0.2062678337097168,-0.8742141723632812,0.02711021900177002,3.706033229827881,-4.691153526306152
8_20251106_181551,1762424115710,8,0.07235269993543625,0.2895803153514862,0.8570550680160522,0.4199582636356354,-0.3021351099014282,1.2436624765396118,-1.51597261428833,3.413266897201538,3.581164836883545,-5.90293550491333,0.13100376725196838,1.6310622692108154,1.5351449251174927,19.886354446411133,-0.57635498046875,39.38017272949219,2.708925247192383,-0.09989452362060547,-0.9694256782531738,0.7043415307998657,3.6810593605041504,-4.933509826660156
8_20251106_181551,1762424115728,8,0.05205477029085159,0.2960243821144104,0.8543325662612915,0.42399975657463074,-0.2518312335014343,1.196452021598816,-1.5575604438781738,4.373300552368164,3.6817169189453125,-6.197409629821777,0.020437244325876236,1.5675323009490967,1.5039910078048706,18.300077438354492,-0.8258438110351562,40.206077575683594,2.9351673126220703,0.0005259513854980469,-1.0111198425292969,1.4381332397460938,3.6811909675598145,-5.1862897872924805
8_20251106_181551,1762424115746,8,0.032631389796733856,0.3024117350578308,0.8507890105247498,0.4285328984260559,-0.1971636712551117,1.1545888185501099,-1.598354697227478,5.253131866455078,3.9354910850524902,-6.552933692932129,-0.12555941939353943,1.4771244525909424,1.3964787721633911,16.79606056213379,-1.14349365234375,40.87163543701172,3.051999092102051,0.20344018936157227,-1.0933151245117188,2.2011327743530273,3.732050895690918,-5.45961856842041
8_20251106_181551,1762424115766,8,0.014743329025804996,0.30836600065231323,0.8464828729629517,0.433773934841156,-0.1971636712551117,1.1545888185501099,-1.598354697227478,5.253131866455078,3.9354910850524902,-6.552933692932129,-0.30515363812446594,1.3134126663208008,1.2046672105789185,15.314496994018555,-1.4969558715820312,41.51034927368164,3.051999092102051,0.20344018936157227,-1.0933151245117188,2.2011327743530273,3.732050895690918,-5.45961856842041
8_20251106_181551,1762424115784,8,0.0006352945929393172,-0.31330710649490356,-0.8416714668273926,-0.4398037791252136,-0.12004472315311432,1.1079314947128296,-1.6506413221359253,5.910311698913574,4.2622857093811035,-6.797131538391113,-0.47497403621673584,1.1093838214874268,0.9682626128196716,13.928804397583008,-1.8810653686523438,42.08461380004883,2.967343330383301,0.42418789863586426,-1.0700101852416992,2.9429683685302734,3.8380978107452393,-5.727121353149414
8_20251106_181551,1762424115804,8,0.012879964895546436,-0.3172355890274048,-0.8365719318389893,-0.44647854566574097,0.020105086266994476,1.0400773286819458,-1.731526255607605,6.63452672958374,3.891200542449951,-5.6108551025390625,-0.5666037797927856,1.0855600833892822,0.7184189558029175,12.700006484985352,-2.2917098999023438,42.58336639404297,2.4185233116149902,-0.06273555755615234,0.17611169815063477,4.21600341796875,3.9539361000061035,-5.786966800689697
8_20251106_181551,1762424115823,8,0.023574549704790115,-0.3192320466041565,-0.8315858244895935,-0.4538723826408386,0.1003330796957016,1.0070137977600098,-1.772608757019043,7.073843955993652,4.038437366485596,-6.439213752746582,-0.5666037797927856,1.0855600833892822,0.7184189558029175,11.495759963989258,-2.9366683959960938,42.889347076416016,2.2862725257873535,0.06760120391845703,-0.5217976570129395,4.787571430206299,3.9708361625671387,-5.917416095733643
8_20251106_181551,1762424115843,8,0.03403989598155022,-0.3199470043182373,-0.8259747624397278,-0.4628615975379944,0.1003330796957016,1.0070137977600098,-1.772608757019043,7.073843955993652,4.038437366485596,-6.439213752746582,-0.7327589392662048,1.1881853342056274,0.5944133996963501,10.306421279907227,-3.5307388305664062,43.21038818359375,2.2862725257873535,0.06760120391845703,-0.5217976570129395,4.787571430206299,3.9708361625671387,-5.917416095733643
8_20251106_181551,1762424115862,8,0.04243621975183487,-0.32112276554107666,-0.8190929889678955,-0.47346168756484985,0.2760618329048157,0.9518618583679199,-1.8580307960510254,7.679551124572754,5.474896430969238,-6.502657413482666,-1.2391659021377563,0.7813494205474854,0.49484241008758545,9.207311630249023,-4.255912780761719,43.464866638183594,1.8619756698608398,1.0849852561950684,-0.3044552803039551,5.817575454711914,4.38991117477417,-6.198202133178711
8_20251106_181551,1762424115880,8,0.04768313094973564,-0.3230307400226593,-0.8113784193992615,-0.4848118722438812,0.35814422369003296,0.9329817891120911,-1.8936741352081299,7.504781723022461,5.562281131744385,-5.68267822265625,-1.3002523183822632,0.5168449878692627,0.3732803463935852,9.207311630249023,-4.255912780761719,43.464866638183594,1.3497648239135742,0.9378957748413086,0.41241931915283203,6.155016899108887,4.624385356903076,-6.095097541809082
8_20251106_181551,1762424115900,8,0.05004054680466652,-0.32509902119636536,-0.8036759495735168,-0.4958947002887726,0.4489264190196991,0.9145503044128418,-1.9288357496261597,7.516752243041992,5.116978645324707,-5.285257816314697,-1.2739851474761963,0.37390267848968506,0.3225785493850708,8.185636520385742,-5.125396728515625,43.63851547241211,1.089388370513916,0.3940744400024414,0.6478719711303711,6.427363872528076,4.722904205322266,-5.933129787445068
8_20251106_181551,1762424115920,8,0.051053501665592194,-0.32735928893089294,-0.796120285987854,-0.5063812732696533,0.53819739818573,0.8996648788452148,-1.9607247114181519,7.42338228225708,5.586222171783447,-5.43488883972168,-1.3387367725372314,0.24562105536460876,0.36167389154434204,7.358930587768555,-6.206733703613281,43.7481689453125,0.7968149185180664,0.6906542778015137,0.3985929489135742,6.626567363739014,4.895567893981934,-5.833481788635254
8_20251106_181551,1762424115938,8,0.05104490742087364,-0.33060580492019653,-0.7880176305770874,-0.5168389081954956,0.53819739818573,0.8996648788452148,-1.9607247114181519,7.42338228225708,5.586222171783447,-5.43488883972168,-1.539711356163025,0.044646576046943665,0.4252038598060608,6.723466873168945,-7.35003662109375,43.796504974365234,0.7968149185180664,0.6906542778015137,0.3985929489135742,6.626567363739014,4.895567893981934,-5.833481788635254
8_20251106_181551,1762424115957,8,0.04905254766345024,-0.3353883922100067,-0.7786657214164734,-0.5280039310455322,0.691771924495697,0.8873077034950256,-2.00718092918396,7.222278118133545,7.375810623168945,-4.252204418182373,-1.539711356163025,0.044646576046943665,0.4252038598060608,6.145593643188477,-8.563491821289062,43.724063873291016,0.36554956436157227,1.7409605979919434,1.1506843566894531,6.856728553771973,5.634850025177002,-5.402888774871826
8_20251106_181551,1762424115976,8,0.044866736978292465,-0.34125059843063354,-0.768415629863739,-0.5395113229751587,0.7673835754394531,0.8891177177429199,-2.0207455158233643,6.899074554443359,7.491924285888672,-2.7475132942199707,-1.6765450239181519,-0.3481394350528717,0.32868722081184387,5.610008239746094,-9.898529052734375,43.569847106933594,0.03387641906738281,1.4856595993041992,2.124300479888916,6.865198135375977,6.006264686584473,-4.871813774108887
8_20251106_181551,1762424115995,8,0.03900360316038132,-0.3466719388961792,-0.7585034966468811,-0.5504269003868103,0.8417881727218628,0.8946290016174316,-2.0243260860443115,6.468136787414551,7.223785400390625,-1.5875725746154785,-1.5464308261871338,-0.42266494035720825,0.21873155236244202,5.347936630249023,-11.352081298828125,43.288841247558594,-0.31764888763427734,0.9740166664123535,2.6273932456970215,6.785785675048828,6.2497687339782715,-4.2149658203125
8_20251106_181551,1762424116013,8,0.032466813921928406,-0.35132864117622375,-0.7493938207626343,-0.5602883100509644,0.9034428596496582,0.9016806483268738,-2.0195088386535645,5.989317417144775,7.199844837188721,-1.015383005142212,-1.476792335510254,-0.43243879079818726,0.22056414186954498,5.235910415649414,-12.957473754882812,42.902652740478516,-0.6371746063232422,0.7600607872009277,2.559666395187378,6.626492023468018,6.439784049987793,-3.57504940032959
8_20251106_181551,1762424116034,8,0.026002630591392517,-0.3559345006942749,-0.7403666973114014,-0.569641649723053,0.9657997488975525,0.914444088935852,-2.0090770721435547,5.730754852294922,8.189805030822754,-1.816208839416504,-1.521996259689331,-0.3847913146018982,0.33051979541778564,5.275941848754883,-14.464218139648438,42.402549743652344,-0.7165899276733398,1.4000167846679688,1.4070723056793213,6.447344779968262,6.789788246154785,-3.223281145095825
8_20251106_181551,1762424116052,8,0.020259302109479904,-0.3608703911304474,-0.7305460572242737,-0.579365611076355,1.0187675952911377,0.9324906468391418,-1.9964423179626465,5.241161346435547,9.168991088867188,-2.049633502960205,-1.521996259689331,-0.3847913146018982,0.33051979541778564,5.354942321777344,-15.930503845214844,41.86416244506836,-0.9649467468261719,1.9033622741699219,0.9389181137084961,6.206108093261719,7.265628814697266,-2.988551616668701
8_20251106_181551,1762424116071,8,0.012826589867472649,-0.3669207692146301,-0.7206351161003113,-0.5881237983703613,1.0187675952911377,0.9324906468391418,-1.9964423179626465,5.241161346435547,9.168991088867188,-2.049633502960205,-1.4425837993621826,-0.7989575862884521,0.2963113784790039,5.580755233764648,-17.39806365966797,41.15568161010742,-0.9649467468261719,1.9033622741699219,0.9389181137084961,6.206108093261719,7.265628814697266,-2.988551616668701
8_20251106_181551,1762424116091,8,0.004093398805707693,-0.37343525886535645,-0.7113825082778931,-0.5953690409660339,1.06963312625885,0.957205057144165,-1.9756238460540771,4.7886762619018555,8.98584270477295,-0.7352733016014099,-1.247718095779419,-0.6871693730354309,0.2859266996383667,5.8220672607421875,-18.813926696777344,40.381168365478516,-1.1339454650878906,1.3761711120605469,1.8026225566864014,5.922621726989746,7.609671592712402,-2.537895917892456
8_20251106_181551,1762424116110,8,0.0033073248341679573,0.37903478741645813,0.7029989361763,0.6017592549324036,1.143693447113037,1.0051060914993286,-1.923299789428711,4.747977256774902,8.878108978271484,-0.391720175743103,-1.247718095779419,-0.6871693730354309,0.2859266996383667,6.091375350952148,-20.165283203125,39.59543991088867,-0.7324285507202148,0.8650445938110352,1.2749156951904297,5.480405807495117,8.01306438446045,-1.6666358709335327
8_20251106_181551,1762424116129,8,0.008517641574144363,0.3834201395511627,0.6952123045921326,0.6079443097114563,1.1752984523773193,1.0307567119598389,-1.8968219757080078,5.238767147064209,9.135473251342773,-1.2727484703063965,-1.0950016975402832,-0.46909064054489136,0.31036126613616943,6.399961471557617,-21.46416473388672,38.82575225830078,-0.19331073760986328,0.8979272842407227,0.3151099681854248,5.432077884674072,8.23754596710205,-1.5878584384918213
8_20251106_181551,1762424116148,8,0.013237833976745605,0.38742154836654663,0.6874220967292786,0.6141499280929565,1.2095671892166138,1.061297059059143,-1.8694690465927124,5.730754375457764,9.377277374267578,-1.783888578414917,-1.0925583839416504,-0.3988412022590637,0.31463733315467834,6.714284896850586,-22.662452697753906,38.04466247558594,0.23894071578979492,0.9117851257324219,-0.15682411193847656,5.491813659667969,8.465492248535156,-1.6270644664764404
8_20251106_181551,1762424116167,8,0.019383259117603302,0.39202412962913513,0.6794079542160034,0.6199566125869751,1.2405985593795776,1.0908095836639404,-1.8434463739395142,5.52964973449707,9.176173210144043,-1.139876127243042,-1.149979591369629,-0.5326206088066101,0.26210296154022217,7.05055046081543,-23.695899963378906,37.18639373779297,0.03026866912841797,0.5685453414916992,0.38975071907043457,5.499381065368652,8.607627868652344,-1.5296268463134766
8_20251106_181551,1762424116185,8,0.028256164863705635,0.3970769941806793,0.671887218952179,0.6245790719985962,1.2405985593795776,1.0908095836639404,-1.8434463739395142,5.52964973449707,9.176173210144043,-1.139876127243042,-1.080341100692749,-0.8624875545501709,-0.1361808478832245,7.351583480834961,-24.69512939453125,36.435577392578125,0.03026866912841797,0.5685453414916992,0.38975071907043457,5.499381065368652,8.607627868652344,-1.5296268463134766
8_20251106_181551,1762424116204,8,0.0386824794113636,0.4011300206184387,0.665397047996521,0.6283670663833618,1.2908124923706055,1.1460762023925781,-1.783013939857483,4.253595352172852,9.086395263671875,0.7299151420593262,-1.0345262289047241,-0.7513101100921631,-0.35975730419158936,7.729551315307617,-25.62641143798828,35.648475646972656,-0.8972806930541992,0.35544300079345703,1.5407216548919678,5.150876045227051,8.730952262878418,-0.8108065724372864
8_20251106_181551,1762424116224,8,0.04943897947669029,0.402709037065506,0.6599793434143066,0.6323041319847107,1.3092501163482666,1.1765124797821045,-1.7467191219329834,3.4695281982421875,9.467056274414062,0.3420711159706116,-1.0369696617126465,-0.5558334589004517,-0.5986053943634033,8.274904251098633,-26.38439178466797,34.89821243286133,-1.345078468322754,0.5888833999633789,0.9223021864891052,4.814606666564941,8.878172874450684,-0.5802310705184937
8_20251106_181551,1762424116243,8,0.060463469475507736,0.401361346244812,0.6554717421531677,0.6368752121925354,1.3200879096984863,1.2053637504577637,-1.7123883962631226,2.6998252868652344,9.38206672668457,-0.006270259618759155,-1.0589607954025269,-0.4299952983856201,-0.7727018594741821,8.785726547241211,-27.095603942871094,34.25566482543945,-1.6918249130249023,0.40311527252197266,0.4591686427593231,4.391650199890137,8.978951454162598,-0.4654389023780823
8_20251106_181551,1762424116262,8,0.07204895466566086,0.39812108874320984,0.651528000831604,0.6417319178581238,1.3240771293640137,1.2318848371505737,-1.678379774093628,2.092921257019043,8.655457496643066,0.04280876740813255,-1.0381914377212524,-0.406171590089798,-0.7629280090332031,9.384149551391602,-27.774932861328125,33.49542999267578,-1.8389830589294434,-0.25879478454589844,0.40659815073013306,3.9319043159484863,8.914252281188965,-0.3637893795967102
8_20251106_181551,1762424116282,8,0.08331488817930222,0.3946191668510437,0.6477507948875427,0.6463383436203003,1.3209218978881836,1.2554175853729248,-1.642356276512146,1.581781268119812,7.931241989135742,0.2989773154258728,-0.9795483350753784,-0.4672580659389496,-0.5344646573066711,10.036462783813477,-28.351303100585938,32.80685043334961,-1.8800984621047974,-0.7864084243774414,0.5302133560180664,3.4618797302246094,8.717650413513184,-0.2312360554933548
8_20251106_181551,1762424116300,8,0.09339915961027145,0.392956405878067,0.6433207988739014,0.6503846645355225,1.3209218978881836,1.2554175853729248,-1.642356276512146,1.581781268119812,7.931241989135742,0.2989773154258728,-0.9312899708747864,-0.5179598331451416,-0.17038926482200623,10.036462783813477,-28.351303100585938,32.80685043334961,-1.8800984621047974,-0.7864084243774414,0.5302133560180664,3.4618797302246094,8.717650413513184,-0.2312360554933548
8_20251106_181551,1762424116320,8,0.10128258913755417,0.39373746514320374,0.6377529501914978,0.6542047262191772,1.311703085899353,1.2758088111877441,-1.6060127019882202,1.415391445159912,8.071296691894531,0.46656423807144165,-0.9160184264183044,-0.48863834142684937,0.14054086804389954,10.77104377746582,-28.771270751953125,32.02976608276367,-1.637190580368042,-0.5170831680297852,0.5582402348518372,3.052582025527954,8.588379859924316,-0.09167599678039551
8_20251106_181551,1762424116339,8,0.10712880641222,0.3962762653827667,0.6310124397277832,0.6582642793655396,1.2985467910766602,1.2954936027526855,-1.5684245824813843,1.6057223081588745,8.69136905670166,0.9154577851295471,-0.8042301535606384,-0.33958733081817627,0.2755419611930847,11.45448112487793,-29.22087860107422,31.385356903076172,-1.1574877500534058,0.08239078521728516,0.8057070374488831,2.7632100582122803,8.608978271484375,0.10975075513124466
8_20251106_181551,1762424116360,8,0.11071648448705673,0.39861810207366943,0.6245739459991455,0.6623842120170593,1.2696270942687988,1.3336061239242554,-1.4908291101455688,1.8989994525909424,9.275528907775879,2.4081783294677734,-0.5830971002578735,-0.07813723385334015,0.23644663393497467,12.138006210327148,-29.681968688964844,30.632553100585938,-0.5479235649108887,0.4411487579345703,1.585144281387329,2.446923017501831,8.834380149841309,0.8230340480804443
8_20251106_181551,1762424116378,8,0.11212445050477982,0.3991864323616028,0.6198356747627258,0.6662447452545166,1.2534016370773315,1.3540668487548828,-1.446314811706543,1.8642849922180176,9.432342529296875,2.6751203536987305,-0.365018367767334,0.2126343697309494,0.10511071979999542,12.726675033569336,-30.08783721923828,29.998790740966797,-0.4661104679107666,0.47836971282958984,1.4816690683364868,2.330395460128784,8.953972816467285,1.1934512853622437
8_20251106_181551,1762424116396,8,0.11160280555486679,0.3970782160758972,0.6173205375671387,0.6699172258377075,1.2370495796203613,1.3736917972564697,-1.4058104753494263,1.620086908340454,9.445509910583496,1.3727307319641113,-0.2495649755001068,0.4643106460571289,-0.06654226034879684,13.086137771606445,-30.459243774414062,29.424346923828125,-0.5682468414306641,0.39322948455810547,0.14342355728149414,2.188333749771118,9.05228042602539,1.2293071746826172
8_20251106_181551,1762424116415,8,0.11037009954452515,0.3925263285636902,0.6163598895072937,0.6736779808998108,1.2183902263641357,1.3920986652374268,-1.370961308479309,1.3639183044433594,8.588422775268555,-0.8729339838027954,-0.39739421010017395,0.37878960371017456,-0.1819957047700882,13.377107620239258,-30.759536743164062,28.794479370117188,-0.6595323085784912,-0.37108612060546875,-1.681792974472046,2.0234506130218506,8.959508895874023,0.8088589906692505
8_20251106_181551,1762424116435,8,0.11108654737472534,0.387930691242218,0.6148951053619385,0.6775497198104858,1.1966596841812134,1.409002661705017,-1.3408390283584595,1.0131828784942627,8.465126037597656,-0.746046781539917,-0.9722179174423218,-0.012163843028247356,-0.0995289608836174,13.643533706665039,-31.03845977783203,28.380420684814453,-0.8082141876220703,-0.3955059051513672,-1.243924617767334,1.821397066116333,8.860631942749023,0.4978778660297394
8_20251106_181551,1762424116454,8,0.11578740179538727,0.38614675402641296,0.609186589717865,0.6829169988632202,1.1742557287216187,1.425065040588379,-1.3113027811050415,0.8036991953849792,9.154626846313477,1.3547749519348145,-0.9722179174423218,-0.012163843028247356,-0.0995289608836174,13.841058731079102,-31.2584228515625,27.87012481689453,-0.8141582608222961,0.23519611358642578,0.6855176687240601,1.6178574562072754,8.91943073272705,0.6692572832107544
8_20251106_181551,1762424116473,8,0.12223134189844131,0.38560792803764343,0.5994493961334229,0.6906709671020508,1.1520256996154785,1.443603515625,-1.2788665294647217,1.2729425430297852,10.114660263061523,2.2645325660705566,-1.4737379550933838,-0.17221039533615112,0.05501982197165489,13.85026741027832,-31.579002380371094,27.431720733642578,-0.2759319543838501,0.9561834335327148,1.2762203216552734,1.5488744974136353,9.158476829528809,0.988312304019928
8_20251106_181551,1762424116492,8,0.12604647874832153,0.3830512762069702,0.5890714526176453,0.7002705931663513,1.1328513622283936,1.4635859727859497,-1.2475394010543823,1.8870289325714111,10.497716903686523,1.8551416397094727,-1.3436237573623657,0.3561875820159912,0.2517182528972626,13.904783248901367,-31.970672607421875,26.88556671142578,0.2705235481262207,1.0713920593261719,0.6934635639190674,1.6165053844451904,9.426324844360352,1.1616780757904053
8_20251106_181551,1762424116511,8,0.12742701172828674,0.3794894516468048,0.5797387361526489,0.709685206413269,1.1145695447921753,1.4886269569396973,-1.2128221988677979,2.2605082988739014,10.725154876708984,1.7043132781982422,-1.1915184259414673,0.25600576400756836,0.3073069453239441,13.874292373657227,-32.36749267578125,26.295429229736328,0.5152024030685425,1.0390644073486328,0.43410825729370117,1.7453058958053589,9.686090469360352,1.270205020904541
8_20251106_181551,1762424116530,8,0.1284482628107071,0.37728267908096313,0.5710066556930542,0.7177118062973022,1.0994048118591309,1.5158079862594604,-1.1790378093719482,2.231779098510742,11.356000900268555,2.16398024559021,-1.1481469869613647,0.089239701628685,0.2810397744178772,13.905126571655273,-32.759803771972656,25.65367889404297,0.3891785144805908,1.3359289169311523,0.7150201797485352,1.8426005840301514,10.020071983337402,1.4489600658416748
8_20251106_181551,1762424116549,8,0.13050299882888794,0.3762910068035126,0.5623356699943542,0.7246741652488708,1.085310697555542,1.5470752716064453,-1.1437690258026123,1.9564577341079712,12.004800796508789,2.605691432952881,-1.1823554039001465,0.1301676332950592,0.09900207817554474,13.861223220825195,-33.193878173828125,24.94061279296875,0.09108579158782959,1.587782859802246,0.9253849983215332,1.8653719425201416,10.417017936706543,1.6803064346313477
8_20251106_181551,1762424116569,8,0.1337253451347351,0.373856782913208,0.5540837049484253,0.7316692471504211,1.0699542760849,1.584999918937683,-1.104493498802185,1.4501057863235474,12.606917381286621,2.998323917388916,-1.2935328483581543,0.3671831488609314,-0.1557285189628601,13.884897232055664,-33.7235107421875,24.214862823486328,-0.3322129249572754,1.7519197463989258,1.0544140338897705,1.7823187112808228,10.854997634887695,1.9439098834991455
8_20251106_181551,1762424116587,8,0.13785527646541595,0.36808139085769653,0.546256422996521,0.739672839641571,1.054738998413086,1.622650146484375,-1.0665892362594604,0.9353746175765991,12.976804733276367,3.6997947692871094,-1.2935328483581543,0.3671831488609314,-0.1557285189628601,13.848318099975586,-34.267784118652344,23.297168731689453,-0.6775553226470947,1.6974458694458008,1.404707908630371,1.6129299402236938,11.279358863830566,2.2950868606567383
8_20251106_181551,1762424116606,8,0.1419711410999298,0.3592577278614044,0.5386855602264404,0.7487295269966125,1.0368703603744507,1.6647435426712036,-1.0238882303237915,0.6612503528594971,12.86069107055664,4.00504207611084,-1.3827190399169922,0.6365745067596436,-0.3096664249897003,13.797849655151367,-34.83837127685547,22.41900634765625,-0.7613437175750732,1.265066146850586,1.367964267730713,1.4225940704345703,11.595624923706055,2.637077808380127
8_20251106_181551,1762424116627,8,0.14379927515983582,0.3489011824131012,0.5321159362792969,0.7579197883605957,1.0157010555267334,1.7121424674987793,-0.9753820300102234,0.7043441534042358,12.550655364990234,3.7321150302886963,-0.9642767310142517,0.971939206123352,0.10205640643835068,13.716360092163086,-35.31101989746094,21.55500030517578,-0.5745998620986938,0.7640247344970703,0.8760297298431396,1.2789440155029297,11.786630630493164,2.8560853004455566
8_20251106_181551,1762424116646,8,0.14174136519432068,0.33996260166168213,0.5264636278152466,0.7662707567214966,0.9973938465118408,1.7560399770736694,-0.9310367107391357,1.23822820186615,12.93730354309082,3.8230905532836914,-0.7523066401481628,0.9982064366340637,0.5058379769325256,13.51756477355957,-35.69263458251953,20.83687973022461,-0.03257262706756592,0.9205379486083984,0.7736043930053711,1.2708008289337158,12.016765594482422,3.0494861602783203
8_20251106_181551,1762424116663,8,0.13591644167900085,0.33321234583854675,0.5210261344909668,0.7739689946174622,0.9973938465118408,1.7560399770736694,-0.9310367107391357,1.23822820186615,12.93730354309082,3.8230905532836914,-0.6264684796333313,1.1368727684020996,0.7037581205368042,13.308401107788086,-36.03778076171875,20.15960693359375,-0.03257262706756592,0.9205379486083984,0.7736043930053711,1.2708008289337158,12.016765594482422,3.0494861602783203
8_20251106_181551,1762424116682,8,0.1274673193693161,0.32660675048828125,0.5159892439842224,0.7815594673156738,0.9716448783874512,1.8434497117996216,-0.8454602956771851,2.5537853240966797,13.651941299438477,4.299516201019287,-0.5073499083518982,1.3329603672027588,0.6646628379821777,12.96660041809082,-36.366546630859375,19.47747039794922,0.9132349491119385,1.0671977996826172,0.8218531608581543,1.6405503749847412,12.58474349975586,3.477663040161133
8_20251106_181551,1762424116702,8,0.11781097948551178,0.31845906376838684,0.5121009349822998,0.7889594435691833,0.9716448783874512,1.8434497117996216,-0.8454602956771851,2.5537853240966797,13.651941299438477,4.299516201019287,-0.3900638222694397,1.4991154670715332,0.527829110622406,12.480398178100586,-36.655967712402344,18.925662994384766,0.9132349491119385,1.0671977996826172,0.8218531608581543,1.6405503749847412,12.58474349975586,3.477663040161133
8_20251106_181551,1762424116721,8,0.10799247771501541,0.3086055815219879,0.5095307230949402,0.7959136962890625,0.9604012966156006,1.9369971752166748,-0.7546266913414001,3.181039333343506,12.944485664367676,3.90688419342041,-0.3540228009223938,1.5632562637329102,0.3891628384590149,12.480398178100586,-36.655967712402344,18.925662994384766,1.0224947929382324,0.17948055267333984,0.24520611763000488,2.1585445404052734,12.765005111694336,3.6616780757904053
8_20251106_181551,1762424116739,8,0.09890414774417877,0.2978265583515167,0.5075132846832275,0.8024634718894958,0.9605116248130798,1.97756028175354,-0.7135949730873108,3.479104518890381,12.90019416809082,4.414433002471924,-0.3540228009223938,1.5632562637329102,0.3891628384590149,11.85261344909668,-36.855812072753906,18.5052490234375,1.056447982788086,0.10815048217773438,0.6022038459777832,2.422656536102295,12.792043685913086,3.8122291564941406
8_20251106_181551,1762424116759,8,0.09011495113372803,0.2863844633102417,0.505579948425293,0.8088585734367371,0.9645419716835022,2.020989418029785,-0.6667280793190002,3.710134983062744,12.99356460571289,4.981834411621094,-0.3631857931613922,1.6047950983047485,0.31463730335235596,11.161809921264648,-37.074066162109375,18.271343231201172,1.0299828052520752,0.16121673583984375,0.9356842041015625,2.680152177810669,12.832347869873047,4.046150207519531
8_20251106_181551,1762424116779,8,0.0815221443772316,0.2745070457458496,0.5044047832489014,0.8146016597747803,0.9716766476631165,2.0617473125457764,-0.6187523603439331,3.7675933837890625,12.667966842651367,5.181741714477539,-0.2654474377632141,1.625564455986023,0.2395009696483612,10.348440170288086,-37.31282043457031,18.032272338867188,0.869952917098999,-0.13150501251220703,0.9084734916687012,2.8976404666900635,12.799471855163574,4.273268222808838
8_20251106_181551,1762424116797,8,0.07268935441970825,0.2620689868927002,0.5048778057098389,0.8192279934883118,0.979889452457428,2.0948123931884766,-0.577647864818573,3.7556228637695312,12.075427055358887,4.307895660400391,0.16704478859901428,1.7135289907455444,0.1784144937992096,9.428243637084961,-37.485267639160156,17.979595184326172,0.6863861083984375,-0.5792360305786133,0.027701854705810547,3.0692367553710938,12.6546630859375,4.28019380569458
8_20251106_181551,1762424116816,8,0.06281232088804245,0.24938534200191498,0.5069480538368225,0.8227182030677795,0.9903005361557007,2.1252667903900146,-0.5377358198165894,3.8621604442596436,11.669628143310547,3.8039379119873047,0.16704478859901428,1.7135289907455444,0.1784144937992096,8.498170852661133,-37.620574951171875,17.900188446044922,0.6343388557434082,-0.7880277633666992,-0.38100481033325195,3.2278215885162354,12.457655906677246,4.184942722320557
8_20251106_181551,1762424116835,8,0.05195238068699837,0.23773929476737976,0.5098261833190918,0.8251413702964783,1.0026112794876099,2.151790142059326,-0.5013605952262878,4.109949588775635,11.579849243164062,3.623183488845825,0.3105980157852173,1.5608127117156982,0.4050453305244446,7.559661865234375,-37.670387268066406,17.984336853027344,0.7057023048400879,-0.702244758605957,-0.44940733909606934,3.404247283935547,12.28209400177002,4.0725908279418945
8_20251106_181551,1762424116854,8,0.04088394716382027,0.22772876918315887,0.5122168064117432,0.8271046280860901,1.0172345638275146,2.174804449081421,-0.4676496088504791,4.471458435058594,11.486478805541992,3.7644355297088623,0.21041616797447205,1.467961311340332,0.5644810199737549,6.6205596923828125,-37.72100830078125,18.149578094482422,0.8537688255310059,-0.6364917755126953,-0.24652409553527832,3.617689609527588,12.122970581054688,4.010959625244141
8_20251106_181551,1762424116873,8,0.029233157634735107,0.21924728155136108,0.5133291482925415,0.8291979432106018,1.034910798072815,2.1951091289520264,-0.43561413884162903,4.9969635009765625,11.554710388183594,4.014618396759033,0.12856030464172363,1.2950866222381592,0.7104776501655579,5.658803939819336,-37.736083984375,18.368698120117188,1.103419303894043,-0.4546079635620117,0.0029273033142089844,3.8935441970825195,12.009318351745605,4.011691093444824
8_20251106_181551,1762424116892,8,0.01746804639697075,0.2128864824771881,0.5132859349250793,0.8312110304832458,1.056257724761963,2.2138278484344482,-0.4033825099468231,5.553591251373291,11.801302909851074,4.667010307312012,0.12856030464172363,1.2950866222381592,0.7104776501655579,4.709037780761719,-37.750640869140625,18.615341186523438,1.3280377388000488,-0.1664133071899414,0.5242552757263184,4.225553512573242,11.967716217041016,4.142755031585693
8_20251106_181551,1762424116912,8,0.005980104207992554,0.20696577429771423,0.5137227773666382,0.8325973153114319,1.056257724761963,2.2138278484344482,-0.4033825099468231,5.553591251373291,11.801302909851074,4.667010307312012,0.39428645372390747,1.297530174255371,0.445362389087677,3.715547561645508,-37.69195556640625,18.753475189208984,1.3280377388000488,-0.1664133071899414,0.5242552757263184,4.225553512573242,11.967716217041016,4.142755031585693
8_20251106_181551,1762424116931,8,0.004415866918861866,-0.19930632412433624,-0.515984058380127,-0.8330774307250977,1.0833085775375366,2.232273578643799,-0.36772671341896057,6.101840019226074,11.877914428710938,5.269125938415527,0.5989261269569397,1.4636852741241455,0.14542779326438904,2.734861373901367,-37.608436584472656,19.00075912475586,1.5010290145874023,-0.07184123992919922,0.9010968208312988,4.600811004638672,11.949755668640137,4.3680291175842285
8_20251106_181551,1762424116951,8,0.013590097427368164,-0.18896153569221497,-0.5201780796051025,-0.832780659198761,1.1463698148727417,2.2593727111816406,-0.30245670676231384,6.35800838470459,10.92506217956543,3.909278392791748,0.5989261269569397,1.4636852741241455,0.14542779326438904,1.8184318542480469,-37.45843505859375,19.278846740722656,1.1200098991394043,-0.7149868011474609,-0.43073415756225586,5.2379984855651855,11.64004898071289,4.340012550354004
8_20251106_181551,1762424116969,8,0.021318897604942322,-0.1780424863100052,-0.5250626802444458,-0.8319588899612427,1.1463698148727417,2.2593727111816406,-0.30245670676231384,6.35800838470459,10.92506217956543,3.909278392791748,0.5347853302955627,1.2407196760177612,-0.15328505635261536,0.9271907806396484,-37.28253936767578,19.639541625976562,1.1200098991394043,-0.7149868011474609,-0.43073415756225586,5.2379984855651855,11.64004898071289,4.340012550354004
8_20251106_181551,1762424116989,8,0.026983367279171944,-0.1681811511516571,-0.5292396545410156,-0.8311993479728699,1.2111183404922485,2.275245428085327,-0.24936895072460175,5.856444358825684,10.745505332946777,4.239664077758789,0.43582528829574585,1.0525734424591064,-0.23941698670387268,0.04531669616699219,-37.15607452392578,19.999671936035156,0.36496925354003906,-0.6123466491699219,0.004918575286865234,5.4914751052856445,11.3578519821167,4.234745502471924
8_20251106_181551,1762424117008,8,0.030880523845553398,-0.15932218730449677,-0.5327869653701782,-0.8305425047874451,1.2418885231018066,2.2791693210601807,-0.22586092352867126,5.5619707107543945,10.483352661132812,3.844637870788574,0.45109689235687256,0.9371199607849121,-0.2791231870651245,-0.7985897064208984,-37.002113342285156,20.361801147460938,0.056396484375,-0.6995992660522461,-0.3120861053466797,5.5055742263793945,11.182951927185059,4.156723976135254
8_20251106_181551,1762424117027,8,0.0339658185839653,-0.1510952115058899,-0.5364042520523071,-0.8296306729316711,1.270815134048462,2.281355142593384,-0.2045815885066986,5.394383430480957,10.621012687683105,3.7728147506713867,0.45109689235687256,0.9371199607849121,-0.2791231870651245,-1.435333251953125,-36.83464813232422,20.73226547241211,-0.08895254135131836,-0.4495515823364258,-0.3071274757385254,5.483335971832275,11.070564270019531,4.079942226409912
8_20251106_181551,1762424117045,8,0.036147452890872955,-0.1442096084356308,-0.5404229760169983,-0.8281545639038086,1.2968510389328003,2.282616376876831,-0.18508405983448029,5.484162330627441,10.78381061553955,4.220511436462402,0.5708263516426086,0.6255788803100586,-0.31882938742637634,-1.958383560180664,-36.59657287597656,21.040882110595703,0.0006613731384277344,-0.22940349578857422,0.11245536804199219,5.483500957489014,11.013214111328125,4.10805606842041
8_20251106_181551,1762424117065,8,0.03754662722349167,-0.13811129331588745,-0.5451332330703735,-0.8260419368743896,1.324244499206543,2.283031940460205,-0.1639285683631897,5.454236030578613,10.71198844909668,4.297122001647949,0.7559183239936829,0.4942430257797241,-0.4226763844490051,-2.4125213623046875,-36.405853271484375,21.54061508178711,-0.02341175079345703,-0.2409811019897461,0.15125274658203125,5.47764778137207,10.952969551086426,4.145869255065918
8_20251106_181551,1762424117084,8,0.037694111466407776,-0.13246026635169983,-0.5513408184051514,-0.8228346109390259,1.3467799425125122,2.282222032546997,-0.1460842341184616,5.117865562438965,10.47976016998291,4.046938896179199,0.9281821846961975,0.35313326120376587,-0.5271342992782593,-2.803417205810547,-36.1732177734375,22.016559600830078,-0.2878255844116211,-0.3785676956176758,-0.07914447784423828,5.405691146850586,10.858327865600586,4.1260833740234375
8_20251106_181551,1762424117103,8,0.03653600811958313,-0.1273011863231659,-0.5589768886566162,-0.8185379505157471,1.3674355745315552,2.279816150665283,-0.1290249079465866,4.697700500488281,10.277459144592285,3.8218936920166016,0.9972098469734192,0.32869869470596313,-0.5931076407432556,-3.0352745056152344,-35.906219482421875,22.60753631591797,-0.5663924217224121,-0.4646949768066406,-0.24335193634033203,5.264092922210693,10.742154121398926,4.065245628356934
8_20251106_181551,1762424117123,8,0.034905508160591125,-0.12185616046190262,-0.5671866536140442,-0.8137763738632202,1.3854883909225464,2.2740917205810547,-0.11317597329616547,4.179378509521484,9.787866592407227,3.4496114253997803,0.9972098469734192,0.32869869470596313,-0.5931076407432556,-3.1711654663085938,-35.66973114013672,23.120548248291016,-0.8677716255187988,-0.7634296417236328,-0.4925074577331543,5.047150135040283,10.55129623413086,3.9421188831329346
8_20251106_181551,1762424117143,8,0.032734185457229614,-0.11629375070333481,-0.5756698250770569,-0.8087078928947449,1.3977537155151367,2.265026807785034,-0.10227328538894653,3.7089381217956543,9.2731351852417,2.811583995819092,0.9739970564842224,0.2700556516647339,-0.6297595500946045,-3.2069454193115234,-35.376930236816406,23.665573120117188,-1.0705695152282715,-1.0225286483764648,-0.9044280052185059,4.779507637023926,10.295663833618164,3.7160120010375977
8_20251106_181551,1762424117160,8,0.03049520216882229,-0.11094381660223007,-0.5836320519447327,-0.803825318813324,1.405359148979187,2.2552664279937744,-0.09558994323015213,3.732879161834717,9.184553146362305,2.7505345344543457,0.8396068215370178,0.16865210235118866,-0.5521796941757202,-3.2069454193115234,-35.376930236816406,23.665573120117188,-0.8373026847839355,-0.8888883590698242,-0.7723817825317383,4.570181846618652,10.073441505432129,3.522916316986084
8_20251106_181551,1762424117179,8,0.028140000998973846,-0.10677733272314072,-0.5905167460441589,-0.7994352579116821,1.4113867282867432,2.2432198524475098,-0.08920726180076599,3.823854923248291,9.459875106811523,3.262871742248535,0.7992897629737854,0.007383827120065689,-0.5081974267959595,-3.1569290161132812,-35.07789611816406,24.14645004272461,-0.5970616340637207,-0.49085235595703125,-0.20803570747375488,4.420916557312012,9.950727462768555,3.47090744972229
8_20251106_181551,1762424117199,8,0.025160184130072594,-0.10414019227027893,-0.597011923789978,-0.7950462698936462,1.415435552597046,2.2292590141296387,-0.08373721688985825,3.7699875831604004,9.321016311645508,3.170698881149292,0.9220735430717468,-0.13067160546779633,-0.5204147100448608,-3.0054798126220703,-34.68595886230469,24.768260955810547,-0.5207433700561523,-0.5037689208984375,-0.24016690254211426,4.290730953216553,9.824785232543945,3.4108657836914062
8_20251106_181551,1762424117219,8,0.02144678682088852,-0.10244983434677124,-0.6043154001235962,-0.7898398041725159,1.4169273376464844,2.2128779888153076,-0.08141780644655228,3.5162131786346436,8.799102783203125,2.464439868927002,0.9972098469734192,-0.271781325340271,-0.550347089767456,-2.8582592010498047,-34.369361877441406,25.38848876953125,-0.6196143627166748,-0.8205461502075195,-0.7571408748626709,4.135827541351318,9.619648933410645,3.221580743789673
8_20251106_181551,1762424117236,8,0.01680600829422474,-0.10161487758159637,-0.6121527552604675,-0.7840031981468201,1.4169273376464844,2.2128779888153076,-0.08141780644655228,3.5162131786346436,8.799102783203125,2.464439868927002,0.9972098469734192,-0.271781325340271,-0.550347089767456,-2.6322975158691406,-33.95915222167969,25.91889190673828,-0.6196143627166748,-0.8205461502075195,-0.7571408748626709,4.135827541351318,9.619648933410645,3.221580743789673
8_20251106_181551,1762424117256,8,0.011934091337025166,-0.10273876786231995,-0.6189605593681335,-0.7785821557044983,1.4122591018676758,2.1747348308563232,-0.08607938885688782,3.0613343715667725,8.23409652709961,1.9173880815505981,0.6795602440834045,-0.46420374512672424,-0.265073299407959,-2.311145782470703,-33.56891632080078,26.574337005615234,-0.704338550567627,-0.8833065032958984,-0.859390377998352,3.7656729221343994,9.117403030395508,2.77677845954895
8_20251106_181551,1762424117275,8,0.00801962148398161,-0.10494426637887955,-0.6241787672042847,-0.7741597294807434,1.4070603847503662,2.152439832687378,-0.09299996495246887,3.0960488319396973,8.117981910705566,1.5702438354492188,0.6795602440834045,-0.46420374512672424,-0.265073299407959,-1.9423770904541016,-33.211830139160156,27.095787048339844,-0.5356993675231934,-0.7995367050170898,-0.9652278423309326,3.6317481994628906,8.917518615722656,2.5354716777801514
8_20251106_181551,1762424117294,8,0.003720126813277602,-0.10730083286762238,-0.6284306645393372,-0.7704204320907593,1.4070603847503662,2.152439832687378,-0.09299996495246887,3.0960488319396973,8.117981910705566,1.5702438354492188,0.45048603415489197,-0.5924853086471558,-0.32799237966537476,-1.5976829528808594,-32.855926513671875,27.57571029663086,-0.5356993675231934,-0.7995367050170898,-0.9652278423309326,3.6317481994628906,8.917518615722656,2.5354716777801514
8_20251106_181551,1762424117313,8,0.0016510436544194818,0.11008413136005402,0.6320058703422546,0.7671031951904297,1.3999707698822021,2.1255640983581543,-0.10360594093799591,3.145127773284912,7.883359909057617,1.5391204357147217,0.39489734172821045,-0.8398855328559875,-0.3524269461631775,-1.2442283630371094,-32.56188201904297,28.04128646850586,-0.389296293258667,-0.827326774597168,-0.7970809936523438,3.534424066543579,8.710686683654785,2.3362014293670654
8_20251106_181551,1762424117333,8,0.008707340806722641,0.114520363509655,0.6351296901702881,0.7638190388679504,1.3933278322219849,2.1006667613983154,-0.11369045823812485,3.334261655807495,8.055734634399414,1.9832258224487305,0.39489734172821045,-0.8398855328559875,-0.3524269461631775,-0.8666858673095703,-32.255035400390625,28.643272399902344,-0.16012978553771973,-0.523961067199707,-0.2823805809020996,3.494391441345215,8.579695701599121,2.26560640335083
8_20251106_181551,1762424117351,8,0.016835946589708328,0.12030927836894989,0.6386206150054932,0.759872317314148,1.3788700103759766,2.05320405960083,-0.1314111053943634,2.691446304321289,8.046158790588379,1.9928021430969238,0.5543330311775208,-1.0158145427703857,-0.4813194274902344,-0.4036693572998047,-31.965591430664062,29.031902313232422,-0.6035199165344238,-0.3428049087524414,-0.2362666130065918,3.294966220855713,8.38896369934082,2.2290687561035156
8_20251106_181551,1762424117370,8,0.025553515180945396,0.12511759996414185,0.6427168846130371,0.7553857564926147,1.3672071695327759,2.0272843837738037,-0.14368095993995667,1.9540636539459229,7.563747882843018,1.0375568866729736,0.5543330311775208,-1.0158145427703857,-0.4813194274902344,0.1574420928955078,-31.657371520996094,29.438236236572266,-1.0727219581604004,-0.6601729393005371,-0.953209400177002,3.0267856121063232,8.223920822143555,1.9907662868499756
8_20251106_181551,1762424117390,8,0.034968599677085876,0.12770609557628632,0.6462047696113586,0.7515901327133179,1.351029872894287,1.9997360706329346,-0.15942716598510742,1.1687991619110107,7.157947540283203,0.5000815987586975,0.08030198514461517,-0.7085496187210083,-0.7140588760375977,0.7387943267822266,-31.422767639160156,29.830448150634766,-1.48638916015625,-0.852778434753418,-1.1925477981567383,2.6551883220672607,8.010725975036621,1.6926294565200806
8_20251106_181551,1762424117410,8,0.04414339363574982,0.12849357724189758,0.6473644375801086,0.7499733567237854,1.3275614976882935,1.9669010639190674,-0.17957648634910583,0.7211028337478638,6.844321250915527,0.6138013005256653,-0.2856059670448303,-0.5735485553741455,-0.6315921545028687,1.3189220428466797,-31.224624633789062,30.100223541259766,-1.5472685098648071,-0.9331235885620117,-0.8630625605583191,2.268371343612671,7.777444839477539,1.4768638610839844
8_20251106_181551,1762424117431,8,0.05235183611512184,0.1284862458705902,0.645932674407959,0.750680685043335,1.3275614976882935,1.9669010639190674,-0.17957648634910583,0.7211028337478638,6.844321250915527,0.6138013005256653,-0.2856059670448303,-0.5735485553741455,-0.6315921545028687,2.0284461975097656,-31.116851806640625,30.238121032714844,-1.5472685098648071,-0.9331235885620117,-0.8630625605583191,2.268371343612671,7.777444839477539,1.4768638610839844
8_20251106_181551,1762424117448,8,0.06004845350980759,0.12993024289608002,0.6434754133224487,0.7519652247428894,1.277651071548462,1.9088696241378784,-0.21121414005756378,0.6456886529922485,7.385387420654297,1.841973900794983,-0.08646408468484879,-0.9742757678031921,-0.29867082834243774,2.787616729736328,-30.993072509765625,30.351211547851562,-1.0561375617980957,-0.21529245376586914,0.2702522277832031,1.7018262147903442,7.600679874420166,1.5717216730117798
8_20251106_181551,1762424117467,8,0.06814239174127579,0.1348620057106018,0.642553985118866,0.7511945366859436,1.2464592456817627,1.879271388053894,-0.22637873888015747,0.1872187703847885,7.485939979553223,1.6193227767944336,0.2598962187767029,-1.286427617073059,-0.18932607769966125,3.6455726623535156,-30.849571228027344,30.38739013671875,-1.2116860151290894,-0.09179210662841797,0.038080811500549316,1.398904800415039,7.577732086181641,1.5812419652938843
8_20251106_181551,1762424117487,8,0.07689747959375381,0.14284369349479675,0.6436629891395569,0.7479174137115479,1.2464592456817627,1.879271388053894,-0.22637873888015747,0.1872187703847885,7.485939979553223,1.6193227767944336,0.27761131525039673,-1.3065862655639648,-0.09525290876626968,4.504419326782227,-30.704856872558594,30.301921844482422,-1.2116860151290894,-0.09179210662841797,0.038080811500549316,1.398904800415039,7.577732086181641,1.5812419652938843
8_20251106_181551,1762424117504,8,0.08513148128986359,0.15144090354442596,0.6447116732597351,0.7444226741790771,1.1786819696426392,1.8275192975997925,-0.25304892659187317,-0.8601994514465332,7.573324203491211,1.339213252067566,0.27761131525039673,-1.3065862655639648,-0.09525290876626968,5.320772171020508,-30.66339111328125,30.25341796875,-1.5178413391113281,0.021694660186767578,-0.1899479627609253,0.6576418280601501,7.551629543304443,1.5291612148284912
8_20251106_181551,1762424117523,8,0.09155647456645966,0.15798179805278778,0.6440805792808533,0.7428454160690308,1.1394087076187134,1.803384780883789,-0.2659112811088562,-1.0744712352752686,7.677467346191406,1.5558791160583496,-0.29354721307754517,-0.7073279023170471,-0.023781724274158478,6.0898895263671875,-30.599853515625,30.189964294433594,-1.385690450668335,0.10067033767700195,0.02137434482574463,0.3112192153930664,7.576797008514404,1.534504771232605
8_20251106_181551,1762424117543,8,0.09645996242761612,0.16194947063922882,0.6414824724197388,0.7436182498931885,1.0987176895141602,1.7814950942993164,-0.2756185531616211,-0.9212489128112793,7.955183029174805,2.450075149536133,-0.29354721307754517,-0.7073279023170471,-0.023781724274158478,6.794031143188477,-30.626968383789062,30.000564575195312,-0.9859745502471924,0.30270862579345703,0.7324563264846802,0.0647256076335907,7.652474403381348,1.7176188230514526
8_20251106_181551,1762424117562,8,0.10002678632736206,0.16427412629127502,0.6373308300971985,0.7462024092674255,1.0560009479522705,1.7619521617889404,-0.28259697556495667,-0.6016367673873901,8.424427032470703,2.6152679920196533,-0.531173586845398,-0.4299952983856201,0.12832358479499817,7.499273300170898,-30.6409912109375,29.757366180419922,-0.5330898761749268,0.6175622940063477,0.7181193828582764,-0.06854686141014099,7.8068647384643555,1.897148609161377
8_20251106_181551,1762424117581,8,0.10247144848108292,0.16684490442276,0.6328638195991516,0.7490966320037842,1.0166301727294922,1.7467446327209473,-0.28705283999443054,-0.3670150637626648,8.69256591796875,2.5685830116271973,-0.531173586845398,-0.4299952983856201,0.12832358479499817,7.499273300170898,-30.6409912109375,29.757366180419922,-0.23877456784248352,0.7085609436035156,0.5371475219726562,-0.12824049592018127,7.984004974365234,2.031435489654541
8_20251106_181551,1762424117600,8,0.10493732243776321,0.17153188586235046,0.62939453125,0.750618040561676,1.0166301727294922,1.7467446327209473,-0.28705283999443054,-0.3670150637626648,8.69256591796875,2.5685830116271973,-0.3381403088569641,-0.6053134799003601,0.22911624610424042,8.06684684753418,-30.726669311523438,29.52096939086914,-0.23877456784248352,0.7085609436035156,0.5371475219726562,-0.12824049592018127,7.984004974365234,2.031435489654541
8_20251106_181551,1762424117619,8,0.10793578624725342,0.1780748814344406,0.6267196536064148,0.7509072422981262,0.9435802102088928,1.7273762226104736,-0.29026639461517334,-0.01508256047964096,9.340168952941895,2.823554515838623,-0.1725960075855255,-0.7458124160766602,0.24622046947479248,8.595945358276367,-30.852134704589844,29.25527572631836,0.09540442377328873,0.9129543304443359,0.536834716796875,-0.11048698425292969,8.427214622497559,2.286719799041748
8_20251106_181551,1762424117638,8,0.11092047393321991,0.18417182564735413,0.6241911053657532,0.7511077523231506,0.9108558893203735,1.7231252193450928,-0.28995051980018616,0.1944010853767395,9.587959289550781,2.62005615234375,-0.21535652875900269,-0.5167381167411804,0.0959477573633194,8.978006362915039,-30.99982452392578,28.9969482421875,0.24391046166419983,0.9285955429077148,0.26666903495788574,-0.04950937628746033,8.659363746643066,2.3533871173858643
8_20251106_181551,1762424117658,8,0.1136195957660675,0.187636137008667,0.6218305230140686,0.751804530620575,0.9108558893203735,1.7231252193450928,-0.28995051980018616,0.1944010853767395,9.587959289550781,2.62005615234375,-0.21535652875900269,-0.5167381167411804,0.0959477573633194,9.347177505493164,-31.160858154296875,28.737865447998047,0.24391046166419983,0.9285955429077148,0.26666903495788574,-0.04950937628746033,8.659363746643066,2.3533871173858643
8_20251106_181551,1762424117676,8,0.11621460318565369,0.1883121132850647,0.6195001006126404,0.7531615495681763,0.8516548275947571,1.7227771282196045,-0.28665614128112793,0.11539581418037415,9.711254119873047,2.7984166145324707,-0.29354721307754517,-0.26811614632606506,-0.0738726332783699,9.666589736938477,-31.349647521972656,28.422229766845703,0.09500529617071152,0.6902561187744141,0.30550384521484375,0.020390519872307777,9.020998001098633,2.492912769317627
8_20251106_181551,1762424117696,8,0.11850885301828384,0.18695886433124542,0.6172754764556885,0.754965603351593,0.8248266577720642,1.72556471824646,-0.2840040326118469,0.13215452432632446,9.6873140335083,2.7253966331481934,-0.28499510884284973,0.031207552179694176,-0.21498239040374756,9.97199821472168,-31.576499938964844,28.064762115478516,0.08941120654344559,0.5330533981323242,0.18598699569702148,0.042743317782878876,9.154260635375977,2.539409637451172
8_20251106_181551,1762424117715,8,0.12033765017986298,0.184653177857399,0.6155666708946228,0.7566370964050293,0.7989726066589355,1.7292850017547607,-0.2814852297306061,0.3631850481033325,9.461071014404297,2.49556303024292,-0.1884784996509552,0.05869646370410919,-0.20520856976509094,10.267049789428711,-31.755264282226562,27.84302520751953,0.25635337829589844,0.24544811248779297,-0.03507733345031738,0.10683166235685349,9.215622901916504,2.5306403636932373
8_20251106_181551,1762424117735,8,0.12178657203912735,0.1823655515909195,0.6145681738853455,0.7577709555625916,0.7766579389572144,1.7328693866729736,-0.2805989384651184,0.4781017601490021,9.298272132873535,2.02512264251709,-0.12494855374097824,0.037927061319351196,-0.19299127161502838,10.47709846496582,-31.939186096191406,27.57730484008789,0.29701608419418335,0.06611919403076172,-0.40441417694091797,0.18108567595481873,9.232152938842773,2.429536819458008
8_20251106_181551,1762424117753,8,0.1231410950422287,0.18046975135803223,0.6139931082725525,0.7584717869758606,0.7564873695373535,1.735480546951294,-0.28092890977859497,0.5559099912643433,8.9427490234375,2.002378463745117,-0.18542417883872986,-0.020105084404349327,-0.1771087944507599,10.677484512329102,-32.074073791503906,27.352699279785156,0.2998594641685486,-0.2315235137939453,-0.34172677993774414,0.2560505270957947,9.174272537231445,2.3441052436828613
8_20251106_181551,1762424117772,8,0.12480664998292923,0.1790894716978073,0.6129519939422607,0.7593682408332825,0.7564873695373535,1.735480546951294,-0.28092890977859497,0.5559099912643433,8.9427490234375,2.002378463745117,-0.2703343629837036,-0.03843102604150772,-0.12335268408060074,10.786230087280273,-32.10298156738281,27.19412612915039,0.2998594641685486,-0.2315235137939453,-0.34172677993774414,0.2560505270957947,9.174272537231445,2.3441052436828613
8_20251106_181551,1762424117792,8,0.12638132274150848,0.1781376153230667,0.6111528873443604,0.7607804536819458,0.7215002179145813,1.736499309539795,-0.2809165120124817,0.5547128915786743,8.80748176574707,2.621253252029419,-0.3692944049835205,5.345058161765337e-05,-0.07875955104827881,10.964071273803711,-32.190582275390625,27.104759216308594,0.18578115105628967,-0.20525074005126953,0.22123456001281738,0.36893174052238464,9.01273250579834,2.4000186920166016
8_20251106_181551,1762424117810,8,0.12748289108276367,0.17697390913963318,0.6085518002510071,0.7629502415657043,0.7057793140411377,1.7367677688598633,-0.27941378951072693,0.4134611189365387,9.062454223632812,2.8127810955047607,-0.47986096143722534,0.13261109590530396,-0.06959658116102219,11.139886856079102,-32.32733154296875,26.906204223632812,0.035623520612716675,0.03977775573730469,0.33020997047424316,0.377837598323822,9.022676467895508,2.4825711250305176
8_20251106_181551,1762424117831,8,0.12793314456939697,0.17473956942558289,0.6052547097206116,0.7660064697265625,0.6895723342895508,1.7376242876052856,-0.27633601427078247,0.46732833981513977,9.194129943847656,2.9300918579101562,-0.47558489441871643,0.2547840476036072,-0.07204004377126694,11.232725143432617,-32.42008972167969,26.77285385131836,0.07159259915351868,0.1371631622314453,0.3580164909362793,0.3957357406616211,9.056966781616211,2.572075366973877
8_20251106_181551,1762424117849,8,0.1277834177017212,0.17162959277629852,0.6021071076393127,0.7692084908485413,0.6768757104873657,1.738709568977356,-0.27429234981536865,0.599003791809082,9.214478492736816,2.384237289428711,-0.4047245979309082,0.26150357723236084,-0.02866864576935768,11.272279739379883,-32.60337829589844,26.581626892089844,0.16261443495750427,0.1260089874267578,-0.1502704620361328,0.43638935685157776,9.088469505310059,2.5345077514648438
8_20251106_181551,1762424117869,8,0.12710995972156525,0.16878418624401093,0.5994051098823547,0.7720547318458557,0.6643356084823608,1.7406312227249146,-0.2733416259288788,0.7199057340621948,9.34376049041748,2.1376452445983887,-0.3741813600063324,0.11306342482566833,0.023865720257163048,11.342550277709961,-32.67206573486328,26.393756866455078,0.22681307792663574,0.20423221588134766,-0.3174901008605957,0.4930926561355591,9.139528274536133,2.4551353454589844
8_20251106_181551,1762424117887,8,0.1268884390592575,0.16748708486557007,0.5967431664466858,0.7744320631027222,0.6544966101646423,1.7433372735977173,-0.2733518183231354,0.8515812158584595,9.571199417114258,2.1208863258361816,-0.4212179183959961,-0.024381136521697044,0.0647936537861824,11.384824752807617,-32.805267333984375,26.21710205078125,0.2867908477783203,0.3453369140625,-0.26739931106567383,0.5647903680801392,9.225862503051758,2.3882856369018555
8_20251106_181551,1762424117905,8,0.1272612363100052,0.1674659550189972,0.5935390591621399,0.7768340706825256,0.6462182998657227,1.74746572971344,-0.2740405797958374,0.9988182187080383,9.858491897583008,2.1125071048736572,-0.4450416564941406,-0.0549243725836277,0.0800652727484703,11.388425827026367,-32.978515625,26.038185119628906,0.3472222685813904,0.506103515625,-0.22062277793884277,0.651595950126648,9.352388381958008,2.3331298828125
8_20251106_181551,1762424117924,8,0.12767304480075836,0.1677204817533493,0.5901199579238892,0.7793124318122864,0.6390896439552307,1.754311203956604,-0.2760295271873474,1.0790205001831055,10.338508605957031,1.8599295616149902,-0.4450416564941406,-0.0549243725836277,0.0800652727484703,11.450845718383789,-33.18547058105469,25.86092758178711,0.34193962812423706,0.7888965606689453,-0.37856030464172363,0.7370808720588684,9.549612045288086,2.238489866256714
8_20251106_181551,1762424117943,8,0.1279946118593216,0.1680872142314911,0.5870120525360107,0.7815247774124146,0.6334822177886963,1.764502763748169,-0.2798706591129303,1.1616169214248657,10.893939971923828,1.5271499156951904,-0.403502881526947,-0.05248091369867325,0.08434132486581802,11.481317520141602,-33.330535888671875,25.534839630126953,0.3396288752555847,1.0754623413085938,-0.5690720081329346,0.821988046169281,9.818477630615234,2.096221923828125
8_20251106_181551,1762424117963,8,0.1287928968667984,0.1691862940788269,0.5843339562416077,0.7831616997718811,0.6286343336105347,1.7789243459701538,-0.28540173172950745,1.0718382596969604,11.2099609375,1.5403175354003906,-0.24651062488555908,-0.2607857882976532,0.01958966627717018,11.436372756958008,-33.50669860839844,25.326927185058594,0.1998801827430725,1.1131868362426758,-0.4447234869003296,0.8719580769538879,10.096774101257324,1.9850410223007202
8_20251106_181551,1762424117983,8,0.1305869221687317,0.17106589674949646,0.5823902487754822,0.7839037179946899,0.6286343336105347,1.7789243459701538,-0.28540173172950745,1.0718382596969604,11.2099609375,1.5403175354003906,-0.1634330451488495,-0.23879466950893402,-0.02317086234688759,11.436372756958008,-33.50669860839844,25.326927185058594,0.1998801827430725,1.1131868362426758,-0.4447234869003296,0.8719580769538879,10.096774101257324,1.9850410223007202
8_20251106_181551,1762424118002,8,0.1323929727077484,0.17257310450077057,0.5811999440193176,0.7841538786888123,0.6232775449752808,1.7981513738632202,-0.29209545254707336,0.7929257154464722,11.22671890258789,1.736633539199829,-0.1634330451488495,-0.23879466950893402,-0.02317086234688759,11.518796920776367,-33.82238006591797,24.877952575683594,-0.06322586536407471,0.9039554595947266,-0.19872593879699707,0.8561515808105469,10.322763442993164,1.9353594779968262
8_20251106_181551,1762424118021,8,0.13305090367794037,0.1726449728012085,0.5806028246879578,0.784468948841095,0.6148129105567932,1.8311537504196167,-0.30320727825164795,0.9377687573432922,10.887954711914062,1.6157315969467163,-0.0907401368021965,0.15765655040740967,0.04219166189432144,11.518796920776367,-33.82238006591797,24.877952575683594,0.09034901857376099,0.3287792205810547,-0.23444032669067383,0.8474197387695312,10.559175491333008,1.8501719236373901
8_20251106_181551,1762424118040,8,0.13207918405532837,0.17153185606002808,0.5803238749504089,0.785083532333374,0.6117258071899414,1.8494873046875,-0.31016069650650024,1.2537897825241089,10.686849594116211,1.6157315969467163,-0.04859047010540962,0.19858448207378387,0.1521472930908203,11.521581649780273,-34.019935607910156,24.617408752441406,0.325096070766449,0.10213851928710938,-0.1875523328781128,0.9286937117576599,10.584711074829102,1.803283929824829
8_20251106_181551,1762424118060,8,0.13002297282218933,0.17088496685028076,0.5802265405654907,0.7856395840644836,0.6117258071899414,1.8494873046875,-0.31016069650650024,1.2537897825241089,10.686849594116211,1.6157315969467163,-0.04859047010540962,0.19858448207378387,0.1521472930908203,11.514703750610352,-34.16846466064453,24.397979736328125,0.325096070766449,0.10213851928710938,-0.1875523328781128,0.9286937117576599,10.584711074829102,1.803283929824829
8_20251106_181551,1762424118079,8,0.1274235099554062,0.17217040061950684,0.580039918422699,0.7859225869178772,0.611922562122345,1.882460117340088,-0.32164889574050903,1.9157580137252808,10.57672119140625,2.350719928741455,-0.00216475035995245,0.06602683663368225,0.30425262451171875,11.499475479125977,-34.24298095703125,24.23371124267578,0.6920524835586548,-0.000133514404296875,0.44037723541259766,1.223705530166626,10.576854705810547,1.9103426933288574
8_20251106_181551,1762424118096,8,0.1252509355545044,0.17656990885734558,0.5795989632606506,0.7856209874153137,0.6153513789176941,1.8956832885742188,-0.32381385564804077,2.2748727798461914,10.55996322631836,2.726593494415283,0.17070996761322021,-0.5081859827041626,0.5113357901573181,11.459070205688477,-34.33177947998047,24.081714630126953,0.8409337997436523,-0.013513565063476562,0.6530005931854248,1.433938980102539,10.573476791381836,2.0735929012298584
8_20251106_181551,1762424118117,8,0.1239493116736412,0.18356093764305115,0.5794618129730225,0.784325122833252,0.6226590871810913,1.911247968673706,-0.32333940267562866,2.4137306213378906,10.587494850158691,2.9731857776641846,0.27761131525039673,-0.6718977689743042,0.3879410922527313,11.391992568969727,-34.44849395751953,24.049854278564453,0.7838332653045654,0.011214256286621094,0.7196743488311768,1.6298973560333252,10.57628059387207,2.253511428833008
8_20251106_181551,1762424118136,8,0.12430281192064285,0.19126489758491516,0.5800060033798218,0.7820227742195129,0.6304798722267151,1.9238818883895874,-0.3203265368938446,2.191079616546631,10.304990768432617,3.203019142150879,0.2782221734523773,-0.5417835712432861,0.12404753267765045,11.353914260864258,-34.48773956298828,23.96649169921875,0.4489457607269287,-0.21703147888183594,0.7596063613891602,1.7421338558197021,10.522022247314453,2.4434127807617188
8_20251106_181551,1762424118154,8,0.12585493922233582,0.19649116694927216,0.5811089277267456,0.7796564698219299,0.6377250552177429,1.9339044094085693,-0.31620728969573975,1.8259793519973755,9.974605560302734,3.015082359313965,0.23729422688484192,-0.17892992496490479,-0.18566088378429413,11.219755172729492,-34.50822448730469,23.87973403930664,0.06707632541656494,-0.43793296813964844,0.4573357105255127,1.7589030265808105,10.412538528442383,2.557746648788452
8_20251106_181551,1762424118173,8,0.12777483463287354,0.19717177748680115,0.5828614830970764,0.7778620719909668,0.6443434953689575,1.941442847251892,-0.3126084506511688,1.5231258869171143,9.49698257446289,2.3638875484466553,0.2018640637397766,0.1662086546421051,-0.4532196521759033,11.191858291625977,-34.572601318359375,23.87743377685547,-0.18862175941467285,-0.7324447631835938,-0.15508723258972168,1.711747646331787,10.229427337646484,2.518974781036377
8_20251106_181551,1762424118193,8,0.12979048490524292,0.19366705417633057,0.5853061676025391,0.7765721082687378,0.6497189402580261,1.9458194971084595,-0.31149712204933167,1.3028687238693237,9.189340591430664,1.7007222175598145,0.12245165556669235,0.30365321040153503,-0.5851663947105408,11.144338607788086,-34.53932189941406,23.997909545898438,-0.3271031379699707,-0.8320693969726562,-0.65460205078125,1.6299718618392944,10.02140998840332,2.3553242683410645
8_20251106_181551,1762424118212,8,0.13221484422683716,0.18834884464740753,0.5876427888870239,0.7757060527801514,0.6530389785766602,1.946869134902954,-0.31234264373779297,1.0718382596969604,8.964296340942383,1.6815693378448486,0.03448713198304176,0.24562107026576996,-0.6114335656166077,11.257043838500977,-34.470062255859375,24.071224212646484,-0.4465068578720093,-0.8456907272338867,-0.5390040874481201,1.5183451175689697,9.80998706817627,2.2205734252929688
8_20251106_181551,1762424118232,8,0.13529399037361145,0.18320761620998383,0.589388906955719,0.77508145570755,0.6542229056358337,1.9448384046554565,-0.3148558437824249,0.8156697154045105,8.796709060668945,1.6719928979873657,0.04120664671063423,0.1252807229757309,-0.5821120738983154,11.396333694458008,-34.36140441894531,24.132797241210938,-0.5621404051780701,-0.8106222152709961,-0.4388643503189087,1.3778101205825806,9.607331275939941,2.1108572483062744
8_20251106_181551,1762424118250,8,0.1388772875070572,0.17913730442523956,0.5909432768821716,0.774215042591095,0.6530992984771729,1.9407906532287598,-0.3177433907985687,0.5104221105575562,8.668624877929688,1.8108506202697754,0.04120664671063423,0.1252807229757309,-0.5821120738983154,11.609048843383789,-34.2359619140625,24.25164031982422,-0.6939103603363037,-0.7509651184082031,-0.2400052547454834,1.2043324708938599,9.41958999633789,2.050855875015259
8_20251106_181551,1762424118270,8,0.14238335192203522,0.17617058753967285,0.5923937559127808,0.7731497883796692,0.6530992984771729,1.9407906532287598,-0.3177433907985687,0.5104221105575562,8.668624877929688,1.8108506202697754,0.015550327487289906,0.06480510532855988,-0.3872462511062622,11.825475692749023,-34.05908203125,24.249893188476562,-0.6939103603363037,-0.7509651184082031,-0.2400052547454834,1.2043324708938599,9.41958999633789,2.050855875015259
8_20251106_181551,1762424118288,8,0.14488501846790314,0.17346245050430298,0.5933199524879456,0.7725869417190552,0.6437644958496094,1.9282296895980835,-0.3237171173095703,0.22432731091976166,9.008586883544922,1.9999845027923584,-0.060807764530181885,0.14666098356246948,-0.27790144085884094,12.028726577758789,-33.88434600830078,24.38282012939453,-0.6388864517211914,-0.22033119201660156,-0.03485608100891113,0.8632137775421143,9.228918075561523,2.0348405838012695
8_20251106_181551,1762424118307,8,0.14625263214111328,0.17060813307762146,0.5935875773429871,0.772759199142456,0.6437644958496094,1.9282296895980835,-0.3237171173095703,0.22432731091976166,9.008586883544922,1.9999845027923584,-0.13899844884872437,0.14971531927585602,-0.18993695080280304,12.256040573120117,-33.72003936767578,24.462398529052734,-0.6388864517211914,-0.22033119201660156,-0.03485608100891113,0.8632137775421143,9.228918075561523,2.0348405838012695
8_20251106_181551,1762424118327,8,0.1470169574022293,0.168061301112175,0.5931702256202698,0.7734923958778381,0.6356893181800842,1.9212595224380493,-0.3264555335044861,0.22193320095539093,9.180961608886719,2.146024703979492,-0.17565032839775085,0.0996243953704834,-0.10441587120294571,12.389387130737305,-33.499298095703125,24.539371490478516,-0.5130244493484497,-0.03836536407470703,0.08894729614257812,0.7349576354026794,9.219326972961426,2.057077407836914
8_20251106_181551,1762424118345,8,0.1475045382976532,0.16632448136806488,0.5922540426254272,0.7744764089584351,0.6196011304855347,1.9118143320083618,-0.3292752802371979,0.24826830625534058,9.505361557006836,2.305232048034668,-0.13838757574558258,0.022044582292437553,-0.06165533512830734,12.554742813110352,-33.375152587890625,24.467025756835938,-0.31416261196136475,0.19397926330566406,0.16437315940856934,0.5624309182167053,9.311382293701172,2.1408588886260986
8_20251106_181551,1762424118364,8,0.1480134278535843,0.1654323935508728,0.5914337038993835,0.7751969695091248,0.6102643609046936,1.9081593751907349,-0.3292774558067322,0.20038631558418274,9.547258377075195,2.5470361709594727,-0.106622613966465,-0.021326813846826553,-0.01584048569202423,12.647489547729492,-33.24348449707031,24.41903305053711,-0.28963568806648254,0.18870067596435547,0.32494187355041504,0.4900220036506653,9.35855770111084,2.2220942974090576
8_20251106_181551,1762424118383,8,0.14842185378074646,0.1651936173439026,0.5907062888145447,0.7757242918014526,0.6007705926895142,1.9053559303283691,-0.3283748924732208,0.26263290643692017,9.602322578430176,2.5518243312835693,-0.106622613966465,-0.021326813846826553,-0.01584048569202423,12.734598159790039,-33.21227264404297,24.368927001953125,-0.18191128969192505,0.19501209259033203,0.26378393173217773,0.4445441961288452,9.407310485839844,2.2880403995513916
8_20251106_181551,1762424118403,8,0.14804930984973907,0.16477642953395844,0.5899336934089661,0.776471734046936,0.5911604762077332,1.9033491611480713,-0.3265867233276367,0.4062788188457489,9.669357299804688,2.5793564319610596,-0.10295742750167847,0.13383282721042633,0.06906971335411072,12.759660720825195,-33.209739685058594,24.27529525756836,-0.030612319707870483,0.20963764190673828,0.23305296897888184,0.4368911385536194,9.45971965789795,2.3463034629821777
8_20251106_181551,1762424118423,8,0.1469910591840744,0.16389107704162598,0.589276134967804,0.7773590087890625,0.5830503702163696,1.9025894403457642,-0.3247210383415222,0.642097532749176,9.84292984008789,2.4381046295166016,-0.07119246572256088,0.21019092202186584,0.06540451943874359,12.759660720825195,-33.209739685058594,24.27529525756836,0.16416513919830322,0.3065681457519531,0.0734410285949707,0.4779323935508728,9.536361694335938,2.364663600921631
8_20251106_181551,1762424118440,8,0.14547210931777954,0.16249875724315643,0.5889567732810974,0.7781785726547241,0.576777458190918,1.9028728008270264,-0.32376009225845337,0.8946750164031982,9.929118156433105,2.0730044841766357,-0.05714257434010506,0.21935388445854187,-0.000568869523704052,12.755430221557617,-33.28507995605469,24.273712158203125,0.3333941102027893,0.3142051696777344,-0.23332738876342773,0.5612809062004089,9.614912986755371,2.3063318729400635
8_20251106_181551,1762424118460,8,0.1443503201007843,0.16075687110424042,0.5888756513595581,0.7788103818893433,0.5712750554084778,1.9042434692382812,-0.3239354193210602,0.9293893575668335,9.967423439025879,1.9149940013885498,-0.11273126304149628,0.1411632001399994,-0.08792252093553543,12.788152694702148,-33.35749816894531,24.21953582763672,0.29448676109313965,0.28200817108154297,-0.31307029724121094,0.6349025964736938,9.685415267944336,2.2280642986297607
8_20251106_181551,1762424118480,8,0.1444387584924698,0.15916584432125092,0.5884499549865723,0.779442310333252,0.5661278963088989,1.9062756299972534,-0.32344162464141846,0.6612503528594971,9.925527572631836,2.445286989212036,-0.18542416393756866,0.03304014727473259,-0.14656555652618408,12.764089584350586,-33.347068786621094,24.272884368896484,0.021078169345855713,0.19209003448486328,0.17377805709838867,0.6401721835136414,9.733437538146973,2.2715089321136475
8_20251106_181551,1762424118499,8,0.14559954404830933,0.15791992843151093,0.5874690413475037,0.780219316482544,0.5611069202423096,1.90865957736969,-0.3210708796977997,0.5032398104667664,9.933906555175781,2.9731855392456055,-0.1884784996509552,0.025098903104662895,-0.13679170608520508,12.760156631469727,-33.42200469970703,24.230751037597656,-0.10954588651657104,0.16037464141845703,0.5613412857055664,0.6127856969833374,9.773531913757324,2.411844253540039
8_20251106_181551,1762424118518,8,0.1467423439025879,0.15667934715747833,0.5863634943962097,0.7810865044593811,0.5611069202423096,1.90865957736969,-0.3210708796977997,0.5032398104667664,9.933906555175781,2.9731855392456055,-0.12861374020576477,0.07824413478374481,-0.12274181097745895,12.757944107055664,-33.459808349609375,24.24347686767578,-0.10954588651657104,0.16037464141845703,0.5613412857055664,0.6127856969833374,9.773531913757324,2.411844253540039
8_20251106_181551,1762424118537,8,0.1474095582962036,0.15514270961284637,0.5856728553771973,0.7817854285240173,0.5553112626075745,1.9121335744857788,-0.3161505460739136,0.4565548896789551,10.063186645507812,3.137181282043457,-0.05897516757249832,0.1662086546421051,-0.11357884109020233,12.752206802368164,-33.560401916503906,24.2548828125,-0.12498462200164795,0.23172378540039062,0.5802695751190186,0.581539511680603,9.831462860107422,2.5569117069244385
8_20251106_181551,1762424118555,8,0.14738120138645172,0.15305933356285095,0.5855976939201355,0.782257616519928,0.545423686504364,1.9183917045593262,-0.306593656539917,0.4409932494163513,9.896797180175781,2.6428000926971436,-0.015603774227201939,0.2132452428340912,-0.1202983632683754,12.727228164672852,-33.57440948486328,24.24011993408203,-0.08880043029785156,0.0240020751953125,0.0019154548645019531,0.5297936797142029,9.872795104980469,2.6408846378326416
8_20251106_181551,1762424118575,8,0.1471036672592163,0.15068401396274567,0.585940420627594,0.7825143337249756,0.545423686504364,1.9183917045593262,-0.306593656539917,0.4409932494163513,9.896797180175781,2.6428000926971436,-0.03270798549056053,0.17292816936969757,-0.07204004377126694,12.65129280090332,-33.62940216064453,24.236122131347656,-0.08880043029785156,0.0240020751953125,0.0019154548645019531,0.5297936797142029,9.872795104980469,2.6408846378326416
8_20251106_181551,1762424118594,8,0.1467512547969818,0.14891518652439117,0.5860722064971924,0.7828203439712524,0.5344282388687134,1.9246060848236084,-0.2981230914592743,0.4038847088813782,9.875249862670898,2.600903272628784,-0.04187095910310745,0.06602683663368225,-0.02194913476705551,12.639402389526367,-33.629791259765625,24.195083618164062,-0.0876682698726654,0.0067424774169921875,-0.0016472339630126953,0.4915529787540436,9.868507385253906,2.602550506591797
8_20251106_181551,1762424118612,8,0.14656659960746765,0.14817988872528076,0.5859581828117371,0.7830798029899597,0.5344282388687134,1.9246060848236084,-0.2981230914592743,0.4038847088813782,9.875249862670898,2.600903272628784,-0.010716856457293034,0.025098904967308044,0.012259290553629398,12.555200576782227,-33.62225341796875,24.137847900390625,-0.0876682698726654,0.0067424774169921875,-0.0016472339630126953,0.4915529787540436,9.868507385253906,2.602550506591797
8_20251106_181551,1762424118632,8,0.14636050164699554,0.14799945056438446,0.5859400629997253,0.7831659913063049,0.5237618088722229,1.9297360181808472,-0.28995928168296814,0.47810178995132446,9.860885620117188,2.697864294052124,0.016772054135799408,0.037927061319351196,0.024476584047079086,12.60383415222168,-33.630821228027344,24.058448791503906,0.010352492332458496,0.004315376281738281,0.06100058555603027,0.46774929761886597,9.85657024383545,2.6368637084960938
8_20251106_181551,1762424118651,8,0.14589640498161316,0.14776743948459625,0.5861200094223022,0.7831617593765259,0.5191566348075867,1.9321162700653076,-0.2864721715450287,0.579850971698761,9.857295036315918,2.49556303024292,0.016772054135799408,0.037927061319351196,0.024476584047079086,12.651971817016602,-33.64006805419922,24.046630859375,0.08968132734298706,0.000579833984375,-0.11304068565368652,0.4901696443557739,9.856715202331543,2.6086037158966064
8_20251106_181551,1762424118671,8,0.14544518291950226,0.1474883258342743,0.5865111947059631,0.78300541639328,0.5150901675224304,1.9343922138214111,-0.28374212980270386,0.6025949120521545,9.862083435058594,2.396207809448242,0.04853702336549759,0.042203113436698914,-0.01889481022953987,12.67744255065918,-33.62538146972656,23.993812561035156,0.08994024991989136,0.004294395446777344,-0.16991686820983887,0.5126546621322632,9.857789039611816,2.566124677658081
8_20251106_181551,1762424118689,8,0.1453201323747635,0.14716939628124237,0.586999237537384,0.7827228903770447,0.5150901675224304,1.9343922138214111,-0.28374212980270386,0.6025949120521545,9.862083435058594,2.396207809448242,0.016772054135799408,0.014714204706251621,-0.053103234618902206,12.630712509155273,-33.59101867675781,24.00615692138672,0.08994024991989136,0.004294395446777344,-0.16991686820983887,0.5126546621322632,9.857789039611816,2.566124677658081
8_20251106_181551,1762424118710,8,0.14568012952804565,0.14685946702957153,0.5872686505317688,0.7825120687484741,0.5069310069084167,1.9381380081176758,-0.27833810448646545,0.3811407685279846,9.778289794921875,2.8618600368499756,-0.008273397572338581,-0.0005574141396209598,-0.057379283010959625,12.606142044067383,-33.59288024902344,24.032207489013672,-0.10332170128822327,-0.05241107940673828,0.25496459007263184,0.4844624698162079,9.830700874328613,2.6068954467773438
8_20251106_181551,1762424118728,8,0.14610204100608826,0.1465054452419281,0.5873450636863708,0.7824423909187317,0.5069310069084167,1.9381380081176758,-0.27833810448646545,0.3811407685279846,9.778289794921875,2.8618600368499756,-0.008273397572338581,-0.0005574141396209598,-0.057379283010959625,12.66728401184082,-33.5770263671875,24.10250473022461,-0.10332170128822327,-0.05241107940673828,0.25496459007263184,0.4844624698162079,9.830700874328613,2.6068954467773438
8_20251106_181551,1762424118746,8,0.1459355652332306,0.14559851586818695,0.5874838829040527,0.7825385332107544,0.4979289770126343,1.9408373832702637,-0.2710863947868347,0.2542535364627838,9.762727737426758,2.7373671531677246,0.04181750863790512,0.1093982383608818,0.01592447981238365,12.670103073120117,-33.52679443359375,24.103561401367188,-0.1473337709903717,-0.04829120635986328,0.056879281997680664,0.4015873074531555,9.811018943786621,2.680487871170044
8_20251106_181551,1762424118765,8,0.14514470100402832,0.1442038118839264,0.5878499746322632,0.782668948173523,0.4932864010334015,1.9419173002243042,-0.2679998278617859,0.3524115979671478,9.766319274902344,2.5183069705963135,0.03143281117081642,0.13871973752975464,0.0599067397415638,12.684713363647461,-33.47631072998047,24.15917205810547,-0.0393405556678772,-0.035759925842285156,-0.1297447681427002,0.391752153635025,9.802079200744629,2.6480517387390137
8_20251106_181551,1762424118784,8,0.14393839240074158,0.14295673370361328,0.5882925987243652,0.7827879190444946,0.4890865683555603,1.9429206848144531,-0.2653512954711914,0.46852537989616394,9.793851852416992,2.5446419715881348,0.036930594593286514,0.10695477575063705,0.08495219796895981,12.606367111206055,-33.56938171386719,24.194931030273438,0.0614185631275177,-0.0065822601318359375,-0.08272767066955566,0.40710681676864624,9.800434112548828,2.6273696422576904
8_20251106_181551,1762424118803,8,0.14269289374351501,0.14236901700496674,0.5889136791229248,0.7826560735702515,0.48540976643562317,1.9438952207565308,-0.2630917429924011,0.5211955308914185,9.808216094970703,2.5338685512542725,0.036930594593286514,0.10695477575063705,0.08495219796895981,12.510091781616211,-33.55088806152344,24.21856689453125,0.09127095341682434,0.0062255859375,-0.07480096817016602,0.4299245774745941,9.801990509033203,2.6086695194244385
8_20251106_181551,1762424118822,8,0.1414738893508911,0.1424841582775116,0.5896735191345215,0.7822842001914978,0.48227229714393616,1.9448118209838867,-0.26139670610427856,0.5595011115074158,9.798639297485352,2.444089889526367,0.09190841764211655,0.0531986802816391,0.10327813774347305,12.447668075561523,-33.56849670410156,24.32398223876953,0.10366123914718628,-0.0026807785034179688,-0.13166379928588867,0.4558398723602295,9.80132007598877,2.575753688812256
8_20251106_181551,1762424118843,8,0.14028725028038025,0.14272400736808777,0.5904855132102966,0.781841516494751,0.4798065721988678,1.9458731412887573,-0.26007279753685,0.676811933517456,9.848915100097656,2.4536662101745605,0.05647826939821243,0.05380954593420029,0.08495219051837921,12.351591110229492,-33.54973602294922,24.320587158203125,0.1767776608467102,0.03807544708251953,-0.09766983985900879,0.5000342726707458,9.810839653015137,2.5513360500335693
8_20251106_181551,1762424118861,8,0.1393311619758606,0.1429332047700882,0.5911221504211426,0.7814931273460388,0.47814181447029114,1.9468730688095093,-0.25928717851638794,0.7043440937995911,9.826171875,2.402193307876587,0.05220220983028412,0.051366087049245834,0.05196549743413925,12.351591110229492,-33.54973602294922,24.320587158203125,0.16344785690307617,0.012266159057617188,-0.11931419372558594,0.5408962368965149,9.813905715942383,2.521507501602173
8_20251106_181551,1762424118881,8,0.1385677456855774,0.14312811195850372,0.5917148590087891,0.7811445593833923,0.476864755153656,1.9477719068527222,-0.2591153681278229,0.6684325933456421,9.780683517456055,2.319596767425537,0.047315292060375214,0.05564214289188385,0.006150643341243267,12.30164909362793,-33.56614685058594,24.385944366455078,0.10202908515930176,-0.02657794952392578,-0.1615285873413086,0.5664035081863403,9.80726146697998,2.4811253547668457
8_20251106_181551,1762424118900,8,0.13819634914398193,0.14314745366573334,0.5923489928245544,0.7807261347770691,0.4760808050632477,1.9485496282577515,-0.25892725586891174,0.7007529735565186,9.795047760009766,2.493168830871582,0.017382923513650894,0.04586830362677574,-0.009731839410960674,12.204767227172852,-33.560081481933594,24.395801544189453,0.10747957229614258,-0.009771347045898438,0.009634733200073242,0.593273401260376,9.804819107055664,2.483534097671509
8_20251106_181551,1762424118920,8,0.13803087174892426,0.14306406676769257,0.5928568840026855,0.7803850769996643,0.4755685329437256,1.949386477470398,-0.2586662769317627,0.678009033203125,9.840536117553711,2.513518810272217,0.017382923513650894,0.04586830362677574,-0.009731839410960674,12.091890335083008,-33.60638427734375,24.539276123046875,0.06778848171234131,0.028573989868164062,0.023987770080566406,0.6102205514907837,9.811962127685547,2.4895310401916504
8_20251106_181551,1762424118939,8,0.13786493241786957,0.14311885833740234,0.5932986736297607,0.780068576335907,0.4755685329437256,1.949386477470398,-0.2586662769317627,0.678009033203125,9.840536117553711,2.513518810272217,0.05464567244052887,-0.0048334673047065735,-0.009120975621044636,12.078603744506836,-33.620277404785156,24.592586517333984,0.06778848171234131,0.028573989868164062,0.023987770080566406,0.6102205514907837,9.811962127685547,2.4895310401916504
8_20251106_181551,1762424118957,8,0.13791808485984802,0.14337649941444397,0.5937635898590088,0.7796580195426941,0.47434520721435547,1.9511622190475464,-0.2579217851161957,0.4625401198863983,9.754348754882812,2.5530214309692383,0.03815232217311859,0.021433716639876366,-0.02194913476705551,12.069547653198242,-33.55882263183594,24.647480010986328,-0.11788180470466614,-0.0571746826171875,0.04637956619262695,0.5804219245910645,9.8115234375,2.5066418647766113
8_20251106_181551,1762424118976,8,0.1379215568304062,0.1431882083415985,0.5941898822784424,0.7793671488761902,0.472953736782074,1.9515743255615234,-0.2574264705181122,0.3883230686187744,9.687313079833984,2.521898031234741,0.019826378673315048,0.06785944104194641,-0.031112104654312134,12.046289443969727,-33.53570556640625,24.687576293945312,-0.15367907285690308,-0.09936809539794922,0.012204885482788086,0.5420021414756775,9.786681175231934,2.509693145751953
8_20251106_181551,1762424118995,8,0.13776274025440216,0.14228971302509308,0.5945221781730652,0.7793063521385193,0.47115808725357056,1.951450228691101,-0.25683432817459106,0.34522929787635803,9.605915069580078,2.5625977516174316,0.019826378673315048,0.06785944104194641,-0.031112104654312134,11.96088981628418,-33.54139709472656,24.69765853881836,-0.15741828083992004,-0.14461326599121094,0.04232358932495117,0.5026475787162781,9.750528335571289,2.5202741622924805
8_20251106_181551,1762424119014,8,0.13750235736370087,0.14131580293178558,0.5949058532714844,0.7792367935180664,0.46889880299568176,1.9507418870925903,-0.2559848725795746,0.3009384572505951,9.535287857055664,2.6248443126678467,0.02288070321083069,0.07030288875102997,-0.020727403461933136,11.96986198425293,-33.59136962890625,24.75115966796875,-0.1613672971725464,-0.17219257354736328,0.08365607261657715,0.4623057544231415,9.707480430603027,2.5411882400512695
8_20251106_181551,1762424119034,8,0.13698254525661469,0.14054076373577118,0.595252275466919,0.7792039513587952,0.46664145588874817,1.9493141174316406,-0.2553621828556061,0.4218404293060303,9.432342529296875,2.4740161895751953,0.057089127600193024,0.057474736124277115,0.04891117662191391,11.89634895324707,-33.5966796875,24.80228042602539,-0.03237226605415344,-0.2201099395751953,-0.053737640380859375,0.4542126953601837,9.65245246887207,2.5277538299560547
8_20251106_181551,1762424119052,8,0.13619770109653473,0.1398652344942093,0.5956281423568726,0.779175877571106,0.4648515284061432,1.9473669528961182,-0.255138099193573,0.5834420919418335,9.437129974365234,2.3938138484954834,0.05464567244052887,0.025709768757224083,0.06418279558420181,11.861299514770508,-33.573814392089844,24.787818908691406,0.10338354110717773,-0.1722583770751953,-0.10715222358703613,0.48005855083465576,9.60938835144043,2.5009660720825195
8_20251106_181551,1762424119071,8,0.13547012209892273,0.13980384171009064,0.5960116982460022,0.7790204286575317,0.46369418501853943,1.9450280666351318,-0.25491049885749817,0.678009033203125,9.431144714355469,2.5063364505767822,0.05464567244052887,0.025709768757224083,0.06418279558420181,11.841058731079102,-33.50019836425781,24.801937103271484,0.15836036205291748,-0.1425952911376953,0.004296302795410156,0.5196486711502075,9.573740005493164,2.502040147781372
8_20251106_181551,1762424119090,8,0.13498066365718842,0.14038383960723877,0.5962700247764587,0.7788033485412598,0.46298322081565857,1.9423656463623047,-0.25454455614089966,0.6612503528594971,9.413188934326172,2.556612491607666,0.03143281117081642,0.002496909350156784,0.05501982197165489,11.791017532348633,-33.51673889160156,24.880809783935547,0.11328136920928955,-0.12844085693359375,0.043657779693603516,0.5479689836502075,9.541629791259766,2.5129547119140625
8_20251106_181551,1762424119110,8,0.13444994390010834,0.1408524364233017,0.5963022708892822,0.7787858247756958,0.46243467926979065,1.9393163919448853,-0.25421327352523804,0.6013978719711304,9.414386749267578,2.5015482902526855,-0.007051668129861355,0.051366087049245834,0.040969930589199066,11.743780136108398,-33.494667053222656,24.865859985351562,0.04274308681488037,-0.10179424285888672,-0.009125232696533203,0.55865478515625,9.516180992126465,2.5106735229492188
8_20251106_181551,1762424119129,8,0.1338133066892624,0.14077003300189972,0.5960768461227417,0.7790828943252563,0.46243467926979065,1.9393163919448853,-0.25421327352523804,0.6013978719711304,9.414386749267578,2.5015482902526855,-0.05530998110771179,0.0837419182062149,0.021422261372208595,11.659391403198242,-33.47578430175781,24.93053436279297,0.04274308681488037,-0.10179424285888672,-0.009125232696533203,0.55865478515625,9.516180992126465,2.5106735229492188
8_20251106_181551,1762424119148,8,0.13325732946395874,0.14021681249141693,0.5956644415855408,0.7795932292938232,0.46152448654174805,1.933232069015503,-0.2536843419075012,0.5618952512741089,9.456283569335938,2.6128740310668945,-0.06752727180719376,0.07641154527664185,0.015313614159822464,11.610746383666992,-33.47882843017578,24.915054321289062,0.0011162757873535156,-0.031248092651367188,0.08992385864257812,0.5607789754867554,9.487531661987305,2.5229501724243164
8_20251106_181551,1762424119168,8,0.13273072242736816,0.1395665556192398,0.5952568054199219,0.7801108956336975,0.46152448654174805,1.933232069015503,-0.2536843419075012,0.5618952512741089,9.456283569335938,2.6128740310668945,-0.028431933373212814,0.05380954593420029,0.030585233122110367,11.589292526245117,-33.4300537109375,24.901611328125,0.0011162757873535156,-0.031248092651367188,0.08992385864257812,0.5607789754867554,9.487531661987305,2.5229501724243164
8_20251106_181551,1762424119186,8,0.1321883648633957,0.13915814459323883,0.5949281454086304,0.7805265784263611,0.46104586124420166,1.9300907850265503,-0.25300952792167664,0.5559099912643433,9.493391036987305,2.5949182510375977,-0.002775615081191063,0.03670533001422882,0.05685241520404816,11.554441452026367,-33.40692138671875,24.860118865966797,-0.0038951635360717773,0.004687309265136719,0.05757451057434082,0.559805154800415,9.488703727722168,2.537343740463257
8_20251106_181551,1762424119205,8,0.13156890869140625,0.13908228278160095,0.5947716236114502,0.7807640433311462,0.4607115089893341,1.9254661798477173,-0.2531052827835083,0.6612503528594971,9.609505653381348,2.366281747817993,-0.05042306333780289,0.014714204706251621,0.07395663112401962,11.468744277954102,-33.41301727294922,24.910751342773438,0.07411831617355347,0.0930185317993164,-0.10947966575622559,0.5871320366859436,9.516487121582031,2.4757614135742188
8_20251106_181551,1762424119224,8,0.1310262829065323,0.13939470052719116,0.5944896936416626,0.7810142636299133,0.460950642824173,1.9239797592163086,-0.25343766808509827,0.6911765933036804,9.743574142456055,2.434513568878174,-0.085853211581707,-0.013385573402047157,0.07456748932600021,11.441652297973633,-33.464698791503906,24.895198822021484,0.08323562145233154,0.1816692352294922,-0.03299832344055176,0.6079409718513489,9.561904907226562,2.4675118923187256
8_20251106_181551,1762424119244,8,0.13063837587833405,0.1399311125278473,0.5939446091651917,0.7813978791236877,0.46126168966293335,1.9231185913085938,-0.2534794211387634,0.6385064125061035,9.762727737426758,2.5673859119415283,-0.08157715946435928,-0.029878921806812286,0.054408960044384,11.403276443481445,-33.50434875488281,24.852386474609375,0.024452388286590576,0.1606578826904297,0.07989931106567383,0.6140540242195129,9.602069854736328,2.4874866008758545
