session_id,timestamp,label,quaternion_w,quaternion_x,quaternion_y,quaternion_z,position_x,position_y,position_z,accelerometer_x,accelerometer_y,accelerometer_z,gyroscope_x,gyroscope_y,gyroscope_z,magnetometer_x,magnetometer_y,magnetometer_z,linear_acceleration_x,linear_acceleration_y,linear_acceleration_z,gravity_x,gravity_y,gravity_z
6_20251106_182950,1762424953123,6,0.026253893971443176,0.0019578684587031603,0.7958772778511047,0.6048852801322937,0.3877756595611572,2.089613199234009,-1.729485034942627,-0.25449246168136597,9.664569854736328,-2.5954878330230713,0.0756632387638092,-0.17690259218215942,-0.08246291428804398,2.122227668762207,-15.8795166015625,45.182735443115234,-0.04733055830001831,-0.07067203521728516,0.009613990783691406,-0.20716190338134766,9.735241889953613,-2.6051018238067627
6_20251106_182950,1762424953143,6,0.027990564703941345,0.0026832560542970896,0.7962723970413208,0.6042843461036682,0.3877756595611572,2.089613199234009,-1.729485034942627,-0.25449246168136597,9.664569854736328,-2.5954878330230713,0.059169888496398926,-0.1518571376800537,-0.11483875662088394,2.2222390174865723,-15.823341369628906,45.22826385498047,-0.04733055830001831,-0.07067203521728516,0.009613990783691406,-0.20716190338134766,9.735241889953613,-2.6051018238067627
6_20251106_182950,1762424953163,6,0.02968376688659191,0.0030483670998364687,0.7964726090431213,0.6039378643035889,0.38360312581062317,2.0914571285247803,-1.734506607055664,-0.34307411313056946,9.625066757202148,-2.6433701515197754,0.059169888496398926,-0.10115537792444229,-0.1637079417705536,2.2853827476501465,-15.781562805175781,45.21799087524414,-0.10326367616653442,-0.09809303283691406,-0.031003952026367188,-0.23981043696403503,9.723159790039062,-2.612366199493408
6_20251106_182950,1762424953182,6,0.031243309378623962,0.0028402807656675577,0.796650767326355,0.6036251783370972,0.38063377141952515,2.0919852256774902,-1.737701177597046,-0.5070698261260986,9.666963577270508,-2.8636269569396973,0.02923751249909401,-0.06206003576517105,-0.18264473974704742,2.2853827476501465,-15.781562805175781,45.21799087524414,-0.21380752325057983,-0.04495716094970703,-0.20100855827331543,-0.2932623028755188,9.711920738220215,-2.662618398666382
6_20251106_182950,1762424953200,6,0.032627079635858536,0.002056102268397808,0.7967511415481567,0.6034225821495056,0.38063377141952515,2.0919852256774902,-1.737701177597046,-0.5070698261260986,9.666963577270508,-2.8636269569396973,-0.041011929512023926,-0.05167533457279205,-0.1575992852449417,2.3372559547424316,-15.716140747070312,45.27533721923828,-0.21380752325057983,-0.04495716094970703,-0.20100855827331543,-0.2932623028755188,9.711920738220215,-2.662618398666382
6_20251106_182950,1762424953220,6,0.03382790461182594,0.0010833024280145764,0.7966564893722534,0.6034839749336243,0.3730921149253845,2.091827154159546,-1.7417969703674316,-0.528616726398468,9.698087692260742,-2.3117871284484863,-0.02329685166478157,-0.06633608788251877,-0.09406934678554535,2.4237701892852783,-15.685737609863281,45.306331634521484,-0.13262319564819336,0.02389812469482422,0.26187992095947266,-0.39599353075027466,9.674189567565918,-2.573667049407959
6_20251106_182950,1762424953238,6,0.03489270806312561,0.0004771011881530285,0.7963950634002686,0.6037691235542297,0.36976176500320435,2.0918192863464355,-1.7425422668457031,-0.32033011317253113,9.683723449707031,-2.315378189086914,0.08726966381072998,-0.16102011501789093,-0.0604717954993248,2.4596364498138428,-15.684295654296875,45.40241622924805,0.06053075194358826,0.0076274871826171875,0.20663118362426758,-0.3808608651161194,9.676095962524414,-2.5220093727111816
6_20251106_182950,1762424953259,6,0.03636037930846214,0.0009185591479763389,0.7964480519294739,0.6036121249198914,0.3662053048610687,2.091884136199951,-1.7429165840148926,-0.34067997336387634,9.698087692260742,-2.3872013092041016,0.15568649768829346,-0.2660888433456421,-0.05680660158395767,2.5472640991210938,-15.629180908203125,45.4744873046875,0.032144695520401,0.0175933837890625,0.10784626007080078,-0.37282466888427734,9.68049430847168,-2.4950475692749023
6_20251106_182950,1762424953276,6,0.03849479928612709,0.0024999473243951797,0.7968509197235107,0.6029432415962219,0.36304914951324463,2.091736078262329,-1.7427940368652344,-0.564528226852417,9.590353012084961,-2.3081960678100586,0.1636277437210083,-0.2966321110725403,-0.08429551124572754,2.6227915287017822,-15.586341857910156,45.43767166137695,-0.15336287021636963,-0.072113037109375,0.14948129653930664,-0.41116535663604736,9.662466049194336,-2.4576773643493652
6_20251106_182950,1762424953296,6,0.04107479378581047,0.0041379560716450214,0.7973322868347168,0.6021270751953125,0.35842227935791016,2.0906126499176025,-1.7421953678131104,-0.7728148698806763,9.347352027893066,-2.3058021068573,0.1636277437210083,-0.2966321110725403,-0.08429551124572754,2.702152729034424,-15.468696594238281,45.456504821777344,-0.28931963443756104,-0.2520914077758789,0.12150025367736816,-0.48349523544311523,9.599443435668945,-2.427302360534668
6_20251106_182950,1762424953314,6,0.043199390172958374,0.004473858047276735,0.7977811098098755,0.6013810038566589,0.35335302352905273,2.088214874267578,-1.7418972253799438,-0.9356135129928589,9.015769004821777,-2.5140886306762695,0.1636277437210083,-0.2031697928905487,-0.11911480873823166,2.802855968475342,-15.411575317382812,45.40742111206055,-0.3616946339607239,-0.46693992614746094,-0.06942892074584961,-0.573918879032135,9.482708930969238,-2.44465970993042
6_20251106_182950,1762424953338,6,0.04469071701169014,0.0033556718844920397,0.7981669902801514,0.6007670164108276,0.34469881653785706,2.081744909286499,-1.7424575090408325,-1.084047555923462,8.698551177978516,-2.6589317321777344,0.08971312642097473,0.009411134757101536,-0.18020127713680267,2.9549379348754883,-15.289703369140625,45.4832649230957,-0.40810292959213257,-0.6273260116577148,-0.1714177131652832,-0.6759446263313293,9.32587718963623,-2.487514019012451
6_20251106_182950,1762424953353,6,0.04575959965586662,0.0013508426491171122,0.7986091375350952,0.6001063585281372,0.34469881653785706,2.081744909286499,-1.7424575090408325,-1.084047555923462,8.698551177978516,-2.6589317321777344,0.09704349935054779,0.00024816393852233887,-0.1685948520898819,3.0840446949005127,-15.155921936035156,45.463775634765625,-0.40810292959213257,-0.6273260116577148,-0.1714177131652832,-0.6759446263313293,9.32587718963623,-2.487514019012451
6_20251106_182950,1762424953372,6,0.04692363739013672,-0.0007357727154158056,0.7992925047874451,0.5991069078445435,0.33017152547836304,2.0689682960510254,-1.7458486557006836,-1.3605661392211914,8.456747055053711,-3.1257808208465576,0.14713440835475922,-0.08344030380249023,-0.12461257725954056,3.201571464538574,-15.010513305664062,45.457576751708984,-0.4550122618675232,-0.5738639831542969,-0.45177602767944336,-0.9055538773536682,9.030611038208008,-2.6740047931671143
6_20251106_182950,1762424953392,6,0.048514965921640396,-0.0023101014085114002,0.8004116415977478,0.5974798202514648,0.31884753704071045,2.058962106704712,-1.7509407997131348,-1.5113942623138428,8.566875457763672,-3.3807523250579834,0.14713440835475922,-0.08344030380249023,-0.12461257725954056,3.3839480876922607,-14.797805786132812,45.401084899902344,-0.48467230796813965,-0.3709878921508789,-0.5653979778289795,-1.0267219543457031,8.93786334991455,-2.815354347229004
6_20251106_182950,1762424953410,6,0.04992472752928734,-0.001998501131311059,0.8012811541557312,0.5961980223655701,0.30845963954925537,2.050664186477661,-1.757416844367981,-1.5006208419799805,8.876911163330078,-3.761414051055908,0.15018872916698456,-0.1518571376800537,-0.045811038464307785,3.523138999938965,-14.689285278320312,45.476173400878906,-0.3791191577911377,-0.04876232147216797,-0.7568478584289551,-1.1215016841888428,8.925673484802246,-3.004566192626953
6_20251106_182950,1762424953429,6,0.050521139055490494,-0.0011263672495260835,0.8018563389778137,0.5953761339187622,0.2976168990135193,2.0438647270202637,-1.7670252323150635,-1.2767724990844727,9.480224609375,-4.139681816101074,0.0909348577260971,-0.12009219080209732,0.058035966008901596,3.579439163208008,-14.548248291015625,45.50807189941406,-0.12421667575836182,0.44364070892333984,-0.9080924987792969,-1.1525558233261108,9.03658390045166,-3.2315893173217773
6_20251106_182950,1762424953449,6,0.05034203454852104,0.00016477121971547604,0.8019886016845703,0.5952141880989075,0.2869933247566223,2.041696310043335,-1.7798017263412476,-1.0804564952850342,10.55996322631836,-4.273751258850098,-0.08743764460086823,-0.10909661650657654,0.17043505609035492,3.6354427337646484,-14.407615661621094,45.58051681518555,0.05767953395843506,1.218703269958496,-0.8337295055389404,-1.1381360292434692,9.341259956359863,-3.4400217533111572
6_20251106_182950,1762424953468,6,0.05014997348189354,0.0017881845124065876,0.8016250729560852,0.5957172513008118,0.27758023142814636,2.0456347465515137,-1.7936331033706665,-1.0744712352752686,11.490070343017578,-4.278539657592773,-0.09598974883556366,-0.14452677965164185,0.14172442257404327,3.6960763931274414,-14.404045104980469,45.62351608276367,0.05093181133270264,1.7190485000610352,-0.6708142757415771,-1.1254030466079712,9.771021842956543,-3.6077253818511963
6_20251106_182950,1762424953487,6,0.05036346986889839,0.0034588132984936237,0.8011702299118042,0.5963034629821777,0.26873812079429626,2.055222272872925,-1.8080615997314453,-1.0888358354568481,11.90185546875,-4.07743501663208,-0.09598974883556366,-0.14452677965164185,0.14172442257404327,3.769798755645752,-14.386856079101562,45.64023971557617,0.029253721237182617,1.704667091369629,-0.37576770782470703,-1.1180895566940308,10.197188377380371,-3.701667308807373
6_20251106_182950,1762424953505,6,0.05085628852248192,0.005318790674209595,0.8008598685264587,0.5966647267341614,0.2614535689353943,2.069157123565674,-1.8211029767990112,-0.8446378111839294,12.351945877075195,-3.7243056297302246,-0.09232456982135773,-0.17201568186283112,0.17471110820770264,3.9281182289123535,-14.376663208007812,45.66012954711914,0.2187613844871521,1.7238054275512695,-0.01811051368713379,-1.0633991956710815,10.628140449523926,-3.706195116043091
6_20251106_182950,1762424953525,6,0.051141850650310516,0.00747622549533844,0.8003231287002563,0.597337007522583,0.2563877999782562,2.0889832973480225,-1.83235502243042,-0.24731016159057617,12.761337280273438,-3.040790319442749,-0.1399720162153244,-0.21111100912094116,0.17959803342819214,4.083012580871582,-14.429122924804688,45.665184020996094,0.6528712511062622,1.706557273864746,0.5323238372802734,-0.9001814126968384,11.054780006408691,-3.5731141567230225
6_20251106_182950,1762424953544,6,0.05170150473713875,0.009964595548808575,0.7994248867034912,0.5984542369842529,0.2563877999782562,2.0889832973480225,-1.83235502243042,-0.24731016159057617,12.761337280273438,-3.040790319442749,-0.1399720162153244,-0.21111100912094116,0.17959803342819214,4.187766075134277,-14.498260498046875,45.762630462646484,0.6528712511062622,1.706557273864746,0.5323238372802734,-0.9001814126968384,11.054780006408691,-3.5731141567230225
6_20251106_182950,1762424953563,6,0.053329531103372574,0.012357928790152073,0.7985373735427856,0.5994508266448975,0.2564670443534851,2.144972324371338,-1.8412927389144897,0.4637371897697449,13.448443412780762,-1.3385862112045288,-0.0019165873527526855,-0.340614378452301,-0.1068975105881691,4.3336029052734375,-14.489265441894531,45.82258224487305,0.9087236523628235,1.5620136260986328,1.587342381477356,-0.4449864625930786,11.886429786682129,-2.9259285926818848
6_20251106_182950,1762424953583,6,0.05636514350771904,0.013743056915700436,0.7981469035148621,0.5996628999710083,0.26059240102767944,2.1787846088409424,-1.8364651203155518,0.3643820881843567,13.363452911376953,-0.8801162838935852,0.18500801920890808,-0.2770844101905823,-0.34208041429519653,4.3336029052734375,-14.489265441894531,45.82258224487305,0.6474948525428772,1.1816186904907227,1.6366498470306396,-0.2831127643585205,12.18183422088623,-2.51676607131958
6_20251106_182950,1762424953602,6,0.060218825936317444,0.013153915293514729,0.7987276315689087,0.5985272526741028,0.2649195194244385,2.2115471363067627,-1.828396201133728,-0.0629645437002182,13.00074577331543,-1.163817048072815,0.4006432890892029,-0.19461767375469208,-0.5509961843490601,4.526576519012451,-14.502479553222656,45.9109992980957,0.17611858248710632,0.6551294326782227,1.0823591947555542,-0.23908312618732452,12.345616340637207,-2.246176242828369
6_20251106_182950,1762424953620,6,0.06459075957536697,0.010597926564514637,0.8005207777023315,0.5957198739051819,0.2674436867237091,2.242015838623047,-1.8195183277130127,-0.795558750629425,12.744577407836914,-1.5899665355682373,0.4006432890892029,-0.19461767375469208,-0.5509961843490601,4.70756196975708,-14.516220092773438,45.971893310546875,-0.4451805055141449,0.3191680908203125,0.5249679088592529,-0.35037824511528015,12.425409317016602,-2.1149344444274902
6_20251106_182950,1762424953641,6,0.0694461464881897,0.006848035845905542,0.8028866052627563,0.5920332670211792,0.2659963369369507,2.2730185985565186,-1.808693289756775,-1.7029221057891846,12.044303894042969,-1.6366515159606934,0.5545811653137207,-0.15491147339344025,-0.7257034778594971,4.921292304992676,-14.3662109375,46.145328521728516,-1.0820350646972656,-0.3048839569091797,0.3826262950897217,-0.620887041091919,12.349187850952148,-2.019277811050415
6_20251106_182950,1762424953660,6,0.07455706596374512,0.0025747958570718765,0.8056000471115112,0.5877441167831421,0.2586791217327118,2.2989752292633057,-1.7981852293014526,-2.575571060180664,11.199187278747559,-1.9454902410507202,0.6352152824401855,-0.08710549026727676,-0.68844074010849,5.115386962890625,-14.130157470703125,46.34666442871094,-1.5637471675872803,-0.9200010299682617,0.05902993679046631,-1.0118238925933838,12.11918830871582,-2.0045201778411865
6_20251106_182950,1762424953679,6,0.0789988785982132,-0.0019864013884216547,0.8087685704231262,0.5827938318252563,0.2586791217327118,2.2989752292633057,-1.7981852293014526,-2.575571060180664,11.199187278747559,-1.9454902410507202,0.6627042293548584,-0.04556669294834137,-0.5949784517288208,5.242807865142822,-13.785720825195312,46.53391647338867,-1.5637471675872803,-0.9200010299682617,0.05902993679046631,-1.0118238925933838,12.11918830871582,-2.0045201778411865
6_20251106_182950,1762424953698,6,0.08264150470495224,-0.006318653002381325,0.8121168613433838,0.5775783061981201,0.2298285961151123,2.329979658126831,-1.7822370529174805,-3.663689136505127,9.941088676452637,-2.1657471656799316,0.6871387958526611,-0.06816868484020233,-0.4929639995098114,5.292087078094482,-13.309524536132812,46.80173873901367,-1.756184458732605,-1.4780645370483398,-0.08748006820678711,-1.907504677772522,11.419153213500977,-2.0782670974731445
6_20251106_182950,1762424953716,6,0.08611935377120972,-0.00969091895967722,0.815584123134613,0.572111964225769,0.20765425264835358,2.336843490600586,-1.7740516662597656,-3.8935225009918213,9.24919319152832,-1.8736673593521118,0.8141986727714539,-0.057783983647823334,-0.4214928448200226,5.371871471405029,-12.730606079101562,47.005069732666016,-1.5888142585754395,-1.7359676361083984,0.16367995738983154,-2.304708242416382,10.985160827636719,-2.0373473167419434
6_20251106_182950,1762424953735,6,0.08895868062973022,-0.012868122197687626,0.819682240486145,0.5657223463058472,0.1798347681760788,2.3362720012664795,-1.765699863433838,-4.161661624908447,8.539342880249023,-1.9825987815856934,0.9455345869064331,0.08332576602697372,-0.4062211811542511,5.379845142364502,-11.918533325195312,47.196468353271484,-1.485562801361084,-1.9566545486450195,0.04379892349243164,-2.6760988235473633,10.495997428894043,-2.026397705078125
6_20251106_182950,1762424953754,6,0.09066551923751831,-0.016648519784212112,0.8245056867599487,0.5582946538925171,0.14984726905822754,2.3279216289520264,-1.7592573165893555,-4.454938888549805,7.640358924865723,-2.425507068634033,0.9455345869064331,0.08332576602697372,-0.4062211811542511,5.331031799316406,-11.023605346679688,47.49538803100586,-1.4230718612670898,-2.284510612487793,-0.3192875385284424,-3.031867027282715,9.924869537353516,-2.106219530105591
6_20251106_182950,1762424953773,6,0.09062892198562622,-0.02150113880634308,0.8294522762298584,0.5507568120956421,0.14984726905822754,2.3279216289520264,-1.7592573165893555,-4.454938888549805,7.640358924865723,-2.425507068634033,0.8673439025878906,0.5023789405822754,-0.2871025800704956,5.25138521194458,-10.042083740234375,47.68655776977539,-1.4230718612670898,-2.284510612487793,-0.3192875385284424,-3.031867027282715,9.924869537353516,-2.106219530105591
6_20251106_182950,1762424953793,6,0.08845695853233337,-0.02683020383119583,0.8341714143753052,0.543703556060791,0.11440916359424591,2.3106720447540283,-1.7550408840179443,-4.824826717376709,6.9975433349609375,-2.838489055633545,0.7512795925140381,0.6416561007499695,-0.10995183140039444,5.016238689422607,-9.020523071289062,47.858890533447266,-1.4343676567077637,-2.341860771179199,-0.5858156681060791,-3.3904590606689453,9.339404106140137,-2.252673387527466
6_20251106_182950,1762424953811,6,0.08430784195661545,-0.03165622055530548,0.8384255170822144,0.5375246405601501,0.043205611407756805,2.2598581314086914,-1.7565158605575562,-4.683574676513672,5.945337295532227,-3.2383034229278564,0.7512795925140381,0.6416561007499695,-0.10995183140039444,4.5485429763793945,-8.038627624511719,47.96731185913086,-0.7967579364776611,-2.280416488647461,-0.5811975002288818,-3.8868167400360107,8.225753784179688,-2.6571059226989746
6_20251106_182950,1762424953831,6,0.07934410125017166,-0.034774065017700195,0.8420393466949463,0.5324143171310425,0.007319401949644089,2.2259650230407715,-1.7582892179489136,-4.1879963874816895,5.998007297515869,-2.706813335418701,0.5063228607177734,0.5714066624641418,0.31643176078796387,4.045488357543945,-7.0458831787109375,48.0069465637207,-0.24094367027282715,-1.7821974754333496,-0.03976583480834961,-3.9470527172088623,7.780204772949219,-2.6670475006103516
6_20251106_182950,1762424953850,6,0.07343632727861404,-0.03618733584880829,0.8450728058815002,0.5283460021018982,-0.027465205639600754,2.186304807662964,-1.758476734161377,-3.584683895111084,5.883090496063232,-2.145397424697876,0.5698528289794922,0.5799587965011597,0.4269982874393463,3.417048931121826,-6.123870849609375,48.04035568237305,0.28989505767822266,-1.5176916122436523,0.41732025146484375,-3.8745789527893066,7.400782108306885,-2.5627176761627197
6_20251106_182950,1762424953869,6,0.06726637482643127,-0.03598716855049133,0.8483761548995972,0.5238683819770813,-0.05619752034544945,2.1452407836914062,-1.757655382156372,-2.904759645462036,5.479684829711914,-2.2016587257385254,0.7335644960403442,0.6776971220970154,0.4642610251903534,7.116696357727051,-7.845893859863281,48.23698425292969,0.775855541229248,-1.5368776321411133,0.2888472080230713,-3.680615186691284,7.016562461853027,-2.4905059337615967
6_20251106_182950,1762424953889,6,0.06005058065056801,-0.03585144132375717,0.8524364829063416,0.5181318521499634,-0.08114473521709442,2.098107099533081,-1.7571568489074707,-2.435516357421875,5.020017623901367,-2.5966849327087402,0.7335644960403442,0.6776971220970154,0.4642610251903534,6.213102340698242,-7.0785369873046875,48.162086486816406,0.9960789680480957,-1.597236156463623,-0.08494329452514648,-3.4315953254699707,6.61725378036499,-2.5117416381835938
6_20251106_182950,1762424953907,6,0.05214821547269821,-0.036391086876392365,0.8567121624946594,0.5118598341941833,-0.09941170364618301,2.05244517326355,-1.7575440406799316,-2.187727212905884,4.439449310302734,-2.8420801162719727,0.6822518706321716,0.9159343838691711,0.3665226697921753,5.2611470222473145,-6.325431823730469,47.93628692626953,0.9950945377349854,-1.742243766784668,-0.2642707824707031,-3.182821750640869,6.181693077087402,-2.5778093338012695
6_20251106_182950,1762424953927,6,0.04326232522726059,-0.0381135456264019,0.8605128526687622,0.5061554908752441,-0.11527176201343536,1.9981567859649658,-1.7596986293792725,-2.057248592376709,4.178492069244385,-3.152115821838379,0.6822518706321716,0.9159343838691711,0.3665226697921753,4.157320022583008,-5.682319641113281,47.702484130859375,0.900458574295044,-1.6025605201721191,-0.4594452381134033,-2.957707166671753,5.781052589416504,-2.6926705837249756
6_20251106_182950,1762424953945,6,0.032902639359235764,-0.040847599506378174,0.8634700775146484,0.5016655921936035,-0.12609899044036865,1.946467638015747,-1.7631672620773315,-1.8477650880813599,3.639820098876953,-3.353220224380493,0.5051011443138123,1.0961395502090454,0.3512510359287262,3.023988962173462,-5.12896728515625,47.492889404296875,0.8879538774490356,-1.7129859924316406,-0.5284397602081299,-2.7357189655303955,5.352806091308594,-2.8247804641723633
6_20251106_182950,1762424953964,6,0.020504198968410492,-0.04444928467273712,0.8655362725257874,0.4984484314918518,-0.12609899044036865,1.946467638015747,-1.7631672620773315,-1.8477650880813599,3.639820098876953,-3.353220224380493,0.15079958736896515,1.4547170400619507,0.49785861372947693,1.8507603406906128,-4.652122497558594,47.158592224121094,0.8879538774490356,-1.7129859924316406,-0.5284397602081299,-2.7357189655303955,5.352806091308594,-2.8247804641723633
6_20251106_182950,1762424953983,6,0.006307092495262623,-0.047784291207790375,0.8667502999305725,0.4964078962802887,-0.13370388746261597,1.885560393333435,-1.768795371055603,-1.477876901626587,3.265143632888794,-3.4717278480529785,0.018241945654153824,1.504807949066162,0.6517964601516724,0.577533483505249,-4.219841003417969,46.87364959716797,1.0062737464904785,-1.6701300144195557,-0.5175578594207764,-2.4841506481170654,4.93527364730835,-2.954169988632202
6_20251106_182950,1762424954003,6,0.009183605201542377,0.05012516304850578,-0.8672480583190918,-0.4952614903450012,-0.1336725354194641,1.7669682502746582,-1.782097339630127,-0.31554195284843445,3.5237064361572266,-3.3316733837127686,-0.012912152335047722,1.502975344657898,0.7812997698783875,-0.7347877025604248,-3.85137939453125,46.45074462890625,1.483290433883667,-0.8873147964477539,-0.22570538520812988,-1.7988324165344238,4.4110212326049805,-3.1059679985046387
6_20251106_182950,1762424954022,6,0.025336643680930138,0.05123530328273773,-0.8674401044845581,-0.49424758553504944,-0.12569507956504822,1.7086057662963867,-1.788777232170105,0.20397746562957764,3.655381679534912,-3.1628894805908203,0.06527853012084961,1.4724321365356445,0.8539927005767822,-2.144498109817505,-3.4891433715820312,46.010406494140625,1.602247953414917,-0.6045117378234863,-0.04553723335266113,-1.3982704877853394,4.259893417358398,-3.117352247238159
6_20251106_182950,1762424954040,6,0.04162433743476868,0.05152752622961998,-0.8678061366081238,-0.49246811866760254,-0.11350589990615845,1.6546440124511719,-1.7955938577651978,0.6361123323440552,3.676928758621216,-3.4441959857940674,0.21249693632125854,1.4479974508285522,0.8906445503234863,-2.144498109817505,-3.4891433715820312,46.010406494140625,1.6275062561035156,-0.4663717746734619,-0.2614748477935791,-0.9913939833641052,4.143300533294678,-3.1827211380004883
6_20251106_182950,1762424954060,6,0.057859908789396286,0.051351990550756454,-0.8686385750770569,-0.4893692433834076,-0.09432365000247955,1.5949130058288574,-1.8045958280563354,1.08620285987854,3.231626272201538,-3.7769758701324463,0.3084027171134949,1.4241738319396973,0.9602831602096558,-3.6022608280181885,-3.1291351318359375,45.473487854003906,1.6620774269104004,-0.7293393611907959,-0.4754037857055664,-0.5758746266365051,3.960965633392334,-3.30157208442688
6_20251106_182950,1762424954079,6,0.07426388561725616,0.05058305338025093,-0.8697506785392761,-0.48524221777915955,-0.07041209191083908,1.5392773151397705,-1.8154693841934204,1.8295705318450928,3.3309812545776367,-4.303677558898926,0.25342488288879395,1.430282473564148,1.1276600360870361,-5.063843727111816,-2.8323211669921875,44.975799560546875,1.92435622215271,-0.5039873123168945,-0.8016843795776367,-0.09478563070297241,3.8349685668945312,-3.501993179321289
6_20251106_182950,1762424954099,6,0.09149197489023209,0.04824742674827576,-0.8704972863197327,-0.481181800365448,-0.03757914900779724,1.4839144945144653,-1.8294533491134644,2.8398804664611816,3.924717903137207,-4.525132179260254,0.25342488288879395,1.430282473564148,1.1276600360870361,-6.487360954284668,-2.50787353515625,44.466590881347656,2.3477330207824707,0.07179951667785645,-0.8185112476348877,0.4921475648880005,3.8529183864593506,-3.706620931625366
6_20251106_182950,1762424954118,6,0.10874135792255402,0.044135257601737976,-0.8705675601959229,-0.4778488874435425,-0.03757914900779724,1.4839144945144653,-1.8294533491134644,2.8398804664611816,3.924717903137207,-4.525132179260254,0.04450913146138191,1.1724975109100342,1.2241766452789307,-7.917734146118164,-2.0957794189453125,43.90467834472656,2.3477330207824707,0.07179951667785645,-0.8185112476348877,0.4921475648880005,3.8529183864593506,-3.706620931625366
6_20251106_182950,1762424954137,6,0.1242673471570015,0.03889317065477371,-0.870176374912262,-0.47522419691085815,0.04376346617937088,1.3922054767608643,-1.8562089204788208,3.5628981590270996,4.949391841888428,-3.5842506885528564,0.006635519675910473,1.1181305646896362,0.9810525178909302,-9.266743659973145,-1.5401153564453125,43.281028747558594,1.9616414308547974,0.7791204452514648,0.17293190956115723,1.6012567281723022,4.170271396636963,-3.7571825981140137
6_20251106_182950,1762424954156,6,0.13839256763458252,0.03538801893591881,-0.86928790807724,-0.4732164144515991,0.08843256533145905,1.3544505834579468,-1.8660625219345093,2.989511489868164,5.386314868927002,-2.946223497390747,0.006635519675910473,1.1181305646896362,0.9810525178909302,-10.47243881225586,-1.0252838134765625,42.67572784423828,1.1106038093566895,0.9728350639343262,0.6487672328948975,1.8789076805114746,4.413479804992676,-3.5949907302856445
6_20251106_182950,1762424954175,6,0.15342621505260468,0.035532526671886444,-0.8674263954162598,-0.4719844460487366,0.08843256533145905,1.3544505834579468,-1.8660625219345093,2.989511489868164,5.386314868927002,-2.946223497390747,-0.04895317181944847,1.7998555898666382,0.5552798509597778,-11.608633995056152,-0.34404754638671875,42.15740966796875,1.1106038093566895,0.9728350639343262,0.6487672328948975,1.8789076805114746,4.413479804992676,-3.5949907302856445
6_20251106_182950,1762424954193,6,0.1711113154888153,0.03876436501741409,-0.8645628094673157,-0.47090280055999756,0.18005242943763733,1.2882684469223022,-1.879560112953186,3.9291951656341553,4.316152572631836,-3.480107307434082,-0.04895317181944847,1.7998555898666382,0.5552798509597778,-12.639694213867188,0.2569732666015625,41.58758544921875,1.4384009838104248,-0.14981746673583984,-0.03660297393798828,2.4907941818237305,4.465970039367676,-3.4435043334960938
6_20251106_182950,1762424954213,6,0.19032037258148193,0.04273369163274765,-0.8610160946846008,-0.4696842133998871,0.2346988022327423,1.2565621137619019,-1.8884016275405884,4.615104675292969,4.990091323852539,-4.114543914794922,-0.2322125881910324,1.8597203493118286,0.5839904546737671,-13.673870086669922,0.8073654174804688,41.05725860595703,1.6994483470916748,0.4192972183227539,-0.5368318557739258,2.915656328201294,4.570794105529785,-3.577712059020996
6_20251106_182950,1762424954232,6,0.20854754745960236,0.045302003622055054,-0.8567768335342407,-0.46945616602897644,0.2868412137031555,1.2336219549179077,-1.897592544555664,5.116668224334717,6.263751983642578,-4.240234375,-0.43624138832092285,1.6129310131072998,0.5833796262741089,-14.719118118286133,1.3816680908203125,40.56752014160156,1.7608096599578857,1.3543663024902344,-0.5300178527832031,3.355858564376831,4.909385681152344,-3.710216522216797
6_20251106_182950,1762424954252,6,0.22484777867794037,0.046417150646448135,-0.8518665432929993,-0.4707571566104889,0.35136842727661133,1.2137027978897095,-1.9089096784591675,5.365654468536377,6.552241325378418,-4.047508716583252,-0.4802236557006836,1.3288789987564087,0.5210714340209961,-15.633028030395508,1.9262313842773438,40.163475036621094,1.6078367233276367,1.314284324645996,-0.2698338031768799,3.7578177452087402,5.237957000732422,-3.777674913406372
6_20251106_182950,1762424954270,6,0.23846830427646637,0.04660243168473244,-0.847077488899231,-0.47267407178878784,0.4080362319946289,1.1998703479766846,-1.916746735572815,5.432689666748047,6.20749044418335,-3.217953681945801,-0.4582325220108032,1.108967661857605,0.43982642889022827,-16.556608200073242,2.2952651977539062,39.72870635986328,1.339897632598877,0.7756266593933105,0.44777703285217285,4.09279203414917,5.431863784790039,-3.6657307147979736
6_20251106_182950,1762424954289,6,0.24982209503650665,0.046359799802303314,-0.842676043510437,-0.47469648718833923,0.46902036666870117,1.1876249313354492,-1.9226118326187134,5.6086554527282715,6.024342060089111,-2.9390411376953125,-0.4582325220108032,1.108967661857605,0.43982642889022827,-17.34752082824707,2.4581985473632812,39.5115966796875,1.212690830230713,0.4739828109741211,0.5813515186309814,4.395964622497559,5.55035924911499,-3.520392656326294
6_20251106_182950,1762424954309,6,0.260590523481369,0.04625741019845009,-0.8380908966064453,-0.4770287871360779,0.5348482728004456,1.1778466701507568,-1.9288239479064941,5.989316940307617,6.361909866333008,-3.6345269680023193,-0.5370340347290039,1.1266826391220093,0.35308364033699036,-18.140745162963867,2.58319091796875,39.32073211669922,1.2746820449829102,0.6492404937744141,-0.09130740165710449,4.714634895324707,5.712669372558594,-3.543219566345215
6_20251106_182950,1762424954329,6,0.2716383635997772,0.04638213664293289,-0.8329210877418518,-0.47989970445632935,0.5348482728004456,1.1778466701507568,-1.9288239479064941,5.989316940307617,6.361909866333008,-3.6345269680023193,-0.705021858215332,1.0637636184692383,0.32192954421043396,-18.872032165527344,2.5121688842773438,39.11506652832031,1.2746820449829102,0.6492404937744141,-0.09130740165710449,4.714634895324707,5.712669372558594,-3.543219566345215
6_20251106_182950,1762424954346,6,0.2819768488407135,0.045954249799251556,-0.8270925879478455,-0.48404037952423096,0.6607301831245422,1.170841097831726,-1.9452812671661377,6.4884867668151855,7.597265243530273,-4.328815460205078,-0.705021858215332,1.0637636184692383,0.32192954421043396,-19.523839950561523,2.3575973510742188,39.032630920410156,1.1532683372497559,1.3227815628051758,-0.5048880577087402,5.33521842956543,6.274483680725098,-3.823927402496338
6_20251106_182950,1762424954365,6,0.2903866469860077,0.044787194579839706,-0.820521354675293,-0.49032071232795715,0.6607301831245422,1.170841097831726,-1.9452812671661377,6.4884867668151855,7.597265243530273,-4.328815460205078,-1.1766095161437988,0.8090330362319946,-0.006104827858507633,-19.925968170166016,1.9054946899414062,39.06251525878906,1.1532683372497559,1.3227815628051758,-0.5048880577087402,5.33521842956543,6.274483680725098,-3.823927402496338
6_20251106_182950,1762424954384,6,0.2971051335334778,0.04440982639789581,-0.8128782510757446,-0.4989842474460602,0.7849941849708557,1.1849949359893799,-1.9584622383117676,5.503314971923828,8.103616714477539,-2.4841623306274414,-1.1766095161437988,0.8090330362319946,-0.006104827858507633,-20.1610107421875,1.18878173828125,39.12098693847656,0.019478797912597656,1.0967154502868652,1.0531909465789795,5.4838361740112305,7.006901264190674,-3.537353277206421
6_20251106_182950,1762424954404,6,0.30353930592536926,0.046086717396974564,-0.8039188981056213,-0.509366512298584,0.8423514366149902,1.193056583404541,-1.9587619304656982,5.47219181060791,6.905370235443115,-2.0616040229797363,-1.2792346477508545,1.1810497045516968,-0.16187533736228943,-20.393030166625977,0.3096160888671875,39.176513671875,-0.00931549072265625,-0.08122491836547852,1.1805994510650635,5.481507301330566,6.986595153808594,-3.2422034740448
6_20251106_182950,1762424954422,6,0.31199437379837036,0.048313919454813004,-0.7941200137138367,-0.5193251967430115,0.8992028832435608,1.2006499767303467,-1.9595087766647339,6.342446804046631,6.962829113006592,-3.4106783866882324,-1.2951171398162842,1.0839221477508545,0.16310469806194305,-20.533708572387695,-0.675933837890625,39.20655822753906,0.6887516975402832,-0.019012928009033203,-0.1347799301147461,5.653695106506348,6.981842041015625,-3.2758984565734863
6_20251106_182950,1762424954444,6,0.32119274139404297,0.04731550067663193,-0.7845069766044617,-0.528342068195343,0.8992028832435608,1.2006499767303467,-1.9595087766647339,6.342446804046631,6.962829113006592,-3.4106783866882324,-1.2951171398162842,1.0839221477508545,0.16310469806194305,-20.5959415435791,-2.0057907104492188,39.138519287109375,0.6887516975402832,-0.019012928009033203,-0.1347799301147461,5.653695106506348,6.981842041015625,-3.2758984565734863
6_20251106_182950,1762424954461,6,0.32692837715148926,0.0412319041788578,-0.7757050395011902,-0.5382373929023743,0.96942538022995,1.2165297269821167,-1.9602020978927612,6.858375072479248,8.759600639343262,-3.2347121238708496,-1.7422702312469482,0.26780691742897034,0.1869284063577652,-20.5959415435791,-2.0057907104492188,39.138519287109375,0.9637436866760254,1.4222068786621094,0.032948970794677734,5.894631385803223,7.337393760681152,-3.2676610946655273
6_20251106_182950,1762424954480,6,0.3298886716365814,0.034325629472732544,-0.7661485075950623,-0.5504649877548218,1.0709267854690552,1.2595386505126953,-1.942902684211731,6.021637916564941,10.677274703979492,0.7861764430999756,-1.821071743965149,0.6068367958068848,-0.174092635512352,-20.5711612701416,-3.5175094604492188,39.05693054199219,0.008311748504638672,2.1641464233398438,2.9039649963378906,6.013326168060303,8.513128280639648,-2.117788553237915
6_20251106_182950,1762424954499,6,0.33321040868759155,0.031682755798101425,-0.7544309496879578,-0.5646246075630188,1.1217437982559204,1.2868572473526,-1.9206314086914062,5.927070617675781,9.373687744140625,1.2003555297851562,-1.7532657384872437,0.8957757949829102,-0.3549085557460785,-20.4622859954834,-5.2614593505859375,38.97425079345703,-0.06900405883789062,0.6884479522705078,2.654515266418457,5.996074676513672,8.685239791870117,-1.4541598558425903
6_20251106_182950,1762424954519,6,0.3373918831348419,0.03202810510993004,-0.7415868639945984,-0.5789558291435242,1.1720308065414429,1.315653681755066,-1.891309380531311,5.821730613708496,9.171385765075684,0.8651817440986633,-1.6701881885528564,0.747946560382843,-0.2571702301502228,-20.338214874267578,-7.178680419921875,38.79424285888672,-0.13947534561157227,0.3889169692993164,1.855473279953003,5.961205959320068,8.782468795776367,-0.9902915954589844
6_20251106_182950,1762424954538,6,0.3408444821834564,0.030912183225154877,-0.7294740676879883,-0.5922305583953857,1.216799020767212,1.3440560102462769,-1.8611152172088623,5.7367401123046875,9.662176132202148,0.3696032762527466,-1.6701881885528564,0.747946560382843,-0.2571702301502228,-20.245615005493164,-9.269508361816406,38.231101989746094,-0.17957258224487305,0.703765869140625,1.0879158973693848,5.9163126945495605,8.958410263061523,-0.7183126211166382
6_20251106_182950,1762424954557,6,0.3423139452934265,0.027614979073405266,-0.7193956971168518,-0.6037619113922119,1.2560911178588867,1.3718609809875488,-1.830453872680664,5.510497093200684,9.869264602661133,0.6975947618484497,-1.4069054126739502,0.11386900395154953,-0.06902389973402023,-22.51837730407715,-10.817794799804688,36.081886291503906,-0.32465267181396484,0.7286834716796875,1.1327259540557861,5.835149765014648,9.140581130981445,-0.43513116240501404
6_20251106_182950,1762424954576,6,0.34310486912727356,0.0239105261862278,-0.7107406258583069,-0.6136409044265747,1.2967429161071777,1.4033530950546265,-1.7922840118408203,5.564364433288574,9.84532356262207,1.4744797945022583,-1.4069054126739502,0.11386900395154953,-0.06902389973402023,-22.532251358032227,-12.876617431640625,35.3664436340332,-0.2166280746459961,0.5637941360473633,1.52768874168396,5.78099250793457,9.281529426574707,-0.05320897698402405
6_20251106_182950,1762424954594,6,0.3438507914543152,0.019341297447681427,-0.7015538215637207,-0.6238707900047302,1.3316447734832764,1.4313517808914185,-1.7549879550933838,5.839685440063477,9.717240333557129,1.8395798206329346,-1.4795982837677002,0.2843002676963806,0.01771889440715313,-22.529821395874023,-14.871055603027344,34.571712493896484,0.04695415496826172,0.3485689163208008,1.5142310857772827,5.792731285095215,9.368671417236328,0.32534873485565186
6_20251106_182950,1762424954614,6,0.3453982472419739,0.015043416991829872,-0.6915695071220398,-0.6341966390609741,1.3693161010742188,1.4612778425216675,-1.713112711906433,6.0659284591674805,9.490997314453125,1.1500794887542725,-1.4026293754577637,0.12119937688112259,0.026271000504493713,-22.660369873046875,-16.671417236328125,33.50499725341797,0.21855735778808594,0.09786033630371094,0.6597846150398254,5.8473711013793945,9.393136978149414,0.490294873714447
6_20251106_182950,1762424954634,6,0.3458665907382965,0.009918350726366043,-0.6824268102645874,-0.6438723206520081,1.4059247970581055,1.4894665479660034,-1.6722861528396606,6.117401599884033,9.313834190368652,0.834058403968811,-1.3207736015319824,-0.17201568186283112,0.08980093151330948,-22.892244338989258,-18.339988708496094,32.35567092895508,0.21602439880371094,-0.06344223022460938,0.2750108242034912,5.901377201080322,9.377276420593262,0.5590475797653198
6_20251106_182950,1762424954652,6,0.3448473811149597,0.0029804985970258713,-0.6748005747795105,-0.6524688601493835,1.4059247970581055,1.4894665479660034,-1.6722861528396606,6.117401599884033,9.313834190368652,0.834058403968811,-1.3207736015319824,-0.17201568186283112,0.08980093151330948,-23.182249069213867,-19.760971069335938,31.0870361328125,0.21602439880371094,-0.06344223022460938,0.2750108242034912,5.901377201080322,9.377276420593262,0.5590475797653198
6_20251106_182950,1762424954673,6,0.3430754840373993,-0.005540173035115004,-0.6678946614265442,-0.6604432463645935,1.4725453853607178,1.5370514392852783,-1.5939801931381226,6.782960891723633,9.514938354492188,2.4680309295654297,-1.4075162410736084,-0.27280837297439575,0.16371555626392365,-23.497323989868164,-20.971534729003906,29.888999938964844,0.6484856605529785,0.1470937728881836,1.4052331447601318,6.134475231170654,9.367844581604004,1.0627977848052979
6_20251106_182950,1762424954690,6,0.34184208512306213,-0.013726506382226944,-0.6598405241966248,-0.6690037250518799,1.508556604385376,1.5615251064300537,-1.549073576927185,7.341982841491699,9.962635040283203,3.0414175987243652,-1.6176538467407227,-0.14513763785362244,-0.023209042847156525,-23.77995491027832,-21.805809020996094,28.82101821899414,0.9660062789916992,0.4758329391479492,1.5828958749771118,6.3759765625,9.486802101135254,1.4585217237472534
6_20251106_182950,1762424954710,6,0.34012436866760254,-0.02069910615682602,-0.649745523929596,-0.6794981360435486,1.547173261642456,1.5882859230041504,-1.4994131326675415,7.233051300048828,10.239152908325195,3.0222647190093994,-1.6897358894348145,-0.219052255153656,-0.309093713760376,-24.043561935424805,-22.525604248046875,27.68832015991211,0.6856594085693359,0.6018810272216797,1.2509944438934326,6.547391891479492,9.637271881103516,1.7712702751159668
6_20251106_182950,1762424954728,6,0.33609330654144287,-0.02658333070576191,-0.639274001121521,-0.6911319494247437,1.5802075862884521,1.6113604307174683,-1.454091191291809,6.554324150085449,9.716042518615723,2.933682918548584,-1.6127668619155884,-0.34550127387046814,-0.5204529762268066,-24.251686096191406,-23.128662109375,26.50589370727539,0.005545616149902344,0.06301689147949219,0.9299302101135254,6.548778533935547,9.65302562713623,2.0037527084350586
6_20251106_182950,1762424954748,6,0.32982325553894043,-0.03164872154593468,-0.6296601891517639,-0.7026684880256653,1.6117461919784546,1.6334402561187744,-1.405737280845642,5.9701642990112305,9.267148971557617,3.06296443939209,-1.5761148929595947,-0.3681032657623291,-0.5222855806350708,-24.399051666259766,-23.704795837402344,25.542709350585938,-0.4628911018371582,-0.3087015151977539,0.8473694324493408,6.433055400848389,9.575850486755371,2.215595006942749
6_20251106_182950,1762424954767,6,0.32341036200523376,-0.03651826083660126,-0.6202399730682373,-0.7137047648429871,1.6117461919784546,1.6334402561187744,-1.405737280845642,5.9701642990112305,9.267148971557617,3.06296443939209,-1.66591215133667,-0.39070528745651245,-0.37140190601348877,-24.336620330810547,-24.205856323242188,24.710826873779297,-0.4628911018371582,-0.3087015151977539,0.8473694324493408,6.433055400848389,9.575850486755371,2.215595006942749
6_20251106_182950,1762424954786,6,0.3177228271961212,-0.04262898489832878,-0.6100525856018066,-0.7246176600456238,1.667212724685669,1.6749260425567627,-1.3045644760131836,5.995302677154541,9.814201354980469,3.580089807510376,-1.769759178161621,-0.45301347970962524,-0.2620571255683899,-24.22805404663086,-24.742080688476562,23.947696685791016,-0.24894237518310547,0.2239847183227539,0.9284367561340332,6.2442450523376465,9.590216636657715,2.6516530513763428
6_20251106_182950,1762424954806,6,0.3122476041316986,-0.05005500838160515,-0.5991354584693909,-0.7355492115020752,1.692873477935791,1.6963863372802734,-1.251184105873108,6.188027381896973,10.052413940429688,3.897307872772217,-1.7941937446594238,-0.5629690885543823,-0.29382210969924927,-24.048683166503906,-25.311477661132812,23.213748931884766,-0.044974327087402344,0.36975765228271484,0.9965238571166992,6.233001708984375,9.682656288146973,2.9007840156555176
6_20251106_182950,1762424954823,6,0.30580300092697144,-0.058093272149562836,-0.5882154703140259,-0.7463995218276978,1.7132248878479004,1.7143803834915161,-1.2051150798797607,6.064731121063232,9.985379219055176,4.250437259674072,-1.7459354400634766,-0.6692595481872559,-0.38300833106040955,-23.82006072998047,-25.86541748046875,22.50905990600586,-0.13461637496948242,0.24217796325683594,1.0797226428985596,6.199347496032715,9.74320125579834,3.1707146167755127
6_20251106_182950,1762424954844,6,0.29807645082473755,-0.06620126962661743,-0.5778173804283142,-0.7568982243537903,1.7132248878479004,1.7143803834915161,-1.2051150798797607,6.064731121063232,9.985379219055176,4.250437259674072,-1.7037856578826904,-0.7370655536651611,-0.4202710688114166,-23.452241897583008,-26.523780822753906,21.902496337890625,-0.13461637496948242,0.24217796325683594,1.0797226428985596,6.199347496032715,9.74320125579834,3.1707146167755127
6_20251106_182950,1762424954863,6,0.2896478772163391,-0.0743948221206665,-0.567726731300354,-0.7669784426689148,1.7546656131744385,1.7556536197662354,-1.0925778150558472,5.897144317626953,10.184089660644531,5.078795433044434,-1.618875503540039,-0.817699670791626,-0.4221036732196808,-23.065689086914062,-27.28101348876953,21.2947998046875,-0.2072000503540039,0.30036354064941406,1.2535400390625,6.104344367980957,9.883726119995117,3.8252553939819336
6_20251106_182950,1762424954882,6,0.2806779742240906,-0.0828961730003357,-0.5582253932952881,-0.7763584852218628,1.7737563848495483,1.778063416481018,-1.0339043140411377,6.055154800415039,10.656923294067383,4.881281852722168,-1.5046437978744507,-0.8684014678001404,-0.4471491277217865,-23.065689086914062,-27.28101348876953,21.2947998046875,-0.0393519401550293,0.6185579299926758,0.8448214530944824,6.094506740570068,10.038365364074707,4.0364603996276855
6_20251106_182950,1762424954901,6,0.2712540030479431,-0.09124685823917389,-0.5495700836181641,-0.7849000096321106,1.7737563848495483,1.778063416481018,-1.0339043140411377,6.055154800415039,10.656923294067383,4.881281852722168,-1.4783766269683838,-0.9850766062736511,-0.5241181254386902,-22.593414306640625,-28.00891876220703,20.826229095458984,-0.0393519401550293,0.6185579299926758,0.8448214530944824,6.094506740570068,10.038365364074707,4.0364603996276855
6_20251106_182950,1762424954919,6,0.26058894395828247,-0.09992517530918121,-0.5414401888847351,-0.7930642366409302,1.7927882671356201,1.8024266958236694,-0.9748247265815735,6.389131546020508,11.049555778503418,5.135056495666504,-1.3690319061279297,-1.2288116216659546,-0.5815393924713135,-22.0718994140625,-28.73297119140625,20.292037963867188,0.23569965362548828,0.8089523315429688,0.8788766860961914,6.1534318923950195,10.24060344696045,4.2561798095703125
6_20251106_182950,1762424954939,6,0.24822813272476196,-0.10987857729196548,-0.5346365571022034,-0.8002957105636597,1.8262723684310913,1.8491660356521606,-0.8661686182022095,6.249076843261719,11.242280960083008,5.793434143066406,-1.104527473449707,-1.489650845527649,-0.587037205696106,-21.51884651184082,-29.53106689453125,19.865863800048828,0.024822235107421875,0.6680784225463867,1.000697135925293,6.224254608154297,10.574202537536621,4.792737007141113
6_20251106_182950,1762424954958,6,0.234590083360672,-0.12118642032146454,-0.5301856994628906,-0.8057198524475098,1.8418149948120117,1.8773033618927002,-0.8069112300872803,5.667311191558838,11.570272445678711,5.385240077972412,-1.104527473449707,-1.489650845527649,-0.587037205696106,-20.88663101196289,-30.21178436279297,19.485557556152344,-0.4455552101135254,0.7968559265136719,0.4740023612976074,6.112866401672363,10.773416519165039,4.911237716674805
6_20251106_182950,1762424954977,6,0.22014100849628448,-0.1330343633890152,-0.5278929471969604,-0.8094249963760376,1.8536640405654907,1.90702486038208,-0.752906084060669,5.3189697265625,12.350749015808105,5.102735996246338,-0.8400230407714844,-1.6283172369003296,-0.7159296274185181,-20.217041015625,-30.865814208984375,19.18834686279297,-0.6351175308227539,1.2618656158447266,0.1531987190246582,5.954087257385254,11.088883399963379,4.94953727722168
6_20251106_182950,1762424954996,6,0.205285906791687,-0.14355050027370453,-0.525763988494873,-0.8129103183746338,1.862412929534912,1.9393726587295532,-0.7003039717674255,5.040057182312012,12.587764739990234,5.4223480224609375,-0.9988478422164917,-1.4132927656173706,-0.9352300763130188,-19.41661834716797,-31.561874389648438,18.949539184570312,-0.7312240600585938,1.1991043090820312,0.3782486915588379,5.7712812423706055,11.388660430908203,5.0440993309021
6_20251106_182950,1762424955016,6,0.18948495388031006,-0.15140774846076965,-0.5222554802894592,-0.8175697922706604,1.862412929534912,1.9393726587295532,-0.7003039717674255,5.040057182312012,12.587764739990234,5.4223480224609375,-1.0147303342819214,-1.1903271675109863,-1.1068830490112305,-18.556859970092773,-32.267730712890625,18.83456802368164,-0.7312240600585938,1.1991043090820312,0.3782486915588379,5.7712812423706055,11.388660430908203,5.0440993309021
6_20251106_182950,1762424955034,6,0.17334029078483582,-0.15659059584140778,-0.5182662606239319,-0.8226984143257141,1.8682117462158203,2.0030508041381836,-0.598177969455719,4.06087064743042,11.412261962890625,5.5983147621154785,-0.8882813453674316,-1.1799424886703491,-1.0824484825134277,-17.617952346801758,-32.867828369140625,18.67058563232422,-1.173189640045166,-0.08429813385009766,0.3501009941101074,5.234060287475586,11.496560096740723,5.248213768005371
6_20251106_182950,1762424955054,6,0.15752463042736053,-0.16155697405338287,-0.5149499773979187,-0.8269896507263184,1.8645870685577393,2.033165454864502,-0.5463480353355408,3.7843523025512695,11.273405075073242,5.775477886199951,-0.8882813453674316,-1.1799424886703491,-1.0824484825134277,-16.599071502685547,-33.550804138183594,18.562255859375,-1.1597661972045898,-0.17852401733398438,0.4218111038208008,4.944118499755859,11.451929092407227,5.35366678237915
6_20251106_182950,1762424955073,6,0.1428348869085312,-0.16774463653564453,-0.5126959085464478,-0.829820990562439,1.8584553003311157,2.0585150718688965,-0.5008916258811951,3.712529182434082,11.290163040161133,5.8173747062683105,-0.4741150140762329,-1.3589258193969727,-0.7342555522918701,-15.578880310058594,-34.20880126953125,18.467967987060547,-0.9852714538574219,-0.12941360473632812,0.37096595764160156,4.697800636291504,11.419576644897461,5.446408748626709
6_20251106_182950,1762424955092,6,0.1295020431280136,-0.17504847049713135,-0.511988639831543,-0.8309361338615417,1.8488566875457764,2.0854291915893555,-0.4520914554595947,3.669435501098633,11.470917701721191,5.715625762939453,-0.30307286977767944,-1.369921326637268,-0.6304085850715637,-14.515785217285156,-34.75140380859375,18.37752914428711,-0.8226919174194336,0.041072845458984375,0.21537351608276367,4.492127418518066,11.429844856262207,5.5002522468566895
6_20251106_182950,1762424955110,6,0.11723186820745468,-0.18265004456043243,-0.5123535990715027,-0.8308967351913452,1.8383057117462158,2.1084976196289062,-0.4089202582836151,3.540153980255127,11.452960968017578,6.0879082679748535,-0.30307286977767944,-1.369921326637268,-0.6304085850715637,-13.453184127807617,-35.294677734375,18.354671478271484,-0.7615790367126465,0.018492698669433594,0.4701247215270996,4.301733016967773,11.434468269348145,5.617783546447754
6_20251106_182950,1762424955130,6,0.10526176542043686,-0.18944770097732544,-0.5131332874298096,-0.8304961323738098,1.8243839740753174,2.1317648887634277,-0.361921489238739,3.385734796524048,11.078285217285156,6.087907791137695,-0.2279365360736847,-1.2844003438949585,-0.6426259279251099,-12.352209091186523,-35.798301696777344,18.37462615966797,-0.7327983379364014,-0.2849464416503906,0.3760995864868164,4.118533134460449,11.363231658935547,5.711808204650879
6_20251106_182950,1762424955150,6,0.09412339329719543,-0.1943189650774002,-0.5149732232093811,-0.8295682668685913,1.809460997581482,2.150914430618286,-0.3195044696331024,3.258847713470459,10.689244270324707,5.712034225463867,0.1538539081811905,-1.0266155004501343,-0.6548432111740112,-11.344701766967773,-36.24481964111328,18.32439422607422,-0.6877484321594238,-0.5391902923583984,0.00018072128295898438,3.946596145629883,11.228434562683105,5.711853504180908
6_20251106_182950,1762424955169,6,0.0841141864657402,-0.19848749041557312,-0.5182517170906067,-0.8276126384735107,1.7923672199249268,2.1682355403900146,-0.2780294120311737,3.2325124740600586,10.626996994018555,5.401998996734619,0.1538539081811905,-1.0266155004501343,-0.6548432111740112,-10.334066390991211,-36.62908935546875,18.329547882080078,-0.5712668895721436,-0.48115062713623047,-0.24788331985473633,3.803779363632202,11.108147621154785,5.6498823165893555
6_20251106_182950,1762424955188,6,0.07499103993177414,-0.20320962369441986,-0.522479236125946,-0.8246803283691406,1.7764838933944702,2.181656837463379,-0.2439037263393402,3.288774013519287,10.544401168823242,5.107524871826172,0.3731544017791748,-1.0589913129806519,-0.5137333869934082,-9.36863899230957,-36.942138671875,18.428936004638672,-0.4120044708251953,-0.45099735260009766,-0.4338860511779785,3.7007784843444824,10.99539852142334,5.54141092300415
6_20251106_182950,1762424955206,6,0.06618110090494156,-0.20825845003128052,-0.5270699858665466,-0.8212464451789856,1.7764838933944702,2.181656837463379,-0.2439037263393402,3.288774013519287,10.544401168823242,5.107524871826172,0.30901357531547546,-0.9869092702865601,-0.5375571250915527,-8.50572395324707,-37.12501525878906,18.60791015625,-0.4120044708251953,-0.45099735260009766,-0.4338860511779785,3.7007784843444824,10.99539852142334,5.54141092300415
6_20251106_182950,1762424955226,6,0.057423513382673264,-0.21267418563365936,-0.5310980081558228,-0.8181730508804321,1.7408814430236816,2.204174280166626,-0.1797066181898117,3.2349066734313965,10.3636474609375,5.191317558288574,0.1532430499792099,-0.828084409236908,-0.6255216598510742,-7.713599681854248,-37.26310729980469,18.852581024169922,-0.3006477355957031,-0.42194080352783203,-0.17809295654296875,3.5355544090270996,10.785588264465332,5.369410514831543
6_20251106_182950,1762424955245,6,0.04852335527539253,-0.21544981002807617,-0.5339600443840027,-0.8161578178405762,1.723710060119629,2.2117998600006104,-0.15213440358638763,2.923673629760742,10.259503364562988,5.567191123962402,0.12941932678222656,-0.5959558486938477,-0.7825139164924622,-6.93989896774292,-37.290313720703125,19.1527099609375,-0.4895045757293701,-0.420867919921875,0.15822458267211914,3.4131782054901123,10.680371284484863,5.408966541290283
6_20251106_182950,1762424955263,6,0.03957631066441536,-0.21559733152389526,-0.5367209911346436,-0.8147895932197571,1.723710060119629,2.2117998600006104,-0.15213440358638763,2.923673629760742,10.259503364562988,5.567191123962402,0.2974071502685547,-0.34366869926452637,-0.9175150394439697,-5.777077674865723,-37.77031707763672,19.500394821166992,-0.4895045757293701,-0.420867919921875,0.15822458267211914,3.4131782054901123,10.680371284484863,5.408966541290283
6_20251106_182950,1762424955283,6,0.03115939535200596,-0.21299268305301666,-0.5408156514167786,-0.8131307363510132,1.6804687976837158,2.220405340194702,-0.09887422621250153,2.0366601943969727,9.73280143737793,4.936346054077148,0.5069337487220764,-0.302129864692688,-0.9046868085861206,-5.004490852355957,-37.822235107421875,19.75944709777832,-0.9489638805389404,-0.6324930191040039,-0.35323238372802734,2.985624074935913,10.365294456481934,5.289578437805176
6_20251106_182950,1762424955303,6,0.02350492589175701,-0.2100057601928711,-0.5464592576026917,-0.8103871941566467,1.6542326211929321,2.2218613624572754,-0.07558510452508926,1.6655746698379517,9.876447677612305,4.84896183013916,0.6834736466407776,-0.3839857578277588,-0.7544141411781311,-4.230988502502441,-37.849708557128906,20.086610794067383,-1.0560394525527954,-0.39107704162597656,-0.3524932861328125,2.721614122390747,10.267524719238281,5.201455116271973
6_20251106_182950,1762424955322,6,0.016891280189156532,-0.2083560675382614,-0.5531436204910278,-0.8064332008361816,1.6289379596710205,2.222473382949829,-0.057095035910606384,1.5590373277664185,10.010517120361328,4.6239166259765625,0.7891532182693481,-0.4078094959259033,-0.5790959596633911,-3.572086811065674,-37.74767303466797,20.479352951049805,-0.9300614595413208,-0.20560646057128906,-0.46203088760375977,2.4890987873077393,10.216123580932617,5.085947513580322
6_20251106_182950,1762424955340,6,0.01169636845588684,-0.20769982039928436,-0.5602481961250305,-0.8017767071723938,1.6027828454971313,2.2228198051452637,-0.040752656757831573,1.6260720491409302,10.120645523071289,4.589201927185059,0.8722308278083801,-0.42796802520751953,-0.4776923954486847,-3.572086811065674,-37.74767303466797,20.479352951049805,-0.690421462059021,-0.07638263702392578,-0.3973965644836426,2.316493511199951,10.197028160095215,4.986598491668701
6_20251106_182950,1762424955360,6,0.007340300362557173,-0.20769119262695312,-0.5677502751350403,-0.7965363264083862,1.5720099210739136,2.2232003211975098,-0.024597644805908203,1.7840826511383057,10.196060180664062,4.402462482452393,0.8722308278083801,-0.42796802520751953,-0.4776923954486847,-2.9783449172973633,-37.724952697753906,20.868059158325195,-0.42592859268188477,-0.000774383544921875,-0.46730852127075195,2.2100112438201904,10.196834564208984,4.8697710037231445
6_20251106_182950,1762424955379,6,0.0038394604343920946,-0.2077484130859375,-0.5757337808609009,-0.790794849395752,1.5449167490005493,2.223876714706421,-0.012095946818590164,1.975610613822937,10.32414436340332,4.365354061126709,0.9650822877883911,-0.3931487202644348,-0.4147733151912689,-2.3673839569091797,-37.6134033203125,21.245588302612305,-0.18752062320709229,0.10184764862060547,-0.4035334587097168,2.1631312370300293,10.222296714782715,4.768887519836426
6_20251106_182950,1762424955399,6,0.0008266894146800041,-0.20760320127010345,-0.5839986801147461,-0.784758448600769,1.517995834350586,2.225452184677124,-0.0007372908294200897,2.219808578491211,10.51806640625,4.392886161804199,1.0188384056091309,-0.3485555946826935,-0.39644739031791687,-1.6943793296813965,-37.473175048828125,21.66664695739746,0.04534196853637695,0.2366161346435547,-0.30080080032348633,2.174466609954834,10.281450271606445,4.6936869621276855
6_20251106_182950,1762424955416,6,0.0018848064355552197,0.20687401294708252,0.5926805734634399,0.7784146070480347,1.4962515830993652,2.226905107498169,0.007716303691267967,2.171926736831665,10.363646507263184,4.366550922393799,1.2418040037155151,-0.2587584853172302,-0.49968352913856506,-1.1300218105316162,-37.30390167236328,22.232763290405273,-0.002032041549682617,0.06575679779052734,-0.26170873641967773,2.1739587783813477,10.297889709472656,4.628259658813477
6_20251106_182950,1762424955436,6,0.004537805914878845,0.2054034173488617,0.6025846004486084,0.7711553573608398,1.471273422241211,2.2276151180267334,0.0146512221544981,1.9516695737838745,9.997350692749023,3.801543951034546,1.3584791421890259,-0.18606556951999664,-0.5748199224472046,-0.6281085014343262,-36.950904846191406,22.786378860473633,-0.17783129215240479,-0.2404308319091797,-0.6613724231719971,2.1295008659362793,10.237781524658203,4.462916374206543
6_20251106_182950,1762424955455,6,0.007294274400919676,0.20310914516448975,0.6132758259773254,0.7632733583450317,1.4492228031158447,2.226916790008545,0.018209215253591537,1.8475261926651,9.707662582397461,3.499887466430664,1.385357141494751,-0.08832722157239914,-0.6175804138183594,-0.14068055152893066,-36.625030517578125,23.460622787475586,-0.2255798578262329,-0.42409515380859375,-0.770423412322998,2.073106050491333,10.131757736206055,4.270310878753662
6_20251106_182950,1762424955474,6,0.00970203336328268,0.19980992376804352,0.6241797208786011,0.7552360892295837,1.4246536493301392,2.2242681980133057,0.017694100737571716,1.6476190090179443,9.502967834472656,2.8654513359069824,1.413456916809082,0.007578540593385696,-0.6310194730758667,0.32730937004089355,-36.21284484863281,24.135732650756836,-0.340389609336853,-0.5030326843261719,-1.1238877773284912,1.9880086183547974,10.006000518798828,3.9893391132354736
6_20251106_182950,1762424955493,6,0.011652478016912937,0.19579774141311646,0.6351616978645325,0.7470589876174927,1.4009352922439575,2.2197325229644775,0.012671094387769699,1.424967885017395,9.224055290222168,2.3279762268066406,1.4012396335601807,0.046673886477947235,-0.6377389430999756,0.7756767272949219,-35.7030029296875,24.933618545532227,-0.45043253898620605,-0.6255559921264648,-1.3290903568267822,1.875400424003601,9.849611282348633,3.657066583633423
6_20251106_182950,1762424955513,6,0.013494253158569336,0.19149255752563477,0.6459900736808777,0.7388134598731995,1.3753162622451782,2.2124035358428955,0.0027088122442364693,1.2501987218856812,8.930778503417969,2.0323047637939453,1.4012396335601807,0.046673886477947235,-0.6377389430999756,1.2376527786254883,-35.1556396484375,25.827402114868164,-0.5001612901687622,-0.7350664138793945,-1.299809455871582,1.7503600120544434,9.665844917297363,3.3321142196655273
6_20251106_182950,1762424955531,6,0.01552179828286171,0.1871410608291626,0.656494140625,0.7305837869644165,1.3519976139068604,2.203967571258545,-0.009286664426326752,1.1759815216064453,8.784738540649414,1.9197821617126465,1.3694746494293213,0.041176095604896545,-0.6126935482025146,1.663169503211975,-34.61051940917969,26.70619773864746,-0.4595026969909668,-0.7048854827880859,-1.1298656463623047,1.635484218597412,9.4896240234375,3.049647808074951
6_20251106_182950,1762424955550,6,0.017258021980524063,0.18295662105083466,0.666851282119751,0.7221761345863342,1.3519976139068604,2.203967571258545,-0.009286664426326752,1.1759815216064453,8.784738540649414,1.9197821617126465,1.410402536392212,0.15357521176338196,-0.5400006175041199,2.008713483810425,-33.982521057128906,27.52934455871582,-0.4595026969909668,-0.7048854827880859,-1.1298656463623047,1.635484218597412,9.4896240234375,3.049647808074951
6_20251106_182950,1762424955569,6,0.01769781857728958,0.1784450262784958,0.6772236227989197,0.7135911583900452,1.3043625354766846,2.181046962738037,-0.04679160937666893,1.4812291860580444,8.70812702178955,0.6018308401107788,1.3480944633483887,0.23970714211463928,-0.4514251947402954,2.3340158462524414,-33.280906677246094,28.366609573364258,-0.06961095333099365,-0.48253726959228516,-1.7138878107070923,1.550840139389038,9.190664291381836,2.315718650817871
6_20251106_182950,1762424955589,6,0.017066702246665955,0.17395208775997162,0.6869199275970459,0.7054008841514587,1.2815167903900146,2.168008804321289,-0.0740227997303009,1.7098655700683594,8.854167938232422,0.36002686619758606,1.1440656185150146,0.26291996240615845,-0.42332541942596436,2.668783664703369,-32.62859344482422,29.189790725708008,0.12722039222717285,-0.2691974639892578,-1.5645534992218018,1.5826451778411865,9.12336540222168,1.9245803356170654
6_20251106_182950,1762424955608,6,0.016450626775622368,0.16955682635307312,0.6951882243156433,0.6983503699302673,1.261401891708374,2.1556084156036377,-0.10207368433475494,1.7661268711090088,8.892473220825195,0.6580921411514282,1.1440656185150146,0.26291996240615845,-0.42332541942596436,2.945143938064575,-31.93042755126953,30.052125930786133,0.14678537845611572,-0.18471336364746094,-1.013190507888794,1.619341492652893,9.077186584472656,1.6712826490402222
6_20251106_182950,1762424955627,6,0.016256652772426605,0.16436272859573364,0.702763557434082,0.691985547542572,1.2419465780258179,2.142634868621826,-0.1326085925102234,1.4931995868682861,8.642290115356445,0.25468650460243225,1.1257396936416626,0.39608848094940186,-0.6218564510345459,3.1719565391540527,-31.248130798339844,30.925752639770508,-0.10091352462768555,-0.3479175567626953,-1.1332769393920898,1.5941131114959717,8.99020767211914,1.3879634141921997
6_20251106_182950,1762424955645,6,0.016089919954538345,0.15784180164337158,0.7109518051147461,0.6851091980934143,1.223268747329712,2.1294329166412354,-0.16439272463321686,1.119720220565796,8.370559692382812,-0.35939982533454895,1.1318483352661133,0.47855526208877563,-0.6798886060714722,3.317781925201416,-30.507530212402344,31.68913459777832,-0.37951433658599854,-0.49571800231933594,-1.397890567779541,1.4992345571517944,8.866277694702148,1.0384907722473145
6_20251106_182950,1762424955664,6,0.015755584463477135,0.15036384761333466,0.7192091345787048,0.6781450510025024,1.20183265209198,2.113776683807373,-0.2005273401737213,0.5128161907196045,7.985109329223633,-0.5150162577629089,1.0451054573059082,0.4993246793746948,-0.6352955102920532,3.4178805351257324,-29.7196044921875,32.42457580566406,-0.7891347408294678,-0.7049350738525391,-1.2428056001663208,1.3019509315490723,8.690044403076172,0.7277893424034119
6_20251106_182950,1762424955683,6,0.015071839094161987,0.14292022585868835,0.7268303036689758,0.6716132760047913,1.1779534816741943,2.0963354110717773,-0.23893825709819794,0.020828910171985626,7.7540788650512695,-0.7604113221168518,0.9491997957229614,0.5524698495864868,-0.46914026141166687,3.545170307159424,-28.879867553710938,33.16205596923828,-1.024897575378418,-0.7487726211547852,-1.1905605792999268,1.0457265377044678,8.502851486206055,0.4301491975784302
6_20251106_182950,1762424955702,6,0.013102970086038113,0.13611291348934174,0.7335546612739563,0.6657320261001587,1.152295470237732,2.0776493549346924,-0.2783469259738922,-0.037826500833034515,7.731334686279297,-0.6335241794586182,0.7995378971099854,0.5952304005622864,-0.2712201178073883,3.6550307273864746,-28.140838623046875,33.842872619628906,-0.8668423891067505,-0.617213249206543,-0.8509387373924255,0.8290159106254578,8.34854793548584,0.21741454303264618
6_20251106_182950,1762424955722,6,0.009858213365077972,0.13033926486968994,0.7390294671058655,0.6608706116676331,1.1249301433563232,2.0574073791503906,-0.31883588433265686,0.26742106676101685,7.836674690246582,-0.13794568181037903,0.7641077637672424,0.6068367958068848,-0.13560816645622253,3.6055703163146973,-27.424964904785156,34.54407501220703,-0.4492758512496948,-0.4094982147216797,-0.2842881977558136,0.7166969180107117,8.246172904968262,0.14634251594543457
6_20251106_182950,1762424955741,6,0.00575888529419899,0.12545539438724518,0.7440049052238464,0.6562655568122864,1.1249301433563232,2.0574073791503906,-0.31883588433265686,0.26742106676101685,7.836674690246582,-0.13794568181037903,0.7641077637672424,0.6068367958068848,-0.13560816645622253,3.6055703163146973,-27.424964904785156,34.54407501220703,-0.4492758512496948,-0.4094982147216797,-0.2842881977558136,0.7166969180107117,8.246172904968262,0.14634251594543457
6_20251106_182950,1762424955760,6,0.0012603296199813485,0.12044695764780045,0.7493921518325806,0.6510778069496155,1.0733083486557007,2.0182101726531982,-0.39411136507987976,0.10342531651258469,7.61522102355957,-0.6778149604797363,0.8141986727714539,0.7693268060684204,-0.17042745649814606,3.5345568656921387,-26.660446166992188,35.245361328125,-0.43194860219955444,-0.44345569610595703,-0.6004329323768616,0.5353739261627197,8.058676719665527,-0.07738202810287476
6_20251106_182950,1762424955779,6,0.003951272461563349,-0.11429136246442795,-0.7544680237770081,-0.646297037601471,1.0466517210006714,1.9975180625915527,-0.43233150243759155,-0.2221720814704895,7.388978958129883,-0.9627127647399902,0.6620933413505554,0.9990119934082031,-0.20769019424915314,3.3182997703552246,-25.90411376953125,35.80559539794922,-0.6060368418693542,-0.5357580184936523,-0.7082645893096924,0.38386476039886475,7.924736976623535,-0.25444817543029785
6_20251106_182950,1762424955799,6,0.010432843118906021,-0.10636378824710846,-0.7586228847503662,-0.6427046656608582,1.0466517210006714,1.9975180625915527,-0.43233150243759155,-0.2221720814704895,7.388978958129883,-0.9627127647399902,0.5136532187461853,1.237860083580017,-0.1991380900144577,3.062974452972412,-25.188377380371094,36.417625427246094,-0.6060368418693542,-0.5357580184936523,-0.7082645893096924,0.38386476039886475,7.924736976623535,-0.25444817543029785
6_20251106_182950,1762424955819,6,0.018470698967576027,-0.0970119833946228,-0.7617671489715576,-0.6402798295021057,1.016486644744873,1.9734982252120972,-0.47415444254875183,-0.26526588201522827,7.240544319152832,-0.7592143416404724,0.547861635684967,1.3722503185272217,-0.12277998775243759,2.658090114593506,-24.54468536376953,36.99542236328125,-0.5193045139312744,-0.5473542213439941,-0.4038129448890686,0.25403863191604614,7.787898540496826,-0.3554013967514038
6_20251106_182950,1762424955836,6,0.028066864237189293,-0.08724550902843475,-0.7648659944534302,-0.637636661529541,0.96697598695755,1.9298295974731445,-0.5463460087776184,0.28058862686157227,6.9185380935668945,-1.6797453165054321,0.6486543416976929,1.3582004308700562,0.028103593736886978,2.179582357406616,-23.918045043945312,37.54298400878906,0.0652570128440857,-0.578033447265625,-0.9615392684936523,0.21533161401748657,7.4965715408325195,-0.7182060480117798
6_20251106_182950,1762424955856,6,0.03862077370285988,-0.0786312147974968,-0.768327534198761,-0.6340333819389343,0.9426478743553162,1.9039386510849,-0.5899004936218262,0.517604410648346,6.642019748687744,-2.3752307891845703,0.6596499085426331,1.215258002281189,0.2638973891735077,1.5262409448623657,-23.37786865234375,38.08209228515625,0.24181824922561646,-0.6836414337158203,-1.3256198167800903,0.2757861614227295,7.3256611824035645,-1.04961097240448
6_20251106_182950,1762424955875,6,0.04934518411755562,-0.07294471561908722,-0.7716532349586487,-0.6299169659614563,0.9224423170089722,1.8788573741912842,-0.6337419748306274,0.9138277173042297,6.700675010681152,-2.7020251750946045,0.5839026570320129,1.0472702980041504,0.5204605460166931,0.8067331314086914,-22.717018127441406,38.63441467285156,0.5104332566261292,-0.49998903274536133,-1.3219313621520996,0.4033944606781006,7.200664043426514,-1.3800938129425049
6_20251106_182950,1762424955894,6,0.06031106412410736,-0.0702614113688469,-0.774397075176239,-0.6258874535560608,0.9063749313354492,1.8543020486831665,-0.6791036128997803,1.5434757471084595,6.935297012329102,-2.7331485748291016,0.466616690158844,0.9275407791137695,0.6841722726821899,-0.03525412082672119,-22.088150024414062,39.07317352294922,0.9120650291442871,-0.2122936248779297,-1.0824438333511353,0.6314107179641724,7.147590637207031,-1.6507047414779663
6_20251106_182950,1762424955913,6,0.07126719504594803,-0.06968595832586288,-0.7763125896453857,-0.6224175691604614,0.8945394158363342,1.830644965171814,-0.7243229150772095,1.8810436725616455,7.027469635009766,-2.425507068634033,0.3285612463951111,0.904327929019928,0.6853940486907959,-0.930635929107666,-21.561569213867188,39.37269592285156,0.9997063875198364,-0.09609651565551758,-0.6198419332504272,0.8813372850418091,7.123566150665283,-1.805665135383606
6_20251106_182950,1762424955933,6,0.08211052417755127,-0.06933461874723434,-0.7773065567016602,-0.6198750138282776,0.8860850930213928,1.8067575693130493,-0.7691630721092224,1.9935662746429443,7.047819137573242,-1.680942416191101,0.3285612463951111,0.904327929019928,0.6853940486907959,-1.8370907306671143,-21.011070251464844,39.712806701660156,0.8897831439971924,-0.06059741973876953,0.0997781753540039,1.103783130645752,7.108416557312012,-1.780720591545105
6_20251106_182950,1762424955952,6,0.0934077650308609,-0.06746131181716919,-0.7769718766212463,-0.6189011931419373,0.8816931843757629,1.7856334447860718,-0.8067280650138855,2.2557201385498047,6.823971271514893,-1.4666705131530762,0.028015784919261932,1.396685004234314,0.4703696668148041,-2.8273520469665527,-20.452499389648438,39.941612243652344,0.9215495586395264,-0.2275562286376953,0.2512401342391968,1.3341705799102783,7.051527500152588,-1.717910647392273
6_20251106_182950,1762424955970,6,0.1063927412033081,-0.06295260787010193,-0.7755004167556763,-0.6191256642341614,0.8807172775268555,1.7631661891937256,-0.8459282517433167,2.583711624145508,6.583364486694336,-2.2758755683898926,0.028015784919261932,1.396685004234314,0.4703696668148041,-3.93536376953125,-20.062835693359375,40.01390075683594,0.9996328353881836,-0.3745303153991699,-0.44637203216552734,1.5840787887573242,6.957894802093506,-1.8295035362243652
6_20251106_182950,1762424955991,6,0.1201620101928711,-0.0576191209256649,-0.7736916542053223,-0.6193886995315552,0.8807172775268555,1.7631661891937256,-0.8459282517433167,2.583711624145508,6.583364486694336,-2.2758755683898926,0.02312886342406273,1.5261882543563843,0.4489894211292267,-5.041471481323242,-19.647377014160156,40.019134521484375,0.9996328353881836,-0.3745303153991699,-0.44637203216552734,1.5840787887573242,6.957894802093506,-1.8295035362243652
6_20251106_182950,1762424956010,6,0.13292603194713593,-0.05323520302772522,-0.7714614868164062,-0.6199547648429871,0.887130618095398,1.7137645483016968,-0.9281910061836243,2.329937219619751,6.2410078048706055,-1.9071846008300781,-0.2480950802564621,1.2085386514663696,0.4447133541107178,-6.148494720458984,-19.256362915039062,39.95625305175781,0.4296588897705078,-0.4773859977722168,0.07171297073364258,1.9002783298492432,6.718393802642822,-1.9788975715637207
6_20251106_182950,1762424956028,6,0.14420029520988464,-0.050042178481817245,-0.7683649063110352,-0.621544361114502,0.8909101486206055,1.6910710334777832,-0.9611303806304932,2.0713744163513184,6.141653060913086,-1.5408875942230225,-0.2480950802564621,1.2085386514663696,0.4447133541107178,-7.311324119567871,-19.005706787109375,39.79389953613281,0.13687682151794434,-0.461392879486084,0.3504079580307007,1.934497594833374,6.60304594039917,-1.8912955522537231
6_20251106_182950,1762424956047,6,0.15596751868724823,-0.04733840003609657,-0.764472246170044,-0.6237109899520874,0.8960741758346558,1.6669533252716064,-0.9945464134216309,2.4352774620056152,6.106938362121582,-2.031677722930908,-0.3721005916595459,1.2928379774093628,0.7605303525924683,-8.431878089904785,-18.88825225830078,39.45488739013672,0.40062379837036133,-0.39688587188720703,-0.1123056411743164,2.034653663635254,6.503824234008789,-1.9193720817565918
6_20251106_182950,1762424956066,6,0.16959452629089355,-0.04591113701462746,-0.7599735856056213,-0.6257556080818176,0.9042828679084778,1.6438360214233398,-1.026681900024414,3.238497734069824,6.4289445877075195,-2.0616040229797363,-0.5162646770477295,1.2238101959228516,1.0238131284713745,-9.600768089294434,-18.761825561523438,39.15473175048828,0.9630751609802246,-0.05990409851074219,-0.1137855052947998,2.2754225730895996,6.488848686218262,-1.9478185176849365
6_20251106_182950,1762424956085,6,0.1842351108789444,-0.047028347849845886,-0.7545288801193237,-0.6281177997589111,0.9168220162391663,1.6230108737945557,-1.055923342704773,4.003412246704102,6.902976036071777,-1.4786410331726074,-0.6317181587219238,1.1071349382400513,1.1679770946502686,-10.764025688171387,-18.759498596191406,38.78484344482422,1.3823916912078857,0.3313016891479492,0.3753420114517212,2.621020555496216,6.571674346923828,-1.8539830446243286
6_20251106_182950,1762424956103,6,0.198782280087471,-0.05026663467288017,-0.7483345866203308,-0.6308361291885376,0.9333711862564087,1.6062806844711304,-1.0807534456253052,4.758750915527344,7.388978958129883,-1.250004529953003,-0.6543201208114624,1.0521571636199951,1.1972986459732056,-11.878960609436035,-18.777755737304688,38.281227111816406,1.7101843357086182,0.653843879699707,0.4831829071044922,3.0485665798187256,6.735135078430176,-1.7331874370574951
6_20251106_182950,1762424956123,6,0.21302804350852966,-0.054252199828624725,-0.7417856454849243,-0.6335849165916443,0.9333711862564087,1.6062806844711304,-1.0807534456253052,4.758750915527344,7.388978958129883,-1.250004529953003,-0.6714243292808533,1.0185595750808716,1.1600358486175537,-12.909100532531738,-18.80274200439453,37.753746032714844,1.7101843357086182,0.653843879699707,0.4831829071044922,3.0485665798187256,6.735135078430176,-1.7331874370574951
6_20251106_182950,1762424956144,6,0.22670286893844604,-0.058354731649160385,-0.7349814772605896,-0.6363982558250427,0.9851550459861755,1.5799050331115723,-1.1261695623397827,5.6098527908325195,7.685846328735352,-1.3637242317199707,-0.705632746219635,1.0173379182815552,1.1325470209121704,-13.941763877868652,-18.87755584716797,37.184661865234375,1.6997461318969727,0.6195640563964844,0.19240498542785645,3.910106658935547,7.066282272338867,-1.5561292171478271
6_20251106_182950,1762424956164,6,0.24018077552318573,-0.06230160966515541,-0.7277881503105164,-0.6393404006958008,1.0239653587341309,1.5702582597732544,-1.1486976146697998,6.214362144470215,7.8486456871032715,-1.3493596315383911,-0.7880995273590088,0.9409798383712769,1.1410990953445435,-14.929924964904785,-19.036148071289062,36.52107238769531,1.8434042930603027,0.6258902549743652,0.16541576385498047,4.370957851409912,7.222755432128906,-1.5147753953933716
6_20251106_182950,1762424956181,6,0.25302913784980774,-0.06698702275753021,-0.7201437950134277,-0.6425588726997375,1.058105707168579,1.5655083656311035,-1.1640989780426025,6.943365573883057,8.284372329711914,-0.9974271655082703,-0.9279875159263611,0.8365219831466675,1.1435425281524658,-15.886982917785645,-19.304161071777344,35.73493957519531,2.0579261779785156,0.8492937088012695,0.4138786196708679,4.885439395904541,7.4350786209106445,-1.4113057851791382
6_20251106_182950,1762424956200,6,0.2649575173854828,-0.07278383523225784,-0.7117156982421875,-0.6464988589286804,1.101633071899414,1.5643059015274048,-1.1766787767410278,7.538299083709717,8.835014343261719,-0.036196500062942505,-1.067875623703003,0.7106838226318359,1.1307144165039062,-15.886982917785645,-19.304161071777344,35.73493957519531,2.1222877502441406,1.119948387145996,1.1000875234603882,5.416011333465576,7.715065956115723,-1.1362839937210083
6_20251106_182950,1762424956220,6,0.2757503092288971,-0.07969895750284195,-0.7025196552276611,-0.6512112021446228,1.1532788276672363,1.5687024593353271,-1.1833306550979614,8.0865478515625,9.556835174560547,0.8137085437774658,-1.0532147884368896,0.5891216993331909,1.0830669403076172,-16.796283721923828,-19.570343017578125,35.08592224121094,2.1364293098449707,1.4734153747558594,1.5599939823150635,5.950118541717529,8.083419799804688,-0.7462854981422424
6_20251106_182950,1762424956239,6,0.2853771448135376,-0.08699974417686462,-0.69344562292099,-0.6558384299278259,1.2068312168121338,1.5786734819412231,-1.1829454898834229,8.480377197265625,10.27147388458252,1.5822142362594604,-0.9689154624938965,0.5084876418113708,0.9395137429237366,-17.60025405883789,-19.916465759277344,34.35838317871094,2.0242066383361816,1.750443458557129,1.862799882888794,6.456170558929443,8.52103042602539,-0.2805856168270111
6_20251106_182950,1762424956259,6,0.2934875190258026,-0.09365584701299667,-0.6849584579467773,-0.6602466106414795,1.2674468755722046,1.5956215858459473,-1.175008773803711,8.77963924407959,10.816131591796875,2.2034831047058105,-0.9322635531425476,0.5414743423461914,0.6835614442825317,-18.34268569946289,-20.246192932128906,33.647071838378906,1.8587751388549805,1.836080551147461,1.9872549772262573,6.920864105224609,8.980051040649414,0.21622809767723083
6_20251106_182950,1762424956277,6,0.3001285493373871,-0.09827899932861328,-0.6766225695610046,-0.6651661396026611,1.3235290050506592,1.614892840385437,-1.1623272895812988,8.649160385131836,10.921472549438477,2.6104798316955566,-0.9322635531425476,0.5414743423461914,0.6835614442825317,-19.128326416015625,-20.703338623046875,32.877586364746094,1.3826370239257812,1.5531368255615234,1.9154014587402344,7.266523361206055,9.368335723876953,0.6950783729553223
6_20251106_182950,1762424956296,6,0.30557146668434143,-0.09939054399728775,-0.6686170697212219,-0.6705958843231201,1.3826276063919067,1.637917160987854,-1.1448020935058594,8.309198379516602,10.716775894165039,2.447680950164795,-0.8772857189178467,0.6337149143218994,0.33292511105537415,-19.779712677001953,-21.139862060546875,32.18133544921875,0.8341403007507324,1.0787525177001953,1.402082085609436,7.475058078765869,9.638023376464844,1.0455988645553589
6_20251106_182950,1762424956314,6,0.3091461658477783,-0.09840013086795807,-0.6610614657402039,-0.6765676736831665,1.4365499019622803,1.6603078842163086,-1.1267235279083252,7.772920608520508,10.315764427185059,1.9820287227630615,-0.6830307245254517,0.6025607585906982,-0.12155827134847641,-20.375003814697266,-21.660179138183594,31.472177505493164,0.23828983306884766,0.5421934127807617,0.7491438388824463,7.53463077545166,9.773571014404297,1.2328848838806152
6_20251106_182950,1762424956334,6,0.31110668182373047,-0.09655580669641495,-0.6546928286552429,-0.682104766368866,1.4365499019622803,1.6603078842163086,-1.1267235279083252,7.772920608520508,10.315764427185059,1.9820287227630615,-0.622555136680603,0.4309077858924866,-0.16981659829616547,-20.970001220703125,-22.180091857910156,30.722471237182617,0.23828983306884766,0.5421934127807617,0.7491438388824463,7.53463077545166,9.773571014404297,1.2328848838806152
6_20251106_182950,1762424956354,6,0.311691552400589,-0.09525692462921143,-0.6493527293205261,-0.6871066093444824,1.5439698696136475,1.7101037502288818,-1.0847285985946655,6.756625652313232,10.13261604309082,1.8647178411483765,-0.5840706825256348,0.2916306257247925,-0.1942511796951294,-21.48117446899414,-22.69647216796875,30.17894172668457,-0.5710868835449219,0.21561622619628906,0.4225682020187378,7.327712535858154,9.916999816894531,1.4421496391296387
6_20251106_182950,1762424956372,6,0.311318039894104,-0.09440569579601288,-0.6447649002075195,-0.6916984915733337,1.5853344202041626,1.7311948537826538,-1.064834713935852,6.383146286010742,9.936300277709961,2.1532068252563477,-0.5162646770477295,0.21466168761253357,-0.22907046973705292,-21.843521118164062,-23.17658233642578,29.47962760925293,-0.7556533813476562,0.015439987182617188,0.5688457489013672,7.138799667358398,9.920860290527344,1.5843610763549805
6_20251106_182950,1762424956391,6,0.31022968888282776,-0.09359339624643326,-0.6408631801605225,-0.6959110498428345,1.623571515083313,1.7519468069076538,-1.0434496402740479,5.956996917724609,9.775896072387695,2.1077189445495605,-0.44173914194107056,0.17923152446746826,-0.26877662539482117,-22.230228424072266,-23.64666748046875,28.87421226501465,-0.9454421997070312,-0.11597156524658203,0.4186863899230957,6.902439117431641,9.891867637634277,1.6890325546264648
6_20251106_182950,1762424956410,6,0.3087722659111023,-0.09244784712791443,-0.6375487446784973,-0.6997461318969727,1.6563241481781006,1.7707157135009766,-1.0217782258987427,5.600275993347168,9.547258377075195,2.183133125305176,-0.44173914194107056,0.17923152446746826,-0.26877662539482117,-22.533748626708984,-24.14886474609375,28.27143669128418,-1.0417304039001465,-0.27568721771240234,0.3952803611755371,6.6420063972473145,9.822945594787598,1.7878527641296387
6_20251106_182950,1762424956429,6,0.30733680725097656,-0.09126795828342438,-0.6343165040016174,-0.7034606337547302,1.6842395067214966,1.787284016609192,-0.9997446537017822,5.475782871246338,9.362914085388184,2.3148083686828613,-0.4331870675086975,0.17312288284301758,-0.2614462673664093,-22.739158630371094,-24.62067413330078,27.7812442779541,-0.9329791069030762,-0.3680248260498047,0.4215644598007202,6.408761978149414,9.730938911437988,1.8932439088821411
6_20251106_182950,1762424956449,6,0.30580568313598633,-0.0908203125,-0.631486177444458,-0.7067246437072754,1.7090529203414917,1.8023004531860352,-0.9765459895133972,5.388398170471191,9.220464706420898,2.276503086090088,-0.27130791544914246,-0.07366646081209183,-0.13133211433887482,-22.821697235107422,-25.059967041015625,27.350549697875977,-0.816291332244873,-0.40837955474853516,0.30660736560821533,6.2046895027160645,9.628844261169434,1.9698957204818726
6_20251106_182950,1762424956468,6,0.3038412928581238,-0.09160667657852173,-0.6298961043357849,-0.7088862061500549,1.7090529203414917,1.8023004531860352,-0.9765459895133972,5.388398170471191,9.220464706420898,2.276503086090088,-0.20350195467472076,-0.1677396297454834,-0.07879773527383804,-22.82928466796875,-25.44561004638672,27.05901527404785,-0.816291332244873,-0.40837955474853516,0.30660736560821533,6.2046895027160645,9.628844261169434,1.9698957204818726
6_20251106_182950,1762424956486,6,0.30170246958732605,-0.09316561371088028,-0.6289886236190796,-0.7104006409645081,1.7449860572814941,1.8249311447143555,-0.9359228014945984,5.296225547790527,9.252784729003906,2.17714786529541,-0.24015383422374725,-0.17995691299438477,-0.07452168315649033,-22.797386169433594,-25.766891479492188,26.851369857788086,-0.579310417175293,-0.2278461456298828,0.1560077667236328,5.87553596496582,9.480630874633789,2.0211400985717773
6_20251106_182950,1762424956505,6,0.2994542717933655,-0.0949358344078064,-0.6279054284095764,-0.712073802947998,1.7449860572814941,1.8249311447143555,-0.9359228014945984,5.296225547790527,9.252784729003906,2.17714786529541,-0.21938443183898926,-0.16651789844036102,-0.1380516141653061,-22.75018310546875,-26.03675079345703,26.60472297668457,-0.579310417175293,-0.2278461456298828,0.1560077667236328,5.87553596496582,9.480630874633789,2.0211400985717773
6_20251106_182950,1762424956524,6,0.29695412516593933,-0.0960964560508728,-0.626966655254364,-0.7137902975082397,1.7716259956359863,1.8430471420288086,-0.8948286175727844,5.087939262390137,9.107941627502441,2.4273312091827393,-0.1705152541399002,-0.11764872819185257,-0.23273564875125885,-22.681007385253906,-26.33148193359375,26.49369239807129,-0.539494514465332,-0.2597808837890625,0.26398444175720215,5.627433776855469,9.367722511291504,2.163346767425537
6_20251106_182950,1762424956543,6,0.29414641857147217,-0.09623543173074722,-0.6262607574462891,-0.7155515551567078,1.7807649374008179,1.8495489358901978,-0.8745666742324829,4.800646781921387,8.845788955688477,2.476410150527954,-0.10698531568050385,-0.09260327368974686,-0.28038308024406433,-22.547176361083984,-26.559188842773438,26.359399795532227,-0.6614294052124023,-0.41754722595214844,0.25045061111450195,5.462076187133789,9.263336181640625,2.225959539413452
6_20251106_182950,1762424956562,6,0.2912173867225647,-0.09571769088506699,-0.6259486675262451,-0.7170904874801636,1.7866798639297485,1.8540678024291992,-0.8548967242240906,4.453502655029297,8.659048080444336,2.3794493675231934,-0.03368155285716057,-0.07672078907489777,-0.2516724467277527,-22.484352111816406,-26.753990173339844,26.22295570373535,-0.8068585395812988,-0.4834299087524414,0.12279176712036133,5.260361194610596,9.142477989196777,2.256657600402832
6_20251106_182950,1762424956583,6,0.2886696755886078,-0.0950169712305069,-0.6260462999343872,-0.7181278467178345,1.789720892906189,1.8566868305206299,-0.834854781627655,4.314644813537598,8.508220672607422,2.0742015838623047,0.004192059859633446,-0.05656225234270096,-0.17042745649814606,-22.343360900878906,-26.844375610351562,26.17266273498535,-0.7565732002258301,-0.5074062347412109,-0.1459648609161377,5.071218013763428,9.015626907348633,2.2201664447784424
6_20251106_182950,1762424956603,6,0.2868850529193878,-0.09445805847644806,-0.6262917518615723,-0.718702495098114,1.7904284000396729,1.8573253154754639,-0.8196813464164734,4.352950572967529,8.408864974975586,1.754589319229126,-0.0013057226315140724,-0.06328176707029343,-0.09834539890289307,-22.230072021484375,-26.998870849609375,26.09303855895996,-0.5746140480041504,-0.4854097366333008,-0.37246179580688477,4.92756462097168,8.894274711608887,2.1270511150360107
6_20251106_182950,1762424956622,6,0.28550422191619873,-0.09441709518432617,-0.6264975666999817,-0.7190782427787781,1.7891342639923096,1.8563538789749146,-0.8039559721946716,4.307462692260742,8.393302917480469,1.801274299621582,-0.009857828728854656,-0.12070304900407791,-0.04703276604413986,-22.230072021484375,-26.998870849609375,26.09303855895996,-0.4960813522338867,-0.40077781677246094,-0.2606215476989746,4.803544044494629,8.79408073425293,2.0618958473205566
6_20251106_182950,1762424956640,6,0.2840827703475952,-0.09515944123268127,-0.6268017888069153,-0.7192782163619995,1.7868324518203735,1.8547322750091553,-0.7915864586830139,4.296689033508301,8.456747055053711,1.8850677013397217,-0.015355611220002174,-0.09443586319684982,0.005501599982380867,-22.187881469726562,-27.120590209960938,26.024778366088867,-0.4054837226867676,-0.269866943359375,-0.1414625644683838,4.702172756195068,8.726613998413086,2.0265302658081055
6_20251106_182950,1762424956659,6,0.28322526812553406,-0.09599705040454865,-0.6269444823265076,-0.7193807363510132,1.7868324518203735,1.8547322750091553,-0.7915864586830139,4.296689033508301,8.456747055053711,1.8850677013397217,-0.025740310549736023,-0.030905934050679207,0.038488294929265976,-22.035411834716797,-27.222740173339844,25.974714279174805,-0.4054837226867676,-0.269866943359375,-0.1414625644683838,4.702172756195068,8.726613998413086,2.0265302658081055
6_20251106_182950,1762424956678,6,0.2829355299472809,-0.09663587063550949,-0.6267969608306885,-0.7195377349853516,1.7835761308670044,1.8518098592758179,-0.7784674167633057,4.49180793762207,8.390909194946289,1.8503532409667969,-0.08927024155855179,-0.02968420647084713,0.0788053646683693,-21.906200408935547,-27.301773071289062,25.964746475219727,-0.16829204559326172,-0.26856422424316406,-0.14094161987304688,4.660099983215332,8.659473419189453,1.9912948608398438
6_20251106_182950,1762424956698,6,0.28286629915237427,-0.09774214774370193,-0.6261719465255737,-0.7199596166610718,1.7787854671478271,1.8462251424789429,-0.7571495771408081,4.835361480712891,8.564481735229492,2.289670467376709,-0.06483565270900726,-0.06939040869474411,0.11545725166797638,-21.797935485839844,-27.319740295410156,25.9686336517334,0.14013051986694336,-0.050835609436035156,0.2455458641052246,4.695230960845947,8.615317344665527,2.0441246032714844
6_20251106_182950,1762424956717,6,0.28318265080451965,-0.09899332374334335,-0.6258195638656616,-0.719970703125,1.7787854671478271,1.8462251424789429,-0.7571495771408081,4.835361480712891,8.564481735229492,2.289670467376709,0.018241949379444122,-0.11031834781169891,0.09835303574800491,-21.741939544677734,-27.403671264648438,25.969236373901367,0.14013051986694336,-0.050835609436035156,0.2455458641052246,4.695230960845947,8.615317344665527,2.0441246032714844
6_20251106_182950,1762424956734,6,0.28288793563842773,-0.10052105039358139,-0.6260504126548767,-0.7196741104125977,1.7769622802734375,1.8417402505874634,-0.7368748784065247,4.955066680908203,8.703339576721191,1.8982352018356323,0.009078980423510075,-0.07916425168514252,0.012221111916005611,-21.65603256225586,-27.38568878173828,25.986448287963867,0.15729284286499023,0.05001354217529297,-0.11692702770233154,4.797773838043213,8.653326034545898,2.015162229537964
6_20251106_182950,1762424956753,6,0.2821667492389679,-0.10136684775352478,-0.6262659430503845,-0.7196510434150696,1.7764192819595337,1.8398325443267822,-0.7280505299568176,4.823390960693359,8.703338623046875,1.7988801002502441,-0.06727910786867142,0.021628430113196373,-0.0653587058186531,-21.609500885009766,-27.420318603515625,26.001134872436523,0.020493507385253906,0.04001045227050781,-0.1730257272720337,4.8028974533081055,8.663328170776367,1.9719058275222778
6_20251106_182950,1762424956773,6,0.2814963459968567,-0.10120490938425064,-0.6257967948913574,-0.7203441858291626,1.7758111953735352,1.8380210399627686,-0.7193518877029419,4.781494140625,8.69495964050293,1.9305555820465088,-0.12347866594791412,0.06805414706468582,-0.08429551124572754,-21.60688018798828,-27.370361328125,26.02922248840332,-0.017122745513916016,0.025304794311523438,-0.033080101013183594,4.798616886138916,8.669654846191406,1.9636356830596924
6_20251106_182950,1762424956792,6,0.28086769580841064,-0.10077138245105743,-0.6248535513877869,-0.7214682698249817,1.7750840187072754,1.836531162261963,-0.7110633254051208,4.733612060546875,8.722492218017578,2.1232805252075195,-0.10637445747852325,0.05094993859529495,-0.06413697451353073,-21.569419860839844,-27.355148315429688,26.00392723083496,-0.05200386047363281,0.04226970672607422,0.1277158260345459,4.785615921020508,8.680222511291504,1.9955646991729736
6_20251106_182950,1762424956812,6,0.28033968806266785,-0.10048338770866394,-0.6240389943122864,-0.7224181890487671,1.774339199066162,1.8352481126785278,-0.7029898762702942,4.765932559967041,8.728477478027344,2.068216323852539,-0.06422478705644608,0.025293616577982903,-0.04153498262166977,-21.596710205078125,-27.4071044921875,26.015405654907227,-0.015746593475341797,0.038603782653808594,0.0581212043762207,4.781679153442383,8.689873695373535,2.0100951194763184
6_20251106_182950,1762424956830,6,0.27986031770706177,-0.10037723928689957,-0.6235301494598389,-0.7230579257011414,1.774339199066162,1.8352481126785278,-0.7029898762702942,4.765932559967041,8.728477478027344,2.068216323852539,-0.06422478705644608,0.025293616577982903,-0.04153498262166977,-21.610008239746094,-27.43260955810547,25.97383689880371,-0.015746593475341797,0.038603782653808594,0.0581212043762207,4.781679153442383,8.689873695373535,2.0100951194763184
6_20251106_182950,1762424956850,6,0.2791292667388916,-0.10056324303150177,-0.6233376860618591,-0.7234805226325989,1.7735084295272827,1.8340142965316772,-0.6940170526504517,4.767129421234131,8.723688125610352,2.1579952239990234,-0.022685987874865532,0.003913352265954018,-0.05741745978593826,-21.598838806152344,-27.456390380859375,25.91973304748535,-0.011639595031738281,0.027051925659179688,0.11831998825073242,4.778769016265869,8.696636199951172,2.039675235748291
6_20251106_182950,1762424956870,6,0.2784445583820343,-0.10042040795087814,-0.6231802105903625,-0.7238996624946594,1.772393822669983,1.8330202102661133,-0.685218870639801,4.659395217895508,8.736856460571289,2.263335704803467,-0.05322922393679619,0.11142554134130478,-0.08673897385597229,-21.573352813720703,-27.430091857910156,25.961790084838867,-0.09549903869628906,0.03217601776123047,0.17892837524414062,4.754894256591797,8.704680442810059,2.084407329559326
6_20251106_182950,1762424956888,6,0.27817302942276,-0.09941156208515167,-0.6225398778915405,-0.7246938347816467,1.769334316253662,1.8311854600906372,-0.6698384881019592,4.5241289138793945,8.659048080444336,2.1280689239501953,-0.07949641346931458,0.14319051802158356,-0.11850393563508987,-21.590473175048828,-27.518783569335938,25.95945167541504,-0.1605219841003418,-0.03380107879638672,0.016068696975708008,4.684650897979736,8.692849159240723,2.1120002269744873
6_20251106_182950,1762424956908,6,0.2778448164463043,-0.09745784103870392,-0.6216465830802917,-0.7258510589599609,1.7665817737579346,1.829982042312622,-0.6619451642036438,4.3158416748046875,8.59919548034668,2.2489709854125977,-0.07949641346931458,0.14319051802158356,-0.11850393563508987,-21.666210174560547,-27.573509216308594,25.92841911315918,-0.2950472831726074,-0.07492256164550781,0.10957670211791992,4.610888957977295,8.674118041992188,2.1393942832946777
6_20251106_182950,1762424956926,6,0.2771921753883362,-0.09566983580589294,-0.6210824251174927,-0.7268207669258118,1.762536644935608,1.8284099102020264,-0.6540440917015076,4.089599609375,8.51779556274414,2.2860794067382812,-0.03979019820690155,0.09126700460910797,-0.101399727165699,-21.71759033203125,-27.638259887695312,25.803491592407227,-0.41703128814697266,-0.12505817413330078,0.11734819412231445,4.506630897521973,8.642853736877441,2.168731212615967
6_20251106_182950,1762424956944,6,0.2767908573150635,-0.09371983259916306,-0.620566725730896,-0.7276677489280701,1.7578603029251099,1.826409935951233,-0.6470332145690918,4.086008548736572,8.405274391174316,2.1280689239501953,-0.03001636639237404,0.12730804085731506,-0.04153498262166977,-21.721424102783203,-27.71306610107422,25.74784278869629,-0.33649778366088867,-0.1900634765625,-0.03252983093261719,4.422506332397461,8.595337867736816,2.1605987548828125
6_20251106_182950,1762424956965,6,0.27706998586654663,-0.09154292196035385,-0.6199415326118469,-0.7283712029457092,1.7517541646957397,1.8236405849456787,-0.6400138139724731,4.147058010101318,8.430412292480469,1.9365408420562744,-0.020853392779827118,0.12852975726127625,0.025660134851932526,-21.733718872070312,-27.725608825683594,25.665990829467773,-0.22035884857177734,-0.1319408416748047,-0.1792464256286621,4.367416858673096,8.562353134155273,2.1157872676849365
6_20251106_182950,1762424956983,6,0.2777327001094818,-0.08994399756193161,-0.61948561668396,-0.7287058234214783,1.7465606927871704,1.8210458755493164,-0.6349604725837708,4.277536392211914,8.424427032470703,1.8467621803283691,-0.022685987874865532,0.1004299744963646,0.09652044624090195,-21.723957061767578,-27.774505615234375,25.611360549926758,-0.07190418243408203,-0.11034107208251953,-0.21521997451782227,4.349440574645996,8.534768104553223,2.0619821548461914
6_20251106_182950,1762424957002,6,0.27870112657546997,-0.08904539793729782,-0.6192968487739563,-0.7286068797111511,1.7417302131652832,1.8185714483261108,-0.6304999589920044,4.487020492553711,8.5812406539917,1.8407769203186035,-0.047731444239616394,0.05522599071264267,0.1612720936536789,-21.761219024658203,-27.789443969726562,25.6096248626709,0.11006402969360352,0.03717803955078125,-0.17696428298950195,4.376956462860107,8.544062614440918,2.0177412033081055
6_20251106_182950,1762424957023,6,0.27976375818252563,-0.0891752541065216,-0.6191031336784363,-0.7283483743667603,1.7380702495574951,1.8169124126434326,-0.625743567943573,4.798253059387207,8.824241638183594,2.03948712348938,-0.047731444239616394,0.05522599071264267,0.1612720936536789,-21.835052490234375,-27.818382263183594,25.51154136657715,0.3370370864868164,0.22414302825927734,0.01739668846130371,4.461215972900391,8.600098609924316,2.022090435028076
6_20251106_182950,1762424957041,6,0.2807328402996063,-0.09000629931688309,-0.6188451051712036,-0.7280924916267395,1.7363768815994263,1.816532015800476,-0.621096670627594,4.983795642852783,8.994221687316895,2.336355686187744,-0.08010727167129517,0.010021999478340149,0.1869284063577652,-21.835052490234375,-27.818382263183594,25.51154136657715,0.4180636405944824,0.31529903411865234,0.25141215324401855,4.565732002258301,8.678922653198242,2.0849435329437256
6_20251106_182950,1762424957060,6,0.28139397501945496,-0.09074654430150986,-0.6184852123260498,-0.7280511856079102,1.7359538078308105,1.816969633102417,-0.6157470941543579,5.03048038482666,8.977462768554688,2.336355447769165,-0.04589884728193283,0.0741627886891365,0.041542619466781616,-21.858325958251953,-27.80687713623047,25.456758499145508,0.3717985153198242,0.2388324737548828,0.20112967491149902,4.658681869506836,8.738630294799805,2.135225772857666
6_20251106_182950,1762424957080,6,0.2818302810192108,-0.0906166210770607,-0.6179039478302002,-0.7283920645713806,1.7359538078308105,1.816969633102417,-0.6157470941543579,5.03048038482666,8.977462768554688,2.336355447769165,-0.03551414608955383,0.1053168997168541,-0.026263363659381866,-21.89368438720703,-27.79602813720703,25.387968063354492,0.3717985153198242,0.2388324737548828,0.20112967491149902,4.658681869506836,8.738630294799805,2.135225772857666
6_20251106_182950,1762424957100,6,0.2820196747779846,-0.08993951231241226,-0.6173803210258484,-0.728846549987793,1.7370922565460205,1.8188939094543457,-0.6044641137123108,4.817405700683594,8.84459114074707,2.2669267654418945,-0.05933787301182747,0.10409516841173172,-0.03786979615688324,-21.941314697265625,-27.774497985839844,25.42708396911621,0.08396244049072266,0.06168556213378906,0.08409714698791504,4.733443260192871,8.782905578613281,2.1828296184539795
6_20251106_182950,1762424957118,6,0.282111257314682,-0.08918210864067078,-0.6167912483215332,-0.7294027209281921,1.737932801246643,1.8200087547302246,-0.5986067652702332,4.801844596862793,8.836212158203125,2.417754888534546,-0.07460948824882507,0.07355193048715591,-0.008548288606107235,-22.01303482055664,-27.765762329101562,25.329790115356445,0.05472087860107422,0.04264545440673828,0.18794012069702148,4.747123718261719,8.793566703796387,2.2298147678375244
6_20251106_182950,1762424957137,6,0.28218820691108704,-0.0887216255068779,-0.6161707639694214,-0.7299533486366272,1.7389076948165894,1.8213096857070923,-0.5921851396560669,4.811420440673828,8.88170051574707,2.542248010635376,-0.07460948824882507,0.07355193048715591,-0.008548288606107235,-22.0745849609375,-27.79376983642578,25.218679428100586,0.0514373779296875,0.07050704956054688,0.24994659423828125,4.759983062744141,8.811193466186523,2.2923014163970947
6_20251106_182950,1762424957156,6,0.28241848945617676,-0.08838331699371338,-0.6158989667892456,-0.7301347255706787,1.7398499250411987,1.8224447965621948,-0.5861262083053589,4.786282539367676,8.796709060668945,2.4057843685150146,-0.017799070104956627,0.023461023345589638,0.013442840427160263,-22.157772064208984,-27.76165771484375,25.216039657592773,0.021039485931396484,-0.011587142944335938,0.09078621864318848,4.765243053436279,8.808296203613281,2.314998149871826
6_20251106_182950,1762424957174,6,0.28244659304618835,-0.08790816366672516,-0.6157134175300598,-0.7303376197814941,1.7406717538833618,1.8236629962921143,-0.5803170204162598,4.720444679260254,8.837408065795898,2.2178475856781006,-0.015966475009918213,0.07904971390962601,-0.023819908499717712,-22.205120086669922,-27.75133514404297,25.119726181030273,-0.03583860397338867,0.02328968048095703,-0.07772040367126465,4.756283283233643,8.814118385314941,2.2955679893493652
6_20251106_182950,1762424957194,6,0.28249481320381165,-0.08722054958343506,-0.6153268814086914,-0.7307270765304565,1.7406717538833618,1.8236629962921143,-0.5803170204162598,4.720444679260254,8.837408065795898,2.2178475856781006,-0.052618358284235,0.10714948922395706,-0.029928553849458694,-22.229801177978516,-27.764938354492188,25.064416885375977,-0.03583860397338867,0.02328968048095703,-0.07772040367126465,4.756283283233643,8.814118385314941,2.2955679893493652
6_20251106_182950,1762424957212,6,0.2826277017593384,-0.08624366670846939,-0.6149041056632996,-0.7311474084854126,1.7411270141601562,1.8250006437301636,-0.5734466314315796,4.6342573165893555,8.813467025756836,2.4261341094970703,-0.022075124084949493,0.12303197383880615,-0.012213476933538914,-22.280559539794922,-27.805648803710938,25.048147201538086,-0.09762096405029297,-0.0005207061767578125,0.10445284843444824,4.731878280639648,8.813987731933594,2.321681261062622
6_20251106_182950,1762424957233,6,0.2830233871936798,-0.08508101850748062,-0.614379346370697,-0.731571614742279,1.741326093673706,1.826797604560852,-0.562808632850647,4.676153659820557,8.729674339294434,2.307626247406006,0.013355030678212643,0.1053168997168541,0.011610247194766998,-22.282787322998047,-27.855072021484375,24.965993881225586,-0.03145027160644531,-0.06660175323486328,-0.020869970321655273,4.707603931427002,8.796276092529297,2.328496217727661
6_20251106_182950,1762424957250,6,0.28349682688713074,-0.08414451032876968,-0.6141923666000366,-0.73165363073349,1.7414764165878296,1.8274272680282593,-0.5579265356063843,4.750370979309082,8.754812240600586,2.324385166168213,0.011522435583174229,0.07843884825706482,0.03604483604431152,-22.30817413330078,-27.88123321533203,24.91042137145996,0.03421354293823242,-0.033171653747558594,-0.003288745880126953,4.71615743637085,8.787983894348145,2.32767391204834
6_20251106_182950,1762424957271,6,0.2839730978012085,-0.08367791026830673,-0.614112138748169,-0.7315897345542908,1.7419021129608154,1.8278334140777588,-0.5526148676872253,4.793464660644531,8.700944900512695,2.2980499267578125,0.024350598454475403,0.07599539309740067,0.04642953723669052,-22.33334732055664,-27.89551544189453,24.922693252563477,0.06184577941894531,-0.06963157653808594,-0.023699045181274414,4.731618881225586,8.770576477050781,2.321748971939087
6_20251106_182950,1762424957289,6,0.28456148505210876,-0.08332694321870804,-0.6141077280044556,-0.7314048409461975,1.742604374885559,1.827980875968933,-0.5487017035484314,4.876060962677002,8.696157455444336,2.1544039249420166,0.024350598454475403,0.07599539309740067,0.04642953723669052,-22.333942413330078,-27.896324157714844,25.0037899017334,0.11555337905883789,-0.05953502655029297,-0.13387608528137207,4.760507583618164,8.755692481994629,2.2882800102233887
6_20251106_182950,1762424957310,6,0.2851313054561615,-0.08311990648508072,-0.6141155362129211,-0.7311999201774597,1.7442675828933716,1.827940821647644,-0.544981837272644,5.024495601654053,8.69495964050293,2.104127883911133,0.026794053614139557,0.07904971390962601,0.0476512648165226,-22.35540771484375,-27.859161376953125,24.895471572875977,0.21119070053100586,-0.04858684539794922,-0.1473217010498047,4.813304901123047,8.743546485900879,2.2514495849609375
6_20251106_182950,1762424957330,6,0.28533536195755005,-0.08330070227384567,-0.6143040657043457,-0.7309413552284241,1.7462542057037354,1.8278769254684448,-0.5418202877044678,4.971825122833252,8.73446273803711,2.1843302249908447,0.013965894468128681,0.04484128952026367,0.035433970391750336,-22.442119598388672,-27.88983154296875,24.891511917114258,0.1268162727355957,-0.007266998291015625,-0.0536954402923584,4.845008850097656,8.741729736328125,2.238025665283203
6_20251106_182950,1762424957346,6,0.28522011637687683,-0.0840180292725563,-0.6146412491798401,-0.7306206822395325,1.747899055480957,1.8278584480285645,-0.5391889214515686,4.914366722106934,8.757205963134766,2.355508327484131,0.006635517813265324,-0.008914806880056858,0.026271000504493713,-22.488750457763672,-27.85533905029297,24.89034080505371,0.055486202239990234,0.012380599975585938,0.09398603439331055,4.858880519866943,8.74482536315918,2.2615222930908203
6_20251106_182950,1762424957365,6,0.2850954532623291,-0.08450136333703995,-0.614704966545105,-0.7305600047111511,1.747899055480957,1.8278584480285645,-0.5391889214515686,4.914366722106934,8.757205963134766,2.355508327484131,-0.008025234565138817,0.05094993859529495,-0.023209039121866226,-22.49811553955078,-27.805908203125,24.890905380249023,0.055486202239990234,0.012380599975585938,0.09398603439331055,4.858880519866943,8.74482536315918,2.2615222930908203
6_20251106_182950,1762424957385,6,0.2850206792354584,-0.08427048474550247,-0.6145266890525818,-0.7307658195495605,1.7516529560089111,1.8277156352996826,-0.5326969027519226,4.830573081970215,8.686580657958984,2.223832845687866,0.006635517813265324,0.08393662422895432,-0.07207822054624557,-22.510486602783203,-27.79535675048828,25.012327194213867,-0.025586605072021484,-0.04781055450439453,-0.048253774642944336,4.856159687042236,8.734391212463379,2.2720866203308105
6_20251106_182950,1762424957403,6,0.28478527069091797,-0.0834764912724495,-0.614378035068512,-0.7310736775398254,1.7525980472564697,1.8271386623382568,-0.5300871133804321,4.606724739074707,8.556102752685547,2.2393946647644043,-0.025740310549736023,0.10226257145404816,-0.10078886151313782,-22.499610900878906,-27.819541931152344,24.9987735748291,-0.19954776763916016,-0.14263057708740234,-0.026153564453125,4.806272506713867,8.69873332977295,2.2655482292175293
6_20251106_182950,1762424957423,6,0.28436920046806335,-0.08253258466720581,-0.6141532063484192,-0.73153156042099,1.752938151359558,1.826048731803894,-0.5273208618164062,4.589966297149658,8.54054069519043,2.2693207263946533,-0.05628354847431183,0.11264727264642715,-0.07940859347581863,-22.53577423095703,-27.821380615234375,24.943235397338867,-0.17304515838623047,-0.1265544891357422,0.003017902374267578,4.763011455535889,8.667095184326172,2.2663028240203857
6_20251106_182950,1762424957443,6,0.2841971516609192,-0.08144093304872513,-0.6136397123336792,-0.7321513891220093,1.752586007118225,1.8247195482254028,-0.5241451859474182,4.540887355804443,8.570466041564941,2.446484088897705,-0.05628354847431183,0.11264727264642715,-0.07940859347581863,-22.53577423095703,-27.821380615234375,24.943235397338867,-0.17769956588745117,-0.07730293273925781,0.14414501190185547,4.7185869216918945,8.6477689743042,2.3023390769958496
6_20251106_182950,1762424957461,6,0.2839241325855255,-0.08092212677001953,-0.6133864521980286,-0.732526957988739,1.7518590688705444,1.823378086090088,-0.5208126902580261,4.545675277709961,8.564481735229492,2.5530214309692383,-0.004970910958945751,0.015519781038165092,-0.01343520637601614,-22.64455795288086,-27.827316284179688,24.817174911499023,-0.13832950592041016,-0.06662940979003906,0.2005457878112793,4.684004783630371,8.631111145019531,2.352475643157959
6_20251106_182950,1762424957481,6,0.2837968170642853,-0.08059290796518326,-0.6132063269615173,-0.7327633500099182,1.7508491277694702,1.8219026327133179,-0.5168353319168091,4.581586837768555,8.583634376525879,2.5841445922851562,0.0023594656959176064,-0.0015844302251935005,0.004890735261142254,-22.685134887695312,-27.893157958984375,24.8819637298584,-0.08193445205688477,-0.03798198699951172,0.1853351593017578,4.6635212898254395,8.62161636352539,2.3988094329833984
6_20251106_182950,1762424957500,6,0.2836458683013916,-0.08055461198091507,-0.6129661798477173,-0.7330268621444702,1.749746561050415,1.8205955028533936,-0.5123964548110962,4.633060455322266,8.677003860473633,2.5506272315979004,-0.025129446759819984,0.0020807581022381783,0.016497164964675903,-22.69884490966797,-27.930816650390625,24.799585342407227,-0.024368762969970703,0.04430961608886719,0.12145423889160156,4.657429218292236,8.632694244384766,2.429172992706299
6_20251106_182950,1762424957520,6,0.2836274802684784,-0.08063899725675583,-0.6124992370605469,-0.7334149479866028,1.749746561050415,1.8205955028533936,-0.5123964548110962,4.633060455322266,8.677003860473633,2.5506272315979004,-0.03245982527732849,0.02223929576575756,-0.00366137083619833,-22.740039825439453,-28.02069091796875,24.75571632385254,-0.024368762969970703,0.04430961608886719,0.12145423889160156,4.657429218292236,8.632694244384766,2.429172992706299
6_20251106_182950,1762424957539,6,0.2834979295730591,-0.08055169135332108,-0.6120275855064392,-0.7338682413101196,1.7471764087677002,1.818587064743042,-0.503485381603241,4.544478416442871,8.625531196594238,2.4991540908813477,-0.031238093972206116,0.0845474973320961,-0.04214584827423096,-22.82706069946289,-28.063385009765625,24.69742774963379,-0.08186483383178711,-0.016458511352539062,0.03578615188598633,4.626343250274658,8.641989707946777,2.4633679389953613
6_20251106_182950,1762424957557,6,0.2829030454158783,-0.08021700382232666,-0.6113896369934082,-0.7346658110618591,1.7471764087677002,1.818587064743042,-0.503485381603241,4.544478416442871,8.625531196594238,2.4991540908813477,-0.03245982527732849,0.11814505606889725,-0.06413697451353073,-22.83624267578125,-28.025299072265625,24.576082229614258,-0.08186483383178711,-0.016458511352539062,0.03578615188598633,4.626343250274658,8.641989707946777,2.4633679389953613
6_20251106_182950,1762424957576,6,0.28313058614730835,-0.07886795699596405,-0.6108230948448181,-0.7351952791213989,1.7442225217819214,1.8159372806549072,-0.4960709810256958,4.518143653869629,8.481884956359863,2.403390407562256,-0.018409933894872665,0.07599539309740067,-0.06352611631155014,-22.862037658691406,-28.063613891601562,24.47969627380371,-0.07863235473632812,-0.11146926879882812,-0.0416414737701416,4.596776008605957,8.593354225158691,2.4450318813323975
6_20251106_182950,1762424957595,6,0.2829354405403137,-0.07811239361763,-0.6105177998542786,-0.7356045246124268,1.7422949075698853,1.8141980171203613,-0.4927452802658081,4.451108932495117,8.483081817626953,2.399799108505249,-0.03368155285716057,0.08027144521474838,-0.03542633354663849,-22.87704086303711,-28.114639282226562,24.478151321411133,-0.11653375625610352,-0.08821773529052734,-0.03618621826171875,4.567642688751221,8.57129955291748,2.4359853267669678
6_20251106_182950,1762424957614,6,0.28295978903770447,-0.07749095559120178,-0.6100958585739136,-0.7360108494758606,1.7403147220611572,1.8124088048934937,-0.48978036642074585,4.513355255126953,8.521387100219727,2.365084648132324,-0.040401067584753036,0.07477366179227829,-0.0006070472300052643,-22.831512451171875,-28.1622314453125,24.53312110900879,-0.04342985153198242,-0.03993034362792969,-0.05672049522399902,4.5567851066589355,8.561317443847656,2.4218051433563232
6_20251106_182950,1762424957633,6,0.28318318724632263,-0.07701844722032547,-0.609641432762146,-0.736350953578949,1.7385574579238892,1.8108129501342773,-0.48702409863471985,4.601936340332031,8.59919548034668,2.399799108505249,-0.03307068720459938,0.04972820729017258,0.018940623849630356,-22.906150817871094,-28.203857421875,24.44828987121582,0.03612089157104492,0.030303001403808594,-0.017604827880859375,4.565815448760986,8.568892478942871,2.4174039363861084
6_20251106_182950,1762424957652,6,0.28336653113365173,-0.07691653072834015,-0.6093559861183167,-0.7365273833274841,1.737141489982605,1.8095836639404297,-0.48466411232948303,4.658198356628418,8.673412322998047,2.323187828063965,-0.03307068720459938,0.04972820729017258,0.018940623849630356,-22.919845581054688,-28.229904174804688,24.460786819458008,0.07390642166137695,0.08361625671386719,-0.07537293434143066,4.584291934967041,8.58979606628418,2.3985607624053955
6_20251106_182950,1762424957671,6,0.2835865318775177,-0.07686502486467361,-0.609062671661377,-0.7366906404495239,1.7360384464263916,1.8087273836135864,-0.4827307462692261,4.672562599182129,8.703339576721191,2.2860794067382812,-0.0733877569437027,0.0637780949473381,-0.0018287766724824905,-22.93294906616211,-28.255142211914062,24.392187118530273,0.0706167221069336,0.0908346176147461,-0.08998513221740723,4.601945877075195,8.612504959106445,2.3760645389556885
6_20251106_182950,1762424957690,6,0.2837114930152893,-0.07672597467899323,-0.6086106300354004,-0.7370305061340332,1.7360384464263916,1.8087273836135864,-0.4827307462692261,4.672562599182129,8.703339576721191,2.2860794067382812,-0.10698531568050385,0.03506745398044586,-0.010991747491061687,-22.93548583984375,-28.31658172607422,24.255704879760742,0.0706167221069336,0.0908346176147461,-0.08998513221740723,4.601945877075195,8.612504959106445,2.3760645389556885
6_20251106_182950,1762424957710,6,0.2835693657398224,-0.07682691514492035,-0.6080842018127441,-0.7375090718269348,1.7355048656463623,1.8086942434310913,-0.47712016105651855,4.8066325187683105,8.802694320678711,2.7409582138061523,-0.06361392140388489,-0.021742966026067734,-0.014656935818493366,-22.951702117919922,-28.39244842529297,24.226598739624023,0.13329792022705078,0.11980628967285156,0.2624526023864746,4.67333459854126,8.68288803100586,2.4785056114196777
6_20251106_182950,1762424957730,6,0.28316378593444824,-0.07727998495101929,-0.6077101826667786,-0.7379257678985596,1.7358123064041138,1.8092790842056274,-0.47333982586860657,4.77910041809082,8.80987548828125,2.6930761337280273,-0.028794635087251663,-0.03640372306108475,-0.004883100278675556,-22.992095947265625,-28.469635009765625,24.169477462768555,0.08461284637451172,0.10159015655517578,0.17165637016296387,4.694487571716309,8.708285331726074,2.5214197635650635
6_20251106_182950,1762424957748,6,0.2827131748199463,-0.07789790630340576,-0.6073706746101379,-0.7383129596710205,1.7358123064041138,1.8092790842056274,-0.47333982586860657,4.77910041809082,8.80987548828125,2.6930761337280273,-0.028794635087251663,-0.03640372306108475,-0.0006070472300052643,-23.054039001464844,-28.498184204101562,24.1124324798584,0.08461284637451172,0.10159015655517578,0.17165637016296387,4.694487571716309,8.708285331726074,2.5214197635650635
6_20251106_182950,1762424957768,6,0.2823306918144226,-0.07843559980392456,-0.6071088314056396,-0.7386177182197571,1.7375377416610718,1.8110862970352173,-0.4654548168182373,4.855710983276367,8.806285858154297,2.6918790340423584,-0.028794635087251663,-0.03640372306108475,-0.0006070472300052643,-23.128170013427734,-28.52752685546875,24.054895401000977,0.1045236587524414,0.06176280975341797,0.11139202117919922,4.751187324523926,8.744523048400879,2.580487012863159
6_20251106_182950,1762424957785,6,0.28187859058380127,-0.07883401215076447,-0.6070116758346558,-0.7388277649879456,1.7385339736938477,1.8119797706604004,-0.46186500787734985,4.809026718139648,8.769176483154297,2.654770612716675,-0.00863609928637743,-0.030295072123408318,-0.023209042847156525,-23.092727661132812,-28.549850463867188,24.015291213989258,0.04627180099487305,0.019722938537597656,0.05942678451538086,4.762754917144775,8.7494535446167,2.595343828201294
6_20251106_182950,1762424957805,6,0.28137198090553284,-0.07882519066333771,-0.6069326996803284,-0.7390866279602051,1.7385339736938477,1.8119797706604004,-0.46186500787734985,4.809026718139648,8.769176483154297,2.654770612716675,0.011522435583174229,0.03506745398044586,-0.08185205608606339,-23.058792114257812,-28.597427368164062,23.988676071166992,0.04627180099487305,0.019722938537597656,0.05942678451538086,4.762754917144775,8.7494535446167,2.595343828201294
6_20251106_182950,1762424957825,6,0.2808727025985718,-0.07840418070554733,-0.6068596839904785,-0.7393812537193298,1.7403310537338257,1.8133541345596313,-0.4553845524787903,4.68333625793457,8.665033340454102,2.308823347091675,-8.399318903684616e-05,-0.0003627017140388489,-0.09284761548042297,-23.04509735107422,-28.571380615234375,23.976179122924805,-0.05906391143798828,-0.05785942077636719,-0.21325135231018066,4.742400169372559,8.722892761230469,2.5220746994018555
6_20251106_182950,1762424957844,6,0.2800285220146179,-0.07819971442222595,-0.6069778203964233,-0.7396261096000671,1.7405229806900024,1.813943862915039,-0.45294255018234253,4.562434196472168,8.754812240600586,2.511124610900879,-0.056894414126873016,-0.07061213999986649,-0.0861281082034111,-23.0338134765625,-28.583412170410156,24.00343894958496,-0.14397287368774414,0.02553558349609375,-0.008760213851928711,4.706407070159912,8.729276657104492,2.5198848247528076
6_20251106_182950,1762424957863,6,0.278830885887146,-0.07856885343790054,-0.6071146726608276,-0.7399270534515381,1.740126371383667,1.8143869638442993,-0.4499143064022064,4.495399475097656,8.686580657958984,2.778066635131836,-0.08499418199062347,-0.06877955049276352,-0.07818686217069626,-23.05939483642578,-28.609848022460938,23.974897384643555,-0.1688060760498047,-0.03415679931640625,0.20654535293579102,4.664205551147461,8.72073745727539,2.571521282196045
6_20251106_182950,1762424957882,6,0.2777271866798401,-0.07873781770467758,-0.6068323850631714,-0.7405555248260498,1.7393947839736938,1.8147963285446167,-0.4468977451324463,4.534902095794678,8.716506958007812,2.622450351715088,-0.07155515998601913,-0.03029507026076317,-0.0757434070110321,-22.997760772705078,-28.59332275390625,23.97761344909668,-0.10344266891479492,-0.0033845901489257812,0.040743112564086914,4.638344764709473,8.719891548156738,2.581707239151001
6_20251106_182950,1762424957901,6,0.27688416838645935,-0.07860945910215378,-0.6061822175979614,-0.7414168119430542,1.738416075706482,1.8151594400405884,-0.44407129287719727,4.534902572631836,8.710521697998047,2.5673861503601074,-0.05933786928653717,-0.0492318794131279,-0.08307377994060516,-22.997760772705078,-28.59332275390625,23.97761344909668,-0.08275365829467773,-0.007495880126953125,-0.011456966400146484,4.617656230926514,8.718017578125,2.578843116760254
6_20251106_182950,1762424957920,6,0.275846391916275,-0.07862779498100281,-0.6058914065361023,-0.7420390844345093,1.7370326519012451,1.8153820037841797,-0.44139134883880615,4.452305793762207,8.673413276672363,2.576962471008301,-0.05567268282175064,-0.057783983647823334,-0.07879773527383804,-22.92636489868164,-28.625686645507812,23.92569923400879,-0.1322803497314453,-0.035683631896972656,-0.001504659652709961,4.584586143493652,8.709096908569336,2.5784671306610107
6_20251106_182950,1762424957939,6,0.27481499314308167,-0.0787280797958374,-0.6057202816009521,-0.7425507307052612,1.7353324890136719,1.8155349493026733,-0.43885937333106995,4.443926811218262,8.687776565551758,2.573371410369873,-0.053840089589357376,-0.0388471782207489,-0.052530549466609955,-22.867450714111328,-28.65924835205078,23.913843154907227,-0.11252737045288086,-0.01705646514892578,-0.004076480865478516,4.556454181671143,8.704833030700684,2.5774478912353516
6_20251106_182950,1762424957960,6,0.2740864157676697,-0.07874047756195068,-0.6054763197898865,-0.7430174946784973,1.7353324890136719,1.8155349493026733,-0.43885937333106995,4.443926811218262,8.687776565551758,2.573371410369873,-0.053840089589357376,-0.0388471782207489,-0.052530549466609955,-22.845996856689453,-28.708023071289062,23.92728614807129,-0.11252737045288086,-0.01705646514892578,-0.004076480865478516,4.556454181671143,8.704833030700684,2.5774478912353516
6_20251106_182950,1762424957977,6,0.2738127112388611,-0.07868248969316483,-0.6050150394439697,-0.7435001730918884,1.7333036661148071,1.8157901763916016,-0.43612000346183777,4.513355255126953,8.728476524353027,2.5649919509887695,-0.07033343613147736,0.00024816393852233887,-0.019543852657079697,-22.82232666015625,-28.718994140625,23.928003311157227,-0.03447914123535156,0.018914222717285156,-0.009964704513549805,4.547834396362305,8.709562301635742,2.5749566555023193
6_20251106_182950,1762424957996,6,0.2737206816673279,-0.07878708839416504,-0.6044434905052185,-0.7439876794815063,1.7311813831329346,1.8171579837799072,-0.432079017162323,4.68572998046875,8.876911163330078,2.667938232421875,-0.06483565270900726,-0.05472966283559799,-0.016489528119564056,-22.77710723876953,-28.778602600097656,23.92864418029785,0.08882761001586914,0.1101675033569336,0.08344912528991699,4.596902370452881,8.766743659973145,2.584489107131958
6_20251106_182950,1762424958015,6,0.27311432361602783,-0.07941785454750061,-0.604308009147644,-0.7442534565925598,1.7311813831329346,1.8171579837799072,-0.432079017162323,4.68572998046875,8.876911163330078,2.667938232421875,-0.015966475009918213,-0.06572522222995758,-0.0244307704269886,-22.732791900634766,-28.851036071777344,23.956052780151367,0.08882761001586914,0.1101675033569336,0.08344912528991699,4.596902370452881,8.766743659973145,2.584489107131958
6_20251106_182950,1762424958035,6,0.2724573314189911,-0.07993123680353165,-0.6043627858161926,-0.7443947792053223,1.7303142547607422,1.8185069561004639,-0.429367333650589,4.645030498504639,8.88648796081543,2.681105613708496,-0.015966475009918213,-0.06572522222995758,-0.0244307704269886,-22.749305725097656,-28.92730712890625,23.967496871948242,0.03850269317626953,0.0957956314086914,0.07729315757751465,4.606527805328369,8.790692329406738,2.6038124561309814
6_20251106_182950,1762424958053,6,0.27194538712501526,-0.08017584681510925,-0.6043587327003479,-0.7445589303970337,1.7295048236846924,1.8199677467346191,-0.42698097229003906,4.598345756530762,8.869729042053223,2.5817506313323975,-0.02940550073981285,-0.04067976772785187,-0.008548288606107235,-22.750106811523438,-28.94000244140625,23.980749130249023,-0.006545543670654297,0.06322956085205078,-0.017649412155151367,4.604891300201416,8.806499481201172,2.599400043487549
