session_id,timestamp,label,quaternion_w,quaternion_x,quaternion_y,quaternion_z,position_x,position_y,position_z,accelerometer_x,accelerometer_y,accelerometer_z,gyroscope_x,gyroscope_y,gyroscope_z,magnetometer_x,magnetometer_y,magnetometer_z,linear_acceleration_x,linear_acceleration_y,linear_acceleration_z,gravity_x,gravity_y,gravity_z
3_20251106_214933,1762436936665,3,0.20403410494327545,0.5310640335083008,0.6831684112548828,0.45784491300582886,0.4519385099411011,2.401319742202759,1.636658787727356,2.551391363143921,8.20776081085205,-4.541890621185303,0.09800942987203598,-0.10175477713346481,0.3857496380805969,24.785375595092773,-17.263442993164062,29.622602462768555,0.5544390678405762,0.8492293357849121,-0.23163557052612305,1.9969522953033447,7.358531475067139,-4.31025505065918
3_20251106_214933,1762436936684,3,0.20198695361614227,0.5335376858711243,0.6819107532501221,0.45775163173675537,0.44922205805778503,2.424856185913086,1.5492650270462036,2.6806728839874268,8.2508544921875,-4.4987969398498535,0.14076994359493256,-0.1842215359210968,0.38513875007629395,24.63159942626953,-17.399215698242188,29.681657791137695,0.5469765663146973,0.7138586044311523,-0.1508336067199707,2.1336963176727295,7.536995887756348,-4.347963333129883
3_20251106_214933,1762436936703,3,0.20029990375041962,0.5365083813667297,0.6806113719940186,0.45695388317108154,0.447704017162323,2.470259666442871,1.400442123413086,2.537026882171631,8.185016632080078,-4.085814952850342,0.24522782862186432,-0.24408626556396484,0.4071299135684967,24.46542739868164,-17.54766845703125,29.67237663269043,0.24989581108093262,0.4015178680419922,0.1965041160583496,2.2871310710906982,7.783498764038086,-4.282319068908691
3_20251106_214933,1762436936723,3,0.19838844239711761,0.5399953722953796,0.6795549988746643,0.45524945855140686,0.44837337732315063,2.4933438301086426,1.3296669721603394,2.645958423614502,8.09882926940918,-4.429368019104004,0.3234184980392456,-0.21842995285987854,0.4285101592540741,24.336517333984375,-17.681182861328125,29.664831161499023,0.2870619297027588,0.25226449966430664,-0.11763906478881836,2.358896493911743,7.846564769744873,-4.3117289543151855
3_20251106_214933,1762436936743,3,0.19583682715892792,0.5436136722564697,0.6787641048431396,0.4532233476638794,0.45078057050704956,2.5184075832366943,1.2535786628723145,2.8674123287200928,8.092844009399414,-4.841153144836426,0.3234184980392456,-0.21842995285987854,0.4285101592540741,24.2725830078125,-17.724037170410156,29.783231735229492,0.4068126678466797,0.1970233917236328,-0.4235391616821289,2.460599660873413,7.895820617675781,-4.417613983154297
3_20251106_214933,1762436936760,3,0.19311751425266266,0.547054648399353,0.6779895424842834,0.4514055848121643,0.45385661721229553,2.5383074283599854,1.1939408779144287,3.018240451812744,8.180229187011719,-4.928537368774414,0.23789744079113007,-0.12985457479953766,0.3729214668273926,24.20560646057129,-17.840621948242188,29.737855911254883,0.44611263275146484,0.22752666473388672,-0.4087386131286621,2.5721278190612793,7.952702522277832,-4.519798755645752
3_20251106_214933,1762436936780,3,0.19058118760585785,0.5498058795928955,0.6773009300231934,0.4501729905605316,0.45878902077674866,2.561236619949341,1.1257860660552979,3.0637285709381104,8.179031372070312,-5.013527870178223,0.23789744079113007,-0.12985457479953766,0.3729214668273926,24.10208511352539,-17.947967529296875,29.785886764526367,0.3932805061340332,0.18106317520141602,-0.39498329162597656,2.670448064804077,7.9979681968688965,-4.618544578552246
3_20251106_214933,1762436936800,3,0.1883167028427124,0.5513303875923157,0.6769329905509949,0.4498148262500763,0.45878902077674866,2.561236619949341,1.1257860660552979,3.0637285709381104,8.179031372070312,-5.013527870178223,0.15481983125209808,-0.021120646968483925,0.26174408197402954,24.10208511352539,-17.947967529296875,29.785886764526367,0.3932805061340332,0.18106317520141602,-0.39498329162597656,2.670448064804077,7.9979681968688965,-4.618544578552246
3_20251106_214933,1762436936821,3,0.18631292879581451,0.5514672994613647,0.6771442294120789,0.4501633048057556,0.47028180956840515,2.602893114089966,0.9978148341178894,2.8542447090148926,7.8642072677612305,-5.2050557136535645,0.05341630429029465,0.09616538137197495,0.05343920737504959,23.935218811035156,-18.097366333007812,29.8712215423584,0.08909225463867188,-0.1177835464477539,-0.3836026191711426,2.7651524543762207,7.981990814208984,-4.821453094482422
3_20251106_214933,1762436936839,3,0.1847068816423416,0.5509816408157349,0.6776590347290039,0.45064494013786316,0.47028180956840515,2.602893114089966,0.9978148341178894,2.8542447090148926,7.8642072677612305,-5.2050557136535645,0.05341630429029465,0.09616538137197495,0.05343920737504959,23.935218811035156,-18.097366333007812,29.8712215423584,0.08909225463867188,-0.1177835464477539,-0.3836026191711426,2.7651524543762207,7.981990814208984,-4.821453094482422
3_20251106_214933,1762436936857,3,0.18317241966724396,0.5505788922309875,0.678182065486908,0.45097649097442627,0.4799177944660187,2.6363279819488525,0.88301682472229,2.660322666168213,7.693029403686523,-5.565367698669434,0.08029435575008392,0.0369114987552166,0.12796470522880554,23.888492584228516,-18.063011169433594,29.883569717407227,-0.07532668113708496,-0.192596435546875,-0.5199651718139648,2.735649347305298,7.885625839233398,-5.045402526855469
3_20251106_214933,1762436936876,3,0.18153728544712067,0.550911009311676,0.6783344149589539,0.4510030448436737,0.48474574089050293,2.652717113494873,0.8232699632644653,2.784816026687622,7.898921012878418,-5.5833234786987305,0.05708149075508118,-0.02845102548599243,0.20493365824222565,23.82938003540039,-18.02971649169922,29.922456741333008,0.039333343505859375,0.010636329650878906,-0.43033695220947266,2.7454826831817627,7.888284683227539,-5.152986526489258
3_20251106_214933,1762436936895,3,0.18012279272079468,0.5520156025886536,0.6778790354728699,0.45090410113334656,0.48959842324256897,2.667839527130127,0.7688869833946228,2.92606782913208,8.009050369262695,-5.321169853210449,0.02409479394555092,-0.03272707760334015,0.21654008328914642,23.812976837158203,-18.09423828125,30.015260696411133,0.1444683074951172,0.09661245346069336,-0.13454675674438477,2.781599521636963,7.912437915802002,-5.1866230964660645
3_20251106_214933,1762436936913,3,0.17884868383407593,0.55312579870224,0.6772180795669556,0.4510440230369568,0.49458980560302734,2.6819558143615723,0.7198586463928223,3.034999370574951,8.117982864379883,-5.220617294311523,0.0014927992597222328,0.02347247675061226,0.18049906194210052,23.702598571777344,-18.11394500732422,30.010583877563477,0.20271992683410645,0.16443634033203125,-0.027194976806640625,2.8322794437408447,7.953546524047852,-5.193422317504883
3_20251106_214933,1762436936932,3,0.17746345698833466,0.5536573529243469,0.6767503619194031,0.4516405165195465,0.5006734132766724,2.6965854167938232,0.6703863143920898,3.225330114364624,8.126360893249512,-5.305607795715332,0.00882317591458559,0.017363829538226128,0.15423187613487244,23.642683029174805,-18.093338012695312,30.062726974487305,0.3144404888153076,0.13825130462646484,-0.08974838256835938,2.9108896255493164,7.988109588623047,-5.215859413146973
3_20251106_214933,1762436936951,3,0.17657920718193054,0.5546234846115112,0.6759535670280457,0.45199480652809143,0.5074633359909058,2.711345672607422,0.6232398748397827,3.2791972160339355,8.302328109741211,-5.2696967124938965,0.01737528294324875,-0.06754636019468307,0.1249103844165802,23.616703033447266,-18.12030792236328,30.0882511138916,0.2946460247039795,0.2513751983642578,-0.04306983947753906,2.984551191329956,8.050952911376953,-5.226626873016357
3_20251106_214933,1762436936971,3,0.1759372055530548,0.555271565914154,0.6756274104118347,0.45193716883659363,0.5148323774337769,2.72709584236145,0.5768431425094604,3.1750540733337402,8.376544952392578,-4.980010032653809,0.003936258144676685,-0.07976365834474564,0.06993255764245987,23.565349578857422,-18.161827087402344,30.153078079223633,0.15240240097045898,0.26047325134277344,0.19729328155517578,3.0226516723632812,8.116071701049805,-5.177303314208984
3_20251106_214933,1762436936990,3,0.1756916344165802,0.5555779337882996,0.6755074858665466,0.4518354833126068,0.5215595364570618,2.741929769515991,0.5359482169151306,3.05056095123291,8.34183120727539,-4.820802688598633,-0.011335359886288643,-0.011957678012549877,0.0070134904235601425,23.46694564819336,-18.19261932373047,30.081045150756836,0.022327423095703125,0.18060779571533203,0.2852005958557129,3.028233528137207,8.161223411560059,-5.106003284454346
3_20251106_214933,1762436937009,3,0.17537103593349457,0.5550749897956848,0.6757981777191162,0.4521433115005493,0.5275254845619202,2.7562711238861084,0.4981038272380829,2.8733975887298584,8.25205135345459,-4.73940372467041,-0.017444007098674774,0.04668533429503441,-0.027194933965802193,23.367244720458984,-18.236778259277344,30.089845657348633,-0.12386870384216309,0.072662353515625,0.29327964782714844,2.9972662925720215,8.179388999938965,-5.032683372497559
3_20251106_214933,1762436937029,3,0.17490601539611816,0.5541090369224548,0.6763096451759338,0.45274314284324646,0.5275254845619202,2.7562711238861084,0.4981038272380829,2.8733975887298584,8.25205135345459,-4.73940372467041,-0.0046158479526638985,0.057680901139974594,-0.023529743775725365,23.298263549804688,-18.37928009033203,30.12504005432129,-0.12386870384216309,0.072662353515625,0.29327964782714844,2.9972662925720215,8.179388999938965,-5.032683372497559
3_20251106_214933,1762436937047,3,0.17429067194461823,0.5530939102172852,0.6769136786460876,0.45331862568855286,0.5369072556495667,2.781975507736206,0.43056154251098633,2.769254207611084,7.967153549194336,-4.727433204650879,0.05280543863773346,0.017974693328142166,0.032669808715581894,23.234909057617188,-18.432937622070312,30.067468643188477,-0.1474599838256836,-0.15613269805908203,0.1834855079650879,2.9167141914367676,8.123286247253418,-4.910918712615967
3_20251106_214933,1762436937066,3,0.17335808277130127,0.5522492527961731,0.67727130651474,0.4541710615158081,0.5369072556495667,2.781975507736206,0.43056154251098633,2.769254207611084,7.967153549194336,-4.727433204650879,0.05280543863773346,0.017974693328142166,0.032669808715581894,23.233287811279297,-18.469932556152344,29.999094009399414,-0.1474599838256836,-0.15613269805908203,0.1834855079650879,2.9167141914367676,8.123286247253418,-4.910918712615967
3_20251106_214933,1762436937085,3,0.17232131958007812,0.5525475144386292,0.6772516369819641,0.4542320966720581,0.540867030620575,2.793431520462036,0.398111492395401,2.803968906402588,7.872586250305176,-4.895020484924316,0.10106375813484192,-0.12680023908615112,0.2018793225288391,23.241146087646484,-18.54461669921875,30.011518478393555,-0.09019613265991211,-0.2005596160888672,0.012718677520751953,2.8941650390625,8.073145866394043,-4.907739162445068
3_20251106_214933,1762436937105,3,0.17128072679042816,0.5539289116859436,0.6766477227210999,0.4538430869579315,0.5486305952072144,2.8130135536193848,0.34069257974624634,3.1714630126953125,8.050947189331055,-4.941705226898193,0.09251163899898529,-0.19277364015579224,0.25563544034957886,23.191389083862305,-18.572372436523438,29.9549617767334,0.21864914894104004,-0.0006084442138671875,-0.022504329681396484,2.9528138637542725,8.051555633544922,-4.919200897216797
3_20251106_214933,1762436937123,3,0.17043744027614594,0.5559206604957581,0.6755666732788086,0.45333531498908997,0.5486305952072144,2.8130135536193848,0.34069257974624634,3.1714630126953125,8.050947189331055,-4.941705226898193,0.09923115372657776,-0.2868468165397644,0.29106560349464417,23.16741180419922,-18.57342529296875,29.89991569519043,0.21864914894104004,-0.0006084442138671875,-0.022504329681396484,2.9528138637542725,8.051555633544922,-4.919200897216797
3_20251106_214933,1762436937142,3,0.16981534659862518,0.5586189031600952,0.6740039587020874,0.4525774121284485,0.5617793798446655,2.83266544342041,0.29325538873672485,3.981865406036377,8.584831237792969,-4.430564880371094,0.1737566441297531,-0.3491550087928772,0.2580789029598236,23.177188873291016,-18.610702514648438,29.94016456604004,0.7179670333862305,0.38783836364746094,0.3280491828918457,3.2638983726501465,8.196992874145508,-4.7586140632629395
3_20251106_214933,1762436937161,3,0.16900020837783813,0.5610488653182983,0.6725847721099854,0.451987624168396,0.5714206695556641,2.843569278717041,0.2716695964336395,4.076432228088379,8.539342880249023,-4.607728481292725,0.2604994475841522,-0.38275256752967834,0.17255781590938568,23.247371673583984,-18.66791534423828,29.860689163208008,0.6500270366668701,0.2738800048828125,0.12070846557617188,3.426405191421509,8.265462875366211,-4.7284369468688965
3_20251106_214933,1762436937182,3,0.16806527972221375,0.5630394816398621,0.6717387437820435,0.45111823081970215,0.5714206695556641,2.843569278717041,0.2716695964336395,4.076432228088379,8.539342880249023,-4.607728481292725,0.25927770137786865,-0.347933292388916,0.10291925072669983,23.271533966064453,-18.678207397460938,29.793825149536133,0.6500270366668701,0.2738800048828125,0.12070846557617188,3.426405191421509,8.265462875366211,-4.7284369468688965
3_20251106_214933,1762436937201,3,0.1671759933233261,0.5647529363632202,0.6711819767951965,0.4501345157623291,0.5947290062904358,2.866969585418701,0.22752715647220612,4.027353286743164,8.553707122802734,-5.149991989135742,0.25927770137786865,-0.347933292388916,0.10291925072669983,23.33285903930664,-18.67369842529297,29.742212295532227,0.38384056091308594,0.1775808334350586,-0.2822446823120117,3.643512725830078,8.376126289367676,-4.8677473068237305
3_20251106_214933,1762436937219,3,0.16732074320316315,0.5664792060852051,0.6716891527175903,0.4471450746059418,0.6068841814994812,2.878007173538208,0.20594145357608795,4.020171165466309,8.456747055053711,-5.330746173858643,0.30142736434936523,-0.3027293086051941,0.03083721362054348,23.380502700805664,-18.683616638183594,29.797975540161133,0.3013267517089844,0.06449699401855469,-0.37039899826049805,3.718844413757324,8.392250061035156,-4.9603471755981445
3_20251106_214933,1762436937240,3,0.16708314418792725,0.5680233240127563,0.6725439429283142,0.4439789950847626,0.6068841814994812,2.878007173538208,0.20594145357608795,4.020171165466309,8.456747055053711,-5.330746173858643,0.30142736434936523,-0.3027293086051941,0.03083721362054348,23.380502700805664,-18.683616638183594,29.797975540161133,0.3013267517089844,0.06449699401855469,-0.37039899826049805,3.718844413757324,8.392250061035156,-4.9603471755981445
3_20251106_214933,1762436937259,3,0.16619502007961273,0.5700420141220093,0.6734585165977478,0.44032368063926697,0.6340811848640442,2.8968794345855713,0.15415611863136292,4.320630073547363,7.86660099029541,-6.562510013580322,0.4107721447944641,-0.41329580545425415,0.24463985860347748,23.621990203857422,-18.50420379638672,29.70259666442871,0.42976903915405273,-0.383148193359375,-1.132448673248291,3.8908610343933105,8.249749183654785,-5.430061340332031
3_20251106_214933,1762436937277,3,0.16514424979686737,0.5736960768699646,0.6734038591384888,0.43603599071502686,0.6487938761711121,2.902662992477417,0.12701037526130676,4.989780426025391,7.670285224914551,-6.959930419921875,0.3900027573108673,-0.6478678584098816,0.4578316807746887,23.621990203857422,-18.50420379638672,29.70259666442871,0.8791356086730957,-0.46357154846191406,-1.22389554977417,4.110644817352295,8.133856773376465,-5.736034870147705
3_20251106_214933,1762436937296,3,0.164756178855896,0.5797672867774963,0.6716604232788086,0.43081042170524597,0.6684390306472778,2.906960964202881,0.0971144586801529,5.893553256988525,7.586491584777832,-6.710944175720215,0.3900027573108673,-0.6478678584098816,0.4578316807746887,23.808391571044922,-18.44097900390625,29.602880477905273,1.4263267517089844,-0.43789196014404297,-0.7799272537231445,4.467226505279541,8.024383544921875,-5.93101692199707
3_20251106_214933,1762436937316,3,0.16553400456905365,0.5880701541900635,0.6682204008102417,0.4245626628398895,0.6684390306472778,2.906960964202881,0.0971144586801529,5.893553256988525,7.586491584777832,-6.710944175720215,0.3655681908130646,-1.1457226276397705,0.6551409959793091,23.98149299621582,-18.40325927734375,29.46159553527832,1.4263267517089844,-0.43789196014404297,-0.7799272537231445,4.467226505279541,8.024383544921875,-5.93101692199707
3_20251106_214933,1762436937335,3,0.16738715767860413,0.5974484086036682,0.6641262173652649,0.41710108518600464,0.6964988708496094,2.909468650817871,0.06394022703170776,6.684803009033203,7.426087379455566,-6.4631547927856445,0.3741202652454376,-1.3234843015670776,0.5629004240036011,24.15550994873047,-18.341102600097656,29.388418197631836,1.7740612030029297,-0.4786367416381836,-0.42571067810058594,4.910741806030273,7.90472412109375,-6.037444114685059
3_20251106_214933,1762436937353,3,0.17049342393875122,0.6068334579467773,0.6601471304893494,0.40852293372154236,0.7570731043815613,2.907062530517578,0.0054550860077142715,7.331209182739258,6.752148151397705,-7.165822505950928,0.2879883348941803,-1.503078579902649,0.37536492943763733,24.403533935546875,-18.272964477539062,29.1965389251709,1.5692095756530762,-0.7887868881225586,-0.7903456687927246,5.761999607086182,7.540935039520264,-6.375476837158203
3_20251106_214933,1762436937373,3,0.1760321408510208,0.6159537434577942,0.6560707688331604,0.39897966384887695,0.7570731043815613,2.907062530517578,0.0054550860077142715,7.331209182739258,6.752148151397705,-7.165822505950928,0.11328104138374329,-1.655794620513916,0.12735383212566376,24.649032592773438,-18.254653930664062,28.963056564331055,1.5692095756530762,-0.7887868881225586,-0.7903456687927246,5.761999607086182,7.540935039520264,-6.375476837158203
3_20251106_214933,1762436937392,3,0.18410415947437286,0.6233145594596863,0.6527703404426575,0.3891984820365906,0.7968236804008484,2.9004719257354736,-0.030100831761956215,7.061873435974121,6.371486663818359,-7.164625644683838,-0.0730326920747757,-1.7309309244155884,-0.10721821337938309,25.060361862182617,-18.347694396972656,28.42292594909668,1.0398993492126465,-0.9355587959289551,-0.631319522857666,6.021974086761475,7.3070454597473145,-6.533306121826172
3_20251106_214933,1762436937410,3,0.19453410804271698,0.6289963126182556,0.6499334573745728,0.3796137869358063,0.86264967918396,2.87833309173584,-0.09211309999227524,5.8600358963012695,5.0295939445495605,-7.381291389465332,-0.2581247091293335,-1.7791893482208252,-0.27459514141082764,25.590829849243164,-18.482879638671875,27.87312889099121,-0.2212386131286621,-1.5893406867980957,-0.5576496124267578,6.081274509429932,6.618934631347656,-6.823641777038574
3_20251106_214933,1762436937431,3,0.2070983648300171,0.6336715221405029,0.6468837261199951,0.3702865540981293,0.86264967918396,2.87833309173584,-0.09211309999227524,5.8600358963012695,5.0295939445495605,-7.381291389465332,-0.4975837171077728,-1.7419265508651733,-0.35584014654159546,26.47539520263672,-19.26983642578125,26.15833282470703,-0.2212386131286621,-1.5893406867980957,-0.5576496124267578,6.081274509429932,6.618934631347656,-6.823641777038574
3_20251106_214933,1762436937449,3,0.22110173106193542,0.6371309161186218,0.6434078216552734,0.36222174763679504,0.9131312966346741,2.8313939571380615,-0.1610105037689209,3.6095829010009766,3.6769285202026367,-7.615913391113281,-0.8085138201713562,-1.7431483268737793,-0.3491206169128418,27.178062438964844,-19.38013458251953,25.4940185546875,-1.767664909362793,-1.9805631637573242,-0.5057134628295898,5.3772478103637695,5.657491683959961,-7.110199928283691
3_20251106_214933,1762436937468,3,0.23696540296077728,0.6398515105247498,0.6386816501617432,0.35570093989372253,0.9254580736160278,2.8025410175323486,-0.1895250678062439,2.796786308288574,3.3381636142730713,-6.448790073394775,-0.8085138201713562,-1.7431483268737793,-0.3491206169128418,28.088333129882812,-19.52271270751953,24.390949249267578,-2.0643692016601562,-1.8554623126983643,0.5291275978088379,4.8611555099487305,5.1936259269714355,-6.977917671203613
3_20251106_214933,1762436937487,3,0.254547119140625,0.6420207023620605,0.6325722932815552,0.3505246341228485,0.9305636882781982,2.7663681507110596,-0.2143034189939499,2.2605082988739014,3.31302547454834,-5.227799892425537,-1.2104628086090088,-1.7547547817230225,-0.3136904835700989,29.033531188964844,-19.711517333984375,23.1260986328125,-2.080517530441284,-1.5044803619384766,1.4000940322875977,4.3410258293151855,4.817505836486816,-6.627893924713135
3_20251106_214933,1762436937506,3,0.272916316986084,0.6435849070549011,0.6258084177970886,0.34594646096229553,0.9305636882781982,2.7663681507110596,-0.2143034189939499,2.2605082988739014,3.31302547454834,-5.227799892425537,-1.2104628086090088,-1.7547547817230225,-0.3136904835700989,30.01184844970703,-19.972206115722656,21.753005981445312,-2.080517530441284,-1.5044803619384766,1.4000940322875977,4.3410258293151855,4.817505836486816,-6.627893924713135
3_20251106_214933,1762436937524,3,0.2910699248313904,0.6442049741744995,0.6198770999908447,0.34063267707824707,0.9270623326301575,2.7278852462768555,-0.23195990920066833,1.5937517881393433,3.4626567363739014,-4.692718505859375,-1.0467510223388672,-1.735206961631775,-0.5244387984275818,31.0018310546875,-20.255996704101562,20.258228302001953,-2.197819232940674,-1.0838792324066162,1.548140525817871,3.7915711402893066,4.546535968780518,-6.240859031677246
3_20251106_214933,1762436937544,3,0.30904120206832886,0.6441207528114319,0.6146004796028137,0.3344670236110687,0.9148114919662476,2.689911365509033,-0.24400211870670319,0.47810178995132446,3.3644986152648926,-4.822000026702881,-1.123109221458435,-1.7290984392166138,-0.481067419052124,32.007511138916016,-20.487823486328125,18.67038345336914,-2.650775671005249,-0.9456295967102051,1.135087013244629,3.1288774013519287,4.310128211975098,-5.95708703994751
3_20251106_214933,1762436937564,3,0.3273009955883026,0.6437572836875916,0.6086790561676025,0.3285732865333557,0.8907213807106018,2.6481711864471436,-0.25256454944610596,-0.7656325101852417,3.0712215900421143,-4.8124237060546875,-1.123109221458435,-1.7290984392166138,-0.481067419052124,32.93803405761719,-20.785179138183594,16.875530242919922,-3.1156082153320312,-0.9911253452301025,0.9157309532165527,2.3499755859375,4.062346935272217,-5.72815465927124
3_20251106_214933,1762436937584,3,0.3460853397846222,0.6437621116638184,0.6008728742599487,0.32364651560783386,0.8572266697883606,2.607755184173584,-0.2566795349121094,-1.9339526891708374,3.061645269393921,-4.411412239074707,-1.2801014184951782,-1.7376505136489868,-0.30452752113342285,33.794227600097656,-21.112144470214844,15.050174713134766,-3.42714262008667,-0.8005614280700684,1.053393840789795,1.4931899309158325,3.8622066974639893,-5.464806079864502
3_20251106_214933,1762436937601,3,0.36515024304389954,0.6438643336296082,0.5909814834594727,0.3206944167613983,0.8101074695587158,2.5663537979125977,-0.25482288002967834,-2.988553047180176,3.5380709171295166,-3.500457286834717,-1.6734983921051025,-1.4774221181869507,0.08031725883483887,34.58451843261719,-21.565818786621094,12.93588638305664,-3.5853943824768066,-0.2593085765838623,1.5714788436889648,0.5968413949012756,3.797379493713379,-5.071936130523682
3_20251106_214933,1762436937620,3,0.38382235169410706,0.6430211067199707,0.5801161527633667,0.32042092084884644,0.7620725035667419,2.5341405868530273,-0.24676170945167542,-3.9497838020324707,4.35206413269043,-2.08434796333313,-1.697322130203247,-1.1579399108886719,0.15850792825222015,35.18980407714844,-22.0692138671875,10.82696533203125,-3.6373002529144287,0.44374775886535645,2.390070676803589,-0.3124835789203644,3.9083163738250732,-4.474418640136719
3_20251106_214933,1762436937641,3,0.4008203446865082,0.6410074234008789,0.5696277618408203,0.3224542737007141,0.6265300512313843,2.479142189025879,-0.20213113725185394,-6.521045684814453,5.5347490310668945,-0.24328602850437164,-1.5916423797607422,-0.7657647132873535,0.279459148645401,35.7447395324707,-22.601173400878906,8.74258804321289,-4.175350189208984,1.0983753204345703,2.77649188041687,-2.3456954956054688,4.436373710632324,-3.01977801322937
3_20251106_214933,1762436937660,3,0.4150075912475586,0.6384486556053162,0.5599135756492615,0.3265712559223175,0.536367654800415,2.4571805000305176,-0.16708967089653015,-7.362571716308594,5.640089511871338,-0.39531129598617554,-1.509786605834961,-0.4615541100502014,0.5488505363464355,36.227264404296875,-23.125343322753906,6.6555328369140625,-4.013501167297363,0.9629726409912109,2.0995733737945557,-3.3490705490112305,4.677116870880127,-2.494884729385376
3_20251106_214933,1762436937680,3,0.42632925510406494,0.6363165974617004,0.5499979853630066,0.3329366147518158,0.536367654800415,2.4571805000305176,-0.16708967089653015,-7.362571716308594,5.640089511871338,-0.39531129598617554,-1.509786605834961,-0.4615541100502014,0.5488505363464355,36.597900390625,-23.69446563720703,4.576787948608398,-4.013501167297363,0.9629726409912109,2.0995733737945557,-3.3490705490112305,4.677116870880127,-2.494884729385376
3_20251106_214933,1762436937698,3,0.435352623462677,0.6351161003112793,0.5386159420013428,0.34203585982322693,0.3410176634788513,2.4279541969299316,-0.08558409661054611,-6.789185047149658,6.394230842590332,0.15174026787281036,-1.5763708353042603,-0.2416428178548813,1.3142640590667725,36.597900390625,-23.69446563720703,4.576787948608398,-2.114528179168701,1.1883964538574219,1.7922853231430054,-4.674656867980957,5.20583438873291,-1.6405450105667114
3_20251106_214933,1762436937717,3,0.4431614577770233,0.6353611946105957,0.5247534513473511,0.35292762517929077,0.2564474046230316,2.422633171081543,-0.04393605887889862,-6.033846855163574,7.327929496765137,1.2111289501190186,-1.5727057456970215,-0.08953748643398285,1.5616642236709595,36.699039459228516,-24.519119262695312,2.5097618103027344,-1.0873517990112305,1.697676181793213,2.281339168548584,-4.946495056152344,5.630253314971924,-1.0702102184295654
3_20251106_214933,1762436937735,3,0.44924798607826233,0.6360669732093811,0.5097224116325378,0.36575692892074585,0.2564474046230316,2.422633171081543,-0.04393605887889862,-6.033846855163574,7.327929496765137,1.2111289501190186,-1.4835193157196045,0.2531576156616211,1.6441309452056885,36.627685546875,-25.36907196044922,0.5977993011474609,-1.0873517990112305,1.697676181793213,2.281339168548584,-4.946495056152344,5.630253314971924,-1.0702102184295654
3_20251106_214933,1762436937755,3,0.45267659425735474,0.6358581781387329,0.49575352668762207,0.3807843327522278,0.07320629060268402,2.4300954341888428,0.06616463512182236,-4.176026344299316,8.080873489379883,0.9944630265235901,-1.512840986251831,0.6099026203155518,1.6343570947647095,36.417964935302734,-26.2916259765625,-1.212747573852539,0.6390442848205566,1.6128311157226562,1.2702529430389404,-4.815070629119873,6.468042373657227,-0.27578994631767273
3_20251106_214933,1762436937775,3,0.45430275797843933,0.6338802576065063,0.4830462634563446,0.3980843424797058,0.07320629060268402,2.4300954341888428,0.06616463512182236,-4.176026344299316,8.080873489379883,0.9944630265235901,-1.6460094451904297,0.9238870143890381,1.573270559310913,36.03444290161133,-27.264450073242188,-2.882272720336914,0.6390442848205566,1.6128311157226562,1.2702529430389404,-4.815070629119873,6.468042373657227,-0.27578994631767273
3_20251106_214933,1762436937792,3,0.45549246668815613,0.6300363540649414,0.47075700759887695,0.41709548234939575,-0.06600694358348846,2.4588799476623535,0.1751808375120163,-2.73238468170166,9.397627830505371,1.8754913806915283,-1.749245524406433,1.212826132774353,1.463925838470459,35.51148223876953,-28.29974365234375,-4.206825256347656,1.4313645362854004,2.0034494400024414,1.4693280458450317,-4.1637492179870605,7.39417839050293,0.4061633050441742
3_20251106_214933,1762436937811,3,0.4554654359817505,0.6229963898658752,0.460645467042923,0.43844330310821533,-0.12497024238109589,2.481985092163086,0.23521338403224945,-2.449880838394165,9.683723449707031,2.6128737926483154,-1.749245524406433,1.212826132774353,1.463925838470459,34.904541015625,-29.30400848388672,-5.42588996887207,1.3710947036743164,1.8316359519958496,1.7653684616088867,-3.8209755420684814,7.852087497711182,0.8475053310394287
3_20251106_214933,1762436937831,3,0.45506325364112854,0.6143924593925476,0.45145943760871887,0.46002575755119324,-0.17934328317642212,2.511881113052368,0.3024139702320099,-2.311023235321045,10.085931777954102,3.205413341522217,-1.6680004596710205,1.5652951002120972,1.3374768495559692,34.24837875366211,-30.300506591796875,-6.484457015991211,1.2079620361328125,1.7870750427246094,1.8863264322280884,-3.5189852714538574,8.298856735229492,1.3190869092941284
3_20251106_214933,1762436937852,3,0.45359665155410767,0.6052932143211365,0.4425981938838959,0.48163995146751404,-0.22581163048744202,2.546621084213257,0.37322986125946045,-1.8130507469177246,10.38399600982666,3.613607406616211,-1.6680004596710205,1.5652951002120972,1.3374768495559692,33.56916427612305,-31.262001037597656,-7.43508243560791,1.3647475242614746,1.668111801147461,1.8356163501739502,-3.177798271179199,8.7158842086792,1.7779910564422607
3_20251106_214933,1762436937869,3,0.44973617792129517,0.596878170967102,0.4337587356567383,0.5033161640167236,-0.2596436142921448,2.5808234214782715,0.4388722777366638,-0.7823911905288696,10.543204307556152,3.847031593322754,-1.2544450759887695,1.64348566532135,1.7437019348144531,32.822330474853516,-32.08161926269531,-7.9799957275390625,1.9163256883621216,1.4618558883666992,1.6552324295043945,-2.698716878890991,9.081348419189453,2.1917991638183594
3_20251106_214933,1762436937889,3,0.44309648871421814,0.5899235606193542,0.42440226674079895,0.5249175429344177,-0.28480440378189087,2.620198965072632,0.510469913482666,0.49605751037597656,10.932245254516602,4.295925140380859,-1.2544450759887695,1.64348566532135,1.7437019348144531,32.0401611328125,-32.867164611816406,-8.40394115447998,2.555819511413574,1.480717658996582,1.6833009719848633,-2.0597620010375977,9.45152759552002,2.612624168395996
3_20251106_214933,1762436937908,3,0.43412551283836365,0.5836763381958008,0.4144681394100189,0.5468757748603821,-0.29769766330718994,2.6661136150360107,0.5890806913375854,1.9756104946136475,11.602592468261719,4.919588088989258,-1.0259817838668823,1.8475145101547241,2.036916971206665,31.234439849853516,-33.62998962402344,-8.747241973876953,3.2282981872558594,1.7208518981933594,1.8455712795257568,-1.2526875734329224,9.88174057006836,3.074016809463501
3_20251106_214933,1762436937926,3,0.4230266809463501,0.5769482851028442,0.4048330783843994,0.5694640278816223,-0.2966836988925934,2.711019992828369,0.6610202193260193,3.635918140411377,12.175979614257812,4.993804931640625,-0.8451657295227051,2.007561206817627,2.0265321731567383,30.463592529296875,-34.392723083496094,-8.859294891357422,3.9108846187591553,1.8353910446166992,1.5358304977416992,-0.2749664783477783,10.340588569641113,3.457974433898926
3_20251106_214933,1762436937945,3,0.4099077880382538,0.5695548057556152,0.3964978754520416,0.5919226408004761,-0.2966836988925934,2.711019992828369,0.6610202193260193,3.635918140411377,12.175979614257812,4.993804931640625,-0.6380825638771057,2.0625391006469727,1.9422328472137451,29.50153350830078,-35.070274353027344,-8.720273971557617,3.9108846187591553,1.8353910446166992,1.5358304977416992,-0.2749664783477783,10.340588569641113,3.457974433898926
3_20251106_214933,1762436937964,3,0.39547058939933777,0.5620288252830505,0.38958773016929626,0.6131460070610046,-0.25069960951805115,2.813335657119751,0.8054289817810059,6.844010353088379,12.972017288208008,4.15826416015625,-0.5006380081176758,1.984348177909851,1.7467561960220337,28.450672149658203,-35.792938232421875,-8.39625072479248,4.795938491821289,1.7614917755126953,0.3824911117553711,2.048072099685669,11.210525512695312,3.775773048400879
3_20251106_214933,1762436937983,3,0.3812086582183838,0.5545588135719299,0.38392120599746704,0.6322570443153381,-0.20110593736171722,2.87258243560791,0.8788070678710938,8.130838394165039,12.910967826843262,3.9811015129089355,-0.3974018692970276,1.889053225517273,1.4565954208374023,27.302940368652344,-36.4979248046875,-7.967493057250977,4.866213321685791,1.3603534698486328,0.1642627716064453,3.264625072479248,11.550614356994629,3.8168387413024902
3_20251106_214933,1762436938002,3,0.36811333894729614,0.5468554496765137,0.3798019289970398,0.648993194103241,-0.1399850696325302,2.9293580055236816,0.9445520043373108,9.228532791137695,12.755352020263672,3.642336368560791,-0.3974018692970276,1.889053225517273,1.4565954208374023,26.06891632080078,-37.20982360839844,-7.407005310058594,4.7711262702941895,0.9637899398803711,-0.1396019458770752,4.457406520843506,11.7915620803833,3.781938314437866
3_20251106_214933,1762436938021,3,0.35606157779693604,0.5388177633285522,0.3773020803928375,0.6637309193611145,-0.06668230891227722,2.984684467315674,1.0055954456329346,10.01140308380127,12.298078536987305,3.266462802886963,-0.16099722683429718,1.7265633344650269,0.9422473907470703,24.864315032958984,-37.82048034667969,-6.762327194213867,4.443197250366211,0.4052133560180664,-0.4123802185058594,5.568205833435059,11.892865180969238,3.6788430213928223
3_20251106_214933,1762436938040,3,0.34505537152290344,0.5310491919517517,0.3762209415435791,0.6762997508049011,0.015805810689926147,3.0370984077453613,1.0621860027313232,10.252010345458984,11.839608192443848,3.168304920196533,-0.05409588664770126,1.616607666015625,0.7174491882324219,23.685306549072266,-38.393089294433594,-5.994230270385742,3.7470436096191406,-0.042606353759765625,-0.4084305763244629,6.504966735839844,11.882214546203613,3.576735496520996
3_20251106_214933,1762436938060,3,0.3350867033004761,0.5235258936882019,0.37647318840026855,0.6869537234306335,0.10403281450271606,3.0852115154266357,1.1144224405288696,10.099985122680664,11.26981258392334,3.0210676193237305,0.05524890124797821,1.5457473993301392,0.5018138885498047,22.61990737915039,-38.88361358642578,-5.179586410522461,2.8760147094726562,-0.48992156982421875,-0.4445343017578125,7.223970413208008,11.759734153747559,3.465601921081543
3_20251106_214933,1762436938079,3,0.3261220455169678,0.515988290309906,0.3781733810901642,0.6959779858589172,0.10403281450271606,3.0852115154266357,1.1144224405288696,10.099985122680664,11.26981258392334,3.0210676193237305,0.05524890124797821,1.5457473993301392,0.5018138885498047,22.61990737915039,-38.88361358642578,-5.179586410522461,2.8760147094726562,-0.48992156982421875,-0.4445343017578125,7.223970413208008,11.759734153747559,3.465601921081543
3_20251106_214933,1762436938099,3,0.3177482783794403,0.5084625482559204,0.380933940410614,0.7038403153419495,0.2003551423549652,3.130143165588379,1.1640557050704956,9.886909484863281,10.713184356689453,2.6092827320098877,0.2146845906972885,1.4272395372390747,0.3197762370109558,21.54566192626953,-39.300804138183594,-4.2422027587890625,2.1303515434265137,-0.8372402191162109,-0.6850554943084717,7.756557941436768,11.550424575805664,3.2943382263183594
3_20251106_214933,1762436938118,3,0.3094911277294159,0.5014566779136658,0.3841383457183838,0.7107701301574707,0.29784274101257324,3.168576240539551,1.2086952924728394,9.724111557006836,10.151768684387207,2.4680309295654297,0.32708367705345154,1.3514922857284546,0.35948246717453003,19.885799407958984,-39.66429138183594,-2.4612083435058594,1.5740432739257812,-1.1189250946044922,-0.6610457897186279,8.150068283081055,11.2706937789917,3.1290767192840576
3_20251106_214933,1762436938136,3,0.30055832862854004,0.49533742666244507,0.3876887261867523,0.7169399857521057,0.3951427936553955,3.2003908157348633,1.2479288578033447,9.691790580749512,9.725619316101074,2.084975004196167,0.32708367705345154,1.3514922857284546,0.35948246717453003,19.885799407958984,-39.66429138183594,-2.4612083435058594,1.233377456665039,-1.2360591888427734,-0.8352813720703125,8.458413124084473,10.961678504943848,2.9202563762664795
3_20251106_214933,1762436938155,3,0.29130443930625916,0.4912378191947937,0.39098110795021057,0.7217762470245361,0.5691868662834167,3.2424604892730713,1.3006452322006226,10.41121768951416,9.27193832397461,0.9334135055541992,0.4724694788455963,0.7937728762626648,0.4786010682582855,19.195449829101562,-39.74278259277344,-1.5971260070800781,1.3018903732299805,-1.098862648010254,-1.299734115600586,9.10932731628418,10.370800971984863,2.233147621154785
3_20251106_214933,1762436938174,3,0.2829536199569702,0.4900505244731903,0.3932090699672699,0.7246891856193542,0.6602463126182556,3.2580158710479736,1.3211369514465332,10.557257652282715,9.183356285095215,1.0650889873504639,0.49140629172325134,0.5396531820297241,0.44072747230529785,18.617294311523438,-39.76429748535156,-0.6870269775390625,1.1583442687988281,-0.949955940246582,-0.9344469308853149,9.398913383483887,10.133312225341797,1.9995359182357788
3_20251106_214933,1762436938193,3,0.2756379246711731,0.4905230700969696,0.39502382278442383,0.7262004017829895,0.7500917315483093,3.269723892211914,1.3383326530456543,10.615912437438965,9.014572143554688,1.171626329421997,0.4920171797275543,0.4217562675476074,0.330771803855896,18.042861938476562,-39.72276306152344,0.19736099243164062,0.9735994338989258,-0.8949928283691406,-0.662327766418457,9.642313003540039,9.909564971923828,1.833954095840454
3_20251106_214933,1762436938212,3,0.26936760544776917,0.49127525091171265,0.3970779776573181,0.7269241809844971,0.8377285003662109,3.277556896209717,1.3528218269348145,10.474660873413086,8.710521697998047,1.1608529090881348,0.4840759038925171,0.37410879135131836,0.19882500171661377,17.490577697753906,-39.72905731201172,1.0005760192871094,0.6658782958984375,-0.9592342376708984,-0.5384809970855713,9.808782577514648,9.669755935668945,1.699333906173706
3_20251106_214933,1762436938231,3,0.2639049291610718,0.4916260540485382,0.399728000164032,0.7272382974624634,0.8377285003662109,3.277556896209717,1.3528218269348145,10.474660873413086,8.710521697998047,1.1608529090881348,0.4840759038925171,0.37410879135131836,0.19882500171661377,16.91503143310547,-39.71222686767578,1.8438873291015625,0.6658782958984375,-0.9592342376708984,-0.5384809970855713,9.808782577514648,9.669755935668945,1.699333906173706
3_20251106_214933,1762436938251,3,0.2599182426929474,0.49220260977745056,0.40240010619163513,0.7268103361129761,1.0063889026641846,3.2817585468292236,1.3733397722244263,9.79952621459961,8.173046112060547,0.6604862213134766,0.45475441217422485,0.12548688054084778,0.0021265726536512375,16.427989959716797,-39.65068817138672,2.542743682861328,-0.06721305847167969,-0.9958162307739258,-0.7027851343154907,9.866739273071289,9.168862342834473,1.3632713556289673
3_20251106_214933,1762436938270,3,0.25722941756248474,0.49358463287353516,0.4049205183982849,0.725428581237793,1.0810792446136475,3.278909206390381,1.3800491094589233,9.42844009399414,8.06171989440918,0.877152144908905,0.4260437786579132,-0.0974787250161171,-0.026584068313241005,16.0124454498291,-39.621376037597656,3.1761703491210938,-0.35063934326171875,-0.8857145309448242,-0.38889533281326294,9.77907943725586,8.947434425354004,1.266047477722168
3_20251106_214933,1762436938290,3,0.2557813227176666,0.49631640315055847,0.4068402647972107,0.7229985594749451,1.1507446765899658,3.2738444805145264,1.3856220245361328,9.308734893798828,8.088056564331055,0.9741131067276001,0.4064961075782776,-0.28440335392951965,-0.05468384921550751,15.707378387451172,-39.572227478027344,3.8007583618164062,-0.37627601623535156,-0.6875019073486328,-0.23354756832122803,9.68501091003418,8.775558471679688,1.2076606750488281
3_20251106_214933,1762436938308,3,0.255252480506897,0.5000026822090149,0.40837979316711426,0.7197704315185547,1.215523362159729,3.2674028873443604,1.3905284404754639,9.173468589782715,8.181426048278809,1.0662859678268433,0.3893918991088867,-0.41940444707870483,-0.14509183168411255,15.463030815124512,-39.53099060058594,4.359952926635742,-0.40923404693603516,-0.47530555725097656,-0.11309969425201416,9.58270263671875,8.656731605529785,1.1793856620788574
3_20251106_214933,1762436938328,3,0.25593677163124084,0.504143238067627,0.4098982810974121,0.7157648801803589,1.2782137393951416,3.259694814682007,1.3949999809265137,8.895752906799316,8.240081787109375,1.0363597869873047,0.3637355864048004,-0.49515169858932495,-0.27703857421875,15.25501823425293,-39.5108642578125,4.757896423339844,-0.5495595932006836,-0.33331966400146484,-0.11442077159881592,9.4453125,8.57340145111084,1.1507805585861206
3_20251106_214933,1762436938350,3,0.2579187750816345,0.5081342458724976,0.411693811416626,0.7111861109733582,1.340955138206482,3.2506954669952393,1.3988908529281616,8.692255020141602,8.316692352294922,0.9382016658782959,0.32586196064949036,-0.5757858157157898,-0.3943246006965637,15.305730819702148,-39.42383575439453,5.167194366455078,-0.6024456024169922,-0.2053670883178711,-0.17006313800811768,9.294700622558594,8.522059440612793,1.1082648038864136
3_20251106_214933,1762436938366,3,0.261215478181839,0.5120531320571899,0.4135984778404236,0.7060484290122986,1.379954218864441,3.2444987297058105,1.4012430906295776,8.33553409576416,8.30711555480957,1.0100246667861938,0.32586196064949036,-0.5757858157157898,-0.3943246006965637,15.478601455688477,-39.328453063964844,5.5408477783203125,-0.7673330307006836,-0.17195510864257812,-0.07859218120574951,9.102867126464844,8.479070663452148,1.0886168479919434
3_20251106_214933,1762436938386,3,0.26576676964759827,0.5165559649467468,0.41559290885925293,0.6998717784881592,1.4258159399032593,3.2358648777008057,1.4045586585998535,7.939310550689697,8.220928192138672,1.1991584300994873,0.31120121479034424,-0.8964897990226746,-0.545208215713501,15.699991226196289,-39.253395080566406,5.753740310668945,-0.930844783782959,-0.2065143585205078,0.08843326568603516,8.870155334472656,8.42744255065918,1.1107251644134521
3_20251106_214933,1762436938404,3,0.2712620198726654,0.5217276811599731,0.41740328073501587,0.692814290523529,1.4258159399032593,3.2358648777008057,1.4045586585998535,7.939310550689697,8.220928192138672,1.1991584300994873,0.2922644019126892,-1.000336766242981,-0.5818600654602051,15.984129905700684,-39.13710021972656,6.010425567626953,-0.930844783782959,-0.2065143585205078,0.08843326568603516,8.870155334472656,8.42744255065918,1.1107251644134521
3_20251106_214933,1762436938423,3,0.2774938941001892,0.5272359251976013,0.41896212100982666,0.6851935386657715,1.495658040046692,3.2196545600891113,1.4121228456497192,7.440140724182129,8.261628150939941,1.4852532148361206,0.26905152201652527,-1.0638667345046997,-0.6521095037460327,16.417491912841797,-38.98400115966797,6.057262420654297,-0.9588775634765625,-0.1017160415649414,0.26593732833862305,8.399018287658691,8.363344192504883,1.2193158864974976
3_20251106_214933,1762436938441,3,0.28442487120628357,0.5326215028762817,0.4205717146396637,0.6771530508995056,1.5237798690795898,3.2114102840423584,1.416297197341919,7.14686393737793,8.216140747070312,1.2805578708648682,0.26905152201652527,-1.0638667345046997,-0.6521095037460327,16.971601486206055,-38.84767150878906,6.067928314208984,-1.001723289489746,-0.11776256561279297,0.048993587493896484,8.148587226867676,8.333903312683105,1.2315642833709717
3_20251106_214933,1762436938461,3,0.29220905900001526,0.5377982258796692,0.42240339517593384,0.6685523986816406,1.5472989082336426,3.202207565307617,1.419929027557373,6.63452672958374,8.018627166748047,1.0531184673309326,0.2666080892086029,-1.2013113498687744,-0.8439210653305054,17.523990631103516,-38.74846649169922,6.023736953735352,-1.2112483978271484,-0.25222110748291016,-0.14275670051574707,7.845775127410889,8.270848274230957,1.1958751678466797
3_20251106_214933,1762436938480,3,0.3009307086467743,0.5430761575698853,0.4244178831577301,0.6590739488601685,1.5472989082336426,3.202207565307617,1.419929027557373,6.63452672958374,8.018627166748047,1.0531184673309326,0.262332022190094,-1.3033257722854614,-0.8934010863304138,18.164094924926758,-38.605628967285156,5.9432220458984375,-1.2112483978271484,-0.25222110748291016,-0.14275670051574707,7.845775127410889,8.270848274230957,1.1958751678466797
3_20251106_214933,1762436938500,3,0.31033533811569214,0.5486395359039307,0.426334023475647,0.6487880349159241,1.5739668607711792,3.182145833969116,1.423014521598816,5.465009689331055,7.801960468292236,0.5491606593132019,0.22812362015247345,-1.3741860389709473,-0.9117270708084106,18.878387451171875,-38.46815490722656,5.622093200683594,-1.6173467636108398,-0.3106217384338379,-0.4631199240684509,7.0823564529418945,8.112582206726074,1.0122805833816528
3_20251106_214933,1762436938519,3,0.3202933669090271,0.554315984249115,0.4278615713119507,0.6380285620689392,1.577335238456726,3.1714930534362793,1.42194402217865,4.938307762145996,7.71337890625,0.40312063694000244,0.18108701705932617,-1.4316073656082153,-0.9269986152648926,19.623088836669922,-38.22809600830078,5.249990463256836,-1.7152390480041504,-0.3193626403808594,-0.4873279333114624,6.6535468101501465,8.03274154663086,0.8904485702514648
3_20251106_214933,1762436938539,3,0.33082860708236694,0.5600172281265259,0.42892035841941833,0.6268656253814697,1.5743054151535034,3.1600236892700195,1.4188708066940308,4.382877349853516,7.541004180908203,0.14096681773662567,0.15176551043987274,-1.452987551689148,-0.9404376745223999,19.623088836669922,-38.22809600830078,5.249990463256836,-1.816535472869873,-0.3933897018432617,-0.5995854139328003,6.199412822723389,7.934393882751465,0.7405522465705872
3_20251106_214933,1762436938558,3,0.3416336178779602,0.5655253529548645,0.42973145842552185,0.6154660582542419,1.5644469261169434,3.1470346450805664,1.413388967514038,3.9531359672546387,7.434466361999512,-0.051758140325546265,0.0919007807970047,-1.4951372146606445,-0.9153922200202942,20.503345489501953,-37.95405578613281,4.870294570922852,-1.7970213890075684,-0.39994192123413086,-0.6338483095169067,5.750157356262207,7.834408283233643,0.5820901989936829
3_20251106_214933,1762436938576,3,0.35272327065467834,0.5710305571556091,0.4298478364944458,0.603938102722168,1.5644469261169434,3.1470346450805664,1.413388967514038,3.9531359672546387,7.434466361999512,-0.051758140325546265,0.05952495336532593,-1.5824908018112183,-0.8738534450531006,21.410863876342773,-37.65129089355469,4.289363861083984,-1.7970213890075684,-0.39994192123413086,-0.6338483095169067,5.750157356262207,7.834408283233643,0.5820901989936829
3_20251106_214933,1762436938595,3,0.36407774686813354,0.5769704580307007,0.4291125535964966,0.5919585227966309,1.5298057794570923,3.1210553646087646,1.3986870050430298,2.9763436317443848,7.2800469398498535,-0.19061584770679474,0.05952495336532593,-1.5824908018112183,-0.8738534450531006,22.333263397216797,-37.32086181640625,3.5337390899658203,-1.8512773513793945,-0.3657083511352539,-0.5044913291931152,4.827620983123779,7.645755290985107,0.3138754963874817
3_20251106_214933,1762436938615,3,0.37565287947654724,0.5833406448364258,0.4273430407047272,0.5796348452568054,1.503900170326233,3.106879711151123,1.3890162706375122,2.4628095626831055,7.185480117797852,-0.372567355632782,0.02348393201828003,-1.6527403593063354,-0.8127669095993042,23.169954299926758,-37.008148193359375,2.7338695526123047,-1.8918490409851074,-0.36822032928466797,-0.5491542816162109,4.354658603668213,7.5537004470825195,0.17658692598342896
3_20251106_214933,1762436938633,3,0.3872503340244293,0.5897548198699951,0.424858957529068,0.5672047734260559,1.4727396965026855,3.0923237800598145,1.3778002262115479,1.967231273651123,7.156750679016113,-0.5628982186317444,-0.12006928026676178,-1.660070776939392,-0.7370197176933289,24.049633026123047,-36.591514587402344,1.8294525146484375,-1.9099419116973877,-0.31756019592285156,-0.5915881395339966,3.8771731853485107,7.474310874938965,0.0286899134516716
3_20251106_214933,1762436938652,3,0.3990386724472046,0.595526933670044,0.42169374227523804,0.5552389025688171,1.436468482017517,3.0776638984680176,1.365229606628418,1.4465147256851196,7.171115875244141,-0.6694356203079224,-0.2416313737630844,-1.584323525428772,-0.7303001880645752,24.89193344116211,-36.201568603515625,0.8419380187988281,-1.9445267915725708,-0.24255609512329102,-0.5585004091262817,3.3910415172576904,7.413671970367432,-0.11093518137931824
3_20251106_214933,1762436938672,3,0.4106656312942505,0.5999572277069092,0.4185173809528351,0.5442869663238525,1.3951454162597656,3.062729835510254,1.351824164390564,0.8886896967887878,7.046622276306152,-0.6442975997924805,-0.2416313737630844,-1.584323525428772,-0.7303001880645752,25.62261962890625,-35.87940216064453,-0.3675708770751953,-2.0018813610076904,-0.29364013671875,-0.4266899526119232,2.890571117401123,7.340262413024902,-0.21760764718055725
3_20251106_214933,1762436938690,3,0.42293310165405273,0.6034508943557739,0.4145894944667816,0.5339382886886597,1.3486981391906738,3.0473034381866455,1.3379182815551758,0.26981520652770996,6.888611793518066,-0.6442975997924805,-0.501859724521637,-1.4090052843093872,-0.7260241508483887,26.36709976196289,-35.53105163574219,-1.6030941009521484,-2.096604585647583,-0.36132049560546875,-0.3413519859313965,2.366419792175293,7.249932289123535,-0.302945613861084
3_20251106_214933,1762436938710,3,0.43568891286849976,0.6059566140174866,0.4100746512413025,0.5242428779602051,1.2937884330749512,3.0304291248321533,1.3243030309677124,-0.41729113459587097,6.77369499206543,-0.20737455785274506,-0.6197566390037537,-1.3418102264404297,-0.6948700547218323,27.016292572021484,-35.162864685058594,-2.9501419067382812,-2.226968765258789,-0.38099002838134766,0.07645685970783234,1.8096777200698853,7.154685020446777,-0.2838314175605774
3_20251106_214933,1762436938730,3,0.44861191511154175,0.6075409650802612,0.4050586223602295,0.5153337121009827,1.2333076000213623,3.013353109359741,1.312474250793457,-0.926037073135376,6.8108038902282715,0.0799172967672348,-0.6197566390037537,-1.3418102264404297,-0.6948700547218323,27.577659606933594,-34.850059509277344,-4.342227935791016,-2.1885719299316406,-0.27510499954223633,0.2909989655017853,1.2625348567962646,7.085908889770508,-0.21108166873455048
3_20251106_214933,1762436938749,3,0.46100324392318726,0.6081945896148682,0.39985471963882446,0.5076332688331604,1.1717535257339478,2.9968655109405518,1.3019633293151855,-1.2779695987701416,6.693492889404297,-0.15111321210861206,-0.6832866072654724,-1.2037547826766968,-0.6221771240234375,28.030155181884766,-34.531715393066406,-5.751979827880859,-2.0324034690856934,-0.3139328956604004,0.04797476530075073,0.7544339895248413,7.007425785064697,-0.1990879774093628
3_20251106_214933,1762436938767,3,0.4726017713546753,0.6081678867340088,0.3944404721260071,0.5011946558952332,1.1106517314910889,2.9813389778137207,1.2923740148544312,-1.5616703033447266,6.728207111358643,-0.2516653537750244,-0.8219528794288635,-0.9875086545944214,-0.3753878176212311,28.498249053955078,-34.161537170410156,-7.241283416748047,-1.8528834581375122,-0.2233748435974121,-0.04206189513206482,0.29121318459510803,6.951581954956055,-0.2096034586429596
3_20251106_214933,1762436938787,3,0.4838332533836365,0.6079158186912537,0.3878546357154846,0.4958956837654114,1.0397911071777344,2.96403431892395,1.283033847808838,-1.8022770881652832,6.650399208068848,0.047596968710422516,-0.9160260558128357,-0.9514676332473755,-0.21228693425655365,28.878517150878906,-33.84674072265625,-8.775625228881836,-1.6747922897338867,-0.24094581604003906,0.20576032996177673,-0.12748484313488007,6.891345024108887,-0.15816336870193481
3_20251106_214933,1762436938808,3,0.4946357309818268,0.607557475566864,0.38001421093940735,0.4917302131652832,1.0397911071777344,2.96403431892395,1.283033847808838,-1.8022770881652832,6.650399208068848,0.047596968710422516,-1.0149861574172974,-0.8488423824310303,-0.05712730437517166,29.200363159179688,-33.497711181640625,-10.365692138671875,-1.6747922897338867,-0.24094581604003906,0.20576032996177673,-0.12748484313488007,6.891345024108887,-0.15816336870193481
3_20251106_214933,1762436938824,3,0.5048761367797852,0.6066453456878662,0.37124279141426086,0.48914241790771484,0.959378719329834,2.9455974102020264,1.2754305601119995,-1.8573416471481323,6.7952423095703125,0.42825865745544434,-1.1023398637771606,-0.6832979917526245,0.05588266998529434,29.427753448486328,-33.092926025390625,-11.89078140258789,-1.3838855028152466,-0.07688236236572266,0.46913760900497437,-0.47345617413520813,6.872124671936035,-0.04087896645069122
3_20251106_214933,1762436938844,3,0.5144839286804199,0.6047804355621338,0.36212432384490967,0.488275408744812,0.8365403413772583,2.9215238094329834,1.269463300704956,-1.8094594478607178,7.3925700187683105,0.8915168046951294,-1.187250018119812,-0.51408851146698,0.1304081529378891,29.520477294921875,-32.720909118652344,-13.529923439025879,-0.8598303198814392,0.3711991310119629,0.6279523372650146,-0.9496291279792786,7.021370887756348,0.26356443762779236
3_20251106_214933,1762436938863,3,0.5236434936523438,0.601867139339447,0.35288485884666443,0.4889025390148163,0.7689203023910522,2.9106805324554443,1.2708709239959717,-1.9339525699615479,7.412919998168945,1.5618643760681152,-1.2532234191894531,-0.3650375008583069,0.22509218752384186,29.538280487060547,-32.379310607910156,-15.118471145629883,-0.7874587774276733,0.31323909759521484,1.038640022277832,-1.1464937925338745,7.0996809005737305,0.523224413394928
3_20251106_214933,1762436938881,3,0.5322304368019104,0.598145604133606,0.3434423506259918,0.490917444229126,0.7026915550231934,2.901829957962036,1.2762236595153809,-1.8717060089111328,7.628388404846191,1.9868168830871582,-1.2367300987243652,-0.22453860938549042,0.3710888624191284,29.53705596923828,-31.939254760742188,-16.665340423583984,-0.5801697969436646,0.42296600341796875,1.170873999595642,-1.2915362119674683,7.205422401428223,0.8159428834915161
3_20251106_214933,1762436938900,3,0.5395324230194092,0.5940681099891663,0.33396488428115845,0.4944241940975189,0.6387637853622437,2.895150661468506,1.285529375076294,-1.6598284244537354,7.835477828979492,2.354311227798462,-1.2012999057769775,-0.11213948577642441,0.5195289850234985,29.396255493164062,-31.596641540527344,-18.138351440429688,-0.29463374614715576,0.5040445327758789,1.2306947708129883,-1.3651946783065796,7.331433296203613,1.1236164569854736
3_20251106_214933,1762436938920,3,0.5455347299575806,0.5899456739425659,0.32434481382369995,0.4991556704044342,0.6387637853622437,2.895150661468506,1.285529375076294,-1.6598284244537354,7.835477828979492,2.354311227798462,-1.17197847366333,-0.002183841308578849,0.6484214663505554,29.16946029663086,-31.260528564453125,-19.520185470581055,-0.29463374614715576,0.5040445327758789,1.2306947708129883,-1.3651946783065796,7.331433296203613,1.1236164569854736
3_20251106_214933,1762436938940,3,0.5504190921783447,0.585743248462677,0.31457796692848206,0.504959762096405,0.5151174068450928,2.8872151374816895,1.3179285526275635,-0.9559633731842041,7.824704170227051,2.8989686965942383,-1.093787670135498,0.11815651506185532,0.7705944180488586,28.86925506591797,-30.929588317871094,-20.864410400390625,0.31879186630249023,0.29117774963378906,1.1599749326705933,-1.2747552394866943,7.533526420593262,1.738993763923645
3_20251106_214933,1762436938959,3,0.5537794828414917,0.5815534591674805,0.30513036251068115,0.511878252029419,0.46329209208488464,2.8847506046295166,1.3365954160690308,-0.6016367673873901,7.719364166259766,2.6296324729919434,-1.0033797025680542,0.19329287111759186,0.9062063694000244,28.55516815185547,-30.61334991455078,-22.074228286743164,0.5384948253631592,0.14867019653320312,0.7125109434127808,-1.1401315927505493,7.5706939697265625,1.9171215295791626
3_20251106_214933,1762436938979,3,0.5556808710098267,0.5777837634086609,0.2956618368625641,0.519585132598877,0.41424643993377686,2.8834002017974854,1.3574501276016235,-0.22576327621936798,7.937227249145508,2.636814832687378,-1.0033797025680542,0.19329287111759186,0.9062063694000244,28.17774200439453,-30.339157104492188,-23.246742248535156,0.731494665145874,0.2932267189025879,0.5757546424865723,-0.9572579264640808,7.64400053024292,2.0610601902008057
3_20251106_214933,1762436938997,3,0.5566943287849426,0.5742189884185791,0.28587374091148376,0.5278637409210205,0.41424643993377686,2.8834002017974854,1.3574501276016235,-0.22576327621936798,7.937227249145508,2.636814832687378,-1.048583745956421,0.34295469522476196,0.9966143369674683,28.17774200439453,-30.339157104492188,-23.246742248535156,0.731494665145874,0.2932267189025879,0.5757546424865723,-0.9572579264640808,7.64400053024292,2.0610601902008057
3_20251106_214933,1762436939015,3,0.5578440427780151,0.5696566700935364,0.2762470245361328,0.5366458892822266,0.33750057220458984,2.883213996887207,1.4010730981826782,-0.3945471942424774,7.90610408782959,3.5537548065185547,-1.09623122215271,0.5763050317764282,0.948966920375824,27.79602813720703,-30.10559844970703,-24.12268829345703,0.3158920109272003,0.15931940078735352,1.005505084991455,-0.7104392051696777,7.746784687042236,2.5482497215270996
3_20251106_214933,1762436939036,3,0.5586901903152466,0.5632141828536987,0.2679809033870697,0.546663761138916,0.29989033937454224,2.8817331790924072,1.4274414777755737,-0.9715249538421631,7.149568557739258,3.8422434329986572,-1.0846247673034668,0.8188183307647705,0.9605733156204224,27.424888610839844,-29.896629333496094,-24.97163963317871,-0.2088686227798462,-0.47777271270751953,1.0351951122283936,-0.7626563310623169,7.627341270446777,2.8070483207702637
3_20251106_214933,1762436939054,3,0.5587546825408936,0.5553861856460571,0.2610183358192444,0.5578609108924866,0.26080816984176636,2.876816749572754,1.4576700925827026,-1.2468464374542236,6.497176647186279,4.076865196228027,-1.0846247673034668,0.8188183307647705,0.9605733156204224,27.03423309326172,-29.802818298339844,-25.688295364379883,-0.3873521089553833,-0.9041314125061035,1.0158536434173584,-0.8594943284988403,7.401308059692383,3.061011552810669
3_20251106_214933,1762436939073,3,0.5572180151939392,0.5457896590232849,0.2541233003139496,0.5718767642974854,0.26080816984176636,2.876816749572754,1.4576700925827026,-1.2468464374542236,6.497176647186279,4.076865196228027,-1.1628153324127197,1.116309404373169,1.178652048110962,26.671401977539062,-29.621536254882812,-26.199378967285156,-0.3873521089553833,-0.9041314125061035,1.0158536434173584,-0.8594943284988403,7.401308059692383,3.061011552810669
3_20251106_214933,1762436939092,3,0.5529870986938477,0.5340188145637512,0.24554206430912018,0.5905407071113586,0.19479797780513763,2.8607075214385986,1.5269755125045776,0.2793915867805481,6.680325508117676,6.238736152648926,-1.6838829517364502,1.4272395372390747,2.0723471641540527,26.356216430664062,-29.450180053710938,-26.65469741821289,0.9093062877655029,-0.40052318572998047,2.2869436740875244,-0.6299147009849548,7.080848693847656,3.9517924785614014
3_20251106_214933,1762436939111,3,0.5477766394615173,0.5212743282318115,0.23260313272476196,0.611644983291626,0.17300234735012054,2.853348731994629,1.5727695226669312,1.9947632551193237,7.355461120605469,7.580628395080566,-1.630126953125,1.4919912815093994,2.3680057525634766,26.06230926513672,-29.304641723632812,-26.87978744506836,2.0997424125671387,0.21968984603881836,2.903069019317627,-0.10497912764549255,7.13577127456665,4.6775593757629395
3_20251106_214933,1762436939132,3,0.5393106937408447,0.5082167983055115,0.21905770897865295,0.6347230672836304,0.1618177890777588,2.847942590713501,1.625283122062683,3.365385055541992,7.71337890625,7.96129035949707,-1.3063685894012451,1.4296830892562866,2.4376440048217773,25.67959213256836,-29.21582794189453,-27.014751434326172,2.7762913703918457,0.4620857238769531,2.6269845962524414,0.5890936851501465,7.251293182373047,5.334305763244629
3_20251106_214933,1762436939149,3,0.5282645225524902,0.4968184232711792,0.20654399693012238,0.6568467617034912,0.1609409600496292,2.8443832397460938,1.6828316450119019,4.142270088195801,7.825901508331299,8.126483917236328,-1.0785161256790161,1.3771487474441528,2.4016032218933105,25.287029266357422,-29.279586791992188,-26.96365737915039,2.842541217803955,0.4596867561340332,2.2337427139282227,1.2997288703918457,7.366214752197266,5.8927412033081055
3_20251106_214933,1762436939169,3,0.5158951878547668,0.48653408885002136,0.19510768353939056,0.6775468587875366,0.1609409600496292,2.8443832397460938,1.6828316450119019,4.142270088195801,7.825901508331299,8.126483917236328,-1.0980637073516846,1.5475798845291138,2.229950189590454,24.76947784423828,-29.413536071777344,-26.972850799560547,2.842541217803955,0.4596867561340332,2.2337427139282227,1.2997288703918457,7.366214752197266,5.8927412033081055
3_20251106_214933,1762436939189,3,0.5044419765472412,0.47458553314208984,0.18465948104858398,0.6972859501838684,0.17231261730194092,2.8419036865234375,1.7570551633834839,4.653409957885742,7.756472587585449,8.861471176147461,-1.149376392364502,1.8524013757705688,2.008817195892334,24.188400268554688,-29.57819366455078,-26.822830200195312,2.6829447746276855,0.3122062683105469,2.3749842643737793,1.970465064048767,7.444266319274902,6.486486911773682
3_20251106_214933,1762436939206,3,0.49369513988494873,0.4595486521720886,0.17622308433055878,0.7169557809829712,0.20745880901813507,2.8360419273376465,1.8839067220687866,4.998160362243652,6.67793083190918,9.355853080749512,-1.149376392364502,1.8524013757705688,2.008817195892334,23.593332290649414,-29.76929473876953,-26.619762420654297,1.9838833808898926,-0.5881338119506836,1.8856172561645508,3.0142769813537598,7.266064643859863,7.470235824584961
3_20251106_214933,1762436939226,3,0.48284757137298584,0.4425196349620819,0.16849103569984436,0.7366446852684021,0.20745880901813507,2.8360419273376465,1.8839067220687866,4.998160362243652,6.67793083190918,9.355853080749512,-1.148154616355896,1.9794613122940063,2.061351776123047,22.925277709960938,-30.154747009277344,-26.220359802246094,1.9838833808898926,-0.5881338119506836,1.8856172561645508,3.0142769813537598,7.266064643859863,7.470235824584961
3_20251106_214933,1762436939245,3,0.4705272316932678,0.425953209400177,0.16025269031524658,0.7559676170349121,0.27321451902389526,2.8210744857788086,2.0369791984558105,6.797325134277344,6.296072006225586,9.697011947631836,-0.8628807663917542,1.7839845418930054,2.2171220779418945,22.134052276611328,-30.5731201171875,-25.839908599853516,2.595633029937744,-0.6376500129699707,1.385298728942871,4.2016921043396,6.933722019195557,8.311713218688965
3_20251106_214933,1762436939264,3,0.4555497467517853,0.4119453430175781,0.15250223875045776,0.7742858529090881,0.3142511248588562,2.8129141330718994,2.106442451477051,7.817211151123047,6.6204729080200195,9.154748916625977,-0.6967255473136902,1.6379879713058472,2.212846040725708,21.26729965209961,-31.034332275390625,-25.42264175415039,2.8924155235290527,-0.2505989074707031,0.6744289398193359,4.924795627593994,6.871071815490723,8.48031997680664
3_20251106_214933,1762436939283,3,0.4398377537727356,0.399690181016922,0.14513298869132996,0.7910290360450745,0.36767780780792236,2.8037242889404297,2.1817057132720947,8.250543594360352,6.681522369384766,9.118837356567383,-0.7193275690078735,1.652648687362671,1.966667652130127,20.65534019470215,-31.556236267089844,-24.79539680480957,2.6605987548828125,-0.1516399383544922,0.5108137130737305,5.589944839477539,6.833162307739258,8.608023643493652
3_20251106_214933,1762436939303,3,0.4257533550262451,0.38694697618484497,0.13850578665733337,0.8061155676841736,0.4232639670372009,2.7945053577423096,2.252368927001953,8.275681495666504,6.4959797859191895,9.606036186218262,-0.7840792536735535,1.7210655212402344,1.6697872877120972,19.764636993408203,-31.995277404785156,-24.243419647216797,2.148589611053467,-0.2697458267211914,0.7984104156494141,6.127091884613037,6.765725612640381,8.807625770568848
3_20251106_214933,1762436939321,3,0.4138960838317871,0.3729458451271057,0.1326955258846283,0.8197519779205322,0.4232639670372009,2.7945053577423096,2.252368927001953,8.275681495666504,6.4959797859191895,9.606036186218262,-0.7101646065711975,1.7583283185958862,1.4608714580535889,18.999923706054688,-32.351165771484375,-23.67144012451172,2.148589611053467,-0.2697458267211914,0.7984104156494141,6.127091884613037,6.765725612640381,8.807625770568848
3_20251106_214933,1762436939340,3,0.40300604701042175,0.35844582319259644,0.12837745249271393,0.8322391510009766,0.5370550751686096,2.7704215049743652,2.3863954544067383,7.889034271240234,5.351600646972656,9.602445602416992,-0.6057067513465881,1.7259525060653687,1.430328369140625,18.2109375,-32.70850372314453,-23.113956451416016,1.1199817657470703,-0.9933342933654785,0.4998750686645508,6.769052505493164,6.344934940338135,9.102570533752441
3_20251106_214933,1762436939359,3,0.39183247089385986,0.34436851739883423,0.12481699883937836,0.843977689743042,0.6002900004386902,2.7534704208374023,2.4539794921875,8.288848876953125,5.266610145568848,9.075742721557617,-0.47131648659706116,1.6300467252731323,1.5244014263153076,17.384788513183594,-33.080650329589844,-22.571725845336914,1.215837001800537,-0.8626599311828613,-0.021462440490722656,7.073011875152588,6.129270076751709,9.09720516204834
3_20251106_214933,1762436939380,3,0.37931951880455017,0.3315454125404358,0.12160773575305939,0.8552227020263672,0.6692913770675659,2.73415207862854,2.5205283164978027,8.840688705444336,5.4102559089660645,8.838727951049805,-0.3570847809314728,1.3991397619247437,1.5860987901687622,16.537975311279297,-33.40293884277344,-22.151065826416016,1.4141416549682617,-0.5752115249633789,-0.20678138732910156,7.426547050476074,5.985467433929443,9.045509338378906
3_20251106_214933,1762436939401,3,0.3661043345928192,0.32115957140922546,0.11824718862771988,0.8653564453125,0.7375413179397583,2.715357780456543,2.580561876296997,9.341054916381836,5.552704811096191,8.987161636352539,-0.263011634349823,1.2103825807571411,1.5439491271972656,16.537975311279297,-33.40293884277344,-22.151065826416016,1.5316061973571777,-0.3462100028991699,-0.04667854309082031,7.809448719024658,5.898914813995361,9.03384017944336
3_20251106_214933,1762436939417,3,0.3530307114124298,0.31267818808555603,0.11512161791324615,0.8742703795433044,0.7964220643043518,2.6994316577911377,2.6289126873016357,9.52540111541748,5.557493209838867,8.976388931274414,-0.263011634349823,1.2103825807571411,1.5439491271972656,15.64272689819336,-33.716392517089844,-21.678037643432617,1.3727617263793945,-0.27313709259033203,-0.04596138000488281,8.152639389038086,5.830630302429199,9.022350311279297
3_20251106_214933,1762436939436,3,0.34148141741752625,0.30470478534698486,0.11264320462942123,0.8819620013237,0.8620424270629883,2.681756019592285,2.6804587841033936,9.283596992492676,5.551507949829102,9.09848690032959,-0.242242231965065,1.119363784790039,1.0735833644866943,14.82400894165039,-33.97404479980469,-21.2821102142334,0.9047660827636719,-0.2232980728149414,0.060909271240234375,8.378830909729004,5.774806022644043,9.037577629089355
3_20251106_214933,1762436939455,3,0.33227723836898804,0.2965834438800812,0.11071878671646118,0.8884657621383667,0.925277829170227,2.6636781692504883,2.729811429977417,8.705422401428223,5.306112289428711,9.177492141723633,-0.1860426813364029,1.070494532585144,0.8475633859634399,13.995007514953613,-34.206703186035156,-20.953725814819336,0.2612733840942383,-0.3749551773071289,0.11193180084228516,8.444149017333984,5.68106746673584,9.065560340881348
3_20251106_214933,1762436939474,3,0.3248429298400879,0.28874078392982483,0.10978887230157852,0.8938972353935242,0.9812118411064148,2.6451849937438965,2.7736496925354004,8.04704475402832,4.7782135009765625,8.830347061157227,-0.07547615468502045,0.9813083410263062,0.7595988512039185,13.265609741210938,-34.39533233642578,-20.620624542236328,-0.31768321990966797,-0.7222833633422852,-0.1881704330444336,8.364727973937988,5.500496864318848,9.01851749420166
3_20251106_214933,1762436939493,3,0.3177735507488251,0.2817522883415222,0.10982846468687057,0.8986508250236511,0.9812118411064148,2.6451849937438965,2.7736496925354004,8.04704475402832,4.7782135009765625,8.830347061157227,-0.033326487988233566,0.8359225392341614,0.8090789318084717,12.52302360534668,-34.59771728515625,-20.247730255126953,-0.31768321990966797,-0.7222833633422852,-0.1881704330444336,8.364727973937988,5.500496864318848,9.01851749420166
3_20251106_214933,1762436939513,3,0.31017327308654785,0.2760617434978485,0.10966741293668747,0.9030811190605164,1.0439276695251465,2.620262861251831,2.8226962089538574,7.758556365966797,4.562745094299316,8.514327049255371,0.002103663980960846,0.6758760213851929,0.8335134983062744,11.858772277832031,-34.71864318847656,-20.005474090576172,-0.4849376678466797,-0.7502017021179199,-0.4033527374267578,8.243494033813477,5.312946796417236,8.917679786682129
3_20251106_214933,1762436939531,3,0.30249884724617004,0.27185380458831787,0.10924959927797318,0.9070030450820923,1.135871410369873,2.577277898788452,2.8961050510406494,7.729826927185059,4.636961936950684,8.766904830932617,0.06990964710712433,0.5934092402458191,0.7571554183959961,11.205099105834961,-34.864158630371094,-19.73621940612793,-0.33774852752685547,-0.41405248641967773,-0.09630489349365234,8.067575454711914,5.051014423370361,8.86320972442627
3_20251106_214933,1762436939551,3,0.2954773008823395,0.26845094561576843,0.10932846367359161,0.9103156328201294,1.1784615516662598,2.5543456077575684,2.9310410022735596,7.436549663543701,4.5735182762146,8.59931755065918,0.10472893714904785,0.5763050317764282,0.5928328037261963,10.600788116455078,-34.98246765136719,-19.356348037719727,-0.5048208236694336,-0.38199663162231445,-0.21111392974853516,7.941370487213135,4.955514907836914,8.810431480407715
3_20251106_214933,1762436939570,3,0.28972795605659485,0.26510512828826904,0.11013472825288773,0.9130429029464722,1.2179158926010132,2.529426097869873,2.9647274017333984,6.909848213195801,4.301788330078125,8.399410247802734,0.09984202682971954,0.5946309566497803,0.41629284620285034,10.15488338470459,-35.10206604003906,-19.064977645874023,-0.8252177238464355,-0.5229811668395996,-0.32881641387939453,7.735065937042236,4.824769496917725,8.728226661682129
3_20251106_214933,1762436939590,3,0.2853156626224518,0.2613411545753479,0.11146709322929382,0.9153528809547424,1.2508546113967896,2.502925395965576,2.9950385093688965,6.240697860717773,3.894791603088379,8.171971321105957,0.09923115372657776,0.5720289945602417,0.31855452060699463,9.729418754577637,-35.295013427734375,-18.81475830078125,-1.1954941749572754,-0.7439823150634766,-0.4450044631958008,7.436192035675049,4.6387739181518555,8.616975784301758
3_20251106_214933,1762436939608,3,0.28179752826690674,0.2575837969779968,0.1129637360572815,0.9173221588134766,1.2746585607528687,2.477904796600342,3.0194666385650635,5.66611385345459,3.6793227195739746,8.012763023376465,0.12122228741645813,0.48711878061294556,0.32771748304367065,9.30778694152832,-35.41315460205078,-18.50889015197754,-1.416062355041504,-0.7675609588623047,-0.4833707809448242,7.082176208496094,4.446883678436279,8.496133804321289
3_20251106_214933,1762436939627,3,0.27811992168426514,0.2545030415058136,0.11441145092248917,0.9191232323646545,1.293760061264038,2.450449228286743,3.0423967838287354,5.344107627868652,3.5847558975219727,7.925378799438477,0.12122228741645813,0.48711878061294556,0.32771748304367065,8.97255802154541,-35.51264190673828,-18.253389358520508,-1.3904547691345215,-0.689702033996582,-0.45660400390625,6.734562397003174,4.274457931518555,8.381982803344727
3_20251106_214933,1762436939646,3,0.2737978994846344,0.25243043899536133,0.11584042012691498,0.9208118915557861,1.293760061264038,2.450449228286743,3.0423967838287354,5.344107627868652,3.5847558975219727,7.925378799438477,0.1951369196176529,0.3008050322532654,0.46149685978889465,8.660587310791016,-35.63524627685547,-18.037986755371094,-1.3904547691345215,-0.689702033996582,-0.45660400390625,6.734562397003174,4.274457931518555,8.381982803344727
3_20251106_214933,1762436939665,3,0.2688872814178467,0.2511454224586487,0.11716026812791824,0.9224418997764587,1.308807373046875,2.419943332672119,3.0647504329681396,5.239964008331299,3.7738895416259766,7.867920398712158,0.2000238299369812,0.2672075033187866,0.47737932205200195,8.366659164428711,-35.857666015625,-17.72909927368164,-1.1956787109375,-0.4004545211791992,-0.41124963760375977,6.435642719268799,4.174344062805176,8.279170036315918
3_20251106_214933,1762436939685,3,0.2638467848300934,0.2501716613769531,0.11845322698354721,0.9239955544471741,1.3248370885849,2.3677561283111572,3.0980424880981445,5.257920265197754,3.8540918827056885,7.870314598083496,0.1792544275522232,0.2275012880563736,0.46638375520706177,8.090456008911133,-35.978965759277344,-17.40409278869629,-0.7508697509765625,-0.20266318321228027,-0.25228214263916016,6.008790016174316,4.056755065917969,8.122596740722656
3_20251106_214933,1762436939703,3,0.2590208649635315,0.24948984384536743,0.11949658393859863,0.9254099726676941,1.3291579484939575,2.3435728549957275,3.1124565601348877,5.303407669067383,3.8995800018310547,8.049872398376465,0.1792544275522232,0.2275012880563736,0.46638375520706177,7.86720085144043,-36.04497528076172,-17.26529884338379,-0.5643057823181152,-0.12574005126953125,-0.05817890167236328,5.867713451385498,4.025320053100586,8.108051300048828
3_20251106_214933,1762436939723,3,0.25453779101371765,0.24890689551830292,0.12037516385316849,0.9266961216926575,1.3320469856262207,2.317685842514038,3.1273272037506104,5.317772388458252,3.90676212310791,7.994807243347168,0.15726329386234283,0.20428843796253204,0.43217533826828003,7.580011367797852,-36.153839111328125,-17.008100509643555,-0.4399528503417969,-0.09484624862670898,-0.09059524536132812,5.757725238800049,4.001608371734619,8.085402488708496
3_20251106_214933,1762436939742,3,0.2506933808326721,0.24813510477542877,0.12121821939945221,0.9278404712677002,1.3331743478775024,2.2954869270324707,3.1398656368255615,5.212431907653809,3.974993944168091,8.013960838317871,0.08518126606941223,0.20489929616451263,0.29595252871513367,7.358982086181641,-36.17042541503906,-16.787151336669922,-0.4362344741821289,-0.021291494369506836,-0.05715370178222656,5.6486663818359375,3.9962854385375977,8.071114540100098
3_20251106_214933,1762436939761,3,0.2475099116563797,0.24720261991024017,0.1217990592122078,0.9288674592971802,1.3326270580291748,2.2722628116607666,3.1535162925720215,5.077165603637695,4.064772605895996,8.207881927490234,0.04608592763543129,0.20001238584518433,0.2238704413175583,7.169985771179199,-36.2603759765625,-16.525766372680664,-0.4572010040283203,0.05478954315185547,0.10941410064697266,5.534366607666016,4.009983062744141,8.098467826843262
3_20251106_214933,1762436939779,3,0.2451716810464859,0.24613071978092194,0.12218612432479858,0.929720938205719,1.3308210372924805,2.252547025680542,3.1660377979278564,4.990978240966797,4.067166328430176,8.443700790405273,0.02714911848306656,0.20856449007987976,0.14873409271240234,6.9701995849609375,-36.337623596191406,-16.359222412109375,-0.4347109794616699,0.0457463264465332,0.2761859893798828,5.425689220428467,4.021420001983643,8.16751480102539
3_20251106_214933,1762436939800,3,0.24343368411064148,0.24479347467422485,0.12264913320541382,0.9304694533348083,1.3267847299575806,2.230599880218506,3.181098222732544,4.818602561950684,3.9929494857788086,8.520312309265137,0.05280543863773346,0.18535162508487701,0.0839824452996254,6.696803569793701,-36.420310974121094,-16.12803840637207,-0.4856691360473633,-0.02277660369873047,0.2822380065917969,5.304271697998047,4.015726089477539,8.23807430267334
3_20251106_214933,1762436939821,3,0.24228127300739288,0.2436112016439438,0.12341830134391785,0.9309786558151245,1.3203394412994385,2.2094171047210693,3.1963515281677246,4.525325775146484,3.9163384437561035,8.520312309265137,0.05036197975277901,0.19207113981246948,0.038778454065322876,6.486525058746338,-36.48444366455078,-16.096881866455078,-0.6231565475463867,-0.07951021194458008,0.22579097747802734,5.148482322692871,3.9958486557006836,8.29452133178711
3_20251106_214933,1762436939839,3,0.2413012832403183,0.24223735928535461,0.12433488667011261,0.9314695596694946,1.3131234645843506,2.1917247772216797,3.2095932960510254,4.349359512329102,3.815786361694336,8.628046035766602,0.021651335060596466,0.21528398990631104,0.024728568270802498,6.486525058746338,-36.48444366455078,-16.096881866455078,-0.6392984390258789,-0.14404964447021484,0.26681995391845703,4.9886579513549805,3.959836006164551,8.361226081848145
3_20251106_214933,1762436939858,3,0.24064865708351135,0.2405375987291336,0.1250428855419159,0.931984007358551,1.3044376373291016,2.1745948791503906,3.2229480743408203,4.245216369628906,3.828953981399536,8.675929069519043,0.024094797670841217,0.22078177332878113,0.035113267600536346,6.339798450469971,-36.494651794433594,-16.035186767578125,-0.5947532653808594,-0.1047055721282959,0.25176239013671875,4.839969635009766,3.933659553527832,8.424166679382324
3_20251106_214933,1762436939875,3,0.2398460954427719,0.23875494301319122,0.12575525045394897,0.932553231716156,1.2945683002471924,2.1578867435455322,3.2361812591552734,4.182969570159912,3.7571310997009277,8.646001815795898,0.041809871792793274,0.20306670665740967,0.04000018537044525,6.210506916046143,-36.617088317871094,-15.893787384033203,-0.5255999565124512,-0.14122271537780762,0.17746829986572266,4.708569526672363,3.8983538150787354,8.468533515930176
3_20251106_214933,1762436939895,3,0.23885352909564972,0.23713859915733337,0.12661080062389374,0.9331044554710388,1.282076120376587,2.1397337913513184,3.250856637954712,4.026156425476074,3.7284016609191895,8.701066970825195,0.061357542872428894,0.17313432693481445,0.05771525949239731,6.110409736633301,-36.66178894042969,-15.83092212677002,-0.5459303855895996,-0.13596177101135254,0.18602657318115234,4.572086811065674,3.864363431930542,8.515040397644043
3_20251106_214933,1762436939914,3,0.23766827583312988,0.23584340512752533,0.1275247037410736,0.9336107969284058,1.269924283027649,2.1238694190979004,3.2637648582458496,3.9746830463409424,3.7248106002807617,8.661563873291016,0.08457040786743164,0.16336050629615784,0.08764763921499252,6.010918617248535,-36.694068908691406,-15.754276275634766,-0.4779231548309326,-0.11164236068725586,0.1172189712524414,4.452606201171875,3.8364529609680176,8.544344902038574
3_20251106_214933,1762436939933,3,0.23623999953269958,0.23469607532024384,0.12853842973709106,0.9341232776641846,1.2565587759017944,2.107943534851074,3.277230739593506,4.022564888000488,3.830151081085205,8.734583854675293,0.07907262444496155,0.16641482710838318,0.10902789980173111,5.950495719909668,-36.685752868652344,-15.72943115234375,-0.34403276443481445,-0.005041599273681641,0.152191162109375,4.366597652435303,3.8351926803588867,8.582392692565918
3_20251106_214933,1762436939953,3,0.23491431772708893,0.23357124626636505,0.12939250469207764,0.9346214532852173,1.2424057722091675,2.0919406414031982,3.291694402694702,4.107555389404297,3.8098011016845703,8.910550117492676,0.10595066845417023,0.17802125215530396,0.1041409820318222,5.877096176147461,-36.67930603027344,-15.59694766998291,-0.20723390579223633,-0.020313262939453125,0.2625255584716797,4.314789295196533,3.8301143646240234,8.648024559020996
3_20251106_214933,1762436939971,3,0.23329712450504303,0.23237071931362152,0.1305994838476181,0.9351577758789062,1.2424057722091675,2.0919406414031982,3.291694402694702,4.107555389404297,3.8098011016845703,8.910550117492676,0.16703714430332184,0.17374518513679504,0.09436715394258499,5.879507064819336,-36.64122772216797,-15.636704444885254,-0.20723390579223633,-0.020313262939453125,0.2625255584716797,4.314789295196533,3.8301143646240234,8.648024559020996
3_20251106_214933,1762436939990,3,0.23160210251808167,0.23132853209972382,0.13234269618988037,0.9355922937393188,1.2156107425689697,2.0629324913024902,3.317559003829956,4.060870170593262,3.6984753608703613,8.485597610473633,0.1951369196176529,0.1352607160806656,0.09009109437465668,5.833312034606934,-36.57135772705078,-15.407305717468262,-0.16633892059326172,-0.09133553504943848,-0.15030288696289062,4.227209091186523,3.7898108959198,8.635900497436523
3_20251106_214933,1762436940009,3,0.22995872795581818,0.23069854080677032,0.13423983752727509,0.9358829259872437,1.2025747299194336,2.0493357181549072,3.3297109603881836,4.083614349365234,3.769101619720459,8.8040132522583,0.1841413527727127,0.07967203855514526,0.09497801214456558,5.756176948547363,-36.63957977294922,-15.343986511230469,-0.11487579345703125,-0.016567230224609375,0.1344900131225586,4.198490142822266,3.7856688499450684,8.669523239135742
3_20251106_214933,1762436940029,3,0.22835730016231537,0.230568528175354,0.13590997457504272,0.9360660314559937,1.1893060207366943,2.0360162258148193,3.34252667427063,4.121920108795166,3.876835823059082,8.887805938720703,0.21896062791347504,0.10166316479444504,0.09131281822919846,5.718716621398926,-36.65479278564453,-15.318689346313477,-0.06125593185424805,0.07293367385864258,0.17462635040283203,4.183176040649414,3.8039021492004395,8.713179588317871
3_20251106_214933,1762436940048,3,0.22668258845806122,0.23028413951396942,0.13793298602104187,0.9362471699714661,1.1781052350997925,2.0251259803771973,3.3538520336151123,4.24162483215332,4.00611686706543,8.862668991088867,0.281268835067749,0.11082614213228226,0.07543034106492996,5.695569038391113,-36.61992645263672,-15.19723129272461,0.04675912857055664,0.1617717742919922,0.11959171295166016,4.194865703582764,3.8443450927734375,8.743077278137207
3_20251106_214933,1762436940066,3,0.2250092774629593,0.2300330251455307,0.14056944847106934,0.9363203644752502,1.1669950485229492,2.0146820545196533,3.3650248050689697,4.239231109619141,4.018087387084961,8.675928115844727,0.3533508777618408,0.10716094821691513,0.04671970009803772,5.6078691482543945,-36.651947021484375,-15.066030502319336,0.0354924201965332,0.1389937400817871,-0.053719520568847656,4.203738689422607,3.879093647003174,8.729647636413574
3_20251106_214933,1762436940086,3,0.22343288362026215,0.2299584448337555,0.14391104876995087,0.9362085461616516,1.1669950485229492,2.0146820545196533,3.3650248050689697,4.239231109619141,4.018087387084961,8.675928115844727,0.4266546368598938,0.07050906866788864,0.022895973175764084,5.5062761306762695,-36.71028137207031,-14.89529800415039,0.0354924201965332,0.1389937400817871,-0.053719520568847656,4.203738689422607,3.879093647003174,8.729647636413574
3_20251106_214933,1762436940104,3,0.22195270657539368,0.23034636676311493,0.1478777378797531,0.9358470439910889,1.1451359987258911,1.9965509176254272,3.3852286338806152,3.9387717247009277,4.067166328430176,8.769298553466797,0.4901845455169678,0.08944587409496307,0.02106337994337082,5.426433563232422,-36.816986083984375,-14.751672744750977,-0.1933283805847168,0.12553763389587402,0.05027484893798828,4.1321001052856445,3.9416286945343018,8.719023704528809
3_20251106_214933,1762436940123,3,0.2202741950750351,0.23065419495105743,0.15246319770812988,0.935431957244873,1.1339970827102661,1.9888449907302856,3.3952839374542236,3.8657515048980713,4.107866287231445,8.954841613769531,0.5915880799293518,0.14320196211338043,0.015565596520900726,5.346011161804199,-36.91288757324219,-14.432073593139648,-0.21307873725891113,0.13299012184143066,0.18865394592285156,4.078830242156982,3.9748761653900146,8.76618766784668
3_20251106_214933,1762436940143,3,0.2183278352022171,0.23062598705291748,0.1580609828233719,0.934965968132019,1.1219993829727173,1.9812194108963013,3.405348777770996,3.796322822570801,4.001328945159912,8.769298553466797,0.5915880799293518,0.14320196211338043,0.015565596520900726,5.276562690734863,-37.0328369140625,-14.139543533325195,-0.22600603103637695,0.02116227149963379,0.0024881362915039062,4.022328853607178,3.9801666736602783,8.766810417175293
3_20251106_214933,1762436940162,3,0.21572476625442505,0.23070620000362396,0.16490577161312103,0.9343680143356323,1.1109192371368408,1.9747107028961182,3.413243532180786,3.930392265319824,4.116245269775391,8.333572387695312,0.8609794974327087,0.022250749170780182,0.10475184768438339,5.200580596923828,-37.04151153564453,-13.750514030456543,-0.07354927062988281,0.10886287689208984,-0.3465900421142578,4.003941535949707,4.007382392883301,8.68016242980957
3_20251106_214933,1762436940181,3,0.21248677372932434,0.23236291110515594,0.17239777743816376,0.9333465695381165,1.1006083488464355,1.969588041305542,3.4197304248809814,4.0824174880981445,4.393960952758789,8.310829162597656,0.8609794974327087,0.022250749170780182,0.10475184768438339,5.095107078552246,-37.128326416015625,-13.242403030395508,0.06278085708618164,0.309262752532959,-0.29546642303466797,4.019636631011963,4.08469820022583,8.606295585632324
3_20251106_214933,1762436940200,3,0.20918023586273193,0.2356281578540802,0.17935331165790558,0.9319632053375244,1.0910608768463135,1.9655733108520508,3.423738956451416,4.109949588775635,4.395157814025879,7.821235656738281,0.881138026714325,-0.07976365834474564,0.07115428894758224,5.01451301574707,-37.201271057128906,-12.706014633178711,0.0722503662109375,0.2483677864074707,-0.6280479431152344,4.037699222564697,4.146790027618408,8.449283599853516
3_20251106_214933,1762436940220,3,0.2064022272825241,0.23866398632526398,0.1865330934524536,0.9303994178771973,1.0813181400299072,1.962699294090271,3.4238367080688477,3.9734859466552734,4.522045135498047,7.162858486175537,0.704598069190979,0.030191991478204727,0.0021265726536512375,4.992128372192383,-37.320335388183594,-12.181746482849121,-0.05137062072753906,0.300203800201416,-1.0291399955749512,4.0248565673828125,4.221841335296631,8.191998481750488
3_20251106_214933,1762436940240,3,0.20462556183338165,0.24060752987861633,0.19253121316432953,0.9290684461593628,1.0718882083892822,1.9611254930496216,3.420732021331787,3.967500686645508,4.60224723815918,7.1401143074035645,0.4407045245170593,0.11082613468170166,-0.0449100136756897,4.994622707366943,-37.42552185058594,-11.62920093536377,-0.04588460922241211,0.3043246269226074,-0.8415074348449707,4.01338529586792,4.297922611236572,7.981621742248535
3_20251106_214933,1762436940259,3,0.20407509803771973,0.24157048761844635,0.19686846435070038,0.9280300736427307,1.0718882083892822,1.9611254930496216,3.420732021331787,3.967500686645508,4.60224723815918,7.1401143074035645,0.3295271396636963,0.0882241427898407,-0.05407298356294632,4.961066246032715,-37.52080535888672,-11.050829887390137,-0.04588460922241211,0.3043246269226074,-0.8415074348449707,4.01338529586792,4.297922611236572,7.981621742248535
3_20251106_214933,1762436940278,3,0.20343472063541412,0.24145105481147766,0.20016734302043915,0.9274959564208984,1.0554677248001099,1.9611351490020752,3.4108963012695312,3.9710917472839355,4.757863998413086,7.330445289611816,0.32586196064949036,0.010644316673278809,-0.008868994191288948,4.941290855407715,-37.601524353027344,-10.593350410461426,-0.02955770492553711,0.3140897750854492,-0.4236478805541992,4.000649452209473,4.443774223327637,7.754093170166016
3_20251106_214933,1762436940296,3,0.20247243344783783,0.24205349385738373,0.2031688690185547,0.9268966913223267,1.0476453304290771,1.9628725051879883,3.4042375087738037,4.005805969238281,4.8907365798950195,7.276577949523926,0.32586196064949036,0.010644316673278809,-0.008868994191288948,4.941290855407715,-37.601524353027344,-10.593350410461426,0.004125118255615234,0.35756969451904297,-0.38201236724853516,4.001680850982666,4.533166885375977,7.658590316772461
3_20251106_214933,1762436940314,3,0.20111232995986938,0.24332813918590546,0.20570918917655945,0.9262985587120056,1.0409984588623047,1.965779423713684,3.397292137145996,4.1614227294921875,5.078673362731934,7.271790027618408,0.22751274704933167,-0.07487673312425613,0.1145256832242012,4.936817169189453,-37.63081359863281,-10.174874305725098,0.1277933120727539,0.4364051818847656,-0.30944013595581055,4.033629417419434,4.642268180847168,7.581230163574219
3_20251106_214933,1762436940334,3,0.199563667178154,0.24476087093353271,0.20740161836147308,0.9258785247802734,1.0351605415344238,1.9710696935653687,3.389751672744751,4.421182632446289,5.373147010803223,7.512396812438965,0.22751274704933167,-0.07487673312425613,0.1145256832242012,4.913516998291016,-37.774322509765625,-9.718714714050293,0.3100423812866211,0.5847034454345703,-0.05506706237792969,4.111140251159668,4.788443565368652,7.5674638748168945
3_20251106_214933,1762436940354,3,0.1981026530265808,0.2459903359413147,0.2084112912416458,0.9256396889686584,1.030575156211853,1.9779748916625977,3.3824243545532227,4.427167892456055,5.406664848327637,7.513593673706055,0.14443513751029968,-0.06815722584724426,0.11635827273130417,4.907323837280273,-37.84074401855469,-9.355094909667969,0.2528219223022461,0.49457693099975586,-0.04309654235839844,4.174345970153809,4.912087917327881,7.556690216064453
3_20251106_214933,1762436940373,3,0.19709599018096924,0.24696972966194153,0.20939584076404572,0.925371527671814,1.0266345739364624,1.9853732585906982,3.375798225402832,4.246413230895996,5.337235927581787,7.551898956298828,0.1230548769235611,-0.05288561433553696,0.06626737117767334,4.887818336486816,-37.94429016113281,-9.127920150756836,0.05765390396118164,0.340118408203125,-0.003833293914794922,4.1887593269348145,4.997117519378662,7.555732250213623
3_20251106_214933,1762436940391,3,0.1966467648744583,0.24801672995090485,0.20989283919334412,0.9250744581222534,1.023056149482727,1.9928309917449951,3.37030291557312,4.175786972045898,5.321674346923828,7.745820999145508,0.04975111410021782,-0.1023656502366066,0.10353011637926102,4.860962390899658,-37.96086120605469,-8.885871887207031,-0.010377883911132812,0.2596454620361328,0.1520709991455078,4.186164855957031,5.062028884887695,7.59375
3_20251106_214933,1762436940411,3,0.19561897218227386,0.24931994080543518,0.2100403606891632,0.9249085783958435,1.0195181369781494,2.001248359680176,3.366152048110962,4.204516410827637,5.404270648956299,8.089374542236328,0.08518126606941223,-0.16284126043319702,0.15850792825222015,4.809128284454346,-37.99143981933594,-8.658584594726562,0.014681339263916016,0.27379369735717773,0.3964996337890625,4.189835071563721,5.130476951599121,7.692874908447266
3_20251106_214933,1762436940431,3,0.19417011737823486,0.2512897253036499,0.21023529767990112,0.9246364235877991,1.0160465240478516,2.010756492614746,3.3634612560272217,4.211698532104492,5.489261627197266,8.173168182373047,0.15298724174499512,-0.17689114809036255,0.18782943487167358,4.6991705894470215,-37.98738098144531,-8.527571678161621,0.017490863800048828,0.28702783584594727,0.3842344284057617,4.194207668304443,5.202233791351318,7.788933753967285
3_20251106_214933,1762436940449,3,0.19225247204303741,0.2535036504268646,0.21093547344207764,0.9242733120918274,1.0130960941314697,2.0202105045318604,3.3615944385528564,4.260777473449707,5.520384788513184,7.993610858917236,0.18780653178691864,-0.13657408952713013,0.17316867411136627,4.622654914855957,-38.03157043457031,-8.355594635009766,0.05325603485107422,0.25452089309692383,0.1637415885925293,4.207521438598633,5.26586389541626,7.829869270324707
3_20251106_214933,1762436940468,3,0.1902734637260437,0.25536787509918213,0.21206548810005188,0.9239109754562378,1.0104196071624756,2.0297224521636963,3.359534502029419,4.253595352172852,5.459334850311279,7.725471496582031,0.18780653178691864,-0.13657408952713013,0.17316867411136627,4.474024295806885,-38.06756591796875,-8.226844787597656,0.03685903549194336,0.15477657318115234,-0.08351802825927734,4.216736316680908,5.304558277130127,7.808989524841309
3_20251106_214933,1762436940487,3,0.18860048055648804,0.256670206785202,0.21318279206752777,0.9236359596252441,1.0078564882278442,2.0388386249542236,3.357266426086426,4.2093048095703125,5.333644866943359,7.695545196533203,0.1645936816930771,-0.08281797915697098,0.13651679456233978,4.388932704925537,-38.061241149902344,-8.162432670593262,-0.0059452056884765625,0.023269176483154297,-0.09075546264648438,4.215250015258789,5.310375690460205,7.7863006591796875
3_20251106_214933,1762436940505,3,0.18735109269618988,0.25764912366867065,0.21408219635486603,0.923409640789032,1.0078564882278442,2.0388386249542236,3.357266426086426,4.2093048095703125,5.333644866943359,7.695545196533203,0.0967876985669136,-0.018066324293613434,0.0687108263373375,4.291852951049805,-38.055442810058594,-8.125543594360352,-0.0059452056884765625,0.023269176483154297,-0.09075546264648438,4.215250015258789,5.310375690460205,7.7863006591796875
3_20251106_214933,1762436940526,3,0.18637046217918396,0.25814342498779297,0.21485276520252228,0.923291027545929,1.0021346807479858,2.0553715229034424,3.3499298095703125,4.091993808746338,5.109796524047852,7.342415809631348,0.0454750619828701,-0.00035124714486300945,0.05099575221538544,4.192361831665039,-38.08772277832031,-8.048897743225098,-0.08309745788574219,-0.15250349044799805,-0.29998302459716797,4.17509126663208,5.26230001449585,7.642398834228516
3_20251106_214933,1762436940544,3,0.18561653792858124,0.2583557665348053,0.2152658998966217,0.9232872724533081,0.9992049932479858,2.0615830421447754,3.3457579612731934,4.03214168548584,5.018820762634277,7.417829513549805,0.0454750619828701,-0.00035124714486300945,0.05099575221538544,4.092067241668701,-38.1326904296875,-7.9589996337890625,-0.11435985565185547,-0.19478368759155273,-0.1796555519104004,4.146501541137695,5.21360445022583,7.597485065460205
3_20251106_214933,1762436940564,3,0.18496689200401306,0.2584719657897949,0.21535538136959076,0.9233642816543579,0.9992049932479858,2.0615830421447754,3.3457579612731934,4.03214168548584,5.018820762634277,7.417829513549805,-0.00033979490399360657,0.025305069983005524,0.038778454065322876,3.944734573364258,-38.15531921386719,-7.911084175109863,-0.11435985565185547,-0.19478368759155273,-0.1796555519104004,4.146501541137695,5.21360445022583,7.597485065460205
3_20251106_214933,1762436940582,3,0.18437135219573975,0.25833046436309814,0.21540135145187378,0.9235122203826904,0.9931812286376953,2.0728983879089355,3.33768630027771,4.203319549560547,5.157678604125977,7.6261162757873535,-0.0015615243464708328,0.02897026017308235,0.024728568270802498,3.894989013671875,-38.17145538330078,-7.872760772705078,0.05724000930786133,-0.023151874542236328,0.021580219268798828,4.1460795402526855,5.180830478668213,7.604536056518555
3_20251106_214933,1762436940601,3,0.18380190432071686,0.2580917179584503,0.2154960036277771,0.9236704111099243,0.9931812286376953,2.0728983879089355,3.33768630027771,4.203319549560547,5.157678604125977,7.6261162757873535,0.01554268691688776,-0.016844594851136208,0.009456949308514595,3.8574295043945312,-38.186798095703125,-7.83394718170166,0.05724000930786133,-0.023151874542236328,0.021580219268798828,4.1460795402526855,5.180830478668213,7.604536056518555
3_20251106_214933,1762436940620,3,0.18350276350975037,0.25830063223838806,0.2156786322593689,0.9236288666725159,0.9880733489990234,2.083249807357788,3.3316032886505127,4.119525909423828,5.210348606109619,7.859540939331055,-0.006448442116379738,-0.013179407455027103,0.010678678750991821,3.8436360359191895,-38.212974548339844,-7.8079328536987305,-0.0271453857421875,0.019275188446044922,0.18733549118041992,4.146671295166016,5.191073417663574,7.672205448150635
3_20251106_214933,1762436940639,3,0.18330152332782745,0.258440762758255,0.21565872430801392,0.9236342310905457,0.9855800867080688,2.0880630016326904,3.3296706676483154,4.1135406494140625,5.192392826080322,7.8786940574646,-0.01072449516505003,0.03263544663786888,0.02106337994337082,3.816655158996582,-38.252906799316406,-7.742124557495117,-0.0265045166015625,0.0010557174682617188,0.1651911735534668,4.140045166015625,5.1913371086120605,7.713502883911133
3_20251106_214933,1762436940659,3,0.18198223412036896,0.25803905725479126,0.21612237393856049,0.9238990545272827,0.9855800867080688,2.0880630016326904,3.3296706676483154,4.1135406494140625,5.192392826080322,7.8786940574646,-0.01072449516505003,0.03263544663786888,0.02106337994337082,3.8074865341186523,-38.20320129394531,-7.76859188079834,-0.0265045166015625,0.0010557174682617188,0.1651911735534668,4.140045166015625,5.1913371086120605,7.713502883911133
3_20251106_214933,1762436940679,3,0.18048681318759918,0.2575456202030182,0.21666865050792694,0.9242020845413208,0.9803898930549622,2.097111225128174,3.325927495956421,4.080023288726807,5.103811264038086,7.650057315826416,0.007601446472108364,0.050961390137672424,0.04061105102300644,3.8074865341186523,-38.20320129394531,-7.76859188079834,-0.04358530044555664,-0.06693363189697266,-0.05650186538696289,4.123608589172363,5.170744895935059,7.706559181213379
3_20251106_214933,1762436940698,3,0.17905688285827637,0.2573922574520111,0.21722164750099182,0.9243931174278259,0.9779871106147766,2.1007440090179443,3.3240790367126465,4.106358528137207,5.089447021484375,7.668013095855713,0.02348393201828003,0.034468043595552444,0.0992540642619133,3.6877408027648926,-38.17347717285156,-7.772705078125,-0.01380014419555664,-0.06503868103027344,-0.03083658218383789,4.120158672332764,5.154485702514648,7.698849678039551
3_20251106_214933,1762436940716,3,0.1780092865228653,0.25752928853034973,0.2174942046403885,0.9244931936264038,0.9762141108512878,2.103907346725464,3.322413921356201,4.24282169342041,5.1888017654418945,7.656042575836182,0.025927390903234482,0.04485274478793144,0.12735383212566376,3.6877408027648926,-38.17347717285156,-7.772705078125,0.0981302261352539,0.027452945709228516,-0.034245967864990234,4.144691467285156,5.161348819732666,7.690288543701172
3_20251106_214933,1762436940736,3,0.1766359657049179,0.2576357126235962,0.21770823001861572,0.9246765375137329,0.9750200510025024,2.108020544052124,3.320521593093872,4.409212112426758,5.280974388122559,7.708712577819824,0.028370849788188934,0.03263544663786888,0.13407334685325623,3.624485492706299,-38.22700500488281,-7.843793869018555,0.21161651611328125,0.09570026397705078,0.014739513397216797,4.197595596313477,5.185274124145508,7.693973064422607
3_20251106_214933,1762436940754,3,0.17532141506671906,0.258082777261734,0.21795707941055298,0.9247434139251709,0.9748223423957825,2.111799955368042,3.3189785480499268,4.512157917022705,5.359979629516602,7.693150997161865,0.04303160309791565,0.021029017865657806,0.10719530284404755,3.573725700378418,-38.26771545410156,-7.860063552856445,0.2516498565673828,0.13976430892944336,-0.0006575584411621094,4.260508060455322,5.220215320587158,7.693808555603027
3_20251106_214933,1762436940773,3,0.1743689477443695,0.25881072878837585,0.21834416687488556,0.924628734588623,0.9748223423957825,2.111799955368042,3.3189785480499268,4.512157917022705,5.359979629516602,7.693150997161865,0.04975111410021782,0.011255182325839996,0.0632130429148674,3.5124988555908203,-38.2720947265625,-7.821967124938965,0.2516498565673828,0.13976430892944336,-0.0006575584411621094,4.260508060455322,5.220215320587158,7.693808555603027
3_20251106_214933,1762436940794,3,0.17385178804397583,0.2596878111362457,0.21892067790031433,0.9243438243865967,0.9764183163642883,2.120349407196045,3.315075159072876,4.498990535736084,5.334841728210449,7.59020471572876,0.0302034430205822,0.013087776489555836,0.021674243733286858,3.461751937866211,-38.30119323730469,-7.743359565734863,0.15052175521850586,0.07259464263916016,-0.06726408004760742,4.348468780517578,5.262247085571289,7.657468795776367
3_20251106_214933,1762436940812,3,0.1740017980337143,0.26053836941719055,0.21937182545661926,0.9239692091941833,0.9777103662490845,2.1244935989379883,3.313223123550415,4.464276313781738,5.325265407562256,7.664422035217285,0.0302034430205822,0.013087776489555836,0.021674243733286858,3.353684902191162,-38.282958984375,-7.77427864074707,0.09264612197875977,0.0504145622253418,0.005562782287597656,4.3716301918029785,5.274850845336914,7.6588592529296875
3_20251106_214933,1762436940832,3,0.1742495447397232,0.26116320490837097,0.21987085044384003,0.9236274361610413,0.9777103662490845,2.1244935989379883,3.313223123550415,4.464276313781738,5.325265407562256,7.664422035217285,0.019207876175642014,0.017974693328142166,-0.013755908235907555,3.2432198524475098,-38.29118347167969,-7.670562744140625,0.09264612197875977,0.0504145622253418,0.005562782287597656,4.3716301918029785,5.274850845336914,7.6588592529296875
3_20251106_214933,1762436940852,3,0.17453636229038239,0.2616459131240845,0.22048960626125336,0.9232891201972961,0.9803628325462341,2.1327900886535645,3.309527635574341,4.373300552368164,5.314492225646973,7.668013095855713,0.03631208837032318,0.010644317604601383,-0.03147098422050476,3.206167697906494,-38.29423522949219,-7.604453086853027,-0.0021872520446777344,0.02900981903076172,0.010263919830322266,4.375487804412842,5.285482406616211,7.657749176025391
3_20251106_214933,1762436940870,3,0.17474202811717987,0.2620590329170227,0.22113598883152008,0.922978401184082,0.9815280437469482,2.1364641189575195,3.3081326484680176,4.402029514312744,5.356388568878174,7.708712577819824,0.050972841680049896,0.002092211740091443,-0.035747043788433075,3.196504592895508,-38.245208740234375,-7.5633392333984375,0.021233558654785156,0.05672502517700195,0.0407710075378418,4.380795955657959,5.299663543701172,7.667941570281982
3_20251106_214933,1762436940889,3,0.1749792993068695,0.26249977946281433,0.2219024896621704,0.9226241707801819,0.9828631281852722,2.140474796295166,3.3071281909942627,4.441532135009766,5.418635368347168,7.81165885925293,0.06380100548267365,-0.005238165147602558,-0.05346211791038513,3.211226463317871,-38.18297576904297,-7.426366806030273,0.04858875274658203,0.09517765045166016,0.1149740219116211,4.392943382263184,5.323457717895508,7.696684837341309
3_20251106_214933,1762436940907,3,0.17536669969558716,0.2629881203174591,0.22279343008995056,0.9221967458724976,0.9841637015342712,2.144301176071167,3.3065602779388428,4.43315315246582,5.411452770233154,7.8332061767578125,0.09617683291435242,-0.00951421819627285,-0.07728584110736847,3.163905143737793,-38.14942932128906,-7.33292293548584,0.032167911529541016,0.07039594650268555,0.10921669006347656,4.400985240936279,5.341056823730469,7.723989486694336
3_20251106_214933,1762436940928,3,0.17578637599945068,0.26345545053482056,0.22400504350662231,0.9216898083686829,0.9854487180709839,2.1485321521759033,3.3058817386627197,4.372103691101074,5.404270648956299,7.697939395904541,0.09617683291435242,-0.00951421819627285,-0.07728584110736847,3.140745162963867,-38.12617492675781,-7.306343078613281,-0.023105144500732422,0.05057096481323242,-0.020840167999267578,4.395208835601807,5.353699684143066,7.718779563903809
3_20251106_214933,1762436940946,3,0.17620298266410828,0.26404985785484314,0.2254898101091385,0.9210779070854187,0.9864432215690613,2.1525156497955322,3.3052384853363037,4.334995269775391,5.413846969604492,7.707515716552734,0.13649390637874603,-0.04922042414546013,-0.09255745261907578,3.11415958404541,-38.16557312011719,-7.294599533081055,-0.048171043395996094,0.048117637634277344,-0.009010791778564453,4.383166313171387,5.365729331970215,7.716526508331299
3_20251106_214933,1762436940965,3,0.17674154043197632,0.26484617590904236,0.22700484097003937,0.9203736782073975,0.9871146082878113,2.1564385890960693,3.304717540740967,4.28352165222168,5.41624116897583,7.749412536621094,0.15543070435523987,-0.03211621195077896,-0.10477475076913834,3.21095609664917,-38.16016387939453,-7.196062088012695,-0.07971572875976562,0.04040956497192383,0.02630901336669922,4.363237380981445,5.375831604003906,7.7231035232543945
3_20251106_214933,1762436940984,3,0.17724940180778503,0.2654048800468445,0.22872494161128998,0.9196889400482178,0.98721843957901,2.1601481437683105,3.303802251815796,4.168604850769043,5.369556427001953,7.569854736328125,0.15604157745838165,0.028359394520521164,-0.1316528171300888,3.305328369140625,-38.204444885253906,-7.152645111083984,-0.15570592880249023,-0.0050201416015625,-0.12259912490844727,4.324310779571533,5.374576568603516,7.692453861236572
3_20251106_214933,1762436941004,3,0.17788028717041016,0.26527732610702515,0.2305503636598587,0.9191480278968811,0.9866378903388977,2.1636714935302734,3.302441358566284,4.099176406860352,5.313294887542725,7.545914173126221,0.10289634764194489,0.10532835870981216,-0.14570270478725433,3.3882193565368652,-38.236961364746094,-7.109455108642578,-0.18010759353637695,-0.04902505874633789,-0.11723184585571289,4.2792840003967285,5.3623199462890625,7.663146018981934
3_20251106_214933,1762436941022,3,0.17860810458660126,0.26436352729797363,0.23213183879852295,0.918872058391571,0.985802412033081,2.166482448577881,3.301274299621582,4.112343788146973,5.3468122482299805,7.632101535797119,0.06196840852499008,0.17252346873283386,-0.16402864456176758,3.4455394744873047,-38.28429412841797,-6.9999284744262695,-0.13355207443237305,-0.012406349182128906,-0.024835586547851562,4.245895862579346,5.359218597412109,7.656937122344971
3_20251106_214933,1762436941042,3,0.17943501472473145,0.2627224028110504,0.2334427684545517,0.918849527835846,0.9838688373565674,2.1695148944854736,3.2990071773529053,3.961515426635742,5.279777526855469,7.389100551605225,0.06196840852499008,0.17252346873283386,-0.16402864456176758,3.556735038757324,-38.24028015136719,-6.9136247634887695,-0.22750425338745117,-0.0635528564453125,-0.21426916122436523,4.189019680023193,5.343330383300781,7.60336971282959
3_20251106_214933,1762436941060,3,0.18016941845417023,0.26116594672203064,0.23484410345554352,0.9187924861907959,0.9813686609268188,2.17179536819458,3.2967307567596436,3.8130815029144287,5.266610145568848,7.428603172302246,0.0558597594499588,0.10960441082715988,-0.1267658919095993,3.753134250640869,-38.19084167480469,-6.810372352600098,-0.3007504940032959,-0.061376094818115234,-0.13981342315673828,4.113831996917725,5.327986240386963,7.568416595458984
3_20251106_214933,1762436941080,3,0.1807831972837448,0.26015233993530273,0.23595304787158966,0.9186753034591675,0.9813686609268188,2.17179536819458,3.2967307567596436,3.8130815029144287,5.266610145568848,7.428603172302246,0.017986148595809937,0.09616538137197495,-0.07789670675992966,3.8874902725219727,-38.17008972167969,-6.750648498535156,-0.3007504940032959,-0.061376094818115234,-0.13981342315673828,4.113831996917725,5.327986240386963,7.568416595458984
3_20251106_214933,1762436941100,3,0.1810867041349411,0.25908148288726807,0.23660612106323242,0.9187502264976501,0.9740398526191711,2.17557430267334,3.290696859359741,3.8322341442108154,5.242669105529785,7.344809532165527,-0.022941790521144867,0.06989819556474686,-0.03819049894809723,4.036159992218018,-38.09925842285156,-6.594764709472656,-0.17390227317810059,-0.05364561080932617,-0.14789628982543945,4.006136417388916,5.296314716339111,7.492705821990967
3_20251106_214933,1762436941119,3,0.18119612336158752,0.25829675793647766,0.23675782978534698,0.9189105033874512,0.9694393277168274,2.1770670413970947,3.2870101928710938,3.840613603591919,5.19598388671875,7.389100551605225,-0.03882427141070366,0.021029017865657806,-0.015588505193591118,4.134366035461426,-38.06873321533203,-6.495698928833008,-0.13241815567016602,-0.08026504516601562,-0.08288431167602539,3.973031759262085,5.276248931884766,7.47198486328125
3_20251106_214933,1762436941138,3,0.18123269081115723,0.2580506503582001,0.2366446554660797,0.919001579284668,0.965184211730957,2.178346633911133,3.28383731842041,3.8633575439453125,5.274989128112793,7.4704999923706055,-0.07425442337989807,-0.004016435705125332,0.005180895794183016,4.134366035461426,-38.06873321533203,-6.495698928833008,-0.08773946762084961,-0.0010080337524414062,-0.0011882781982421875,3.951097011566162,5.275997161865234,7.471688270568848
3_20251106_214933,1762436941156,3,0.1812489777803421,0.2579944431781769,0.23603878915309906,0.9191699028015137,0.9616428017616272,2.179518938064575,3.2816479206085205,3.9854564666748047,5.314492225646973,7.702727317810059,-0.11762581765651703,0.004535670392215252,0.003959166817367077,4.184421062469482,-38.04057312011719,-6.479692459106445,0.027487516403198242,0.030796051025390625,0.1848311424255371,3.9579689502716064,5.283696174621582,7.5178961753845215
3_20251106_214933,1762436941175,3,0.18137314915657043,0.25776752829551697,0.23513945937156677,0.9194395542144775,0.9616428017616272,2.179518938064575,3.2816479206085205,3.9854564666748047,5.314492225646973,7.702727317810059,-0.11762581765651703,0.004535670392215252,0.003959166817367077,4.267509937286377,-38.07281494140625,-6.463535308837891,0.027487516403198242,0.030796051025390625,0.1848311424255371,3.9579689502716064,5.283696174621582,7.5178961753845215
3_20251106_214933,1762436941195,3,0.18162453174591064,0.25734010338783264,0.23424220085144043,0.9197386503219604,0.9578236937522888,2.181110143661499,3.2800872325897217,4.058476448059082,5.34800910949707,7.818840980529785,-0.11090630292892456,0.025305069983005524,-0.01803196407854557,4.329849720001221,-38.043731689453125,-6.460555076599121,0.08040618896484375,0.05145072937011719,0.24075603485107422,3.9780702590942383,5.296558380126953,7.578084945678711
3_20251106_214933,1762436941212,3,0.18196164071559906,0.2567293047904968,0.23345725238323212,0.9200422167778015,0.9546564221382141,2.182811737060547,3.2795052528381348,4.072841167449951,5.382723808288574,7.851161956787109,-0.07669788599014282,0.03385717794299126,-0.060181625187397,4.3530097007751465,-38.066986083984375,-6.48713493347168,0.07581663131713867,0.06893205642700195,0.2184615135192871,3.9970245361328125,5.313791751861572,7.632700443267822
3_20251106_214933,1762436941233,3,0.18262958526611328,0.256292462348938,0.23291698098182678,0.9201686382293701,0.9520938396453857,2.1844334602355957,3.279752016067505,4.056082248687744,5.381526947021484,7.93495512008667,-0.03210476040840149,0.04912879690527916,-0.07239892333745956,4.373857498168945,-38.12818145751953,-6.487473487854004,0.04724597930908203,0.05418825149536133,0.24180364608764648,4.008836269378662,5.327338695526123,7.693151473999023
3_20251106_214933,1762436941251,3,0.1829822063446045,0.2556358575820923,0.23285359144210815,0.9202972650527954,0.9468242526054382,2.1874804496765137,3.279655933380127,3.900465965270996,5.239077568054199,7.413041591644287,-0.03210476040840149,0.04912879690527916,-0.07239892333745956,4.375662803649902,-38.10252380371094,-6.541010856628418,-0.08218955993652344,-0.0752568244934082,-0.22562026977539062,3.9826555252075195,5.314334392547607,7.638661861419678
3_20251106_214933,1762436941271,3,0.18337275087833405,0.255275160074234,0.23287402093410492,0.9203144907951355,0.9438000917434692,2.1887545585632324,3.2786991596221924,3.8992691040039062,5.274989128112793,7.46571159362793,-0.029661301523447037,0.03263544663786888,-0.05834903568029404,4.424183368682861,-38.122840881347656,-6.701772689819336,-0.06670928001403809,-0.031476497650146484,-0.13836002349853516,3.9659783840179443,5.3064656257629395,7.604071617126465
3_20251106_214933,1762436941290,3,0.18369685113430023,0.25515174865722656,0.23241519927978516,0.9204000234603882,0.9412128925323486,2.189955949783325,3.278165578842163,4.017776966094971,5.325265407562256,7.724274635314941,-0.09807814657688141,0.010644317604601383,0.0027374373748898506,4.410574436187744,-38.160362243652344,-6.79766845703125,0.041439056396484375,0.015039920806884766,0.09616279602050781,3.9763379096984863,5.310225486755371,7.628111839294434
3_20251106_214933,1762436941309,3,0.18393319845199585,0.25511255860328674,0.2317264825105667,0.9205373525619507,0.9391642808914185,2.191329002380371,3.277951955795288,4.125511169433594,5.3946943283081055,7.735048294067383,-0.09807814657688141,0.010644317604601383,0.0027374373748898506,4.459924697875977,-38.14476013183594,-6.781926155090332,0.1193385124206543,0.06757497787475586,0.08554935455322266,4.0061726570129395,5.32711935043335,7.64949893951416
3_20251106_214933,1762436941329,3,0.1839553415775299,0.2552220821380615,0.23114383220672607,0.9206490516662598,0.9376859068870544,2.193122148513794,3.2780275344848633,4.193742752075195,5.465320587158203,7.744624137878418,-0.05898280441761017,-0.023564105853438377,-0.021086284890770912,4.474831581115723,-38.0938720703125,-6.766863822937012,0.1500558853149414,0.11056137084960938,0.07610034942626953,4.043686866760254,5.354759216308594,7.668523788452148
3_20251106_214933,1762436941351,3,0.18430015444755554,0.2556023597717285,0.23070450127124786,0.9205847978591919,0.936858594417572,2.1954619884490967,3.278594732284546,4.236836910247803,5.5191874504089355,7.815250396728516,-0.05898280441761017,-0.023564105853438377,-0.021086284890770912,4.560726642608643,-38.087501525878906,-6.8445281982421875,0.15452003479003906,0.13154268264770508,0.11738109588623047,4.082316875457764,5.3876447677612305,7.697869300842285
3_20251106_214933,1762436941366,3,0.1852222979068756,0.2558553218841553,0.23034468293190002,0.9204195141792297,0.9363088607788086,2.1973021030426025,3.279270887374878,4.107555389404297,5.462925910949707,7.834403038024902,-0.07486528903245926,0.009422588162124157,-0.14020492136478424,4.610472202301025,-38.07136535644531,-6.882851600646973,0.020190715789794922,0.06022500991821289,0.10922718048095703,4.087364673614502,5.402700901031494,7.725175857543945
3_20251106_214933,1762436941385,3,0.18673405051231384,0.2558160722255707,0.23012535274028778,0.9201797842979431,0.9353040456771851,2.199178695678711,3.2801427841186523,3.947150945663452,5.330053329467773,7.764974117279053,-0.09624555706977844,0.03874409571290016,-0.16647210717201233,4.664150238037109,-37.98028564453125,-6.87904167175293,-0.11217093467712402,-0.05811786651611328,0.031838417053222656,4.059321880340576,5.388171195983887,7.73313570022583
3_20251106_214933,1762436941404,3,0.188288614153862,0.25520026683807373,0.22986234724521637,0.9200997352600098,0.9353040456771851,2.199178695678711,3.2801427841186523,3.947150945663452,5.330053329467773,7.764974117279053,-0.1084628477692604,0.02041815221309662,-0.14936788380146027,4.725983142852783,-37.96348571777344,-6.903358459472656,-0.11217093467712402,-0.05811786651611328,0.031838417053222656,4.059321880340576,5.388171195983887,7.73313570022583
3_20251106_214933,1762436941423,3,0.18969759345054626,0.25458410382270813,0.229391410946846,0.9200985431671143,0.9316853284835815,2.2018895149230957,3.282238006591797,3.796322822570801,5.314492225646973,7.920590400695801,-0.1084628477692604,0.02041815221309662,-0.14936788380146027,4.77684211730957,-37.922637939453125,-6.900605201721191,-0.1759803295135498,-0.040642738342285156,0.14946651458740234,3.9723031520843506,5.355134963989258,7.771123886108398
3_20251106_214933,1762436941443,3,0.1908310353755951,0.2539759576320648,0.22888459265232086,0.9201584458351135,0.9316853284835815,2.2018895149230957,3.282238006591797,3.796322822570801,5.314492225646973,7.920590400695801,-0.10479766130447388,0.014920370653271675,-0.12004636973142624,4.840690612792969,-37.86830139160156,-6.910613059997559,-0.1759803295135498,-0.040642738342285156,0.14946651458740234,3.9723031520843506,5.355134963989258,7.771123886108398
3_20251106_214933,1762436941462,3,0.19160541892051697,0.25291261076927185,0.22844992578029633,0.9203984141349792,0.9261036515235901,2.2042453289031982,3.2851009368896484,3.7651994228363037,5.349206447601318,7.804476737976074,-0.0883043110370636,0.028359394520521164,-0.0656794086098671,4.937560081481934,-37.885986328125,-7.015347480773926,-0.13331246376037598,-0.0045604705810546875,0.01694011688232422,3.8985118865966797,5.353766918182373,7.78753662109375
3_20251106_214933,1762436941481,3,0.19214381277561188,0.2522107660770416,0.22810310125350952,0.9205647706985474,0.9261036515235901,2.2042453289031982,3.2851009368896484,3.7651994228363037,5.349206447601318,7.804476737976074,-0.06448058784008026,-0.007681624032557011,-0.03819049894809723,5.01499080657959,-37.817359924316406,-7.11921501159668,-0.13331246376037598,-0.0045604705810546875,0.01694011688232422,3.8985118865966797,5.353766918182373,7.78753662109375
3_20251106_214933,1762436941499,3,0.19255565106868744,0.25197833776474,0.22782708704471588,0.9206107258796692,0.9230591058731079,2.2055068016052246,3.287001132965088,3.8454017639160156,5.404270648956299,7.9565019607543945,-0.018665736541152,-0.034559670835733414,-0.03391444683074951,5.089108467102051,-37.79963684082031,-7.156557083129883,-0.04248809814453125,0.040402889251708984,0.13517189025878906,3.887889862060547,5.36386775970459,7.8213300704956055
3_20251106_214933,1762436941519,3,0.19287197291851044,0.252080500125885,0.22782212495803833,0.9205177426338196,0.9181342124938965,2.2081472873687744,3.290416955947876,3.947150945663452,5.4389848709106445,7.791309356689453,-0.01255708932876587,-0.049831289798021317,-0.042466551065444946,5.175610065460205,-37.780845642089844,-7.220441818237305,0.04233217239379883,0.05018138885498047,-0.03185415267944336,3.9048187732696533,5.388803482055664,7.8231635093688965
3_20251106_214933,1762436941540,3,0.19336435198783875,0.2525002062320709,0.22787651419639587,0.9202859401702881,0.9157103300094604,2.209567070007324,3.2919700145721436,3.930392265319824,5.371950149536133,7.7685651779174805,-0.02599611133337021,-0.05960512161254883,-0.0656794086098671,5.212649345397949,-37.789398193359375,-7.381429672241211,0.020458698272705078,-0.01348257064819336,-0.04367876052856445,3.909933567047119,5.385432720184326,7.812243938446045
3_20251106_214933,1762436941557,3,0.19413000345230103,0.25302615761756897,0.22789236903190613,0.9199762940406799,0.9137544631958008,2.210676670074463,3.293102741241455,3.86814546585083,5.393496990203857,7.784127235412598,-0.03515908494591713,-0.05532906949520111,-0.09316832572221756,5.212649345397949,-37.789398193359375,-7.381429672241211,-0.03343057632446289,0.006451129913330078,-0.022493362426757812,3.901576042175293,5.387045860290527,7.8066205978393555
3_20251106_214933,1762436941577,3,0.195162832736969,0.25342482328414917,0.22782039642333984,0.9196658134460449,0.9111466407775879,2.2117691040039062,3.294562339782715,3.762805223464966,5.338433265686035,7.870314598083496,-0.049819838255643845,-0.040057454258203506,-0.10599648207426071,5.28545618057251,-37.79664611816406,-7.4328155517578125,-0.11101651191711426,-0.03888988494873047,0.05095529556274414,3.87382173538208,5.377323150634766,7.819359302520752
3_20251106_214933,1762436941596,3,0.19627107679843903,0.2535242736339569,0.2277408093214035,0.9194222092628479,0.9085021018981934,2.2125396728515625,3.2960684299468994,3.7053470611572266,5.310900688171387,7.924181938171387,-0.05776107683777809,-0.015012000687420368,-0.09439005702733994,5.336512565612793,-37.755531311035156,-7.457094192504883,-0.134779691696167,-0.053137779235839844,0.08385848999023438,3.8401267528533936,5.364038467407227,7.840323448181152
3_20251106_214933,1762436941614,3,0.19712525606155396,0.2531745731830597,0.22756974399089813,0.9193782210350037,0.9055526852607727,2.213169813156128,3.297605037689209,3.731682062149048,5.312097549438477,7.849964618682861,-0.04920896887779236,-0.008903353475034237,-0.07911843806505203,5.472054481506348,-37.733154296875,-7.559565544128418,-0.08675551414489746,-0.04155254364013672,0.007712841033935547,3.8184375762939453,5.353650093078613,7.842251777648926
3_20251106_214933,1762436941634,3,0.19785428047180176,0.2527223825454712,0.2273959070444107,0.919389009475708,0.9022849798202515,2.2137646675109863,3.299332618713379,3.713726282119751,5.342024326324463,7.905028820037842,-0.0314938947558403,-0.03150534629821777,-0.06812287122011185,5.460672378540039,-37.72126007080078,-7.573307991027832,-0.08376908302307129,-0.009300708770751953,0.050221920013427734,3.7974953651428223,5.351325035095215,7.854806900024414
3_20251106_214933,1762436941653,3,0.19836685061454773,0.2526009976863861,0.2273729145526886,0.9193176031112671,0.8990239500999451,2.21401309967041,3.3007307052612305,3.683800220489502,5.246260166168213,7.796097278594971,-0.010113630443811417,-0.024174971505999565,-0.06445767730474472,5.49531364440918,-37.75627899169922,-7.599660873413086,-0.09095621109008789,-0.08405208587646484,-0.046967506408691406,3.77475643157959,5.330312252044678,7.843064785003662
3_20251106_214933,1762436941672,3,0.19896423816680908,0.2524511218070984,0.2274993360042572,0.9191983938217163,0.8955614566802979,2.2137131690979004,3.301854372024536,3.6419034004211426,5.134934425354004,7.7685651779174805,-0.017444007098674774,-0.03272707387804985,-0.04796433448791504,5.495214462280273,-37.75641632080078,-7.58614444732666,-0.10628247261047363,-0.15630245208740234,-0.05959939956665039,3.748185873031616,5.291236877441406,7.828164577484131
