session_id,timestamp,label,quaternion_w,quaternion_x,quaternion_y,quaternion_z,position_x,position_y,position_z,accelerometer_x,accelerometer_y,accelerometer_z,gyroscope_x,gyroscope_y,gyroscope_z,magnetometer_x,magnetometer_y,magnetometer_z,linear_acceleration_x,linear_acceleration_y,linear_acceleration_z,gravity_x,gravity_y,gravity_z
4_20251106_214321,1762436564740,4,0.4125795066356659,0.39963021874427795,0.681793212890625,0.453025221824646,-0.4052433669567108,3.0064280033111572,2.7385501861572266,-2.103933572769165,4.684844017028809,-1.1805757284164429,0.7323962450027466,0.5202353000640869,-0.4101574718952179,34.1376838684082,-3.9374542236328125,16.517253875732422,0.5659024715423584,0.029158592224121094,-0.15204238891601562,-2.6698360443115234,4.6556854248046875,-1.0285333395004272
4_20251106_214321,1762436564759,4,0.408005028963089,0.3972182273864746,0.6889301538467407,0.4484694004058838,-0.41886118054389954,2.960846424102783,2.635084629058838,-2.38643741607666,4.961362361907959,-0.9016632437705994,0.7323962450027466,0.5202353000640869,-0.4101574718952179,34.1376838684082,-3.9374542236328125,16.517253875732422,0.22671890258789062,0.24454164505004883,0.10149604082107544,-2.613156318664551,4.71682071685791,-1.0031592845916748
4_20251106_214321,1762436564776,4,0.40270891785621643,0.392124742269516,0.6977997422218323,0.4440036118030548,-0.43017202615737915,2.9249813556671143,2.5517773628234863,-2.7563257217407227,5.145708084106445,-0.8932838439941406,0.8234151005744934,0.7853505611419678,-0.7131463289260864,34.171897888183594,-3.477569580078125,17.081676483154297,-0.11453533172607422,0.3431100845336914,0.08790034055709839,-2.6417903900146484,4.802597999572754,-0.981184184551239
4_20251106_214321,1762436564795,4,0.39738115668296814,0.386543333530426,0.7071509957313538,0.4388734996318817,-0.4432642161846161,2.8887455463409424,2.4627842903137207,-3.036435127258301,5.474896430969238,-1.1781816482543945,0.864953875541687,0.6912773847579956,-0.5934168696403503,34.1551399230957,-3.070281982421875,17.561988830566406,-0.3157157897949219,0.5378389358520508,-0.15759801864624023,-2.720719337463379,4.9370574951171875,-1.0205836296081543
4_20251106_214321,1762436564815,4,0.3920407295227051,0.38219669461250305,0.715761125087738,0.4334925413131714,-0.4432642161846161,2.8887455463409424,2.4627842903137207,-3.036435127258301,5.474896430969238,-1.1781816482543945,0.8680081963539124,0.538561224937439,-0.3576231300830841,34.16366958618164,-2.6369705200195312,18.11138916015625,-0.3157157897949219,0.5378389358520508,-0.15759801864624023,-2.720719337463379,4.9370574951171875,-1.0205836296081543
4_20251106_214321,1762436564835,4,0.3865576684474945,0.37973231077194214,0.7230320572853088,0.42848703265190125,-0.47087040543556213,2.8225672245025635,2.2812585830688477,-2.6976702213287354,5.545522689819336,-2.363260269165039,0.8680081963539124,0.538561224937439,-0.3576231300830841,34.138065338134766,-2.1563491821289062,18.714439392089844,0.07316756248474121,0.4030160903930664,-0.9619719982147217,-2.7708377838134766,5.1425065994262695,-1.4012882709503174
4_20251106_214321,1762436564853,4,0.38123008608818054,0.379157692193985,0.7286620736122131,0.4242105782032013,-0.47087040543556213,2.8225672245025635,2.2812585830688477,-2.6976702213287354,5.545522689819336,-2.363260269165039,0.6548163890838623,0.27039164304733276,-0.013095412403345108,34.134422302246094,-1.71221923828125,19.358226776123047,0.07316756248474121,0.4030160903930664,-0.9619719982147217,-2.7708377838134766,5.1425065994262695,-1.4012882709503174
4_20251106_214321,1762436564872,4,0.3771840035915375,0.38016265630722046,0.7324303388595581,0.42042168974876404,-0.4883321225643158,2.774014711380005,2.1175317764282227,-1.7615774869918823,6.029130458831787,-2.710404872894287,0.5002676844596863,0.1708206832408905,-0.07112756371498108,34.02464294433594,-1.200836181640625,20.093795776367188,0.7120038270950317,0.604978084564209,-0.8414735794067383,-2.473581314086914,5.424152374267578,-1.8689312934875488
4_20251106_214321,1762436564894,4,0.374112606048584,0.3799876272678375,0.7357448935508728,0.41752684116363525,-0.4943162202835083,2.751887321472168,2.025787591934204,-1.9052233695983887,6.1033477783203125,-3.1449337005615234,0.413524866104126,0.08713221549987793,-0.1835266798734665,33.89287567138672,-0.6761932373046875,20.598873138427734,0.45468640327453613,0.5433559417724609,-1.0208020210266113,-2.359909772872925,5.559991836547852,-2.124131679534912
4_20251106_214321,1762436564910,4,0.3722573220729828,0.3789604902267456,0.7388288974761963,0.4146628677845001,-0.4943162202835083,2.751887321472168,2.025787591934204,-1.9052233695983887,6.1033477783203125,-3.1449337005615234,0.23026546835899353,0.0242131520062685,-0.2195677012205124,33.78609848022461,-0.1259307861328125,21.21358871459961,0.45468640327453613,0.5433559417724609,-1.0208020210266113,-2.359909772872925,5.559991836547852,-2.124131679534912
4_20251106_214321,1762436564931,4,0.37169551849365234,0.37740740180015564,0.7410587072372437,0.41259923577308655,-0.4989413022994995,2.735206365585327,1.9431617259979248,-2.170968532562256,6.412186145782471,-3.498063087463379,0.04211912304162979,0.06697367876768112,-0.16153554618358612,33.68605422973633,0.313323974609375,21.70477294921875,0.1511530876159668,0.6817550659179688,-1.0991451740264893,-2.3221216201782227,5.730431079864502,-2.3989179134368896
4_20251106_214321,1762436564948,4,0.3712250292301178,0.375314325094223,0.7425636649131775,0.4122261106967926,-0.5080200433731079,2.7122058868408203,1.7914023399353027,-2.5360684394836426,6.700675010681152,-3.168874740600586,0.04211912304162979,0.06697367876768112,-0.16153554618358612,33.68187713623047,0.7219390869140625,22.131507873535156,-0.15416336059570312,0.6326389312744141,-0.4701719284057617,-2.3819050788879395,6.068036079406738,-2.698702812194824
4_20251106_214321,1762436564968,4,0.37031233310699463,0.3734578490257263,0.7437599897384644,0.41257619857788086,-0.5129968523979187,2.704489231109619,1.7107919454574585,-2.4079842567443848,7.068169593811035,-3.403496265411377,0.03173442184925079,0.13050362467765808,-0.001488981768488884,33.612937927246094,1.0517807006835938,22.500141143798828,-0.02086329460144043,0.8001070022583008,-0.5638346672058105,-2.3871209621429443,6.268062591552734,-2.8396615982055664
4_20251106_214321,1762436564986,4,0.3689004182815552,0.37214094400405884,0.7448294758796692,0.41310128569602966,-0.5129968523979187,2.704489231109619,1.7107919454574585,-2.4079842567443848,7.068169593811035,-3.403496265411377,0.03173442184925079,0.13050362467765808,-0.001488981768488884,33.551422119140625,1.2715606689453125,22.65062713623047,-0.02086329460144043,0.8001070022583008,-0.5638346672058105,-2.3871209621429443,6.268062591552734,-2.8396615982055664
4_20251106_214321,1762436565006,4,0.36726054549217224,0.371137410402298,0.7456279993057251,0.4140237271785736,-0.5204747319221497,2.6996777057647705,1.5607221126556396,-2.1889240741729736,7.591279983520508,-3.990050792694092,0.007299832999706268,0.14088831841945648,0.05226711183786392,33.501190185546875,1.47930908203125,22.828372955322266,0.13354945182800293,0.8866968154907227,-0.7592325210571289,-2.3224735260009766,6.704583168029785,-3.230818271636963
4_20251106_214321,1762436565027,4,0.36623236536979675,0.37034448981285095,0.7455464005470276,0.4157876968383789,-0.5236913561820984,2.7026407718658447,1.4852545261383057,-2.260747194290161,7.938424110412598,-3.6010093688964844,-0.286526083946228,0.03581957891583443,0.1567249596118927,33.44429016113281,1.5504074096679688,22.854537963867188,0.04938101768493652,0.9870729446411133,-0.29615306854248047,-2.3101282119750977,6.951351165771484,-3.304856300354004
4_20251106_214321,1762436565044,4,0.36589547991752625,0.3696078658103943,0.7444307208061218,0.4187283217906952,-0.525966227054596,2.708338737487793,1.420593023300171,-2.1171014308929443,8.236490249633789,-3.3604025840759277,-0.3641059100627899,0.026656609028577805,0.2288070023059845,33.38801193237305,1.6455459594726562,22.989360809326172,0.15442132949829102,1.028111457824707,-0.04443693161010742,-2.2715227603912354,7.208378791809082,-3.3159656524658203
4_20251106_214321,1762436565063,4,0.3656633794307709,0.36912065744400024,0.7426542043685913,0.422498494386673,-0.5275018811225891,2.7173986434936523,1.3561817407608032,-1.9997903108596802,8.428017616271973,-3.1592981815338135,-0.3390604555606842,-0.038705915212631226,0.2642371654510498,33.33423614501953,1.5543365478515625,22.999069213867188,0.2173858880996704,0.9757108688354492,0.1253340244293213,-2.2171761989593506,7.452306747436523,-3.2846322059631348
4_20251106_214321,1762436565083,4,0.36562347412109375,0.36917683482170105,0.7406020760536194,0.42607101798057556,-0.5282527208328247,2.7296972274780273,1.2954367399215698,-1.9590907096862793,8.797904968261719,-3.12218976020813,-0.26453495025634766,-0.05947531759738922,0.2642371654510498,33.24137878417969,1.410919189453125,22.9656982421875,0.2064683437347412,1.0764789581298828,0.12995409965515137,-2.1655590534210205,7.721426010131836,-3.2521438598632812
4_20251106_214321,1762436565101,4,0.36549222469329834,0.36962780356407166,0.738714337348938,0.42905929684638977,-0.5281105041503906,2.744856595993042,1.2377078533172607,-1.8537503480911255,8.988237380981445,-3.259850263595581,-0.19184206426143646,0.023602286353707314,0.23980256915092468,33.18417739868164,1.2570571899414062,22.960567474365234,0.24944698810577393,1.0134491920471191,-0.006165266036987305,-2.1031973361968994,7.974788188934326,-3.2536849975585938
4_20251106_214321,1762436565121,4,0.36460748314857483,0.36981090903282166,0.7374777793884277,0.4317728281021118,-0.5266112089157104,2.7626395225524902,1.1823755502700806,-1.6059612035751343,9.207296371459961,-3.432225465774536,-0.185122549533844,0.12378410249948502,0.17871609330177307,33.0758056640625,1.0503311157226562,22.898353576660156,0.3977888822555542,0.9860067367553711,-0.14283251762390137,-2.0037500858306885,8.22128963470459,-3.2893929481506348
4_20251106_214321,1762436565140,4,0.36322587728500366,0.3692237436771393,0.7368179559707642,0.43455737829208374,-0.5235205292701721,2.7839367389678955,1.1267036199569702,-1.4802709817886353,9.377277374267578,-3.401102304458618,-0.2413221001625061,0.17204242944717407,0.07303650677204132,32.97610855102539,0.7932281494140625,22.930191040039062,0.4187833070755005,0.9247903823852539,-0.08936762809753418,-1.8990542888641357,8.452486991882324,-3.311734676361084
4_20251106_214321,1762436565160,4,0.3621157109737396,0.36760905385017395,0.7364231944084167,0.43751195073127747,-0.5199270248413086,2.805661916732788,1.076776146888733,-1.6059612035751343,9.365306854248047,-3.196406841278076,-0.24498729407787323,0.1500512957572937,-0.0289778932929039,32.94992446899414,0.5414276123046875,22.910903930664062,0.2344745397567749,0.7302560806274414,0.09226226806640625,-1.8404357433319092,8.635050773620605,-3.2886691093444824
4_20251106_214321,1762436565179,4,0.36154884099960327,0.3653292953968048,0.7362923622131348,0.44010287523269653,-0.5199270248413086,2.805661916732788,1.076776146888733,-1.6059612035751343,9.365306854248047,-3.196406841278076,-0.19672897458076477,0.10729075223207474,-0.07662534713745117,32.94992446899414,0.5414276123046875,22.910903930664062,0.2344745397567749,0.7302560806274414,0.09226226806640625,-1.8404357433319092,8.635050773620605,-3.2886691093444824
4_20251106_214321,1762436565198,4,0.36139532923698425,0.3631092309951782,0.7363238334655762,0.4420093894004822,-0.5126872062683105,2.8537070751190186,0.9825950264930725,-1.8429769277572632,9.464662551879883,-3.228727340698242,-0.18023563921451569,0.07980184257030487,-0.0851774513721466,32.951141357421875,0.35332489013671875,22.961502075195312,-0.01350104808807373,0.5315265655517578,0.025530576705932617,-1.8294758796691895,8.933135986328125,-3.254257917404175
4_20251106_214321,1762436565216,4,0.36141544580459595,0.36094245314598083,0.7363723516464233,0.44368359446525574,-0.5100414156913757,2.8761191368103027,0.9430787563323975,-1.9997903108596802,9.367700576782227,-3.010864019393921,-0.18023563921451569,0.07980184257030487,-0.0851774513721466,32.975521087646484,0.1419677734375,22.985519409179688,-0.1362515687942505,0.34765148162841797,0.19471526145935059,-1.8635387420654297,9.020049095153809,-3.2055792808532715
4_20251106_214321,1762436565235,4,0.36162421107292175,0.35858970880508423,0.73652583360672,0.4451640546321869,-0.5083368420600891,2.8993141651153564,0.9043350219726562,-2.2092740535736084,9.282711029052734,-2.883976936340332,-0.10815360397100449,0.11828631162643433,-0.15848122537136078,32.93061447143555,0.00064849853515625,23.062240600585938,-0.27658820152282715,0.2101297378540039,0.2572817802429199,-1.9326858520507812,9.07258129119873,-3.141258716583252
4_20251106_214321,1762436565254,4,0.3614528179168701,0.3559231162071228,0.7372728586196899,0.4462054669857025,-0.5083368420600891,2.8993141651153564,0.9043350219726562,-2.2092740535736084,9.282711029052734,-2.883976936340332,-0.024465132504701614,0.17876192927360535,-0.17741802334785461,32.927188873291016,-0.06200408935546875,23.047405242919922,-0.27658820152282715,0.2101297378540039,0.2572817802429199,-1.9326858520507812,9.07258129119873,-3.141258716583252
4_20251106_214321,1762436565273,4,0.36076146364212036,0.35322850942611694,0.738587498664856,0.4467317759990692,-0.5078038573265076,2.9425930976867676,0.8314713835716248,-2.2727177143096924,9.003798484802246,-3.513624668121338,-0.024465132504701614,0.17876192927360535,-0.17741802334785461,32.814090728759766,-0.131805419921875,23.028156280517578,-0.21704602241516113,-0.06508922576904297,-0.2955811023712158,-2.0556716918945312,9.068887710571289,-3.218043565750122
4_20251106_214321,1762436565292,4,0.36005809903144836,0.35054272413253784,0.7398678064346313,0.4472959041595459,-0.5078038573265076,2.9425930976867676,0.8314713835716248,-2.2727177143096924,9.003798484802246,-3.513624668121338,-0.03607156127691269,0.17937278747558594,-0.17192025482654572,32.811580657958984,-0.170013427734375,23.08142852783203,-0.21704602241516113,-0.06508922576904297,-0.2955811023712158,-2.0556716918945312,9.068887710571289,-3.218043565750122
4_20251106_214321,1762436565311,4,0.3603200316429138,0.34852999448776245,0.7402822971343994,0.4479714334011078,-0.5088686943054199,2.962524175643921,0.7947853803634644,-2.3672847747802734,8.745235443115234,-3.4717280864715576,-0.16129884123802185,0.0730823278427124,-0.13954442739486694,32.84946060180664,-0.13104248046875,23.191822052001953,-0.24929046630859375,-0.25892162322998047,-0.20294737815856934,-2.1179943084716797,9.004157066345215,-3.2687807083129883
4_20251106_214321,1762436565331,4,0.3606591820716858,0.3461877107620239,0.7405690550804138,0.4490395486354828,-0.5113295316696167,2.9801185131073,0.7602519392967224,-2.59472393989563,8.563283920288086,-3.16408634185791,-0.13197731971740723,0.09324086457490921,-0.11449895799160004,32.79166030883789,-0.0727691650390625,23.244754791259766,-0.38138365745544434,-0.35269832611083984,0.0837554931640625,-2.2133402824401855,8.915982246398926,-3.2478418350219727
4_20251106_214321,1762436565350,4,0.36063775420188904,0.3438573181629181,0.7410090565681458,0.4501201808452606,-0.5153034925460815,2.9951531887054443,0.7280272841453552,-2.751537322998047,8.36337661743164,-3.056351900100708,-0.10143408924341202,0.13050362467765808,-0.09006436169147491,32.78179931640625,-0.02400970458984375,23.31290054321289,-0.4305577278137207,-0.44208431243896484,0.15319204330444336,-2.320979595184326,8.805460929870605,-3.2095439434051514
4_20251106_214321,1762436565370,4,0.3602255582809448,0.3416915833950043,0.7415944337844849,0.45113426446914673,-0.5251413583755493,3.01566219329834,0.6727291345596313,-2.684502601623535,7.892936706542969,-3.3592052459716797,-0.0867733284831047,0.1555490791797638,-0.09922733902931213,32.746551513671875,-0.00141143798828125,23.32547378540039,-0.2186732292175293,-0.6274929046630859,-0.13083267211914062,-2.465829372406006,8.520429611206055,-3.228372573852539
4_20251106_214321,1762436565389,4,0.35961392521858215,0.3394004702568054,0.7423776984214783,0.4520625174045563,-0.5251413583755493,3.01566219329834,0.6727291345596313,-2.684502601623535,7.892936706542969,-3.3592052459716797,-0.12709039449691772,0.17754019796848297,-0.14931824803352356,32.71181106567383,0.03347015380859375,23.365341186523438,-0.2186732292175293,-0.6274929046630859,-0.13083267211914062,-2.465829372406006,8.520429611206055,-3.228372573852539
4_20251106_214321,1762436565408,4,0.3592018783092499,0.33663421869277954,0.7432144284248352,0.45308247208595276,-0.5365535616874695,3.0261495113372803,0.6207947134971619,-2.8054046630859375,7.580506324768066,-3.4585607051849365,-0.18878774344921112,0.26183950901031494,-0.22262203693389893,32.70265579223633,0.09478759765625,23.433753967285156,-0.2368640899658203,-0.6239595413208008,-0.15095925331115723,-2.568540573120117,8.204465866088867,-3.3076014518737793
4_20251106_214321,1762436565426,4,0.3586564064025879,0.33272257447242737,0.7443404197692871,0.45455315709114075,-0.5430338382720947,3.0281336307525635,0.5964798331260681,-2.970597267150879,7.483545303344727,-3.610585927963257,-0.18878774344921112,0.26183950901031494,-0.22262203693389893,32.66823959350586,0.1533050537109375,23.62282943725586,-0.32164525985717773,-0.5767364501953125,-0.2423875331878662,-2.648952007293701,8.060281753540039,-3.3681983947753906
4_20251106_214321,1762436565445,4,0.3579599857330322,0.3278588354587555,0.7456197738647461,0.4565351903438568,-0.5513941645622253,3.0281107425689697,0.5700081586837769,-3.1489577293395996,7.363840579986572,-3.6333296298980713,-0.35799723863601685,0.3925645649433136,-0.26721513271331787,32.56462478637695,0.27037811279296875,23.75621795654297,-0.40000462532043457,-0.5571532249450684,-0.21210503578186035,-2.748953104019165,7.920993804931641,-3.421224594116211
4_20251106_214321,1762436565465,4,0.3571961522102356,0.3224341869354248,0.746609628200531,0.4593704342842102,-0.5513941645622253,3.0281107425689697,0.5700081586837769,-3.1489577293395996,7.363840579986572,-3.6333296298980713,-0.47467240691185,0.391953706741333,-0.20796126127243042,32.48154830932617,0.314239501953125,23.834938049316406,-0.40000462532043457,-0.5571532249450684,-0.21210503578186035,-2.748953104019165,7.920993804931641,-3.421224594116211
4_20251106_214321,1762436565483,4,0.3565775156021118,0.3170692026615143,0.7468671798706055,0.46315112709999084,-0.570389986038208,3.0218827724456787,0.5241203308105469,-3.351259231567383,6.962828636169434,-3.0826869010925293,-0.5754650831222534,0.36996257305145264,-0.16153556108474731,32.33806228637695,0.37802886962890625,24.03337860107422,-0.3981168270111084,-0.6478924751281738,0.26454615592956543,-2.9531424045562744,7.610721111297607,-3.3472330570220947
4_20251106_214321,1762436565503,4,0.35623595118522644,0.31174588203430176,0.7464211583137512,0.46772414445877075,-0.5811964273452759,3.0158121585845947,0.5046552419662476,-3.4649786949157715,6.82756233215332,-2.8887650966644287,-0.6451036930084229,0.35530179738998413,-0.1474856734275818,32.24210739135742,0.4201507568359375,24.206222534179688,-0.4094688892364502,-0.6265268325805664,0.3667745590209961,-3.0555098056793213,7.454089164733887,-3.255539655685425
4_20251106_214321,1762436565521,4,0.3561144173145294,0.3062388300895691,0.7455485463142395,0.47281888127326965,-0.5811964273452759,3.0158121585845947,0.5046552419662476,-3.4649786949157715,6.82756233215332,-2.8887650966644287,-0.6787012815475464,0.38034725189208984,-0.14565306901931763,32.107791900634766,0.434234619140625,24.431133270263672,-0.4094688892364502,-0.6265268325805664,0.3667745590209961,-3.0555098056793213,7.454089164733887,-3.255539655685425
4_20251106_214321,1762436565541,4,0.35594838857650757,0.3005372881889343,0.7445323467254639,0.47817325592041016,-0.6057335734367371,2.9996471405029297,0.4710192382335663,-3.7833938598632812,6.697084426879883,-2.9557998180389404,-0.7141314148902893,0.46220314502716064,-0.13954442739486694,31.97256088256836,0.42388153076171875,24.587932586669922,-0.49840545654296875,-0.5111055374145508,0.1858961582183838,-3.2849884033203125,7.208189964294434,-3.141695976257324
4_20251106_214321,1762436565559,4,0.3552568256855011,0.29436570405960083,0.7435792088508606,0.4839745759963989,-0.6198230385780334,2.9893088340759277,0.45647603273391724,-3.9844982624053955,6.473236083984375,-2.8887650966644287,-0.7911003828048706,0.5611632466316223,-0.11694242060184479,31.759601593017578,0.34449005126953125,24.889148712158203,-0.559607982635498,-0.5879631042480469,0.2023448944091797,-3.4248902797698975,7.061199188232422,-3.0911099910736084
4_20251106_214321,1762436565580,4,0.35398197174072266,0.287619024515152,0.7425039410591125,0.4905710518360138,-0.6367132067680359,2.9763145446777344,0.44223690032958984,-4.050335884094238,6.422959327697754,-2.7834248542785645,-0.9328210353851318,0.6845579147338867,-0.06562978029251099,31.60674285888672,0.233154296875,25.016315460205078,-0.5003564357757568,-0.510591983795166,0.24614810943603516,-3.5499794483184814,6.93355131149292,-3.0295729637145996
4_20251106_214321,1762436565600,4,0.3519374430179596,0.28006598353385925,0.7410041093826294,0.49861404299736023,-0.6367132067680359,2.9763145446777344,0.44223690032958984,-4.050335884094238,6.422959327697754,-2.7834248542785645,-0.9328210353851318,0.6845579147338867,-0.06562978029251099,31.395889282226562,-0.0331268310546875,25.246482849121094,-0.5003564357757568,-0.510591983795166,0.24614810943603516,-3.5499794483184814,6.93355131149292,-3.0295729637145996
4_20251106_214321,1762436565618,4,0.34953081607818604,0.2723410725593567,0.7384423017501831,0.5082927346229553,-0.6679088473320007,2.950934410095215,0.4227394461631775,-3.818108558654785,6.486402988433838,-2.317772388458252,-1.1154695749282837,0.7438117861747742,0.02966511994600296,31.395889282226562,-0.0331268310546875,25.246482849121094,-0.14976835250854492,-0.2831101417541504,0.48581361770629883,-3.6683402061462402,6.769513130187988,-2.803586006164551
4_20251106_214321,1762436565637,4,0.34731802344322205,0.2649233639240265,0.7344746589660645,0.5193580389022827,-0.6821408867835999,2.9387619495391846,0.417070209980011,-3.8133201599121094,6.512738227844238,-1.9514756202697754,-1.3897478580474854,0.6356887221336365,0.17505091428756714,31.108295440673828,-0.36708831787109375,25.485904693603516,-0.11598396301269531,-0.20542001724243164,0.6816883087158203,-3.697336196899414,6.71815824508667,-2.6331639289855957
4_20251106_214321,1762436565657,4,0.3454549014568329,0.25768953561782837,0.7295471429824829,0.5310536623001099,-0.6977381706237793,2.9253251552581787,0.41349315643310547,-3.8863401412963867,6.5247087478637695,-1.841347098350525,-1.4569429159164429,0.6955534815788269,0.15305978059768677,30.87779998779297,-0.771881103515625,25.67212677001953,-0.15120315551757812,-0.15475940704345703,0.6334534883499146,-3.7351369857788086,6.679468154907227,-2.4748005867004395
4_20251106_214321,1762436565677,4,0.34341853857040405,0.24974559247493744,0.7243218421936035,0.5431838631629944,-0.7134956121444702,2.911893129348755,0.41244277358055115,-4.044350624084473,6.4600677490234375,-1.7024891376495361,-1.4569429159164429,0.6955534815788269,0.15305978059768677,30.497955322265625,-1.2368392944335938,25.89196014404297,-0.24737095832824707,-0.1755204200744629,0.6178491115570068,-3.7969796657562256,6.6355881690979,-2.320338249206543
4_20251106_214321,1762436565694,4,0.3412182033061981,0.2404688149690628,0.7187915444374084,0.5559529066085815,-0.727302074432373,2.901050329208374,0.41411900520324707,-4.289746284484863,6.637231349945068,-1.17099928855896,-1.7813119888305664,0.8525457382202148,0.0431041419506073,30.101398468017578,-1.7783355712890625,26.150264739990234,-0.3942131996154785,0.0013146400451660156,0.919471263885498,-3.8955330848693848,6.635916709899902,-2.090470552444458
4_20251106_214321,1762436565712,4,0.3391767144203186,0.22963133454322815,0.7122708559036255,0.5699989795684814,-0.743381142616272,2.890756607055664,0.4207138121128082,-4.413042068481445,7.080140113830566,-0.33545881509780884,-1.7813119888305664,0.8525457382202148,0.0431041419506073,29.714405059814453,-2.3690032958984375,26.38097381591797,-0.41400718688964844,0.3553786277770996,1.4040093421936035,-3.999034881591797,6.724761486053467,-1.7394682168960571
4_20251106_214321,1762436565732,4,0.3372232913970947,0.2175876796245575,0.7047297358512878,0.5850573182106018,-0.743381142616272,2.890756607055664,0.4207138121128082,-4.413042068481445,7.080140113830566,-0.33545881509780884,-2.034209966659546,1.0675700902938843,-0.06379719078540802,29.297290802001953,-3.0734634399414062,26.52722930908203,-0.41400718688964844,0.3553786277770996,1.4040093421936035,-3.999034881591797,6.724761486053467,-1.7394682168960571
4_20251106_214321,1762436565750,4,0.33473989367485046,0.20382757484912872,0.6969643235206604,0.6005366444587708,-0.7774549722671509,2.879622459411621,0.45010119676589966,-4.627313613891602,8.041370391845703,1.0196011066436768,-2.0549795627593994,1.2734315395355225,-0.19757656753063202,28.839797973632812,-3.8434906005859375,26.71124267578125,-0.4218258857727051,0.9037270545959473,1.8847432136535645,-4.2054877281188965,7.137643337249756,-0.8651421070098877
4_20251106_214321,1762436565770,4,0.33153921365737915,0.18783101439476013,0.6895619034767151,0.6158779263496399,-0.7959363460540771,2.878619909286499,0.4749065935611725,-4.609358310699463,8.077281951904297,1.5451056957244873,-1.9890060424804688,1.6674392223358154,-0.3735055923461914,28.316129684448242,-4.7174072265625,26.836624145507812,-0.32309675216674805,0.7517108917236328,1.9281983375549316,-4.286261558532715,7.325571060180664,-0.38309258222579956
4_20251106_214321,1762436565790,4,0.3265177011489868,0.16846753656864166,0.6835964322090149,0.6306352019309998,-0.8147196769714355,2.8794140815734863,0.5046937465667725,-4.6895599365234375,7.900118827819824,1.6636135578155518,-1.9890060424804688,1.6674392223358154,-0.3735055923461914,27.708965301513672,-5.571235656738281,26.90503692626953,-0.32263898849487305,0.4596381187438965,1.6373648643493652,-4.3669209480285645,7.440480709075928,0.026248633861541748
4_20251106_214321,1762436565810,4,0.32032322883605957,0.14630325138568878,0.6789510846138,0.6442157030105591,-0.8147196769714355,2.8794140815734863,0.5046937465667725,-4.6895599365234375,7.900118827819824,1.6636135578155518,-1.8839373588562012,1.9588217735290527,-0.5653170943260193,27.02879524230957,-6.418083190917969,27.051868438720703,-0.32263898849487305,0.4596381187438965,1.6373648643493652,-4.3669209480285645,7.440480709075928,0.026248633861541748
4_20251106_214321,1762436565828,4,0.3141101896762848,0.12243841588497162,0.6742067933082581,0.6571063995361328,-0.8488543629646301,2.8889951705932617,0.5757781863212585,-4.088641166687012,8.995418548583984,3.043811559677124,-1.9108154773712158,2.294186592102051,-0.857921302318573,26.364336013793945,-7.201347351074219,27.200511932373047,0.26926660537719727,1.1050972938537598,2.0674166679382324,-4.357907772064209,7.890321254730225,0.9763948917388916
4_20251106_214321,1762436565846,4,0.30711299180984497,0.09614886343479156,0.6696176528930664,0.6693648099899292,-0.8488543629646301,2.8889951705932617,0.5757781863212585,-4.088641166687012,8.995418548583984,3.043811559677124,-1.7727599143981934,2.490273952484131,-1.037515640258789,25.506223678588867,-7.960723876953125,27.45022964477539,0.26926660537719727,1.1050972938537598,2.0674166679382324,-4.357907772064209,7.890321254730225,0.9763948917388916
4_20251106_214321,1762436565865,4,0.29961448907852173,0.06807650625705719,0.6658626198768616,0.6798703670501709,-0.8630292415618896,2.89988374710083,0.6212603449821472,-3.7187533378601074,9.310243606567383,3.3969411849975586,-1.6854063272476196,2.2495932579040527,-1.0668370723724365,24.576616287231445,-8.687873840332031,27.765377044677734,0.5113234519958496,1.1359376907348633,1.9364370107650757,-4.230076789855957,8.17430591583252,1.460504174232483
4_20251106_214321,1762436565885,4,0.29329755902290344,0.04161682352423668,0.661371111869812,0.6890811920166016,-0.8748417496681213,2.912479877471924,0.6645415425300598,-4.105400085449219,9.508953094482422,3.2449159622192383,-1.7837555408477783,1.8806309700012207,-0.7504090666770935,23.614778518676758,-9.341926574707031,28.067119598388672,0.09974145889282227,1.0677175521850586,1.4275293350219727,-4.205141544342041,8.441235542297363,1.8173866271972656
4_20251106_214321,1762436565904,4,0.2870849370956421,0.01933114230632782,0.6546502709388733,0.6990290284156799,-0.8982411623001099,2.9491260051727295,0.7596191167831421,-3.9868922233581543,10.635376930236816,4.203752517700195,-2.0189385414123535,1.5745878219604492,-0.24278053641319275,22.594942092895508,-9.937973022460938,28.448829650878906,0.2170567512512207,1.5086336135864258,1.6793475151062012,-4.203948974609375,9.12674331665039,2.524405002593994
4_20251106_214321,1762436565924,4,0.2793025076389313,0.001662456663325429,0.6450777649879456,0.711239755153656,-0.9071277976036072,2.9762814044952393,0.8187419176101685,-3.4051263332366943,11.197990417480469,5.418757438659668,-2.1307265758514404,1.276485800743103,0.15367063879966736,21.587377548217773,-10.544708251953125,28.722633361816406,0.6390578746795654,1.6569976806640625,2.3154819011688232,-4.04418420791626,9.540992736816406,3.1032755374908447
4_20251106_214321,1762436565942,4,0.27047768235206604,-0.01164329331368208,0.6334604620933533,0.7248682975769043,-0.9071277976036072,2.9762814044952393,0.8187419176101685,-3.4051263332366943,11.197990417480469,5.418757438659668,-2.0189383029937744,0.9747186899185181,0.41206642985343933,20.597518920898438,-11.2864990234375,28.845836639404297,0.6390578746795654,1.6569976806640625,2.3154819011688232,-4.04418420791626,9.540992736816406,3.1032755374908447
4_20251106_214321,1762436565961,4,0.2614738345146179,-0.0208733007311821,0.6213833689689636,0.738294243812561,-0.9152008295059204,3.0379507541656494,0.9443771243095398,-2.797025203704834,11.742647171020508,6.542786598205566,-1.7092300653457642,0.8806455135345459,0.5879954695701599,19.652767181396484,-12.099647521972656,28.888320922851562,0.8569810390472412,1.4383621215820312,2.2275266647338867,-3.654006242752075,10.304285049438477,4.31525993347168
4_20251106_214321,1762436565980,4,0.25173649191856384,-0.02754947543144226,0.6109098196029663,0.7501059770584106,-0.9134868383407593,3.0763978958129883,1.0172244310379028,-2.2427914142608643,12.0191650390625,6.39914083480835,-1.405630350112915,0.9417319297790527,0.6093757748603821,18.668132781982422,-12.977691650390625,28.900981903076172,1.128972053527832,1.3719043731689453,1.667104721069336,-3.3717634677886963,10.647260665893555,4.732036113739014
4_20251106_214321,1762436566000,4,0.2414974719285965,-0.03368217125535011,0.6025792956352234,0.7598965167999268,-0.9134868383407593,3.0763978958129883,1.0172244310379028,-2.2427914142608643,12.0191650390625,6.39914083480835,-1.1111934185028076,0.9948772192001343,0.4853701889514923,17.802400588989258,-13.932998657226562,28.646373748779297,1.128972053527832,1.3719043731689453,1.667104721069336,-3.3717634677886963,10.647260665893555,4.732036113739014
4_20251106_214321,1762436566019,4,0.2318374067544937,-0.04007604345679283,0.5963850021362305,0.7674439549446106,-0.9002251625061035,3.154691696166992,1.1569687128067017,-2.2643380165100098,11.594213485717773,5.401998519897461,-0.8961690664291382,0.9734969139099121,0.37602540850639343,16.958715438842773,-14.936271667480469,28.324108123779297,0.6731281280517578,0.5748300552368164,0.35676145553588867,-2.9374661445617676,11.019383430480957,5.045237064361572
4_20251106_214321,1762436566039,4,0.22308342158794403,-0.04645682871341705,0.5916763544082642,0.7733011245727539,-0.8904978036880493,3.1941347122192383,1.2253477573394775,-2.200894832611084,11.454158782958984,5.5504326820373535,-0.821643590927124,0.9301254749298096,0.3473147749900818,16.115734100341797,-15.926986694335938,28.002105712890625,0.589257001876831,0.3478202819824219,0.4041566848754883,-2.790151834487915,11.106338500976562,5.146275997161865
4_20251106_214321,1762436566056,4,0.21478573977947235,-0.052595239132642746,0.5874161720275879,0.7784876823425293,-0.8904978036880493,3.1941347122192383,1.2253477573394775,-2.200894832611084,11.454158782958984,5.5504326820373535,-0.7129096984863281,0.9337906837463379,0.2801196575164795,16.115734100341797,-15.926986694335938,28.002105712890625,0.589257001876831,0.3478202819824219,0.4041566848754883,-2.790151834487915,11.106338500976562,5.146275997161865
4_20251106_214321,1762436566076,4,0.2069871872663498,-0.058910027146339417,0.5838351845741272,0.782829761505127,-0.8681648373603821,3.263759136199951,1.3457924127578735,-1.949514389038086,11.407474517822266,5.530082702636719,-0.5882933139801025,0.9875468015670776,0.1561141014099121,15.35904312133789,-16.910789489746094,27.54837417602539,0.54949951171875,0.19502544403076172,0.2230358123779297,-2.499013900756836,11.212449073791504,5.307046890258789
4_20251106_214321,1762436566095,4,0.19993528723716736,-0.06595636904239655,0.5811418890953064,0.7860978245735168,-0.8558728694915771,3.2965760231018066,1.4027178287506104,-2.216456413269043,10.987308502197266,5.04168701171875,-0.5882933139801025,0.9875468015670776,0.1561141014099121,14.53961181640625,-17.711273193359375,27.122692108154297,0.22604608535766602,-0.1801128387451172,-0.21228790283203125,-2.442502498626709,11.167421340942383,5.253974914550781
4_20251106_214321,1762436566114,4,0.19354067742824554,-0.07332195341587067,0.579230010509491,0.788453221321106,-0.8444948792457581,3.3264598846435547,1.4552457332611084,-2.5516300201416016,10.696426391601562,4.688557147979736,-0.47039636969566345,0.9832707643508911,0.06143008545041084,13.77499771118164,-18.37274169921875,26.931652069091797,-0.08730196952819824,-0.37679576873779297,-0.452333927154541,-2.4643280506134033,11.073222160339355,5.140891075134277
4_20251106_214321,1762436566133,4,0.1877497285604477,-0.07947931438684464,0.5776137113571167,0.7904400825500488,-0.8338169455528259,3.3534610271453857,1.5038142204284668,-2.51212739944458,10.567144393920898,4.6550397872924805,-0.4007577896118164,0.8427718877792358,0.08647553622722626,13.063653945922852,-18.955291748046875,26.703609466552734,-0.038239479064941406,-0.4048624038696289,-0.38868093490600586,-2.4738879203796387,10.972006797790527,5.043720722198486
4_20251106_214321,1762436566152,4,0.18185704946517944,-0.08428075164556503,0.5760606527328491,0.7924512028694153,-0.8235840201377869,3.3777945041656494,1.5486677885055542,-2.4415016174316406,10.491730690002441,4.574837684631348,-0.3799883723258972,0.7377031445503235,0.19032251834869385,12.414649963378906,-19.508750915527344,26.478546142578125,0.025908946990966797,-0.38422107696533203,-0.3751063346862793,-2.4674105644226074,10.875951766967773,4.949944019317627
4_20251106_214321,1762436566171,4,0.17599795758724213,-0.08843627572059631,0.5746371746063232,0.7943524718284607,-0.8142416477203369,3.399341583251953,1.5902199745178223,-2.605497360229492,10.303793907165527,4.564064025878906,-0.30179768800735474,0.6472951173782349,0.22758527100086212,11.775019645690918,-19.8870849609375,26.32476043701172,-0.11046934127807617,-0.45772647857666016,-0.3087038993835449,-2.495028018951416,10.761520385742188,4.872767925262451
4_20251106_214321,1762436566191,4,0.17043247818946838,-0.09215192496776581,0.5735084414482117,0.7959578037261963,-0.8052678108215332,3.4187073707580566,1.630968451499939,-2.6162707805633545,10.044034004211426,4.6083550453186035,-0.24254384636878967,0.5892630219459534,0.2953912913799286,11.152002334594727,-20.189010620117188,26.146015167236328,-0.09699416160583496,-0.5739889144897461,-0.21153020858764648,-2.5192766189575195,10.618022918701172,4.81988525390625
4_20251106_214321,1762436566210,4,0.16463713347911835,-0.09508347511291504,0.5727440714836121,0.7973819375038147,-0.7966927886009216,3.4337990283966064,1.6669074296951294,-2.3457374572753906,9.748363494873047,4.514985084533691,-0.20222675800323486,0.48724859952926636,0.41206642985343933,10.589421272277832,-20.487640380859375,26.037303924560547,0.13883137702941895,-0.6957273483276367,-0.24391984939575195,-2.4845688343048096,10.444090843200684,4.758904933929443
4_20251106_214321,1762436566230,4,0.15854115784168243,-0.0965774655342102,0.5721772909164429,0.7988433241844177,-0.7966927886009216,3.4337990283966064,1.6669074296951294,-2.3457374572753906,9.748363494873047,4.514985084533691,-0.20222675800323486,0.48724859952926636,0.41206642985343933,9.983030319213867,-20.701553344726562,25.928478240966797,0.13883137702941895,-0.6957273483276367,-0.24391984939575195,-2.4845688343048096,10.444090843200684,4.758904933929443
4_20251106_214321,1762436566248,4,0.15249641239643097,-0.09661618620157242,0.5717934966087341,0.8002889156341553,-0.7763786315917969,3.4541144371032715,1.7311174869537354,-1.6873605251312256,9.318622589111328,4.397674083709717,-0.13136646151542664,0.31193041801452637,0.49880924820899963,9.482802391052246,-20.959487915039062,25.917625427246094,0.5609681606292725,-0.74749755859375,-0.23789167404174805,-2.248328685760498,10.066120147705078,4.635565757751465
4_20251106_214321,1762436566266,4,0.1467542201280594,-0.09611400961875916,0.571539044380188,0.8016036748886108,-0.764504611492157,3.4595041275024414,1.7580230236053467,-1.3892953395843506,9.121109008789062,4.3102898597717285,-0.10632099956274033,0.3247585892677307,0.44749659299850464,9.010457992553711,-21.164657592773438,25.814193725585938,0.6872267723083496,-0.7560091018676758,-0.260221004486084,-2.0765221118927,9.877118110656738,4.5705108642578125
4_20251106_214321,1762436566287,4,0.14126889407634735,-0.09595937281847,0.5714171528816223,0.8026938438415527,-0.7487136721611023,3.462651014328003,1.7856758832931519,-1.0050424337387085,9.04090690612793,4.324654579162598,-0.11487311124801636,0.3565235733985901,0.3607538044452667,8.46248722076416,-21.412803649902344,25.761093139648438,0.8571836948394775,-0.6689691543579102,-0.1966848373413086,-1.862226128578186,9.70987606048584,4.521339416503906
4_20251106_214321,1762436566305,4,0.13626232743263245,-0.09648161381483078,0.571182906627655,0.8036628365516663,-0.7487136721611023,3.462651014328003,1.7856758832931519,-1.0050424337387085,9.04090690612793,4.324654579162598,-0.11426224559545517,0.29299360513687134,0.2532415986061096,7.917237281799316,-21.610855102539062,25.722564697265625,0.8571836948394775,-0.6689691543579102,-0.1966848373413086,-1.862226128578186,9.70987606048584,4.521339416503906
4_20251106_214321,1762436566323,4,0.13235042989253998,-0.09706100076436996,0.5707511305809021,0.8045530915260315,-0.7138041257858276,3.462754249572754,1.8311587572097778,-0.8194997906684875,8.927186965942383,4.063697814941406,-0.07455603778362274,0.17692933976650238,0.12251654267311096,7.542690277099609,-21.797653198242188,25.677387237548828,0.664088785648346,-0.5137538909912109,-0.33119630813598633,-1.4835885763168335,9.440940856933594,4.394894123077393
4_20251106_214321,1762436566343,4,0.13008670508861542,-0.09737861156463623,0.5703542232513428,0.80516517162323,-0.6943432688713074,3.460284948348999,1.8515878915786743,-1.1738264560699463,8.894866943359375,3.8374552726745605,-0.034238964319229126,0.07674751430749893,-0.007597628049552441,7.155759811401367,-21.985519409179688,25.65875244140625,0.2478097677230835,-0.436859130859375,-0.445950984954834,-1.4216362237930298,9.33172607421875,4.2834062576293945
4_20251106_214321,1762436566362,4,0.12947075068950653,-0.09755797684192657,0.5700670480728149,0.8054460287094116,-0.6943432688713074,3.460284948348999,1.8515878915786743,-1.1738264560699463,8.894866943359375,3.8374552726745605,-0.030573779717087746,0.05903243646025658,-0.07784707844257355,6.89521598815918,-22.089691162109375,25.606056213378906,0.2478097677230835,-0.436859130859375,-0.445950984954834,-1.4216362237930298,9.33172607421875,4.2834062576293945
4_20251106_214321,1762436566382,4,0.12941457331180573,-0.09814226627349854,0.5697432160377502,0.8056132197380066,-0.6610945463180542,3.4527382850646973,1.885926365852356,-1.8633267879486084,8.891275405883789,3.9164607524871826,-0.01285870186984539,0.09018654376268387,-0.04730383679270744,6.667211532592773,-22.25494384765625,25.62109375,-0.32807397842407227,-0.29529571533203125,-0.24403882026672363,-1.5352528095245361,9.18657112121582,4.160499572753906
4_20251106_214321,1762436566401,4,0.12911894917488098,-0.09877777099609375,0.5696105360984802,0.8056767582893372,-0.6475197076797485,3.4481441974639893,1.8997445106506348,-1.8381887674331665,8.933172225952148,3.7153563499450684,0.0005803219974040985,0.01871536858379841,0.0791451632976532,6.479091644287109,-22.355300903320312,25.66595458984375,-0.2423487901687622,-0.20271873474121094,-0.35611438751220703,-1.5958399772644043,9.13589096069336,4.071470737457275
4_20251106_214321,1762436566419,4,0.1282280534505844,-0.09827069193124771,0.5696050524711609,0.8058849573135376,-0.6352359056472778,3.443887710571289,1.9115190505981445,-1.5688526630401611,9.086395263671875,3.802741050720215,-0.044012799859046936,-0.11139881610870361,0.1927659809589386,6.30637264251709,-22.404090881347656,25.658294677734375,0.02158987522125244,-0.0395965576171875,-0.21498394012451172,-1.5904425382614136,9.125991821289062,4.017724990844727
4_20251106_214321,1762436566440,4,0.1270744502544403,-0.09624164551496506,0.5692389011383057,0.8065709471702576,-0.6206101775169373,3.439639091491699,1.9243180751800537,-1.288743019104004,9.265953063964844,3.942795753479004,-0.08555160462856293,-0.22257620096206665,0.20620501041412354,6.183102607727051,-22.437149047851562,25.652862548828125,0.24135959148406982,0.111968994140625,-0.059943199157714844,-1.5301026105880737,9.153984069824219,4.002738952636719
4_20251106_214321,1762436566460,4,0.12636470794677734,-0.0932692363858223,0.5684295892715454,0.8076017498970032,-0.6070582270622253,3.4368956089019775,1.9356440305709839,-1.1726292371749878,9.48501205444336,4.121155738830566,-0.05195404589176178,-0.3447491526603699,0.15428151190280914,6.144924163818359,-22.476531982421875,25.583019256591797,0.28597867488861084,0.26482200622558594,0.09473371505737305,-1.4586079120635986,9.220190048217773,4.026422023773193
4_20251106_214321,1762436566478,4,0.12668722867965698,-0.08955429494380951,0.5676702260971069,0.8085053563117981,-0.5932515263557434,3.435337781906128,1.9470511674880981,-1.1187621355056763,9.602323532104492,4.2624077796936035,0.01035415567457676,-0.38689881563186646,0.035162899643182755,6.144924163818359,-22.476531982421875,25.583019256591797,0.27187657356262207,0.3057069778442383,0.18878841400146484,-1.3906387090682983,9.296616554260254,4.073619365692139
4_20251106_214321,1762436566496,4,0.12823306024074554,-0.08602391183376312,0.567222535610199,0.8089590668678284,-0.5804153680801392,3.4345409870147705,1.9578207731246948,-1.22410249710083,9.542470932006836,4.2779693603515625,0.0879339799284935,-0.32520148158073425,-0.13404664397239685,6.09718132019043,-22.46674346923828,25.540771484375,0.13322901725769043,0.19668292999267578,0.16347980499267578,-1.3573315143585205,9.34578800201416,4.114489555358887
4_20251106_214321,1762436566515,4,0.13083602488040924,-0.08375058323144913,0.5672903060913086,0.8087332248687744,-0.5681009292602539,3.4339630603790283,1.9688060283660889,-1.5604733228683472,9.42635726928711,4.1822052001953125,0.1441335380077362,-0.2818300724029541,-0.26232823729515076,6.194570541381836,-22.460525512695312,25.558212280273438,-0.1625133752822876,0.06445503234863281,0.054172515869140625,-1.3979599475860596,9.361902236938477,4.128032684326172
4_20251106_214321,1762436566535,4,0.13428407907485962,-0.08243434131145477,0.5677304267883301,0.8079941272735596,-0.5571138858795166,3.433173418045044,1.9797776937484741,-1.8345975875854492,9.292287826538086,4.123549938201904,0.16368120908737183,-0.28977131843566895,-0.2763781249523163,6.195782661437988,-22.435684204101562,25.585773468017578,-0.349310040473938,-0.05569171905517578,-0.003586292266845703,-1.4852875471115112,9.347979545593262,4.12713623046875
4_20251106_214321,1762436566554,4,0.13788624107837677,-0.08121663331985474,0.5682914853096008,0.8071158528327942,-0.5488748550415039,3.4322314262390137,1.9892055988311768,-1.954302430152893,9.239617347717285,4.146293640136719,0.16368120908737183,-0.28977131843566895,-0.2763781249523163,6.2445268630981445,-22.432510375976562,25.58773422241211,-0.3752119541168213,-0.08668994903564453,0.01532602310180664,-1.5790904760360718,9.32630729675293,4.130967617034912
4_20251106_214321,1762436566572,4,0.1412602961063385,-0.07939770817756653,0.568904459476471,0.8062811493873596,-0.5416752099990845,3.4309933185577393,1.9984784126281738,-1.9662729501724243,9.219266891479492,4.064894676208496,0.21255037188529968,-0.42782676219940186,-0.10228167474269867,6.432844161987305,-22.331886291503906,25.515838623046875,-0.3097459077835083,-0.08563232421875,-0.05285835266113281,-1.656527042388916,9.304899215698242,4.117753028869629
4_20251106_214321,1762436566591,4,0.14449253678321838,-0.07610160857439041,0.5697683691978455,0.805415689945221,-0.5350646376609802,3.4292044639587402,2.0069029331207275,-1.7400307655334473,9.0816068649292,3.9775099754333496,0.276691198348999,-0.537171483039856,0.028443388640880585,6.679891586303711,-22.25348663330078,25.554000854492188,-0.066802978515625,-0.1786336898803711,-0.11219453811645508,-1.6732277870178223,9.26024055480957,4.089704513549805
4_20251106_214321,1762436566611,4,0.14721991121768951,-0.07127919048070908,0.5710495114326477,0.8044551014900208,-0.527847945690155,3.4264729022979736,2.0139710903167725,-1.3318369388580322,8.884093284606934,3.748873710632324,0.2785238027572632,-0.6355207562446594,0.08219948410987854,6.992493629455566,-22.095230102539062,25.542133331298828,0.27311277389526367,-0.3009176254272461,-0.27266454696655273,-1.604949712753296,9.18501091003418,4.021538257598877
4_20251106_214321,1762436566630,4,0.15006253123283386,-0.06537199765443802,0.5722258687019348,0.803595244884491,-0.5188220739364624,3.4229612350463867,2.0197808742523193,-1.0098305940628052,8.928384780883789,3.607621669769287,0.23759585618972778,-0.74120032787323,0.03882808983325958,7.255660057067871,-21.94109344482422,25.62291717529297,0.4760953187942505,-0.20530033111572266,-0.3311331272125244,-1.4859259128570557,9.133685111999512,3.9387547969818115
4_20251106_214321,1762436566649,4,0.1537836492061615,-0.05886415019631386,0.5729129314422607,0.8029049634933472,-0.5097969770431519,3.4188971519470215,2.0243523120880127,-1.1654471158981323,8.807482719421387,3.6938095092773438,0.21316124498844147,-0.8212236166000366,-0.12549452483654022,7.541281700134277,-21.822776794433594,25.676856994628906,0.2563830614089966,-0.26096153259277344,-0.19595623016357422,-1.421830177307129,9.06844425201416,3.889765739440918
4_20251106_214321,1762436566670,4,0.15907342731952667,-0.05266359820961952,0.5731939673423767,0.8021040558815002,-0.5010220408439636,3.413193464279175,2.0290050506591797,-1.6310992240905762,8.639896392822266,3.845834732055664,0.24981313943862915,-0.7870151996612549,-0.2855410873889923,7.817028999328613,-21.667312622070312,25.70406723022461,-0.16741526126861572,-0.3428382873535156,-0.035144805908203125,-1.4636839628219604,8.982734680175781,3.880979537963867
4_20251106_214321,1762436566688,4,0.16541463136672974,-0.04759667068719864,0.5736624002456665,0.8008021116256714,-0.49553874135017395,3.407421827316284,2.0326244831085205,-2.13864803314209,8.524978637695312,3.812317371368408,0.28463244438171387,-0.7259287238121033,-0.3276907503604889,8.151691436767578,-21.54541015625,25.71942138671875,-0.5399712324142456,-0.36620521545410156,-0.05492973327636719,-1.5986768007278442,8.891183853149414,3.8672471046447754
4_20251106_214321,1762436566707,4,0.17154373228549957,-0.04196634143590927,0.5737022757530212,0.7997982501983643,-0.49212926626205444,3.400803565979004,2.0358965396881104,-2.360102415084839,8.588422775268555,3.736903190612793,0.28585416078567505,-0.7240961194038391,-0.2091829776763916,8.528748512268066,-21.320396423339844,25.711326599121094,-0.6091403961181641,-0.24220848083496094,-0.10427522659301758,-1.7509620189666748,8.830631256103516,3.8411784172058105
4_20251106_214321,1762436566725,4,0.176943838596344,-0.03668390214443207,0.5737653970718384,0.7988356947898865,-0.49031898379325867,3.3943066596984863,2.03826904296875,-2.26194429397583,8.611166000366211,3.608819007873535,0.2571435272693634,-0.8041194081306458,-0.004543304443359375,8.903393745422363,-21.133460998535156,25.74298858642578,-0.4087858200073242,-0.17557239532470703,-0.18588733673095703,-1.8531584739685059,8.786738395690918,3.794706344604492
4_20251106_214321,1762436566745,4,0.1813119649887085,-0.03014756180346012,0.5736597180366516,0.7982052564620972,-0.48844289779663086,3.388150691986084,2.0400166511535645,-1.8310065269470215,8.917612075805664,3.564527988433838,0.19239184260368347,-0.944618284702301,0.21231365203857422,9.341775894165039,-20.90393829345703,25.68328094482422,0.01772153377532959,0.10469913482666016,-0.1841425895690918,-1.848728060722351,8.812912940979004,3.7486705780029297
4_20251106_214321,1762436566763,4,0.18478815257549286,-0.021523011848330498,0.5734484195709229,0.7978389263153076,-0.4850749671459198,3.3833091259002686,2.0416018962860107,-1.2707874774932861,9.179765701293945,3.721341609954834,0.19239184260368347,-0.944618284702301,0.21231365203857422,9.752360343933105,-20.73865509033203,25.60775375366211,0.4623525142669678,0.29348182678222656,-0.02186298370361328,-1.733139991760254,8.886283874511719,3.7432045936584473
4_20251106_214321,1762436566782,4,0.18834303319454193,-0.011446311138570309,0.5724082589149475,0.7979628443717957,-0.47962164878845215,3.3798234462738037,2.0436556339263916,-0.9116725325584412,9.292287826538086,3.942795753479004,0.1135902926325798,-1.0710673332214355,0.29661300778388977,10.210872650146484,-20.594497680664062,25.452564239501953,0.6571740508079529,0.32480335235595703,0.15967273712158203,-1.568846583366394,8.967484474182129,3.783123016357422
4_20251106_214321,1762436566802,4,0.19239728152751923,-0.00023096197401173413,0.5706589818000793,0.7983304858207703,-0.47184300422668457,3.3775689601898193,2.0469188690185547,-0.803938090801239,9.372489929199219,4.181008338928223,0.1087033748626709,-1.0509088039398193,0.007673988118767738,10.655294418334961,-20.4769287109375,25.363937377929688,0.6119267344474792,0.3240041732788086,0.31830811500549316,-1.4158648252487183,9.04848575592041,3.8627002239227295
4_20251106_214321,1762436566822,4,0.19746452569961548,0.010005256161093712,0.5688944458961487,0.7982898950576782,-0.46331721544265747,3.3764450550079346,2.0516271591186523,-1.0421509742736816,9.383262634277344,4.391688823699951,0.12641844153404236,-0.9855462312698364,-0.16947679221630096,11.102832794189453,-20.30872344970703,25.235816955566406,0.2989710569381714,0.2678213119506836,0.4231910705566406,-1.341122031211853,9.11544132232666,3.9684977531433105
4_20251106_214321,1762436566840,4,0.2034345120191574,0.018814895302057266,0.5670957565307617,0.797911524772644,-0.46331721544265747,3.3764450550079346,2.0516271591186523,-1.0421509742736816,9.383262634277344,4.391688823699951,0.1545182317495346,-1.000817894935608,-0.22262202203273773,11.584307670593262,-20.188095092773438,25.08108139038086,0.2989710569381714,0.2678213119506836,0.4231910705566406,-1.341122031211853,9.11544132232666,3.9684977531433105
4_20251106_214321,1762436566860,4,0.21030385792255402,0.025654636323451996,0.566182017326355,0.7965877652168274,-0.44725266098976135,3.3756635189056396,2.0630223751068115,-1.1929792165756226,9.208494186401367,4.3569746017456055,0.16734638810157776,-1.1339863538742065,-0.1829158067703247,12.125908851623535,-20.076187133789062,24.94205093383789,0.09672677516937256,0.043082237243652344,0.24268817901611328,-1.2897059917449951,9.165411949157715,4.114286422729492
4_20251106_214321,1762436566879,4,0.2175782024860382,0.03368537873029709,0.5650297999382019,0.7951517701148987,-0.44725266098976135,3.3756635189056396,2.0630223751068115,-1.1929792165756226,9.208494186401367,4.3569746017456055,0.13802488148212433,-1.2989197969436646,-0.11388809978961945,12.656410217285156,-19.963592529296875,24.653850555419922,0.09672677516937256,0.043082237243652344,0.24268817901611328,-1.2897059917449951,9.165411949157715,4.114286422729492
4_20251106_214321,1762436566899,4,0.2252662479877472,0.04329988732933998,0.5632154941558838,0.7938315868377686,-0.4303816854953766,3.3735835552215576,2.07745099067688,-1.0098305940628052,8.904443740844727,4.5915961265563965,0.1032055914402008,-1.3551194667816162,-0.05585594102740288,13.159423828125,-19.903213500976562,24.404159545898438,0.1967407464981079,-0.18425750732421875,0.3284616470336914,-1.206571340560913,9.088701248168945,4.263134479522705
4_20251106_214321,1762436566918,4,0.23284529149532318,0.053584951907396317,0.5608742237091064,0.7926738858222961,-0.42158573865890503,3.372091054916382,2.0853521823883057,-0.8901256322860718,9.000207901000977,4.572443962097168,0.059834204614162445,-1.3178566694259644,-0.017371464520692825,13.159423828125,-19.903213500976562,24.404159545898438,0.25315654277801514,-0.07079505920410156,0.24744749069213867,-1.143282175064087,9.071002960205078,4.324996471405029
4_20251106_214321,1762436566935,4,0.23988936841487885,0.06366178393363953,0.5581494569778442,0.7917508482933044,-0.4135189652442932,3.371521472930908,2.0921647548675537,-0.8745640516281128,9.38924789428711,4.368945121765137,0.059834204614162445,-1.3178566694259644,-0.017371464520692825,13.75046157836914,-19.787185668945312,24.172473907470703,0.2149745225906372,0.2545957565307617,0.03515911102294922,-1.08953857421875,9.134652137756348,4.3337860107421875
4_20251106_214321,1762436566956,4,0.24652408063411713,0.0738503709435463,0.5551154613494873,0.7909606695175171,-0.4135189652442932,3.371521472930908,2.0921647548675537,-0.8745640516281128,9.38924789428711,4.368945121765137,0.0018020514398813248,-1.3606171607971191,0.0791451632976532,14.407758712768555,-19.578750610351562,23.89102554321289,0.2149745225906372,0.2545957565307617,0.03515911102294922,-1.08953857421875,9.134652137756348,4.3337860107421875
4_20251106_214321,1762436566973,4,0.2531169354915619,0.08469951152801514,0.5516923069953918,0.7901856899261475,-0.40342286229133606,3.3730435371398926,2.1004228591918945,-1.0409539937973022,9.738786697387695,4.301910400390625,-0.04218021035194397,-1.40765380859375,0.16955313086509705,15.124971389770508,-19.390914916992188,23.55743408203125,0.03886759281158447,0.4833078384399414,-0.02550029754638672,-1.0798215866088867,9.255478858947754,4.327410697937012
4_20251106_214321,1762436566993,4,0.25928014516830444,0.09620924293994904,0.5477116107940674,0.789638876914978,-0.38988131284713745,3.379077196121216,2.1156716346740723,-1.3342310190200806,9.8417329788208,5.121889114379883,-0.09288197755813599,-1.4827901124954224,0.26668062806129456,15.815881729125977,-19.253684997558594,23.10015869140625,-0.17373907566070557,0.3744363784790039,0.5854601860046387,-1.160491943359375,9.467296600341797,4.536428928375244
4_20251106_214321,1762436567013,4,0.2651529610157013,0.10856156051158905,0.5429382920265198,0.7893834710121155,-0.38306689262390137,3.3846495151519775,2.1284148693084717,-1.2815607786178589,9.94108772277832,5.516915321350098,-0.060506150126457214,-1.5670894384384155,0.29355868697166443,16.50577735900879,-19.141029357910156,22.58829116821289,-0.0968550443649292,0.37903308868408203,0.7843890190124512,-1.1847057342529297,9.562054634094238,4.7325263023376465
4_20251106_214321,1762436567032,4,0.271120548248291,0.12161286920309067,0.5379953980445862,0.788837730884552,-0.37776118516921997,3.3907089233398438,2.14184832572937,-1.3857040405273438,10.024881362915039,5.63662052154541,-0.060506150126457214,-1.5670894384384155,0.29355868697166443,17.118722915649414,-19.107940673828125,22.017833709716797,-0.16079866886138916,0.37026119232177734,0.7232756614685059,-1.2249053716659546,9.654620170593262,4.913344860076904
4_20251106_214321,1762436567050,4,0.2779177725315094,0.13494373857975006,0.5333965420722961,0.7874261736869812,-0.37359127402305603,3.397304058074951,2.155466079711914,-1.470694661140442,10.11825180053711,5.533674240112305,0.08121446520090103,-1.6263433694839478,0.07486911118030548,17.80276870727539,-19.107620239257812,21.436012268066406,-0.19663143157958984,0.37090492248535156,0.4962635040283203,-1.274063229560852,9.747346878051758,5.037410736083984
4_20251106_214321,1762436567070,4,0.28548628091812134,0.14747092127799988,0.5293562412261963,0.7851954102516174,-0.37359127402305603,3.397304058074951,2.155466079711914,-1.470694661140442,10.11825180053711,5.533674240112305,0.14046834409236908,-1.5768632888793945,-0.1114446371793747,18.485998153686523,-19.131607055664062,20.772563934326172,-0.19663143157958984,0.37090492248535156,0.4962635040283203,-1.274063229560852,9.747346878051758,5.037410736083984
4_20251106_214321,1762436567089,4,0.2941872477531433,0.15886259078979492,0.5260537266731262,0.7819744348526001,-0.3702746033668518,3.4054114818573,2.1718130111694336,-1.663419485092163,9.98537826538086,5.4115753173828125,0.14046834409236908,-1.5768632888793945,-0.1114446371793747,19.144248962402344,-19.169601440429688,20.09435272216797,-0.3114849328994751,0.19042491912841797,0.2993316650390625,-1.351934552192688,9.794953346252441,5.11224365234375
4_20251106_214321,1762436567108,4,0.30373597145080566,0.16899307072162628,0.5240793824195862,0.7775130867958069,-0.36931607127189636,3.4124667644500732,2.186807155609131,-2.023731231689453,9.702875137329102,5.179347991943359,0.34694063663482666,-1.4394187927246094,-0.4553614556789398,19.80199432373047,-19.219886779785156,19.38884735107422,-0.5374374389648438,-0.07366275787353516,0.05368328094482422,-1.4862937927246094,9.776537895202637,5.125664710998535
4_20251106_214321,1762436567126,4,0.3138858675956726,0.17799070477485657,0.5230883955955505,0.7721226811408997,-0.37516626715660095,3.422616958618164,2.2065324783325195,-3.0747408866882324,9.38446044921875,4.170234680175781,0.34694063663482666,-1.4394187927246094,-0.4553614556789398,20.54955291748047,-19.200477600097656,18.552932739257812,-1.1227126121520996,-0.29727935791015625,-0.669891357421875,-1.9520282745361328,9.681739807128906,4.840126037597656
4_20251106_214321,1762436567146,4,0.32494595646858215,0.1856514811515808,0.5222888588905334,0.7662623524665833,-0.3852522075176239,3.425832986831665,2.213438034057617,-3.6553096771240234,9.133079528808594,4.038559436798096,0.3127322196960449,-1.3819974660873413,-0.60929936170578,21.37517547607422,-19.07678985595703,17.81668472290039,-1.3626251220703125,-0.43892860412597656,-0.6412529945373535,-2.292684555053711,9.57200813293457,4.679812431335449
4_20251106_214321,1762436567165,4,0.33595892786979675,0.1918219029903412,0.5212350487709045,0.760690450668335,-0.39862531423568726,3.4276363849639893,2.2176647186279297,-3.849231719970703,9.171385765075684,3.9487810134887695,0.22049163281917572,-1.251272439956665,-0.6490055918693542,22.143293380737305,-18.894424438476562,17.092819213867188,-1.2452378273010254,-0.3204975128173828,-0.5848250389099121,-2.6039938926696777,9.491883277893066,4.533606052398682
4_20251106_214321,1762436567184,4,0.34579193592071533,0.19766592979431152,0.5192641019821167,0.7561222910881042,-0.39862531423568726,3.4276363849639893,2.2176647186279297,-3.849231719970703,9.171385765075684,3.9487810134887695,0.023182319477200508,-1.223172664642334,-0.2714911997318268,22.963876724243164,-18.645828247070312,16.345203399658203,-1.2452378273010254,-0.3204975128173828,-0.5848250389099121,-2.6039938926696777,9.491883277893066,4.533606052398682
4_20251106_214321,1762436567203,4,0.35425645112991333,0.2046418935060501,0.5160806775093079,0.7525189518928528,-0.41432252526283264,3.4287495613098145,2.220942497253418,-3.694812297821045,9.273134231567383,4.264801979064941,0.02012799307703972,-1.276317834854126,-0.14015528559684753,23.821117401123047,-18.39471435546875,15.585543632507324,-0.8726546764373779,-0.17499923706054688,-0.2150430679321289,-2.822157621383667,9.44813346862793,4.47984504699707
4_20251106_214321,1762436567222,4,0.3620540499687195,0.21265102922916412,0.512291669845581,0.7491686344146729,-0.4486646056175232,3.429702043533325,2.226820945739746,-3.4625847339630127,9.368898391723633,4.500620365142822,0.02012799307703972,-1.276317834854126,-0.14015528559684753,24.608062744140625,-18.09813690185547,14.823996543884277,-0.3955085277557373,-0.033664703369140625,0.024979591369628906,-3.0670762062072754,9.402563095092773,4.475640773773193
4_20251106_214321,1762436567241,4,0.3694286048412323,0.22041264176368713,0.5088348388671875,0.7456727623939514,-0.4662160873413086,3.4289793968200684,2.230095148086548,-3.430264472961426,8.99901008605957,4.662221908569336,0.09221003204584122,-1.0783976316452026,-0.2403370887041092,25.39390754699707,-17.814659118652344,14.116250038146973,-0.29055070877075195,-0.3228425979614258,0.14926481246948242,-3.139713764190674,9.321852684020996,4.5129570960998535
4_20251106_214321,1762436567260,4,0.3768558204174042,0.22682665288448334,0.5062386393547058,0.7417895793914795,-0.4839170277118683,3.4267635345458984,2.23287296295166,-3.5140576362609863,8.764389038085938,4.391689300537109,0.1862832009792328,-0.8609298467636108,-0.37717077136039734,26.11790657043457,-17.559585571289062,13.337943077087402,-0.29947519302368164,-0.4459705352783203,-0.09701395034790039,-3.2145824432373047,9.210359573364258,4.48870325088501
4_20251106_214321,1762436567279,4,0.3839254677295685,0.2313002049922943,0.5052872896194458,0.7374186515808105,-0.5018402934074402,3.4229094982147217,2.2336232662200928,-3.61820125579834,8.572860717773438,3.800346851348877,0.28524327278137207,-0.6373533606529236,-0.5427151322364807,26.793779373168945,-17.283660888671875,12.66633129119873,-0.3228950500488281,-0.5099992752075195,-0.550684928894043,-3.2953062057495117,9.082859992980957,4.35103178024292
4_20251106_214321,1762436567299,4,0.3909194767475128,0.23381277918815613,0.5061713457107544,0.7323278784751892,-0.5216549038887024,3.417461395263672,2.230639934539795,-3.917463541030884,8.558496475219727,3.122817039489746,0.33166903257369995,-0.4455418288707733,-0.6111319661140442,27.359878540039062,-17.0150146484375,12.00382137298584,-0.4977257251739502,-0.4194908142089844,-0.9825716018676758,-3.4197378158569336,8.977987289428711,4.105388641357422
4_20251106_214321,1762436567321,4,0.3974224030971527,0.23492324352264404,0.5082544684410095,0.7270102500915527,-0.5216549038887024,3.417461395263672,2.230639934539795,-3.917463541030884,8.558496475219727,3.122817039489746,0.33166903257369995,-0.4455418288707733,-0.6111319661140442,27.359878540039062,-17.0150146484375,12.00382137298584,-0.4977257251739502,-0.4194908142089844,-0.9825716018676758,-3.4197378158569336,8.977987289428711,4.105388641357422
4_20251106_214321,1762436567338,4,0.40331894159317017,0.23548771440982819,0.5096930265426636,0.7225596308708191,-0.5619435906410217,3.405819892883301,2.216338634490967,-4.1879963874816895,8.812271118164062,3.2125954627990723,0.09709694981575012,-0.3679620027542114,-0.37717077136039734,28.504487991333008,-16.45343017578125,10.84201717376709,-0.5108382701873779,-0.08613872528076172,-0.5141208171844482,-3.6771581172943115,8.898409843444824,3.7267162799835205
4_20251106_214321,1762436567355,4,0.4083181619644165,0.2363215684890747,0.510047197341919,0.7192219495773315,-0.5813830494880676,3.401169776916504,2.207639217376709,-4.107793807983398,9.128291130065918,3.0509939193725586,0.09709694981575012,-0.3679620027542114,-0.37717077136039734,28.504487991333008,-16.45343017578125,10.84201717376709,-0.34450864791870117,0.18390464782714844,-0.5405778884887695,-3.7632851600646973,8.94438648223877,3.591571807861328
4_20251106_214321,1762436567375,4,0.41178953647613525,0.23769202828407288,0.5101804733276367,0.7166922092437744,-0.602298378944397,3.399280309677124,2.1976318359375,-3.8935225009918213,9.937498092651367,3.3203301429748535,0.07205148786306381,-0.25800633430480957,-0.03569740429520607,28.860546112060547,-16.21381378173828,10.46826457977295,-0.10418987274169922,0.7944889068603516,-0.2169933319091797,-3.789332628250122,9.143009185791016,3.537323474884033
4_20251106_214321,1762436567394,4,0.4139210283756256,0.23931196331977844,0.5099965929985046,0.7150542736053467,-0.6213585138320923,3.402083396911621,2.190290689468384,-3.8564138412475586,10.786205291748047,4.153476238250732,0.07205148786306381,-0.25800633430480957,-0.03569740429520607,29.193939208984375,-15.950263977050781,10.053509712219238,-0.0536649227142334,1.3145570755004883,0.492922306060791,-3.802748918533325,9.471648216247559,3.6605539321899414
4_20251106_214321,1762436567413,4,0.4150632321834564,0.2405267059803009,0.5092937350273132,0.7144853472709656,-0.6213585138320923,3.402083396911621,2.190290689468384,-3.8564138412475586,10.786205291748047,4.153476238250732,-0.047067128121852875,-0.0032757618464529514,0.19093339145183563,29.517669677734375,-15.637687683105469,9.679869651794434,-0.0536649227142334,1.3145570755004883,0.492922306060791,-3.802748918533325,9.471648216247559,3.6605539321899414
4_20251106_214321,1762436567432,4,0.4147595465183258,0.24113503098487854,0.5086364150047302,0.7149247527122498,-0.6548333168029785,3.4242923259735107,2.1939756870269775,-3.302180290222168,11.925796508789062,6.6050333976745605,-0.047067128121852875,-0.0032757618464529514,0.19093339145183563,29.787647247314453,-15.393096923828125,9.505692481994629,0.3851003646850586,1.6206436157226562,2.048798084259033,-3.6872806549072266,10.305152893066406,4.556235313415527
4_20251106_214321,1762436567451,4,0.4117985665798187,0.2414536029100418,0.5092223882675171,0.7161107659339905,-0.6668527126312256,3.4418203830718994,2.20522141456604,-2.655773639678955,11.96051025390625,6.785787582397461,0.09587521851062775,0.14211004972457886,0.33387574553489685,29.868999481201172,-15.261138916015625,9.349080085754395,0.8252055644989014,1.3242855072021484,1.7836418151855469,-3.4809792041778564,10.636224746704102,5.002145767211914
4_20251106_214321,1762436567470,4,0.4074900448322296,0.24412418901920319,0.5114415884017944,0.7160884737968445,-0.6741876006126404,3.461688280105591,2.2193961143493652,-1.9926079511642456,11.80848503112793,6.2746477127075195,0.8093652129173279,0.03520871698856354,0.6185387969017029,29.88188934326172,-15.247787475585938,9.349833488464355,1.1906970739364624,0.9378080368041992,1.0180015563964844,-3.183305025100708,10.87067699432373,5.256646156311035
4_20251106_214321,1762436567489,4,0.40198811888694763,0.24979554116725922,0.5152715444564819,0.7144948840141296,-0.6758822798728943,3.482830286026001,2.233333110809326,-1.2612109184265137,11.697158813476562,5.428333759307861,0.8093652129173279,0.03520871698856354,0.6185387969017029,29.7923583984375,-15.328689575195312,9.344817161560059,1.537675142288208,0.6611852645874023,0.13735008239746094,-2.7988860607147217,11.03597354888916,5.2909836769104
4_20251106_214321,1762436567510,4,0.39583754539489746,0.257255882024765,0.5203419923782349,0.711601197719574,-0.6710837483406067,3.505833148956299,2.245518445968628,-0.8362584114074707,11.275798797607422,4.56047248840332,1.0610414743423462,-0.04970147833228111,0.6600775122642517,29.621376037597656,-15.541679382324219,9.509928703308105,1.5701019763946533,0.19186019897460938,-0.584409236907959,-2.406360387802124,11.083938598632812,5.144881725311279
4_20251106_214321,1762436567529,4,0.38939371705055237,0.26521116495132446,0.5265477299690247,0.7076602578163147,-0.6615217924118042,3.5256450176239014,2.2532260417938232,-0.42447346448898315,11.098634719848633,4.136717796325684,1.2192554473876953,-0.04298197105526924,0.6209822297096252,29.380111694335938,-15.697593688964844,9.768031120300293,1.5855095386505127,0.01175689697265625,-0.8065309524536133,-2.0099830627441406,11.086877822875977,4.943248748779297
4_20251106_214321,1762436567548,4,0.38291311264038086,0.2728740870952606,0.5330080986022949,0.70343416929245,-0.6472734808921814,3.543431282043457,2.2584011554718018,-0.12760521471500397,10.709593772888184,4.160658836364746,1.232694387435913,-0.018547378480434418,0.5794433951377869,29.19296646118164,-15.939994812011719,10.283549308776855,1.5059022903442383,-0.30182743072509766,-0.6260719299316406,-1.633507490158081,11.011421203613281,4.786730766296387
4_20251106_214321,1762436567566,4,0.3767189085483551,0.28053271770477295,0.5395355224609375,0.6987743973731995,-0.6303498148918152,3.5578792095184326,2.261505365371704,0.03160236030817032,10.378010749816895,4.15587043762207,1.252242088317871,-0.05703185498714447,0.5262981653213501,28.906723022460938,-16.214141845703125,10.821646690368652,1.3320878744125366,-0.5067281723022461,-0.5046882629394531,-1.3004854917526245,10.88473892211914,4.660558700561523
4_20251106_214321,1762436567585,4,0.370880663394928,0.2890555262565613,0.5464211702346802,0.6930500268936157,-0.6092383861541748,3.569676399230957,2.261732578277588,0.2087656706571579,9.903979301452637,3.608819007873535,1.5411810874938965,-0.15782451629638672,0.43711188435554504,28.573654174804688,-16.454055786132812,11.385607719421387,1.2074010372161865,-0.7846078872680664,-0.8413915634155273,-0.9986353516578674,10.688587188720703,4.4502105712890625
4_20251106_214321,1762436567605,4,0.36476293206214905,0.29772475361824036,0.5544251203536987,0.6862366795539856,-0.585370659828186,3.5771381855010986,2.2573015689849854,0.39071717858314514,9.323410987854004,2.7565197944641113,1.5411810874938965,-0.15782451629638672,0.43711188435554504,28.2418212890625,-16.645904541015625,12.166884422302246,1.11148202419281,-1.0921411514282227,-1.3549528121948242,-0.7207648754119873,10.415552139282227,4.1114726066589355
4_20251106_214321,1762436567624,4,0.358287513256073,0.30572509765625,0.56368088722229,0.6785470247268677,-0.5575345158576965,3.5799479484558105,2.245338201522827,0.5846391916275024,8.88529109954834,1.6336872577667236,1.6816799640655518,-0.0032757618464529514,0.2703458070755005,27.91400718688965,-16.7742919921875,12.8818998336792,1.0443233251571655,-1.2242097854614258,-1.9822282791137695,-0.4596841037273407,10.109500885009766,3.615915536880493
4_20251106_214321,1762436567643,4,0.35162273049354553,0.31280452013015747,0.5734798312187195,0.6705487966537476,-0.5306796431541443,3.578634262084961,2.228675127029419,0.7809552550315857,8.600393295288086,1.0028424263000488,1.5491223335266113,-0.015493056736886501,0.19948551058769226,27.588829040527344,-16.841110229492188,13.719882011413574,0.992511510848999,-1.2072858810424805,-2.090458393096924,-0.21155624091625214,9.807679176330566,3.0933008193969727
4_20251106_214321,1762436567662,4,0.3457549512386322,0.3191884756088257,0.5825594067573547,0.6627192497253418,-0.49890804290771484,3.5723438262939453,2.2038469314575195,0.9150247573852539,8.19459342956543,0.7119593620300293,1.5491223335266113,-0.015493056736886501,0.19948551058769226,27.306861877441406,-16.78050994873047,14.616040229797363,0.9012647867202759,-1.2904682159423828,-1.9050731658935547,0.013759955763816833,9.485061645507812,2.617032527923584
4_20251106_214321,1762436567680,4,0.34040725231170654,0.3246554732322693,0.5912025570869446,0.6551344990730286,-0.4695447087287903,3.5631422996520996,2.1773295402526855,0.9066454768180847,7.932438850402832,0.46895837783813477,1.4128994941711426,0.05170206353068352,-0.0020998455584049225,27.091054916381836,-16.62763214111328,15.47594928741455,0.7143084406852722,-1.2420978546142578,-1.7184593677520752,0.1923370510339737,9.17453670501709,2.18741774559021
4_20251106_214321,1762436567700,4,0.3355018198490143,0.32887518405914307,0.6001343131065369,0.6473935842514038,-0.436513215303421,3.549464464187622,2.1431941986083984,0.8623546361923218,7.870192527770996,0.16610485315322876,1.3951845169067383,0.18975749611854553,-0.16153554618358612,26.783794403076172,-16.38011932373047,16.279979705810547,0.5360140800476074,-1.0434751510620117,-1.6170504093170166,0.32634055614471436,8.913667678833008,1.7831552028656006
4_20251106_214321,1762436567721,4,0.33073243498802185,0.3311641812324524,0.6098178625106812,0.6395846605300903,-0.436513215303421,3.549464464187622,2.1431941986083984,0.8623546361923218,7.870192527770996,0.16610485315322876,1.3951845169067383,0.18975749611854553,-0.16153554618358612,26.512401580810547,-16.13116455078125,17.180099487304688,0.5360140800476074,-1.0434751510620117,-1.6170504093170166,0.32634055614471436,8.913667678833008,1.7831552028656006
4_20251106_214321,1762436567739,4,0.32590243220329285,0.33168211579322815,0.6203615069389343,0.6316060423851013,-0.3987429440021515,3.5296764373779297,2.0978360176086426,0.7450438141822815,7.708590507507324,-0.22293621301651,1.4074018001556396,0.382790744304657,-0.39671844244003296,26.2958984375,-15.766288757324219,18.111587524414062,0.3349626064300537,-0.9640617370605469,-1.6048731803894043,0.4100812077522278,8.672652244567871,1.3819369077682495
4_20251106_214321,1762436567758,4,0.3211654722690582,0.33122771978378296,0.6313310861587524,0.6233474016189575,-0.34388411045074463,3.494879961013794,2.0199434757232666,0.634915292263031,7.5457916259765625,-1.0524914264678955,1.39457368850708,0.382790744304657,-0.46330270171165466,26.14948844909668,-15.234199523925781,19.04895782470703,0.13872256875038147,-0.7347898483276367,-1.6237282752990723,0.49619272351264954,8.2805814743042,0.5712368488311768
4_20251106_214321,1762436567778,4,0.3167809545993805,0.3302589952945709,0.6423426270484924,0.61479651927948,-0.3176601231098175,3.475109577178955,1.9754202365875244,0.4661312699317932,7.4081315994262695,-1.50258207321167,1.3420392274856567,0.3583561182022095,-0.507284939289093,26.14948844909668,-15.234199523925781,19.04895782470703,-0.02404916286468506,-0.6979598999023438,-1.659055233001709,0.49018043279647827,8.106091499328613,0.1564731001853943
4_20251106_214321,1762436567796,4,0.3128257095813751,0.3288819193840027,0.6530411839485168,0.606229305267334,-0.29070737957954407,3.45167875289917,1.921629548072815,0.2506623864173889,7.263288497924805,-2.0783627033233643,1.2137576341629028,0.39378631114959717,-0.5439368486404419,26.103485107421875,-14.645393371582031,19.97779083251953,-0.19161444902420044,-0.6742424964904785,-1.7878687381744385,0.44227683544158936,7.937530994415283,-0.29049402475357056
4_20251106_214321,1762436567815,4,0.30926820635795593,0.32669201493263245,0.663108229637146,0.5982582569122314,-0.26769644021987915,3.4280683994293213,1.8667956590652466,-0.03662945330142975,7.039440155029297,-2.58232045173645,1.0256112813949585,0.4591488242149353,-0.5787560939788818,26.062698364257812,-13.979896545410156,20.77304458618164,-0.38312506675720215,-0.7184724807739258,-1.8334611654281616,0.3464955985546112,7.757912635803223,-0.7488592863082886
4_20251106_214321,1762436567834,4,0.30606240034103394,0.3233446478843689,0.672344982624054,0.5913766026496887,-0.24750463664531708,3.403184652328491,1.8085498809814453,-0.26167476177215576,6.863473892211914,-2.991711378097534,0.7751567363739014,0.5012985467910767,-0.551878035068512,26.048511505126953,-13.263389587402344,21.651432037353516,-0.48653632402420044,-0.7155513763427734,-1.7942817211151123,0.22486154735088348,7.5790252685546875,-1.1974296569824219
4_20251106_214321,1762436567853,4,0.3030874729156494,0.3190460503101349,0.6802418231964111,0.5861899852752686,-0.2300349622964859,3.3773715496063232,1.7476401329040527,-0.39933541417121887,6.786862373352051,-3.229924201965332,0.5021002888679504,0.5159592628479004,-0.4516962766647339,25.941967010498047,-12.465072631835938,22.500713348388672,-0.49935758113861084,-0.633730411529541,-1.6259956359863281,0.10002216696739197,7.420592784881592,-1.603928565979004
4_20251106_214321,1762436567873,4,0.3006337881088257,0.31492167711257935,0.6861458420753479,0.5827928781509399,-0.21412700414657593,3.349329948425293,1.6815143823623657,-0.41370001435279846,6.687507629394531,-3.3197031021118164,0.5021002888679504,0.5159592628479004,-0.4516962766647339,25.880332946777344,-11.738372802734375,23.296306610107422,-0.4109777510166168,-0.5864682197570801,-1.37261962890625,-0.0027222633361816406,7.273975849151611,-1.9470834732055664
4_20251106_214321,1762436567891,4,0.2977214753627777,0.3106994330883026,0.6905134320259094,0.5813940167427063,-0.21412700414657593,3.349329948425293,1.6815143823623657,-0.41370001435279846,6.687507629394531,-3.3197031021118164,0.10687077790498734,0.41577744483947754,-0.17680716514587402,25.810531616210938,-10.949012756347656,24.025146484375,-0.4109777510166168,-0.5864682197570801,-1.37261962890625,-0.0027222633361816406,7.273975849151611,-1.9470834732055664
4_20251106_214321,1762436567910,4,0.29519015550613403,0.3073521554470062,0.6932913661003113,0.5811578631401062,-0.18904218077659607,3.2958121299743652,1.5575685501098633,-0.19104881584644318,6.533088207244873,-3.417860984802246,-0.02263253927230835,0.37912553548812866,-0.1010599285364151,25.774160385131836,-10.219512939453125,24.7000732421875,-0.09314049780368805,-0.47435998916625977,-0.9497249126434326,-0.09790831804275513,7.007448196411133,-2.4681360721588135
4_20251106_214321,1762436567930,4,0.29281407594680786,0.30431538820266724,0.6950302124023438,0.5818806886672974,-0.18904218077659607,3.2958121299743652,1.5575685501098633,-0.19104881584644318,6.533088207244873,-3.417860984802246,-0.02263253927230835,0.37912553548812866,-0.1010599285364151,25.618839263916016,-9.672149658203125,25.28579330444336,-0.09314049780368805,-0.47435998916625977,-0.9497249126434326,-0.09790831804275513,7.007448196411133,-2.4681360721588135
4_20251106_214321,1762436567952,4,0.2903802990913391,0.3008838891983032,0.6960493922233582,0.583663821220398,-0.16490957140922546,3.23944091796875,1.426662564277649,0.002873167395591736,6.602517127990723,-3.8188724517822266,-0.3970925807952881,0.37851467728614807,-0.0851774513721466,25.445383071899414,-9.238059997558594,25.81458282470703,0.07196974009275436,-0.2438335418701172,-0.8970310688018799,-0.06909657269716263,6.84635066986084,-2.9218413829803467
4_20251106_214321,1762436567968,4,0.28886258602142334,0.2969192862510681,0.6956703066825867,0.5868902802467346,-0.15384264290332794,3.2143282890319824,1.3651418685913086,-0.033038318157196045,7.0777459144592285,-3.3496289253234863,-0.7849917411804199,0.22579850256443024,-0.10411426424980164,25.280488967895508,-8.866096496582031,26.356060028076172,0.028846602886915207,0.18511629104614258,-0.34223008155822754,-0.06188492104411125,6.892629623413086,-3.007398843765259
4_20251106_214321,1762436567987,4,0.2895957827568054,0.2927286624908447,0.6927167177200317,0.5921044945716858,-0.14397244155406952,3.192345380783081,1.3089604377746582,-0.2963891923427582,7.575718402862549,-2.1825060844421387,-1.1521214246749878,0.12622755765914917,-0.12244021892547607,25.10831069946289,-8.654815673828125,26.63729476928711,-0.1876034140586853,0.546471118927002,0.6599142551422119,-0.10878577828407288,7.029247283935547,-2.8424203395843506
4_20251106_214321,1762436568006,4,0.2920772135257721,0.28787124156951904,0.6873654127120972,0.5994579792022705,-0.1356162279844284,3.1744093894958496,1.260787844657898,-0.48073479533195496,8.103617668151855,-0.9471510648727417,-1.3127788305282593,0.14638610184192657,-0.12488366663455963,25.005802154541016,-8.737586975097656,26.739917755126953,-0.2975592017173767,0.8594961166381836,1.516215443611145,-0.18317557871341705,7.244121551513672,-2.4633665084838867
4_20251106_214321,1762436568026,4,0.29494526982307434,0.2822854518890381,0.6809240579605103,0.6080005764961243,-0.1356162279844284,3.1744093894958496,1.260787844657898,-0.48073479533195496,8.103617668151855,-0.9471510648727417,-1.2394750118255615,0.2575634717941284,-0.09189696609973907,24.95384407043457,-8.791534423828125,26.790966033935547,-0.2975592017173767,0.8594961166381836,1.516215443611145,-0.18317557871341705,7.244121551513672,-2.4633665084838867
4_20251106_214321,1762436568044,4,0.29675015807151794,0.2763320505619049,0.6748690605163574,0.6165481805801392,-0.12832897901535034,3.1591553688049316,1.2177598476409912,-0.626774787902832,8.311903953552246,-0.2097686529159546,-1.2394750118255615,0.2575634717941284,-0.09189696609973907,24.852825164794922,-9.085235595703125,26.713882446289062,-0.35487937927246094,0.8542261123657227,1.8028782606124878,-0.2718954086303711,7.457677841186523,-2.0126469135284424
4_20251106_214321,1762436568064,4,0.2968786954879761,0.2706161141395569,0.6699966192245483,0.6242871880531311,-0.11942625790834427,3.141315221786499,1.161681056022644,-0.6291688680648804,8.472309112548828,-0.26483291387557983,-1.0348353385925293,0.3772929310798645,-0.024090975522994995,24.771230697631836,-9.476860046386719,26.541053771972656,-0.21275818347930908,0.6564507484436035,1.0588443279266357,-0.4164106845855713,7.815858364105225,-1.3236771821975708
4_20251106_214321,1762436568082,4,0.29555273056030273,0.26527464389801025,0.66609126329422,0.6313480138778687,-0.11603634804487228,3.136113405227661,1.1395885944366455,-0.5357990264892578,8.557299613952637,-0.6957706809043884,-0.8925039172172546,0.3559126853942871,0.10113629698753357,24.66323471069336,-9.919219970703125,26.258056640625,-0.09551069140434265,0.5931529998779297,0.5023251175880432,-0.44028833508491516,7.964146614074707,-1.1980957984924316
4_20251106_214321,1762436568102,4,0.2947281002998352,0.26101064682006836,0.661550760269165,0.6382471323013306,-0.11289577931165695,3.1331584453582764,1.1194074153900146,-0.5346019864082336,8.788330078125,-0.47910475730895996,-1.0678220987319946,0.19708788394927979,0.16466620564460754,24.56521224975586,-10.398590087890625,25.98827362060547,-0.07545092701911926,0.6593465805053711,0.5751928091049194,-0.4591510593891144,8.128983497619629,-1.0542975664138794
4_20251106_214321,1762436568121,4,0.294840008020401,0.2576265037059784,0.6553747653961182,0.6458961367607117,-0.11013742536306381,3.1324007511138916,1.1027542352676392,-0.5848780274391174,8.851773262023926,0.10625238716602325,-1.1637277603149414,0.12561669945716858,0.23186132311820984,24.51028060913086,-10.986854553222656,25.623462677001953,-0.10058155655860901,0.5782318115234375,0.9284399747848511,-0.4842964708805084,8.273541450500488,-0.822187602519989
4_20251106_214321,1762436568140,4,0.29522183537483215,0.2548366189002991,0.6481472253799438,0.6540699601173401,-0.10785171389579773,3.133434772491455,1.091119408607483,-0.5585429668426514,8.89965534210205,0.4150911271572113,-1.1380715370178223,0.1292818933725357,0.294169545173645,24.385967254638672,-11.505218505859375,25.324874877929688,-0.05939719080924988,0.5008916854858398,0.9898229837417603,-0.4991457760334015,8.398763656616211,-0.5747318267822266
4_20251106_214321,1762436568159,4,0.29516616463661194,0.25244441628456116,0.6407817602157593,0.6622291803359985,-0.10527835786342621,3.1368651390075684,1.0837738513946533,-0.35265052318573,9.29109001159668,0.7766000628471375,-1.1496779918670654,0.17876192927360535,0.3155498206615448,24.267398834228516,-12.135940551757812,25.037918090820312,0.11719620227813721,0.7138614654541016,1.0810655355453491,-0.4698467254638672,8.577228546142578,-0.30446547269821167
4_20251106_214321,1762436568179,4,0.29460883140563965,0.24973928928375244,0.6333529353141785,0.670596718788147,-0.10206488519906998,3.143339157104492,1.0815160274505615,-0.25928062200546265,9.57838249206543,1.3691394329071045,-1.255968451499939,0.20747257769107819,0.24774381518363953,24.100269317626953,-12.781181335449219,24.627090454101562,0.1684528887271881,0.8009233474731445,1.338883876800537,-0.42773351073265076,8.777459144592285,0.030255496501922607
4_20251106_214321,1762436568197,4,0.29453548789024353,0.24617069959640503,0.6253471374511719,0.6794040203094482,-0.09909121692180634,3.151179552078247,1.084969401359558,-0.33589181303977966,9.713648796081543,2.2166504859924316,-1.282846450805664,0.13050362467765808,0.1872681975364685,24.100269317626953,-12.781181335449219,24.627090454101562,0.07347336411476135,0.7489519119262695,1.7491159439086914,-0.409365177154541,8.964696884155273,0.46753448247909546
4_20251106_214321,1762436568216,4,0.2954328954219818,0.24270987510681152,0.6168982982635498,0.6879300475120544,-0.09592083841562271,3.1617929935455322,1.0950374603271484,-0.34068000316619873,9.967422485351562,2.875027656555176,-1.1588408946990967,0.03765217214822769,0.192155122756958,23.924083709716797,-13.364967346191406,24.271156311035156,0.05494815111160278,0.802180290222168,1.925994634628296,-0.3956281542778015,9.165242195129395,0.9490330219268799
4_20251106_214321,1762436568235,4,0.2964530885219574,0.24004292488098145,0.6088422536849976,0.6955616474151611,-0.09592083841562271,3.1617929935455322,1.0950374603271484,-0.34068000316619873,9.967422485351562,2.875027656555176,-1.1588408946990967,0.03765217214822769,0.192155122756958,23.759366989135742,-13.972129821777344,23.820571899414062,0.05494815111160278,0.802180290222168,1.925994634628296,-0.3956281542778015,9.165242195129395,0.9490330219268799
4_20251106_214321,1762436568254,4,0.2971842885017395,0.23766915500164032,0.6019609570503235,0.7020241022109985,-0.08740251511335373,3.1896066665649414,1.1326831579208374,0.20038631558418274,10.270276069641113,3.641139507293701,-0.7214617729187012,0.18487057089805603,0.05959749221801758,23.716806411743164,-14.570945739746094,23.33434295654297,0.43833306431770325,0.7187137603759766,1.7738946676254272,-0.2379467487335205,9.551562309265137,1.867244839668274
4_20251106_214321,1762436568273,4,0.2973380982875824,0.23454666137695312,0.5972541570663452,0.7070115804672241,-0.08088892698287964,3.2055253982543945,1.157911777496338,0.43979620933532715,10.242744445800781,3.6638832092285156,-0.44596177339553833,0.21358121931552887,-0.08090139925479889,23.603145599365234,-15.136993408203125,22.859477996826172,0.5421943664550781,0.5529460906982422,1.4373106956481934,-0.10239816457033157,9.689798355102539,2.2265725135803223
4_20251106_214321,1762436568293,4,0.2975824773311615,0.23124217987060547,0.594721794128418,0.7101251482963562,-0.07301454991102219,3.2234089374542236,1.1863853931427002,0.34522929787635803,10.336114883422852,3.293994903564453,-0.44596177339553833,0.21358121931552887,-0.08090139925479889,23.458467483520508,-15.6051025390625,22.39876937866211,0.3581019639968872,0.5170536041259766,0.853938102722168,-0.012872673571109772,9.819061279296875,2.440056800842285
4_20251106_214321,1762436568312,4,0.2994249165058136,0.22915217280387878,0.5927699208259583,0.7116584777832031,-0.07301454991102219,3.2234089374542236,1.1863853931427002,0.34522929787635803,10.336114883422852,3.293994903564453,-0.30668461322784424,0.015661047771573067,-0.1926896572113037,23.362125396728516,-16.082183837890625,21.899211883544922,0.3581019639968872,0.5170536041259766,0.853938102722168,-0.012872673571109772,9.819061279296875,2.440056800842285
4_20251106_214321,1762436568331,4,0.3032028377056122,0.22833645343780518,0.589770495891571,0.7128122448921204,-0.06562864780426025,3.2427799701690674,1.2163299322128296,-0.15274322032928467,10.276262283325195,2.900165557861328,-0.47467240691185,-0.22440879046916962,-0.21101558208465576,23.26357650756836,-16.372512817382812,21.48421859741211,-0.11189644038677216,0.36576080322265625,0.3680870532989502,-0.04084677994251251,9.910501480102539,2.532078504562378
4_20251106_214321,1762436568351,4,0.30686455965042114,0.22721955180168152,0.5862242579460144,0.7145254015922546,-0.0582268200814724,3.273094892501831,1.2618025541305542,-0.7536620497703552,9.761530876159668,2.1579949855804443,-0.5663021802902222,-0.03320813551545143,-0.11572068929672241,23.212177276611328,-16.673439025878906,21.192569732666016,-0.47746139764785767,-0.14149951934814453,-0.29476499557495117,-0.27620065212249756,9.903030395507812,2.4527599811553955
4_20251106_214321,1762436568370,4,0.30896711349487305,0.22495293617248535,0.5825252532958984,0.7173561453819275,-0.05580743029713631,3.288668155670166,1.2848916053771973,-0.5381931066513062,9.608308792114258,1.9712553024291992,-0.6823664307594299,0.1243949756026268,-0.04608210548758507,23.214542388916016,-16.894760131835938,20.796337127685547,-0.20959395170211792,-0.2357769012451172,-0.38520383834838867,-0.32859915494918823,9.844085693359375,2.356459140777588
4_20251106_214321,1762436568388,4,0.3099874258041382,0.22168371081352234,0.5783934593200684,0.7212663292884827,-0.05404985696077347,3.300046443939209,1.3023490905761719,-0.41489705443382263,9.315032005310059,1.8108506202697754,-0.8295848369598389,0.1396665871143341,-0.0699058324098587,23.185197830200195,-17.019088745117188,20.508872985839844,-0.06903830170631409,-0.42324256896972656,-0.43648672103881836,-0.34585875272750854,9.738274574279785,2.2473373413085938
4_20251106_214321,1762436568408,4,0.3114134967327118,0.21786323189735413,0.5733238458633423,0.7258491516113281,-0.05272475257515907,3.310853958129883,1.3203775882720947,-0.5202374458312988,9.34256362915039,2.116098403930664,-1.0262832641601562,0.03887390345335007,-0.10350339114665985,23.21637535095215,-17.151596069335938,20.18305206298828,-0.13950297236442566,-0.31656837463378906,-0.10499119758605957,-0.38073447346687317,9.65913200378418,2.2210896015167236
4_20251106_214321,1762436568427,4,0.31404024362564087,0.21405191719532013,0.5666344165802002,0.731085479259491,-0.05263388529419899,3.31896710395813,1.337587833404541,-0.803938090801239,9.201311111450195,2.950441837310791,-1.128908634185791,-0.081466443836689,-0.13099230825901031,23.261049270629883,-17.258331298828125,19.87176513671875,-0.33856290578842163,-0.3662567138671875,0.5834817886352539,-0.4653751850128174,9.567567825317383,2.366960048675537
4_20251106_214321,1762436568446,4,0.31777286529541016,0.21063241362571716,0.5588358640670776,0.7364488244056702,-0.054054830223321915,3.326566696166992,1.3590527772903442,-0.9643428325653076,9.250391006469727,3.452005386352539,-1.1087501049041748,-0.06314050406217575,-0.14076614379882812,23.27922248840332,-17.415939331054688,19.463825225830078,-0.3991740942001343,-0.2537412643432617,0.8680362701416016,-0.5651687383651733,9.504132270812988,2.5839691162109375
4_20251106_214321,1762436568464,4,0.3213619589805603,0.2068832665681839,0.5511227250099182,0.7417476773262024,-0.05659753456711769,3.331608295440674,1.3799642324447632,-1.1043975353240967,8.912822723388672,3.623183488845825,-1.0782067775726318,0.08713221549987793,-0.17130938172340393,23.34653663635254,-17.56983184814453,19.0037841796875,-0.43138301372528076,-0.47304725646972656,0.831371545791626,-0.6730145215988159,9.385869979858398,2.791811943054199
4_20251106_214321,1762436568484,4,0.3243272006511688,0.20194821059703827,0.5440418720245361,0.7470256090164185,-0.0604400672018528,3.3341710567474365,1.403535008430481,-1.054121494293213,8.478294372558594,3.2844185829162598,-1.0391113758087158,0.2887175679206848,-0.19696570932865143,23.4386043548584,-17.73321533203125,18.39577865600586,-0.3048856258392334,-0.7260608673095703,0.394085168838501,-0.7492358684539795,9.204355239868164,2.890333414077759
4_20251106_214321,1762436568503,4,0.32639360427856445,0.19555501639842987,0.5378298759460449,0.7523061037063599,-0.0604400672018528,3.3341710567474365,1.403535008430481,-1.054121494293213,8.478294372558594,3.2844185829162598,-1.0220072269439697,0.31681734323501587,-0.2085721343755722,23.49321174621582,-17.91180419921875,17.813072204589844,-0.3048856258392334,-0.7260608673095703,0.394085168838501,-0.7492358684539795,9.204355239868164,2.890333414077759
4_20251106_214321,1762436568521,4,0.3284130096435547,0.18905295431613922,0.5318243503570557,0.7573418617248535,-0.0679071769118309,3.330495834350586,1.4456775188446045,-0.7512679100036621,8.158681869506836,3.151546001434326,-1.0220072269439697,0.31681734323501587,-0.2085721343755722,23.571796417236328,-18.089340209960938,17.285411834716797,0.023789644241333008,-0.6569728851318359,0.1761777400970459,-0.7750575542449951,8.815654754638672,2.9753682613372803
4_20251106_214321,1762436568542,4,0.3306684195995331,0.1822931170463562,0.5250449776649475,0.7627289295196533,-0.07151847332715988,3.3262252807617188,1.4685088396072388,-0.815908670425415,8.274795532226562,3.9188547134399414,-1.3451547622680664,0.1818162500858307,-0.2293415367603302,23.673851013183594,-18.278114318847656,16.785499572753906,-0.03268086910247803,-0.43268775939941406,0.7547893524169922,-0.783227801322937,8.707483291625977,3.164065361022949
4_20251106_214321,1762436568560,4,0.33396801352500916,0.17572952806949615,0.5162091851234436,0.7688384652137756,-0.07547293603420258,3.3215200901031494,1.4977213144302368,-0.8961108922958374,8.564481735229492,5.26314115524292,-1.5082554817199707,0.1292818933725357,-0.2036852240562439,23.71778106689453,-18.4322509765625,16.189315795898438,-0.09030646085739136,-0.11440086364746094,1.6792607307434082,-0.805804431438446,8.678882598876953,3.5838804244995117
4_20251106_214321,1762436568580,4,0.337577760219574,0.16909073293209076,0.5057908296585083,0.7756450176239014,-0.07968699187040329,3.316014051437378,1.5310574769973755,-1.0409538745880127,8.219731330871582,6.125016689300537,-1.3909695148468018,0.15738166868686676,-0.16947677731513977,23.701065063476562,-18.6015625,15.45525074005127,-0.1881195306777954,-0.3673210144042969,2.0329089164733887,-0.8528343439102173,8.587052345275879,4.092107772827148
4_20251106_214321,1762436568599,4,0.3406359553337097,0.16271929442882538,0.4960051476955414,0.7819644808769226,-0.07968699187040329,3.316014051437378,1.5310574769973755,-1.0409538745880127,8.219731330871582,6.125016689300537,-1.1038631200790405,0.2722242474555969,-0.13465750217437744,23.701065063476562,-18.6015625,15.45525074005127,-0.1881195306777954,-0.3673210144042969,2.0329089164733887,-0.8528343439102173,8.587052345275879,4.092107772827148
4_20251106_214321,1762436568619,4,0.3423880338668823,0.15644752979278564,0.48848551511764526,0.7871953248977661,-0.08436715602874756,3.3083508014678955,1.5736727714538574,-0.8649876713752747,8.15030288696289,5.708443641662598,-1.0427765846252441,0.2722242474555969,-0.14443133771419525,23.744686126708984,-18.767715454101562,14.804736137390137,-0.009722650051116943,-0.3493995666503906,1.2930688858032227,-0.8552650213241577,8.499702453613281,4.415374755859375
4_20251106_214321,1762436568637,4,0.3441028892993927,0.15043607354164124,0.4814642071723938,0.7919307947158813,-0.0898943543434143,3.295109987258911,1.6433669328689575,-0.5705134272575378,8.337041854858398,5.309825897216797,-1.20832097530365,0.19036836922168732,-0.1926896572113037,23.75864028930664,-19.081825256347656,13.717551231384277,0.19449883699417114,-0.08897209167480469,0.6130528450012207,-0.765012264251709,8.426013946533203,4.696773052215576
4_20251106_214321,1762436568656,4,0.3467507064342499,0.14440792798995972,0.4730743169784546,0.7969384789466858,-0.0926959291100502,3.288628339767456,1.682389259338379,-0.9152637720108032,8.465126037597656,6.196839332580566,-1.20832097530365,0.19036836922168732,-0.1926896572113037,23.75864028930664,-19.081825256347656,13.717551231384277,-0.1202012300491333,0.03129005432128906,1.2000532150268555,-0.7950625419616699,8.433835983276367,4.996786117553711
4_20251106_214321,1762436568675,4,0.35000091791152954,0.13783690333366394,0.46341946721076965,0.802335798740387,-0.0926959291100502,3.288628339767456,1.682389259338379,-0.9152637720108032,8.465126037597656,6.196839332580566,-1.3702001571655273,0.12195151299238205,-0.2085721343755722,23.73187828063965,-19.19103240966797,13.173544883728027,-0.1202012300491333,0.03129005432128906,1.2000532150268555,-0.7950625419616699,8.433835983276367,4.996786117553711
4_20251106_214321,1762436568694,4,0.35316723585128784,0.1315845102071762,0.45339587330818176,0.8077070116996765,-0.10303851962089539,3.275791645050049,1.7689661979675293,-1.6227198839187622,8.36337661743164,6.99287748336792,-1.2663531303405762,0.04131736233830452,-0.05157988891005516,23.73925018310547,-19.347549438476562,12.575888633728027,-0.5655163526535034,-0.036475181579589844,1.3085265159606934,-1.0572035312652588,8.39985179901123,5.684350967407227
4_20251106_214321,1762436568714,4,0.3553444445133209,0.12683221697807312,0.4436027705669403,0.8129332661628723,-0.1104452982544899,3.2698373794555664,1.8178489208221436,-1.5125913619995117,8.516599655151367,7.154479026794434,-1.1899950504302979,0.029710935428738594,0.10846665501594543,23.74590301513672,-19.528236389160156,11.883090019226074,-0.36431026458740234,0.0933980941772461,1.1761021614074707,-1.1482810974121094,8.423201560974121,5.978376865386963
4_20251106_214321,1762436568731,4,0.3558083474636078,0.12283367663621902,0.43421170115470886,0.818396270275116,-0.11664538830518723,3.265421152114868,1.8600232601165771,-1.248043417930603,8.601590156555176,7.208346366882324,-1.1399041414260864,0.052923791110515594,0.18421387672424316,23.73928451538086,-19.711196899414062,11.338480949401855,-0.07980990409851074,0.14271068572998047,0.9839754104614258,-1.1682335138320923,8.458879470825195,6.224370956420898
4_20251106_214321,1762436568752,4,0.3559344708919525,0.11941103637218475,0.4251113831996918,0.8236091136932373,-0.12356700003147125,3.26108980178833,1.9136123657226562,-1.0625008344650269,8.712915420532227,7.446558952331543,-1.1166913509368896,0.04803687334060669,0.19398772716522217,23.805978775024414,-19.889129638671875,10.769780158996582,0.08458614349365234,0.20322895050048828,0.977750301361084,-1.1470869779586792,8.509686470031738,6.468808650970459
4_20251106_214321,1762436568771,4,0.3559049665927887,0.11619704961776733,0.4161493480205536,0.828643262386322,-0.12356700003147125,3.26108980178833,1.9136123657226562,-1.0625008344650269,8.712915420532227,7.446558952331543,-1.0592700242996216,0.030321797356009483,0.16405534744262695,23.83611488342285,-20.069442749023438,10.19960880279541,0.08458614349365234,0.20322895050048828,0.977750301361084,-1.1470869779586792,8.509686470031738,6.468808650970459
4_20251106_214321,1762436568790,4,0.3561626374721527,0.11327722668647766,0.40756818652153015,0.8331894278526306,-0.13574440777301788,3.255049705505371,2.0139646530151367,-1.2863489389419556,8.629121780395508,7.895452499389648,-0.9401513338088989,0.033376120030879974,0.21231365203857422,23.7955322265625,-20.228057861328125,9.491860389709473,-0.10464143753051758,0.06647968292236328,0.9268417358398438,-1.181707501411438,8.562642097473145,6.968610763549805
4_20251106_214321,1762436568809,4,0.3558570444583893,0.11085522919893265,0.3998541831970215,0.8373730182647705,-0.1415022611618042,3.2517659664154053,2.0634043216705322,-1.1654469966888428,8.343027114868164,7.520776271820068,-0.811869740486145,0.013828449882566929,0.30394336581230164,23.716278076171875,-20.426727294921875,8.781847953796387,0.013008356094360352,-0.1756916046142578,0.44173240661621094,-1.1784553527832031,8.518718719482422,7.079043865203857
4_20251106_214321,1762436568829,4,0.3547942638397217,0.10935664176940918,0.3929959237575531,0.8412588238716125,-0.1415022611618042,3.2517659664154053,2.0634043216705322,-1.1654469966888428,8.343027114868164,7.520776271820068,-0.7575027942657471,0.0010002910858020186,0.3717493712902069,23.64801025390625,-20.637832641601562,8.139643669128418,0.013008356094360352,-0.1756916046142578,0.44173240661621094,-1.1784553527832031,8.518718719482422,7.079043865203857
4_20251106_214321,1762436568850,4,0.3531070947647095,0.1083899661898613,0.3864915370941162,0.8450983762741089,-0.14720523357391357,3.2463738918304443,2.1204090118408203,-0.9499781131744385,8.116785049438477,7.116173267364502,-0.7776613235473633,0.0016111558070406318,0.36625155806541443,23.495948791503906,-20.829246520996094,7.481017112731934,0.18278181552886963,-0.3215475082397461,0.029703617095947266,-1.132759928703308,8.438332557678223,7.086469650268555
4_20251106_214321,1762436568866,4,0.3514515161514282,0.10737064480781555,0.37986165285110474,0.8489160537719727,-0.15054194629192352,3.2403416633605957,2.167189836502075,-0.6806420087814331,7.919271469116211,6.984498023986816,-0.7874351739883423,0.006498073693364859,0.3063868284225464,23.269065856933594,-21.050949096679688,6.859469413757324,0.3616943359375,-0.4152488708496094,-0.08157730102539062,-1.042336344718933,8.33452033996582,7.066075325012207
4_20251106_214321,1762436568885,4,0.35026782751083374,0.10611546039581299,0.3732098937034607,0.8525059223175049,-0.1523999571800232,3.2270164489746094,2.2384519577026367,-0.4268675446510315,7.5218505859375,7.1867995262146,-0.7911003828048706,0.03765217214822769,0.19398772716522217,23.08054542541504,-21.244613647460938,6.185856819152832,0.4057748317718506,-0.5427093505859375,0.11499500274658203,-0.8326423764228821,8.064559936523438,7.071804523468018
4_20251106_214321,1762436568904,4,0.34985819458961487,0.10420610010623932,0.3667145371437073,0.8557223677635193,-0.15190085768699646,3.2168874740600586,2.27758526802063,-0.502281665802002,7.252514839172363,7.399874210357666,-0.7556701898574829,0.13783399760723114,0.04371500387787819,22.85377311706543,-21.454566955566406,5.6456708908081055,0.2642885446548462,-0.6496362686157227,0.26245594024658203,-0.7665702104568481,7.902151107788086,7.137418270111084
4_20251106_214321,1762436568923,4,0.35033562779426575,0.10109154880046844,0.3609345257282257,0.8583540916442871,-0.15115155279636383,3.2049636840820312,2.315232515335083,-0.6662774085998535,7.063381195068359,7.308897972106934,-0.7061901688575745,0.17998366057872772,-0.04791470244526863,22.655405044555664,-21.587860107421875,5.1350812911987305,0.08023422956466675,-0.671015739440918,0.13718366622924805,-0.7465116381645203,7.734396934509277,7.1717143058776855
4_20251106_214321,1762436568942,4,0.3512868881225586,0.0974067896604538,0.3557458519935608,0.8605546355247498,-0.15059727430343628,3.1915061473846436,2.35174822807312,-0.803938090801239,6.958041191101074,7.445362091064453,-0.7257378101348877,0.1091233417391777,-0.04241691902279854,22.480012893676758,-21.733062744140625,4.719822883605957,-0.045941174030303955,-0.6210846900939941,0.2189183235168457,-0.7579969167709351,7.579125881195068,7.226443767547607
4_20251106_214321,1762436568960,4,0.35247987508773804,0.09422893822193146,0.35016393661499023,0.8627073764801025,-0.15031470358371735,3.177478790283203,2.3858559131622314,-0.8458348512649536,6.801227569580078,7.731456756591797,-0.7367334365844727,0.0242131520062685,-0.011262817308306694,22.369272232055664,-21.811241149902344,4.281304359436035,-0.07027029991149902,-0.6223182678222656,0.4040102958679199,-0.7755645513534546,7.423545837402344,7.327446460723877
4_20251106_214321,1762436568981,4,0.35368332266807556,0.09176544100046158,0.3441719114780426,0.8648889660835266,-0.1502530872821808,3.159693717956543,2.4255502223968506,-0.8506230115890503,6.755739212036133,7.8918609619140625,-0.6982489228248596,-0.03320813179016113,0.008284853771328926,22.272113800048828,-21.8751220703125,3.748927116394043,-0.06004679203033447,-0.5342450141906738,0.45153188705444336,-0.7905762195587158,7.289984226226807,7.440329074859619
4_20251106_214321,1762436568999,4,0.3549030125141144,0.08994632959365845,0.3382360637187958,0.866919755935669,-0.1504834145307541,3.143728017807007,2.459273338317871,-0.9044901728630066,6.687507629394531,8.009172439575195,-0.6689274311065674,-0.04359283298254013,-0.010651953518390656,22.210315704345703,-21.949851989746094,3.2853384017944336,-0.09113115072250366,-0.4819812774658203,0.4550747871398926,-0.8133590221405029,7.169488906860352,7.554097652435303
4_20251106_214321,1762436569021,4,0.3563084304332733,0.08825140446424484,0.33250823616981506,0.8687314391136169,-0.15137475728988647,3.1246676445007324,2.496180772781372,-1.026589274406433,6.443309307098389,7.985231399536133,-0.6121169924736023,0.0003894263645634055,-0.043638646602630615,22.12686538696289,-21.97607421875,2.835341453552246,-0.17058420181274414,-0.5809440612792969,0.3449068069458008,-0.856005072593689,7.0242533683776855,7.640324592590332
4_20251106_214321,1762436569040,4,0.3577449321746826,0.08624037355184555,0.327426552772522,0.8702718019485474,-0.1531365066766739,3.103005886077881,2.5334737300872803,-1.116368055343628,6.23382568359375,7.78292989730835,-0.5791302919387817,0.06208676099777222,-0.06929497420787811,22.00918197631836,-21.95513153076172,2.452509880065918,-0.20829033851623535,-0.6323423385620117,0.11408424377441406,-0.9080777168273926,6.866168022155762,7.6688456535339355
4_20251106_214321,1762436569058,4,0.35911616683006287,0.08368649333715439,0.32284632325172424,0.871666431427002,-0.1548358052968979,3.084960699081421,2.5621414184570312,-1.0648947954177856,6.23502254486084,7.663225173950195,-0.609062671661377,0.14088831841945648,-0.06440804898738861,22.00918197631836,-21.95513153076172,2.452509880065918,-0.1254536509513855,-0.5049166679382324,-0.004496574401855469,-0.9394411444664001,6.739939212799072,7.667721748352051
4_20251106_214321,1762436569076,4,0.3602180480957031,0.08036690950393677,0.31830036640167236,0.873194694519043,-0.1569809764623642,3.06404447555542,2.592715263366699,-1.0636979341506958,6.099756240844727,7.717092514038086,-0.6707600355148315,0.15127301216125488,-0.05891026183962822,21.967025756835938,-21.891342163085938,2.032862663269043,-0.09940540790557861,-0.5121464729309082,0.039496421813964844,-0.9642925262451172,6.611902713775635,7.677596092224121
4_20251106_214321,1762436569095,4,0.36133766174316406,0.07681634277105331,0.3132948577404022,0.8748603463172913,-0.15913577377796173,3.0437583923339844,2.621054172515869,-1.0553184747695923,6.018356800079346,8.011566162109375,-0.6707600355148315,0.15127301216125488,-0.05891026183962822,21.946014404296875,-21.888343811035156,1.5723276138305664,-0.07282078266143799,-0.4748368263244629,0.26717615127563477,-0.9824976921081543,6.493193626403809,7.74439001083374
4_20251106_214321,1762436569114,4,0.3623769283294678,0.0736798420548439,0.30767908692359924,0.8766914010047913,-0.1616971641778946,3.0208253860473633,2.652860403060913,-1.076865315437317,5.993218898773193,8.367090225219727,-0.7074118852615356,0.04498254880309105,0.00889571849256754,21.962575912475586,-21.85839080810547,1.1678571701049805,-0.07549405097961426,-0.3999795913696289,0.49815988540649414,-1.0013712644577026,6.393198490142822,7.868930339813232
4_20251106_214321,1762436569134,4,0.36328184604644775,0.07108559459447861,0.30189910531044006,0.8785386085510254,-0.16396333277225494,2.997746706008911,2.6848199367523193,-0.946386992931366,5.968080997467041,8.4425048828125,-0.6603753566741943,0.07674751430749893,0.019280418753623962,22.00472068786621,-21.802001953125,0.7919282913208008,0.0439874529838562,-0.34009408950805664,0.4588594436645508,-0.9903744459152222,6.308175086975098,7.983645439147949
4_20251106_214321,1762436569153,4,0.364030659198761,0.06842313706874847,0.2965790033340454,0.8802504539489746,-0.16396333277225494,2.997746706008911,2.6848199367523193,-0.946386992931366,5.968080997467041,8.4425048828125,-0.6432710886001587,0.10790161788463593,-0.006986764259636402,21.960561752319336,-21.764137268066406,0.4528512954711914,0.0439874529838562,-0.34009408950805664,0.4588594436645508,-0.9903744459152222,6.308175086975098,7.983645439147949
4_20251106_214321,1762436569172,4,0.3642021119594574,0.06528989225625992,0.29157230257987976,0.8820882439613342,-0.16710947453975677,2.9538557529449463,2.745177984237671,-0.930825412273407,5.866331577301025,8.634031295776367,-0.6396059393882751,0.09018654376268387,-0.030199620872735977,21.965951919555664,-21.710403442382812,0.10248374938964844,0.02585357427597046,-0.2871856689453125,0.4445934295654297,-0.9566789865493774,6.153517246246338,8.189437866210938
4_20251106_214321,1762436569191,4,0.36518430709838867,0.062471482902765274,0.2864995300769806,0.8835472464561462,-0.16863685846328735,2.9324514865875244,2.7760167121887207,-0.9990571737289429,5.920198917388916,8.991949081420898,-0.628610372543335,0.06758454442024231,-0.04852556437253952,22.021804809570312,-21.616363525390625,-0.19106483459472656,-0.033902525901794434,-0.18665456771850586,0.6420087814331055,-0.9651546478271484,6.106853485107422,8.349940299987793
4_20251106_214321,1762436569211,4,0.36638766527175903,0.059818994253873825,0.28144875168800354,0.8848549723625183,-0.17043106257915497,2.9100613594055176,2.809040069580078,-1.052924394607544,5.782538414001465,9.068561553955078,-0.5559174418449402,0.05658898130059242,-0.04119518771767616,22.0765438079834,-21.547027587890625,-0.5256900787353516,-0.07021576166152954,-0.25945186614990234,0.5748968124389648,-0.9827086329460144,6.041990280151367,8.493664741516113
4_20251106_214321,1762436569229,4,0.36751702427864075,0.05751895159482956,0.27695736289024353,0.8859556913375854,-0.17205841839313507,2.8900489807128906,2.8381364345550537,-1.020604133605957,5.689168453216553,8.843515396118164,-0.5003287196159363,0.023602286353707314,-0.022869247943162918,22.145275115966797,-21.451248168945312,-0.9133625030517578,-0.030316412448883057,-0.2822575569152832,0.2798805236816406,-0.990287721157074,5.971426010131836,8.563634872436523
4_20251106_214321,1762436569249,4,0.36853328347206116,0.05571514368057251,0.27279943227767944,0.8869382739067078,-0.1737537682056427,2.8689637184143066,2.8678154945373535,-1.0134217739105225,5.600586414337158,8.74655532836914,-0.5027722120285034,0.0016111558070406318,-0.014928005635738373,22.177967071533203,-21.333953857421875,-1.1803312301635742,-0.01850724220275879,-0.29667186737060547,0.14633655548095703,-0.9949145317077637,5.897258281707764,8.600218772888184
4_20251106_214321,1762436569267,4,0.36966049671173096,0.054156530648469925,0.2685577869415283,0.8878597021102905,-0.17542169988155365,2.848020076751709,2.8965401649475098,-1.0158157348632812,5.564675331115723,8.79323959350586,-0.5345371961593628,0.009552396833896637,-0.01859319396317005,22.173778533935547,-21.24266815185547,-1.5979785919189453,-0.016720950603485107,-0.2660665512084961,0.1544170379638672,-0.9990947842597961,5.830741882324219,8.638822555541992
4_20251106_214321,1762436569286,4,0.37075668573379517,0.05239217355847359,0.26409444212913513,0.8888468146324158,-0.1771506369113922,2.8272886276245117,2.9249978065490723,-1.0517274141311646,5.526370048522949,9.064970016479492,-0.5418675541877747,-0.0026648971252143383,-0.01553887128829956,22.155302047729492,-21.178237915039062,-1.9220304489135742,-0.04210615158081055,-0.2434978485107422,0.34091854095458984,-1.009621262550354,5.769867897033691,8.724051475524902
4_20251106_214321,1762436569305,4,0.37187981605529785,0.05071750655770302,0.25952988862991333,0.8898187279701233,-0.17881011962890625,2.8066694736480713,2.953372001647949,-1.0158158540725708,5.432999610900879,9.212206840515137,-0.5418675541877747,-0.0026648971252143383,-0.01553887128829956,22.185359954833984,-21.122512817382812,-2.3119659423828125,-0.004955649375915527,-0.26949453353881836,0.39052391052246094,-1.0108602046966553,5.702494144439697,8.821682929992676
4_20251106_214321,1762436569324,4,0.37290844321250916,0.04933536797761917,0.2553936541080475,0.8906623125076294,-0.1803969442844391,2.7864108085632324,2.981536865234375,-1.0146188735961914,5.4581379890441895,9.262483596801758,-0.484446257352829,-0.013660462573170662,-0.007597628980875015,22.168292999267578,-21.03296661376953,-2.6354894638061523,-0.0030069351196289062,-0.19548511505126953,0.35264015197753906,-1.0116119384765625,5.653623104095459,8.909843444824219
4_20251106_214321,1762436569344,4,0.3740392029285431,0.04774816706776619,0.2520211338996887,0.8912351727485657,-0.18209001421928406,2.766451358795166,3.0089621543884277,-1.0792593955993652,5.393496990203857,9.15355110168457,-0.3763231933116913,0.0987386479973793,-0.07784707844257355,22.1021728515625,-20.9586181640625,-3.015303611755371,-0.05411791801452637,-0.2081007957458496,0.19496631622314453,-1.0251414775848389,5.601597785949707,8.958584785461426
4_20251106_214321,1762436569363,4,0.3752818703651428,0.04561857134103775,0.24923175573349,0.8916086554527283,-0.1842569261789322,2.745681047439575,3.037107467651367,-1.1810086965560913,5.334841728210449,9.19544792175293,-0.3653276264667511,0.07369319349527359,-0.04852556437253952,22.07464027404785,-20.832733154296875,-3.28446102142334,-0.12469375133514404,-0.21340513229370117,0.18949031829833984,-1.0563149452209473,5.54824686050415,9.00595760345459
4_20251106_214321,1762436569382,4,0.3762960731983185,0.04379061609506607,0.2464553564786911,0.8920444846153259,-0.18681412935256958,2.7260186672210693,3.063553810119629,-1.2755755186080933,5.213939666748047,9.38697624206543,-0.35311031341552734,-0.00816267915070057,0.021113011986017227,22.056079864501953,-20.756820678710938,-3.5001182556152344,-0.1754084825515747,-0.26744604110717773,0.30481529235839844,-1.1001670360565186,5.481385707855225,9.082160949707031
4_20251106_214321,1762436569401,4,0.3769419491291046,0.04284976050257683,0.24346615374088287,0.8926381468772888,-0.18924392759799957,2.7076492309570312,3.0881032943725586,-1.1522794961929321,5.207954406738281,9.385778427124023,-0.2975216507911682,-0.035040728747844696,0.08708639442920685,22.036108016967773,-20.706024169921875,-3.716303825378418,-0.04168999195098877,-0.21874475479125977,0.24289417266845703,-1.1105895042419434,5.426699161529541,9.142884254455566
4_20251106_214321,1762436569420,4,0.3771211802959442,0.04246608912944794,0.24080057442188263,0.893303632736206,-0.19124403595924377,2.6876487731933594,3.1140925884246826,-0.9248400926589966,5.225910186767578,9.167915344238281,-0.2614806294441223,0.0010002910858020186,0.09380590915679932,22.064176559448242,-20.66461181640625,-3.930790901184082,0.1485995054244995,-0.1606311798095703,0.02002429962158203,-1.073439598083496,5.386541366577148,9.1478910446167
4_20251106_214321,1762436569439,4,0.3770846128463745,0.0419318787753582,0.23857153952121735,0.89394211769104,-0.19250021874904633,2.669400691986084,3.138082504272461,-0.8733670115470886,5.314492225646973,9.34268569946289,-0.27919572591781616,0.019937098026275635,0.04066068306565285,22.003530502319336,-20.679794311523438,-4.068669319152832,0.16005808115005493,-0.057639122009277344,0.15583515167236328,-1.0334250926971436,5.37213134765625,9.186850547790527
4_20251106_214321,1762436569459,4,0.37755683064460754,0.04113786667585373,0.23629507422447205,0.8943842649459839,-0.19370651245117188,2.6505918502807617,3.1636595726013184,-1.0170129537582397,5.187604904174805,9.708982467651367,-0.23765692114830017,0.01810450293123722,-0.02592356875538826,21.981456756591797,-20.655052185058594,-4.190769195556641,0.013129711151123047,-0.14762115478515625,0.4177055358886719,-1.0301426649093628,5.335226058959961,9.291276931762695
4_20251106_214321,1762436569480,4,0.37839820981025696,0.040329236537218094,0.23440513014793396,0.8945627808570862,-0.1950974464416504,2.632981777191162,3.1874783039093018,-1.1403088569641113,5.103811264038086,9.559350967407227,-0.10632100701332092,0.01810450293123722,-0.056466806679964066,21.962303161621094,-20.57994842529297,-4.325328826904297,-0.08813297748565674,-0.18513202667236328,0.21445941925048828,-1.0521758794784546,5.288943290710449,9.344891548156738
4_20251106_214321,1762436569496,4,0.37949156761169434,0.03988531231880188,0.23359958827495575,0.8943302035331726,-0.1965898871421814,2.616765260696411,3.2085530757904053,-1.1498852968215942,5.13972282409668,9.197842597961426,-0.03607156127691269,0.03398698568344116,-0.06746236979961395,21.962303161621094,-20.57994842529297,-4.325328826904297,-0.07816755771636963,-0.11937665939331055,-0.11763954162597656,-1.0717177391052246,5.25909948348999,9.315482139587402
4_20251106_214321,1762436569516,4,0.3806530237197876,0.03951409086585045,0.2334667444229126,0.8938876986503601,-0.1986030787229538,2.5999069213867188,3.2292749881744385,-1.2600140571594238,5.04156494140625,9.165521621704102,-0.034238964319229126,0.03459784761071205,-0.0705166906118393,21.965110778808594,-20.541336059570312,-4.419150352478027,-0.15063703060150146,-0.1740274429321289,-0.11996841430664062,-1.1093770265579224,5.215592384338379,9.285490036010742
4_20251106_214321,1762436569536,4,0.3817943036556244,0.03913852944970131,0.23340308666229248,0.8934339880943298,-0.2013871669769287,2.5821011066436768,3.2496213912963867,-1.3629602193832397,4.903903961181641,9.161930084228516,-0.0030848663300275803,0.05719984695315361,-0.04180605337023735,21.930233001708984,-20.541427612304688,-4.650398254394531,-0.2028665542602539,-0.24935054779052734,-0.0988473892211914,-1.1600936651229858,5.153254508972168,9.260777473449707
4_20251106_214321,1762436569556,4,0.382647305727005,0.03872106969356537,0.23366956412792206,0.8930175304412842,-0.2048361897468567,2.563291311264038,3.2689435482025146,-1.3605661392211914,4.840460300445557,8.970402717590332,0.02623664028942585,0.06025416776537895,-0.002099846489727497,21.879064559936523,-20.59429168701172,-4.707480430603027,-0.16037797927856445,-0.25023555755615234,-0.2322998046875,-1.200188159942627,5.090695858001709,9.202702522277832
4_20251106_214321,1762436569575,4,0.3830631673336029,0.03841686621308327,0.23416675627231598,0.8927220702171326,-0.20795412361621857,2.547394037246704,3.283801794052124,-1.3258516788482666,4.854825019836426,8.84710693359375,0.018906263634562492,0.0425390899181366,0.04188241437077522,21.810264587402344,-20.535194396972656,-4.817233085632324,-0.10053086280822754,-0.18869686126708984,-0.28447628021240234,-1.225320816040039,5.043521881103516,9.131583213806152
4_20251106_214321,1762436569592,4,0.38263824582099915,0.03806101903319359,0.23501375317573547,0.8926969766616821,-0.21087250113487244,2.532687187194824,3.2967658042907715,-1.28036367893219,4.841657638549805,8.964418411254883,0.018906263634562492,0.0425390899181366,0.04188241437077522,21.75064468383789,-20.514183044433594,-4.805641174316406,-0.04403424263000488,-0.16149139404296875,-0.13373184204101562,-1.236329436302185,5.003149032592773,9.098150253295898
4_20251106_214321,1762436569612,4,0.3826039433479309,0.038069646805524826,0.23560789227485657,0.8925546407699585,-0.21087250113487244,2.532687187194824,3.2967658042907715,-1.28036367893219,4.841657638549805,8.964418411254883,-3.054272383451462e-05,0.030321797356009483,0.0944167822599411,21.752548217773438,-20.48839569091797,-4.872694969177246,-0.04403424263000488,-0.16149139404296875,-0.13373184204101562,-1.236329436302185,5.003149032592773,9.098150253295898
4_20251106_214321,1762436569631,4,0.3823850452899933,0.03815780207514763,0.23611950874328613,0.8925095200538635,-0.21715866029262543,2.499560594558716,3.3241617679595947,-1.1822056770324707,4.745893478393555,8.99673843383789,0.03906480222940445,0.03093266300857067,0.10846666991710663,21.751941680908203,-20.500816345214844,-4.886475563049316,0.04823768138885498,-0.1732621192932129,-0.08060836791992188,-1.2304433584213257,4.919155597686768,9.077346801757812
4_20251106_214321,1762436569649,4,0.3819335103034973,0.03835330903530121,0.2367788404226303,0.8925198316574097,-0.21715866029262543,2.499560594558716,3.3241617679595947,-1.1822056770324707,4.745893478393555,8.99673843383789,0.05311468988656998,0.006498073693364859,0.10663408041000366,21.72606086730957,-20.52765655517578,-4.874467849731445,0.04823768138885498,-0.1732621192932129,-0.08060836791992188,-1.2304433584213257,4.919155597686768,9.077346801757812
4_20251106_214321,1762436569670,4,0.38156858086586,0.038903508335351944,0.23739634454250336,0.8924880623817444,-0.21967318654060364,2.4821407794952393,3.336874485015869,-1.0756683349609375,4.727937698364258,8.854290008544922,0.043951719999313354,0.012606720440089703,0.07486911118030548,21.73773956298828,-20.539146423339844,-4.901273727416992,0.12381994724273682,-0.15297412872314453,-0.17844581604003906,-1.1994882822036743,4.880911827087402,9.032735824584961
4_20251106_214321,1762436569690,4,0.38149937987327576,0.039467912167310715,0.23796595633029938,0.892341136932373,-0.22328275442123413,2.4503941535949707,3.3581409454345703,-1.1618558168411255,4.615415096282959,9.007511138916016,0.043951719999313354,0.012606720440089703,0.07486911118030548,21.723155975341797,-20.56640625,-4.767128944396973,0.012018561363220215,-0.1817927360534668,-0.0035028457641601562,-1.1738743782043457,4.797207832336426,9.011013984680176
4_20251106_214321,1762436569706,4,0.38169264793395996,0.03947104886174202,0.2387944608926773,0.8920369744300842,-0.2246427983045578,2.4377269744873047,3.365839958190918,-1.1786144971847534,4.604641914367676,8.827954292297363,0.09770781546831131,0.10484729707241058,0.027221661061048508,21.675018310546875,-20.557159423828125,-4.755311012268066,-0.0037921667098999023,-0.154052734375,-0.14644813537597656,-1.1748223304748535,4.758694648742676,8.97440242767334
