session_id,timestamp,label,quaternion_w,quaternion_x,quaternion_y,quaternion_z,position_x,position_y,position_z,accelerometer_x,accelerometer_y,accelerometer_z,gyroscope_x,gyroscope_y,gyroscope_z,magnetometer_x,magnetometer_y,magnetometer_z,linear_acceleration_x,linear_acceleration_y,linear_acceleration_z,gravity_x,gravity_y,gravity_z
5_20251106_152213,1762413695861,5,0.2909186780452728,0.4137985110282898,0.6732527017593384,0.5393217206001282,0.8517628312110901,1.7761731147766113,-1.6642526388168335,0.8372166156768799,9.166597366333008,-1.7743122577667236,-0.2130390852689743,0.05221366137266159,-0.08239801973104477,15.619769096374512,-9.231056213378906,18.84292221069336,-0.5128107070922852,0.11181163787841797,0.05269455909729004,1.350027322769165,9.05478572845459,-1.8270068168640137
5_20251106_152213,1762413695880,5,0.29147350788116455,0.41208475828170776,0.6727842092514038,0.5409166216850281,0.8517628312110901,1.7761731147766113,-1.6642526388168335,0.8372166156768799,9.166597366333008,-1.7743122577667236,-0.20693044364452362,0.19332340359687805,-0.006650790572166443,15.499917030334473,-9.426017761230469,18.78048324584961,-0.5128107070922852,0.11181163787841797,0.05269455909729004,1.350027322769165,9.05478572845459,-1.8270068168640137
5_20251106_152213,1762413695899,5,0.29041558504104614,0.40905922651290894,0.673125147819519,0.5433524250984192,0.8745300769805908,1.7735787630081177,-1.656589150428772,0.9174188375473022,9.451494216918945,-2.1980676651000977,-0.24785836040973663,0.11574359983205795,0.11063523590564728,15.394155502319336,-9.594398498535156,18.65148162841797,-0.2569504976272583,0.31154346466064453,-0.23537206649780273,1.1743693351745605,9.1399507522583,-1.962695598602295
5_20251106_152213,1762413695919,5,0.2890340983867645,0.406836599111557,0.6727946400642395,0.5461599230766296,0.8834776282310486,1.7744446992874146,-1.6533311605453491,1.0371237993240356,9.738786697387695,-1.8126177787780762,-0.23625193536281586,0.024724749848246574,0.17538687586784363,15.240873336791992,-9.729499816894531,18.642955780029297,-0.10979640483856201,0.4790687561035156,0.12006223201751709,1.1469202041625977,9.25971794128418,-1.9326800107955933
5_20251106_152213,1762413695937,5,0.2878905236721039,0.4057498276233673,0.6716949343681335,0.5489190220832825,0.8928941488265991,1.7774192094802856,-1.6491633653640747,1.1376758813858032,9.937496185302734,-1.6929128170013428,-0.1421787589788437,-0.0100945383310318,0.19554543495178223,15.211456298828125,-9.830734252929688,18.558765411376953,-0.007395505905151367,0.5422229766845703,0.19181370735168457,1.1450713872909546,9.395273208618164,-1.8847265243530273
5_20251106_152213,1762413695957,5,0.286785364151001,0.40544208884239197,0.6704781651496887,0.5512076616287231,0.9017809629440308,1.7820316553115845,-1.6450210809707642,1.1257054805755615,9.98298454284668,-1.8245882987976074,-0.023060141131281853,-0.044302958995103836,0.19982147216796875,15.118597030639648,-9.974151611328125,18.52539825439453,-0.015492677688598633,0.4701690673828125,0.04811060428619385,1.1411981582641602,9.512815475463867,-1.8726989030838013
5_20251106_152213,1762413695976,5,0.28524377942085266,0.4054672420024872,0.669796347618103,0.5528156161308289,0.9094993472099304,1.7873989343643188,-1.642007827758789,1.03113853931427,9.951862335205078,-2.1370182037353516,0.0746782124042511,-0.060796309262514114,0.20043236017227173,15.118597030639648,-9.974151611328125,18.52539825439453,-0.08804774284362793,0.35123729705810547,-0.2114553451538086,1.119186282157898,9.600625038146973,-1.925562858581543
5_20251106_152213,1762413695995,5,0.28354161977767944,0.40610671043395996,0.6695466041564941,0.5535240173339844,0.9094993472099304,1.7873989343643188,-1.642007827758789,1.03113853931427,9.951862335205078,-2.1370182037353516,0.11316268146038055,-0.06629408895969391,0.2016540765762329,15.02906608581543,-10.0550537109375,18.520381927490234,-0.08804774284362793,0.35123729705810547,-0.2114553451538086,1.119186282157898,9.600625038146973,-1.925562858581543
5_20251106_152213,1762413696015,5,0.2816626727581024,0.40704140067100525,0.6696591377258301,0.5536606311798096,0.9236425757408142,1.8006319999694824,-1.6397770643234253,1.1077497005462646,9.98178768157959,-2.447053909301758,0.08750636875629425,-0.04369209706783295,0.19249111413955688,14.973681449890137,-10.171646118164062,18.556594848632812,0.006087541580200195,0.2456674575805664,-0.3534817695617676,1.1016621589660645,9.736120223999023,-2.0935721397399902
5_20251106_152213,1762413696034,5,0.27972468733787537,0.40796729922294617,0.669842004776001,0.553740382194519,0.9301466941833496,1.807735562324524,-1.640308141708374,1.148449420928955,10.002138137817383,-2.4338865280151367,0.030085086822509766,-0.028420481830835342,0.15889355540275574,14.883135795593262,-10.277122497558594,18.496986389160156,0.0374298095703125,0.2128143310546875,-0.27225160598754883,1.1110196113586426,9.789323806762695,-2.161634922027588
5_20251106_152213,1762413696052,5,0.27788087725639343,0.4084514081478119,0.6699904799461365,0.5541321039199829,0.9357573986053467,1.8144251108169556,-1.6410998106002808,1.148449420928955,10.085931777954102,-2.316575527191162,-0.018784090876579285,-0.015592321753501892,0.11918734014034271,14.840938568115234,-10.379959106445312,18.493404388427734,0.02994382381439209,0.23728656768798828,-0.12395238876342773,1.118505597114563,9.848645210266113,-2.1926231384277344
5_20251106_152213,1762413696072,5,0.27643314003944397,0.408557265996933,0.6699550151824951,0.5548206567764282,0.9425504207611084,1.8232953548431396,-1.642223596572876,1.180769681930542,10.152965545654297,-2.2507376670837402,-0.01695149578154087,-0.0113162687048316,0.07764854282140732,14.752422332763672,-10.436286926269531,18.542980194091797,0.04981124401092529,0.2434558868408203,-0.04649162292480469,1.1309584379196167,9.909509658813477,-2.2042460441589355
5_20251106_152213,1762413696091,5,0.27521803975105286,0.408221960067749,0.6699763536453247,0.5556451678276062,0.9481072425842285,1.831073522567749,-1.643315076828003,1.14126718044281,10.135009765625,-2.2758758068084717,0.046578437089920044,-0.028420481830835342,0.024503309279680252,14.699138641357422,-10.526824951171875,18.485107421875,0.008247017860412598,0.18039989471435547,-0.05730390548706055,1.1330201625823975,9.954609870910645,-2.218571901321411
5_20251106_152213,1762413696110,5,0.27414053678512573,0.407696396112442,0.6703659296035767,0.556093692779541,0.9481072425842285,1.831073522567749,-1.643315076828003,1.14126718044281,10.135009765625,-2.2758758068084717,0.09056068956851959,-0.028420481830835342,-0.018257219344377518,14.646066665649414,-10.605476379394531,18.495079040527344,0.008247017860412598,0.18039989471435547,-0.05730390548706055,1.1330201625823975,9.954609870910645,-2.218571901321411
5_20251106_152213,1762413696129,5,0.27318668365478516,0.40708109736442566,0.6712432503700256,0.5559554696083069,0.9581355452537537,1.8474888801574707,-1.6469779014587402,0.9676949977874756,9.959043502807617,-2.478177070617676,0.08261945843696594,-0.0015424331650137901,-0.024976730346679688,14.598731994628906,-10.583541870117188,18.49364471435547,-0.11078774929046631,-0.01650714874267578,-0.18357634544372559,1.078482747077942,9.975550651550293,-2.29460072517395
5_20251106_152213,1762413696148,5,0.27230092883110046,0.4063143730163574,0.6723204851150513,0.5556491613388062,0.9624648690223694,1.8544591665267944,-1.649778127670288,1.0814146995544434,9.836945533752441,-2.602670192718506,0.08261945843696594,-0.0015424331650137901,-0.024976730346679688,14.52310562133789,-10.626518249511719,18.543975830078125,0.002345561981201172,-0.11088371276855469,-0.24645566940307617,1.0790691375732422,9.947829246520996,-2.3562145233154297
5_20251106_152213,1762413696168,5,0.27125120162963867,0.40543726086616516,0.6733443737030029,0.5555634498596191,0.967158854007721,1.8608752489089966,-1.6534724235534668,1.290898323059082,9.872856140136719,-2.7331485748291016,0.058795731514692307,-0.01864664815366268,0.04221838712692261,14.485843658447266,-10.641456604003906,18.542240142822266,0.1694633960723877,-0.059978485107421875,-0.3015472888946533,1.1214349269866943,9.93283462524414,-2.4316012859344482
5_20251106_152213,1762413696186,5,0.2700996994972229,0.40480461716651917,0.6741560101509094,0.5556015372276306,0.9730158448219299,1.8671114444732666,-1.657999873161316,1.6308603286743164,9.984182357788086,-2.802577495574951,0.08628463745117188,-0.08095484226942062,0.07764854282140732,14.55907154083252,-10.62493896484375,18.626544952392578,0.40754032135009766,0.04107856750488281,-0.296781063079834,1.2233200073242188,9.943103790283203,-2.505796432495117
5_20251106_152213,1762413696206,5,0.2689708173274994,0.40473371744155884,0.6747266054153442,0.5555081963539124,0.98129802942276,1.8733742237091064,-1.6639935970306396,2.0210983753204346,9.951861381530762,-2.9881200790405273,0.14798195660114288,-0.17075195908546448,0.12224166840314865,14.57387924194336,-10.574188232421875,18.65512466430664,0.6382226943969727,0.007006645202636719,-0.38585877418518066,1.382875680923462,9.944854736328125,-2.6022613048553467
5_20251106_152213,1762413696225,5,0.26793739199638367,0.40551644563674927,0.6751748919487,0.5548917055130005,0.9919392466545105,1.879088282585144,-1.67082941532135,2.537026882171631,9.967423439025879,-3.122189521789551,0.17119483649730682,-0.27582070231437683,0.16988912224769592,14.623835563659668,-10.546165466308594,18.684646606445312,0.923321008682251,0.018054962158203125,-0.4159426689147949,1.6137058734893799,9.949368476867676,-2.706246852874756
5_20251106_152213,1762413696243,5,0.2670293152332306,0.40734729170799255,0.6754361987113953,0.5536690950393677,1.0053787231445312,1.8844581842422485,-1.6777228116989136,3.1822361946105957,10.041641235351562,-3.007272720336914,0.11010836064815521,-0.3637852370738983,0.1711108386516571,14.659181594848633,-10.568626403808594,18.658557891845703,1.2548242807388306,0.07381820678710938,-0.24082064628601074,1.9274119138717651,9.967823028564453,-2.7664520740509033
5_20251106_152213,1762413696263,5,0.2666343152523041,0.4099670648574829,0.6751613616943359,0.5522592067718506,1.0248496532440186,1.890776515007019,-1.684792399406433,3.665844202041626,10.181695938110352,-2.698434352874756,0.01603519916534424,-0.3912741541862488,0.08131372928619385,14.683454513549805,-10.567176818847656,18.673053741455078,1.3907458782196045,0.1710987091064453,0.05441427230834961,2.2750983238220215,10.010597229003906,-2.7528486251831055
5_20251106_152213,1762413696281,5,0.26718512177467346,0.41261258721351624,0.67431640625,0.5510538220405579,1.045464277267456,1.8969744443893433,-1.6903728246688843,3.886101484298706,10.333720207214355,-2.5643646717071533,-0.07009672373533249,-0.33629631996154785,-0.07323504239320755,14.791805267333984,-10.59661865234375,18.568546295166016,1.2888023853302002,0.2584981918334961,0.1507871150970459,2.597299098968506,10.07522201538086,-2.715151786804199
5_20251106_152213,1762413696301,5,0.2685859799385071,0.4141019582748413,0.67347651720047,0.5502821803092957,1.06984281539917,1.903796911239624,-1.6957356929779053,3.948348045349121,10.296611785888672,-2.630202293395996,-0.11163552105426788,-0.31125086545944214,-0.19296452403068542,14.926642417907715,-10.586799621582031,18.46581268310547,1.0808391571044922,0.17711162567138672,0.06795978546142578,2.867508888244629,10.119500160217285,-2.698162078857422
5_20251106_152213,1762413696320,5,0.27134039998054504,0.41506409645080566,0.6723853349685669,0.5495399236679077,1.0973397493362427,1.9108521938323975,-1.7010084390640259,3.8932838439941406,10.196060180664062,-2.6685080528259277,-0.07192932069301605,-0.4071566164493561,-0.25771617889404297,15.05905532836914,-10.626670837402344,18.30795669555664,0.820620059967041,0.061247825622558594,0.023723363876342773,3.0726637840270996,10.134812355041504,-2.6922314167022705
5_20251106_152213,1762413696338,5,0.27417731285095215,0.4149053692817688,0.6719736456871033,0.5487547516822815,1.122607946395874,1.9166254997253418,-1.7055730819702148,3.7867465019226074,10.029669761657715,-2.7151927947998047,0.03558287024497986,-0.5824747681617737,-0.26932260394096375,15.243624687194824,-10.612327575683594,18.072021484375,0.5712661743164062,-0.08411407470703125,-0.018368959426879883,3.215480327606201,10.113783836364746,-2.696823835372925
5_20251106_152213,1762413696357,5,0.2777463495731354,0.4154064655303955,0.6717857122421265,0.5468074679374695,1.149221420288086,1.9219902753829956,-1.7105063199996948,3.680208921432495,9.959044456481934,-2.8265185356140137,0.15592321753501892,-0.8011643290519714,-0.25771617889404297,15.487813949584961,-10.618995666503906,17.824493408203125,0.3717827796936035,-0.12379169464111328,-0.10375595092773438,3.3084261417388916,10.082836151123047,-2.7227625846862793
5_20251106_152213,1762413696377,5,0.28212466835975647,0.41735127568244934,0.6716349124908447,0.543258786201477,1.149221420288086,1.9219902753829956,-1.7105063199996948,3.680208921432495,9.959044456481934,-2.8265185356140137,0.15592321753501892,-0.8011643290519714,-0.25771617889404297,15.487813949584961,-10.618995666503906,17.824493408203125,0.3717827796936035,-0.12379169464111328,-0.10375595092773438,3.3084261417388916,10.082836151123047,-2.7227625846862793
5_20251106_152213,1762413696396,5,0.2875235080718994,0.4208541214466095,0.6712570786476135,0.5381691455841064,1.2011491060256958,1.9309401512145996,-1.7215147018432617,3.3773553371429443,9.863279342651367,-2.945026397705078,0.22678351402282715,-1.1957828998565674,-0.26993346214294434,16.116260528564453,-10.534217834472656,17.187999725341797,0.02132272720336914,-0.15564727783203125,-0.14684557914733887,3.356032609939575,10.018926620483398,-2.7981808185577393
5_20251106_152213,1762413696415,5,0.29401230812072754,0.4253648817539215,0.670479416847229,0.5320515632629395,1.2240349054336548,1.93416166305542,-1.726522445678711,3.1547043323516846,9.820186614990234,-2.723572254180908,0.22678351402282715,-1.1957828998565674,-0.26993346214294434,16.116260528564453,-10.534217834472656,17.187999725341797,-0.16106271743774414,-0.15899181365966797,0.059686899185180664,3.3157670497894287,9.979178428649902,-2.783259153366089
5_20251106_152213,1762413696434,5,0.3019370436668396,0.4303848147392273,0.6692518591880798,0.5250760912895203,1.2240349054336548,1.93416166305542,-1.726522445678711,3.1547043323516846,9.820186614990234,-2.723572254180908,0.12415824830532074,-1.3503317832946777,-0.46418845653533936,16.576946258544922,-10.387100219726562,16.735450744628906,-0.16106271743774414,-0.15899181365966797,0.059686899185180664,3.3157670497894287,9.979178428649902,-2.783259153366089
5_20251106_152213,1762413696453,5,0.31105396151542664,0.43490493297576904,0.6678043603897095,0.517822802066803,1.2608628273010254,1.9385493993759155,-1.7343571186065674,2.301208019256592,9.649008750915527,-2.634990692138672,0.069180428981781,-1.3057385683059692,-0.5814744830131531,17.025360107421875,-10.229293823242188,16.39080810546875,-0.7144372463226318,-0.2400379180908203,0.08474087715148926,3.0156452655792236,9.889046669006348,-2.719731569290161
5_20251106_152213,1762413696472,5,0.32098403573036194,0.4383169412612915,0.6664583086967468,0.5105690956115723,1.2738784551620483,1.938612937927246,-1.7380448579788208,1.988777995109558,9.318622589111328,-2.7953951358795166,0.016646062955260277,-1.3130689859390259,-0.6651629209518433,17.59913444519043,-10.02398681640625,15.862632751464844,-0.8214939832687378,-0.45633888244628906,-0.060530900955200195,2.810271978378296,9.774961471557617,-2.7348642349243164
5_20251106_152213,1762413696491,5,0.33135533332824707,0.44058066606521606,0.6653298735618591,0.5034168362617493,1.2830731868743896,1.9364328384399414,-1.7417241334915161,1.6548012495040894,8.958311080932617,-2.7989864349365234,-0.048105597496032715,-1.3955357074737549,-0.7121995091438293,18.306743621826172,-9.821830749511719,15.27200698852539,-0.9243766069412231,-0.6533203125,-0.051297664642333984,2.5791778564453125,9.611631393432617,-2.7476887702941895
5_20251106_152213,1762413696510,5,0.34269118309020996,0.44257014989852905,0.663847029209137,0.4959854483604431,1.2830731868743896,1.9364328384399414,-1.7417241334915161,1.6548012495040894,8.958311080932617,-2.7989864349365234,-0.11346812546253204,-1.4920523166656494,-0.7470188140869141,19.042644500732422,-9.554756164550781,14.629615783691406,-0.9243766069412231,-0.6533203125,-0.051297664642333984,2.5791778564453125,9.611631393432617,-2.7476887702941895
5_20251106_152213,1762413696529,5,0.3551529347896576,0.4446485936641693,0.6616564989089966,0.48822611570358276,1.2879763841629028,1.9257984161376953,-1.7469885349273682,0.5690774917602539,8.641092300415039,-2.364457368850708,-0.16294817626476288,-1.542754054069519,-0.8032183647155762,19.83089828491211,-9.233200073242188,13.88211441040039,-1.3841434717178345,-0.6458530426025391,0.28740429878234863,1.9532209634780884,9.286945343017578,-2.6518616676330566
5_20251106_152213,1762413696548,5,0.3685428202152252,0.4465310275554657,0.6589449644088745,0.4801850914955139,1.2825195789337158,1.91746187210083,-1.7481319904327393,-0.022264868021011353,8.431609153747559,-2.3560781478881836,-0.20204351842403412,-1.541532278060913,-0.8612505197525024,20.728927612304688,-8.90435791015625,13.125511169433594,-1.5803886651992798,-0.6842689514160156,0.23662662506103516,1.5581238269805908,9.115878105163574,-2.5927047729492188
5_20251106_152213,1762413696567,5,0.3825071454048157,0.4478248953819275,0.6560500860214233,0.47195273637771606,1.271278738975525,1.9071065187454224,-1.7484540939331055,-0.6495187282562256,8.228111267089844,-2.314181327819824,-0.2551887333393097,-1.5531387329101562,-0.9272239208221436,21.60780143737793,-8.500411987304688,12.234344482421875,-1.7661139965057373,-0.7102136611938477,0.22281885147094727,1.1165952682495117,8.938324928283691,-2.5370001792907715
5_20251106_152213,1762413696587,5,0.3969337046146393,0.4484384059906006,0.6530344486236572,0.4635651111602783,1.2523362636566162,1.8943519592285156,-1.7471964359283447,-1.4168273210525513,8.149105072021484,-2.017313241958618,-0.2551887333393097,-1.5531387329101562,-0.9272239208221436,22.50186538696289,-8.056793212890625,11.222816467285156,-2.026738166809082,-0.6313762664794922,0.41574954986572266,0.6099107265472412,8.780481338500977,-2.433062791824341
5_20251106_152213,1762413696606,5,0.41199934482574463,0.44853365421295166,0.6496906280517578,0.454946368932724,1.2273088693618774,1.8810068368911743,-1.7432883977890015,-2.281096935272217,8.1119966506958,-1.422379732131958,-0.2649625539779663,-1.6673705577850342,-0.894848108291626,23.49673080444336,-7.555915832519531,10.148685455322266,-2.3128061294555664,-0.5347871780395508,0.8085463047027588,0.031709253787994385,8.646783828735352,-2.230926036834717
5_20251106_152213,1762413696626,5,0.42762523889541626,0.44898521900177,0.6456391215324402,0.4457566738128662,1.1957851648330688,1.8669077157974243,-1.736887812614441,-2.7922370433807373,8.128755569458008,-1.2512016296386719,-0.17638720571994781,-1.6685922145843506,-0.7622904181480408,24.427352905273438,-7.1099090576171875,9.138628005981445,-2.259157180786133,-0.41442298889160156,0.7837793827056885,-0.533079981803894,8.54317855834961,-2.0349810123443604
5_20251106_152213,1762413696647,5,0.4425875246524811,0.45014768838882446,0.6411817669868469,0.4363132417201996,1.1564546823501587,1.8521347045898438,-1.7273986339569092,-3.1010756492614746,8.321480751037598,-1.0189740657806396,-0.14828741550445557,-1.6875290870666504,-0.6596651673316956,25.266830444335938,-6.557243347167969,8.127021789550781,-2.054396629333496,-0.17735767364501953,0.8128056526184082,-1.046679139137268,8.498838424682617,-1.8317797183990479
5_20251106_152213,1762413696665,5,0.4566657245159149,0.4521501064300537,0.6362699866294861,0.4268222153186798,1.1108875274658203,1.8385400772094727,-1.7140789031982422,-3.745088577270508,8.643486022949219,-0.41566115617752075,-0.20693044364452362,-1.663094401359558,-0.6303436756134033,26.156734466552734,-5.999107360839844,6.887601852416992,-2.1587276458740234,0.11571788787841797,1.1328949928283691,-1.5863609313964844,8.5277681350708,-1.5485560894012451
5_20251106_152213,1762413696683,5,0.4705304503440857,0.4542693495750427,0.6307950019836426,0.41753819584846497,1.1108875274658203,1.8385400772094727,-1.7140789031982422,-3.745088577270508,8.643486022949219,-0.41566115617752075,-0.2240346521139145,-1.625220775604248,-0.6065199375152588,26.947032928466797,-5.4850006103515625,5.643465042114258,-2.1587276458740234,0.11571788787841797,1.1328949928283691,-1.5863609313964844,8.5277681350708,-1.5485560894012451
5_20251106_152213,1762413696702,5,0.48444294929504395,0.45618996024131775,0.6247349381446838,0.40854865312576294,1.0099117755889893,1.817218542098999,-1.676170825958252,-5.261750221252441,8.8410005569458,0.9968571066856384,-0.13240492343902588,-1.5012152194976807,-0.5894157290458679,27.691307067871094,-4.923973083496094,4.41193962097168,-2.472911834716797,0.20927906036376953,1.7380437850952148,-2.7888383865356445,8.631721496582031,-0.7411867380142212
5_20251106_152213,1762413696720,5,0.49770307540893555,0.4578721821308136,0.6188635230064392,0.39956554770469666,0.9531568288803101,1.8081753253936768,-1.65189528465271,-5.838727951049805,8.724885940551758,1.1033945083618164,-0.13240492343902588,-1.5012152194976807,-0.5894157290458679,28.3978271484375,-4.378562927246094,3.2462596893310547,-2.4399118423461914,0.07453155517578125,1.4756649732589722,-3.3988161087036133,8.650354385375977,-0.37227049469947815
5_20251106_152213,1762413696740,5,0.5088515877723694,0.45861750841140747,0.6145051717758179,0.391309916973114,0.8849217295646667,1.7986853122711182,-1.6229203939437866,-6.1379899978637695,8.668624877929688,0.7299151420593262,-0.029779653996229172,-1.2434303760528564,-0.5454334616661072,29.003021240234375,-3.9143142700195312,2.021007537841797,-2.1913390159606934,0.014616012573242188,0.8817484974861145,-3.946650981903076,8.654008865356445,-0.15183337032794952
5_20251106_152213,1762413696759,5,0.5180089473724365,0.45925673842430115,0.6111558675765991,0.3837167024612427,0.8170942068099976,1.790140986442566,-1.5959738492965698,-6.222980499267578,8.661442756652832,0.13857272267341614,0.045967571437358856,-0.7742863297462463,-0.3798891305923462,29.54638671875,-3.46685791015625,0.8200721740722656,-1.8210639953613281,0.005947113037109375,0.23232486844062805,-4.40191650390625,8.655495643615723,-0.09375215321779251
5_20251106_152213,1762413696778,5,0.5251548290252686,0.45961636304855347,0.6087716221809387,0.37730932235717773,0.7472413778305054,1.782191276550293,-1.570643663406372,-6.376202583312988,8.716506958007812,-0.1918129175901413,0.0386371947824955,-0.7296931743621826,-0.30108755826950073,30.052894592285156,-3.0221939086914062,-0.3417854309082031,-1.5794286727905273,0.048809051513671875,-0.07844860851764679,-4.796773910522461,8.66769790649414,-0.1133643090724945
5_20251106_152213,1762413696797,5,0.5314843654632568,0.4603997468948364,0.6063432097434998,0.3713546693325043,0.6764066815376282,1.774559497833252,-1.546470046043396,-6.427676200866699,8.63869857788086,-0.07330501824617386,0.039858926087617874,-0.7156433463096619,-0.2461097538471222,30.50774383544922,-2.6310653686523438,-1.4931449890136719,-1.3047218322753906,-0.023199081420898438,0.03204742819070816,-5.122954368591309,8.661897659301758,-0.10535244643688202
5_20251106_152213,1762413696817,5,0.5373931527137756,0.4616307020187378,0.6036326289176941,0.36569568514823914,0.605139970779419,1.766815423965454,-1.5221790075302124,-6.571321964263916,8.48188591003418,0.37798261642456055,0.0074830930680036545,-0.6160723567008972,-0.24183371663093567,30.738235473632812,-2.3190460205078125,-2.4519081115722656,-1.1586942672729492,-0.14400959014892578,0.38666805624961853,-5.412627696990967,8.625895500183105,-0.008685439825057983
5_20251106_152213,1762413696836,5,0.5429099202156067,0.46277478337287903,0.6009925603866577,0.36041131615638733,0.5293610095977783,1.7582186460494995,-1.4959702491760254,-6.896919250488281,8.345420837402344,0.6221806406974792,-0.058490294963121414,-0.38211119174957275,-0.25710529088974,30.738235473632812,-2.3190460205078125,-2.4519081115722656,-1.1874332427978516,-0.2243795394897461,0.5046928524971008,-5.70948600769043,8.56980037689209,0.11748776584863663
5_20251106_152213,1762413696855,5,0.5477695465087891,0.4630003273487091,0.598998486995697,0.3560618460178375,0.45683905482292175,1.7494503259658813,-1.4707317352294922,-7.215334892272949,8.201775550842285,0.6952006816864014,-0.12751801311969757,-0.09378300607204437,-0.2552727162837982,31.065929412841797,-1.9894638061523438,-3.271320343017578,-1.2046794891357422,-0.2944192886352539,0.4621703326702118,-6.010655403137207,8.496194839477539,0.23303034901618958
5_20251106_152213,1762413696875,5,0.5515211224555969,0.4618626832962036,0.5981384515762329,0.35318219661712646,0.380520224571228,1.739546775817871,-1.443971872329712,-7.259625434875488,8.122770309448242,0.7335062623023987,-0.12751801311969757,-0.09378300607204437,-0.2552727162837982,31.342681884765625,-1.6892471313476562,-3.9850921630859375,-0.999176025390625,-0.2987394332885742,0.4003807306289673,-6.260449409484863,8.421509742736816,0.3331255316734314
5_20251106_152213,1762413696894,5,0.5537938475608826,0.45949241518974304,0.5985420346260071,0.35203203558921814,0.30939048528671265,1.7294213771820068,-1.419589638710022,-7.081264972686768,7.988700866699219,0.41748520731925964,-0.08659008145332336,0.3252701759338379,-0.11599557846784592,31.54410171508789,-1.4316024780273438,-4.689083099365234,-0.6566529273986816,-0.34624671936035156,0.06748771667480469,-6.424612045288086,8.33494758605957,0.34999749064445496
5_20251106_152213,1762413696912,5,0.5544402599334717,0.4568180739879608,0.5999288558959961,0.3521343767642975,0.24424314498901367,1.719314455986023,-1.397786021232605,-6.88375186920166,7.931241989135742,0.29299208521842957,-0.0016798777505755424,0.31183114647865295,-0.019478950649499893,31.64084243774414,-1.2596969604492188,-4.9930925369262695,-0.3673114776611328,-0.3229646682739258,-0.045604318380355835,-6.516440391540527,8.254206657409668,0.3385964035987854
5_20251106_152213,1762413696931,5,0.5540730953216553,0.4551267623901367,0.6014163494110107,0.3523648679256439,0.17795634269714355,1.7088451385498047,-1.3757545948028564,-6.865796089172363,8.132347106933594,0.39952948689460754,0.0056504979729652405,0.33748745918273926,0.04832703247666359,31.640304565429688,-1.0822677612304688,-5.233180999755859,-0.27948474884033203,-0.0974874496459961,0.048746466636657715,-6.586311340332031,8.22983455657959,0.35078302025794983
5_20251106_152213,1762413696951,5,0.5531900525093079,0.4542401432991028,0.6026894450187683,0.35272106528282166,0.11432874202728271,1.6990982294082642,-1.3541228771209717,-6.825096607208252,8.302328109741211,0.6066190004348755,-0.03711003065109253,0.4792081117630005,0.08497891575098038,31.61107635498047,-0.9702911376953125,-5.367439270019531,-0.19102811813354492,0.057994842529296875,0.204668790102005,-6.634068489074707,8.244333267211914,0.4019502103328705
5_20251106_152213,1762413696969,5,0.5517694354057312,0.45322731137275696,0.6040640473365784,0.3538956046104431,0.05368354916572571,1.6901224851608276,-1.3321572542190552,-6.7065887451171875,8.347816467285156,0.9178518652915955,-0.0542142428457737,0.6972867846488953,0.09841793775558472,31.65378189086914,-0.85516357421875,-5.336559295654297,-0.058016300201416016,0.08278656005859375,0.41272133588790894,-6.6485724449157715,8.265029907226562,0.5051305294036865
5_20251106_152213,1762413696988,5,0.5493162870407104,0.451449990272522,0.6062061786651611,0.35631251335144043,-0.004003163427114487,1.6816190481185913,-1.309494137763977,-6.6754655838012695,8.273598670959473,1.1596558094024658,-0.04016435518860817,0.9477413296699524,0.08986584097146988,31.643043518066406,-0.7960052490234375,-5.051888465881348,-0.021514415740966797,0.006855010986328125,0.5236202478408813,-6.653951168060303,8.266743659973145,0.6360355615615845
5_20251106_152213,1762413697008,5,0.5454444289207458,0.4487725496292114,0.609584629535675,0.3598613440990448,-0.062217433005571365,1.6725106239318848,-1.2851628065109253,-6.82749080657959,8.067706108093262,1.1847939491271973,-0.01084284856915474,1.169485330581665,0.08253545314073563,31.532718658447266,-0.769256591796875,-4.677055358886719,-0.13883161544799805,-0.15923023223876953,0.4390066862106323,-6.688659191131592,8.226936340332031,0.7457872629165649
5_20251106_152213,1762413697027,5,0.5400453805923462,0.4451500475406647,0.6143341660499573,0.3643980622291565,-0.11665402352809906,1.662969946861267,-1.2618680000305176,-7.380527019500732,7.745698928833008,1.2326757907867432,0.036193735897541046,1.2843278646469116,0.04832703247666359,31.40900421142578,-0.7565383911132812,-4.235394477844238,-0.5534944534301758,-0.38498973846435547,0.3895108699798584,-6.827032566070557,8.130688667297363,0.8431649208068848
5_20251106_152213,1762413697046,5,0.5334381461143494,0.44087010622024536,0.6201733946800232,0.36940792202949524,-0.17273148894309998,1.6520781517028809,-1.2374869585037231,-8.417171478271484,7.46439266204834,1.6636135578155518,0.0850629061460495,1.415663719177246,0.05077049136161804,31.30596923828125,-0.7820587158203125,-3.5772838592529297,-1.272110939025879,-0.5330367088317871,0.6563589572906494,-7.1450605392456055,7.997429370880127,1.0072546005249023
5_20251106_152213,1762413697065,5,0.5262625813484192,0.43620407581329346,0.6267105340957642,0.37417590618133545,-0.2312457263469696,1.6395493745803833,-1.2136473655700684,-9.05519962310791,7.202239036560059,1.2542226314544678,0.1980728805065155,1.7656892538070679,0.33298999071121216,31.19198226928711,-0.7602996826171875,-2.7023487091064453,-1.5281109809875488,-0.6361522674560547,0.19757437705993652,-7.527088642120361,7.838391304016113,1.0566482543945312
5_20251106_152213,1762413697084,5,0.5169171094894409,0.431355357170105,0.6342609524726868,0.38005566596984863,-0.2896080017089844,1.6239475011825562,-1.193397045135498,-8.538074493408203,6.489994525909424,0.18286354839801788,0.36056292057037354,2.066845417022705,0.9750088453292847,31.010738372802734,-0.8439102172851562,-1.7373638153076172,-0.8087887763977051,-1.0787177085876465,-0.6990277767181396,-7.729285717010498,7.56871223449707,0.8818913102149963
5_20251106_152213,1762413697104,5,0.5028501749038696,0.42808130383491516,0.6423987150192261,0.3888598382472992,-0.2896080017089844,1.6239475011825562,-1.193397045135498,-8.538074493408203,6.489994525909424,0.18286354839801788,0.4760163724422455,2.0564608573913574,1.9242925643920898,30.78781509399414,-1.0064620971679688,-0.6537876129150391,-0.8087887763977051,-1.0787177085876465,-0.6990277767181396,-7.729285717010498,7.56871223449707,0.8818913102149963
5_20251106_152213,1762413697123,5,0.48395153880119324,0.42983558773994446,0.6483303308486938,0.40087416768074036,-0.385820209980011,1.582674264907837,-1.170028567314148,-4.1101884841918945,6.341560363769531,-1.3254187107086182,0.5083920955657959,1.6777247190475464,2.920001983642578,30.32320785522461,-1.34869384765625,0.5522022247314453,2.7218785285949707,-0.7374954223632812,-1.4860336780548096,-6.832067012786865,7.0790557861328125,0.16061493754386902
5_20251106_152213,1762413697142,5,0.4614914655685425,0.438768595457077,0.6491749286651611,0.4160284399986267,-0.4082350730895996,1.5637106895446777,-1.1649701595306396,-0.9068843722343445,7.394964218139648,-0.9076484441757202,0.5438222885131836,1.1823134422302246,3.6903023719787598,29.5765380859375,-2.1491241455078125,1.9413986206054688,4.740146636962891,0.25272655487060547,-0.8546107411384583,-5.647030830383301,7.142237663269043,-0.05303771793842316
5_20251106_152213,1762413697160,5,0.4374816417694092,0.45523014664649963,0.643464982509613,0.43281418085098267,-0.40794768929481506,1.5517487525939941,-1.1619349718093872,3.158295154571533,9.034921646118164,-0.6287359595298767,0.7331903576850891,0.8890982866287231,3.964580774307251,28.76862335205078,-3.1901016235351562,3.2019710540771484,7.0442609786987305,1.5141468048095703,-0.46055859327316284,-3.8859658241271973,7.520774841308594,-0.16817736625671387
5_20251106_152213,1762413697179,5,0.4126298427581787,0.4770854413509369,0.6328005790710449,0.4490985870361328,-0.37371188402175903,1.5492051839828491,-1.1624464988708496,7.270159721374512,11.081876754760742,-1.4523059129714966,0.9903643727302551,0.8536681532859802,3.5577447414398193,27.738460540771484,-4.4970703125,4.5840911865234375,8.924901008605957,2.848881721496582,-1.027302861213684,-1.6547409296035767,8.23299503326416,-0.4250030517578125
5_20251106_152213,1762413697198,5,0.3865613043308258,0.4996159076690674,0.6216800212860107,0.4631071984767914,-0.3111976683139801,1.558591365814209,-1.1688138246536255,9.8689546585083,12.490803718566895,-2.5775320529937744,1.1217002868652344,0.9575151801109314,2.4398624897003174,26.517440795898438,-5.966102600097656,5.901620864868164,9.21895694732666,3.406247138977051,-1.7220232486724854,0.6499979496002197,9.084556579589844,-0.8555088043212891
5_20251106_152213,1762413697217,5,0.3618135154247284,0.5179904699325562,0.6140490174293518,0.4729911983013153,-0.2248837649822235,1.5763609409332275,-1.1826908588409424,10.463888168334961,12.31124496459961,-3.7087440490722656,1.0465638637542725,1.2824952602386475,0.9695110321044922,25.053611755371094,-7.6511383056640625,7.205608367919922,7.851112365722656,2.581350326538086,-2.282588243484497,2.6127758026123047,9.729894638061523,-1.4261558055877686
5_20251106_152213,1762413697237,5,0.3409508466720581,0.5273875594139099,0.6133103370666504,0.47902536392211914,-0.11719885468482971,1.5983388423919678,-1.207157015800476,9.642711639404297,11.11419677734375,-4.909384727478027,0.78816819190979,1.5818190574645996,-0.33712857961654663,23.682937622070312,-9.192352294921875,8.502416610717773,5.623948574066162,1.1074419021606445,-2.786583185195923,4.018763065338135,10.006754875183105,-2.1228015422821045
5_20251106_152213,1762413697256,5,0.32505831122398376,0.5261369943618774,0.6198371648788452,0.48303091526031494,-0.01007130742073059,1.6187654733657837,-1.2380717992782593,7.642441749572754,10.222394943237305,-5.342716217041016,0.5810850262641907,1.5750994682312012,-1.228991150856018,22.315570831298828,-10.469718933105469,9.709663391113281,2.8989429473876953,0.17251205444335938,-2.5759317874908447,4.743498802185059,10.049882888793945,-2.766784429550171
5_20251106_152213,1762413697276,5,0.3147997260093689,0.5168359875679016,0.6310588717460632,0.4853312373161316,0.10006478428840637,1.637726068496704,-1.2800270318984985,5.733148574829102,9.567608833312988,-6.398514270782471,0.3526216745376587,1.7259830236434937,-1.603451132774353,22.315570831298828,-10.469718933105469,9.709663391113281,0.791719913482666,-0.3858194351196289,-2.905384063720703,4.9414286613464355,9.953428268432617,-3.4931302070617676
5_20251106_152213,1762413697295,5,0.30775949358940125,0.5027516484260559,0.6447896957397461,0.4865913391113281,0.19761158525943756,1.6502389907836914,-1.3258070945739746,4.266763210296631,8.277189254760742,-6.378164291381836,-0.13545924425125122,1.6227469444274902,-1.6260532140731812,21.12181854248047,-11.472518920898438,10.874763488769531,-0.5397324562072754,-1.3409910202026367,-2.3080272674560547,4.806495666503906,9.618180274963379,-4.070137023925781
5_20251106_152213,1762413697314,5,0.30299606919288635,0.48588475584983826,0.6577810645103455,0.4893193542957306,0.2854536175727844,1.6569068431854248,-1.3723461627960205,3.0469698905944824,7.71577262878418,-5.18111515045166,-0.5209149122238159,1.334418773651123,-1.455011010169983,20.22061538696289,-11.817283630371094,11.969009399414062,-1.4076204299926758,-1.521925926208496,-0.8887825012207031,4.454590320587158,9.237698554992676,-4.292332649230957
5_20251106_152213,1762413697332,5,0.30167219042778015,0.4689795672893524,0.6673040390014648,0.49371787905693054,0.3590232729911804,1.6586121320724487,-1.4137729406356812,2.2257938385009766,7.493122100830078,-4.106164455413818,-0.5209149122238159,1.334418773651123,-1.455011010169983,19.408329010009766,-11.880622863769531,13.03145980834961,-1.7830371856689453,-1.3956613540649414,0.14893484115600586,4.008831024169922,8.88878345489502,-4.255099296569824
5_20251106_152213,1762413697352,5,0.30187860131263733,0.4537236988544464,0.6740400791168213,0.4986722767353058,0.3590232729911804,1.6586121320724487,-1.4137729406356812,2.2257938385009766,7.493122100830078,-4.106164455413818,-0.3437640964984894,0.8402290940284729,-0.9333325624465942,18.808631896972656,-11.628944396972656,14.013477325439453,-1.7830371856689453,-1.3956613540649414,0.14893484115600586,4.008831024169922,8.88878345489502,-4.255099296569824
5_20251106_152213,1762413697372,5,0.30208471417427063,0.4413697421550751,0.6792935132980347,0.5024917125701904,0.4866043031215668,1.6462554931640625,-1.4901416301727295,1.1221144199371338,6.590546607971191,-3.3125205039978027,-0.15500693023204803,0.6612457633018494,-0.6401175260543823,18.417400360107422,-11.125831604003906,14.99483871459961,-1.9265997409820557,-1.5492067337036133,0.6201047897338867,3.0487141609191895,8.139753341674805,-3.9326252937316895
5_20251106_152213,1762413697390,5,0.30147412419319153,0.43203237652778625,0.6837291717529297,0.5049512386322021,0.5324257612228394,1.6336594820022583,-1.5202406644821167,0.8408077359199524,6.1631999015808105,-3.3508262634277344,-0.029779653996229172,0.4950905740261078,-0.33651772141456604,18.298545837402344,-10.351669311523438,15.667388916015625,-1.7663252353668213,-1.581242561340332,0.4654393196105957,2.607132911682129,7.744442462921143,-3.81626558303833
5_20251106_152213,1762413697409,5,0.29984578490257263,0.4257722795009613,0.6871854662895203,0.506543755531311,0.5751975774765015,1.614628791809082,-1.551135540008545,0.7665907144546509,5.857952117919922,-3.527989387512207,0.046578437089920044,0.2983921468257904,-0.07445678114891052,18.12489891052246,-9.693290710449219,16.29505157470703,-1.4724339246749878,-1.5091924667358398,0.2306210994720459,2.2390246391296387,7.367144584655762,-3.758610486984253
5_20251106_152213,1762413697429,5,0.2976493239402771,0.42247700691223145,0.6894576549530029,0.5075098276138306,0.5751975774765015,1.614628791809082,-1.551135540008545,0.7665907144546509,5.857952117919922,-3.527989387512207,0.046578437089920044,0.2983921468257904,-0.07445678114891052,18.00582504272461,-9.155570983886719,16.82791519165039,-1.4724339246749878,-1.5091924667358398,0.2306210994720459,2.2390246391296387,7.367144584655762,-3.758610486984253
5_20251106_152213,1762413697447,5,0.29553836584091187,0.4219241738319397,0.6904882788658142,0.5078021287918091,0.6378183960914612,1.5681651830673218,-1.603596806526184,0.38353484869003296,5.684380531311035,-3.2071802616119385,0.08017599582672119,0.05954404175281525,0.11368954926729202,17.867801666259766,-8.755424499511719,17.22222137451172,-1.2285003662109375,-1.0785012245178223,0.4165027141571045,1.6120352745056152,6.762881755828857,-3.623682975769043
5_20251106_152213,1762413697467,5,0.2942429184913635,0.42331162095069885,0.6903311014175415,0.5076133608818054,0.6606019139289856,1.5413782596588135,-1.62531578540802,0.11898695677518845,5.464122772216797,-2.964179039001465,-0.08048142492771149,0.046715881675481796,0.2273103892803192,17.804790496826172,-8.549278259277344,17.480575561523438,-1.1944386959075928,-1.0390071868896484,0.5276031494140625,1.3134256601333618,6.503129959106445,-3.4917821884155273
5_20251106_152213,1762413697486,5,0.29289209842681885,0.4242944121360779,0.6897771954536438,0.5083265900611877,0.6606019139289856,1.5413782596588135,-1.62531578540802,0.11898695677518845,5.464122772216797,-2.964179039001465,-0.1672242283821106,0.28006619215011597,0.2896186113357544,17.715587615966797,-8.381988525390625,17.696609497070312,-1.1944386959075928,-1.0390071868896484,0.5276031494140625,1.3134256601333618,6.503129959106445,-3.4917821884155273
5_20251106_152213,1762413697505,5,0.2903662919998169,0.42410144209861755,0.6892387866973877,0.5106616020202637,0.6932763457298279,1.4790784120559692,-1.663936972618103,0.0052672624588012695,5.150496482849121,-3.352023124694824,-0.23747366666793823,0.44683223962783813,0.38857871294021606,17.620622634887695,-8.338516235351562,17.734291076660156,-0.8333908915519714,-0.8603229522705078,0.04443693161010742,0.8386581540107727,6.010819435119629,-3.3964600563049316
5_20251106_152213,1762413697525,5,0.28644540905952454,0.4232596457004547,0.6885315179824829,0.5145140290260315,0.6932763457298279,1.4790784120559692,-1.663936972618103,0.0052672624588012695,5.150496482849121,-3.352023124694824,-0.3003927171230316,0.4162890315055847,0.4991452097892761,17.4481143951416,-8.37542724609375,17.794479370117188,-0.8333908915519714,-0.8603229522705078,0.04443693161010742,0.8386581540107727,6.010819435119629,-3.3964600563049316
5_20251106_152213,1762413697542,5,0.2817969024181366,0.4226950407028198,0.6872085928916931,0.5192915797233582,0.7140688896179199,1.4154740571975708,-1.6988584995269775,0.2303125560283661,5.0008649826049805,-3.5543246269226074,-0.4036288559436798,0.20859500765800476,0.5583990812301636,17.27943229675293,-8.562088012695312,17.83847427368164,-0.38761743903160095,-0.6436901092529297,-0.07632637023925781,0.617929995059967,5.64455509185791,-3.4779982566833496
5_20251106_152213,1762413697562,5,0.2777376174926758,0.42318984866142273,0.6848569512367249,0.5241594910621643,0.7221065163612366,1.3814340829849243,-1.7135450839996338,0.06511974334716797,5.234289646148682,-2.539226770401001,-0.6033816337585449,0.09497419744729996,0.535186231136322,17.096040725708008,-8.799369812011719,17.840373992919922,-0.44224822521209717,-0.32821226119995117,0.7510173320770264,0.5073679685592651,5.562501907348633,-3.2902441024780273
5_20251106_152213,1762413697581,5,0.2755589485168457,0.4244935214519501,0.6810796856880188,0.5291531085968018,0.7278130650520325,1.3518842458724976,-1.7231857776641846,0.03399644047021866,5.381526947021484,-2.1058948040008545,-0.6033816337585449,0.09497419744729996,0.535186231136322,16.872665405273438,-9.1016845703125,17.825965881347656,-0.3786972165107727,-0.14478015899658203,0.9474794864654541,0.41269364953041077,5.526307106018066,-3.0533742904663086
5_20251106_152213,1762413697600,5,0.2747437655925751,0.4255065321922302,0.6758318543434143,0.5354543328285217,0.7340463995933533,1.3215445280075073,-1.7309510707855225,0.481692910194397,5.806479454040527,-2.2603139877319336,-0.8080213069915771,0.2525772750377655,0.5736707448959351,16.683834075927734,-9.439155578613281,17.798721313476562,0.05519941449165344,0.2241377830505371,0.6344482898712158,0.42649349570274353,5.58234167098999,-2.8947622776031494
5_20251106_152213,1762413697619,5,0.2722421884536743,0.4249490797519684,0.6701979637145996,0.5441848635673523,0.7409089803695679,1.2975295782089233,-1.736066460609436,1.049094319343567,6.364304542541504,-2.2758758068084717,-0.8300125002861023,0.21287107467651367,0.9365243315696716,16.36185073852539,-9.997093200683594,17.66747283935547,0.49808067083358765,0.6255702972412109,0.49510931968688965,0.5510136485099792,5.738734245300293,-2.7709851264953613
5_20251106_152213,1762413697638,5,0.2688196003437042,0.42581304907798767,0.6636013984680176,0.5532200336456299,0.7503952980041504,1.2779656648635864,-1.7383992671966553,1.5003818273544312,7.385387420654297,-1.75156831741333,-0.8025236129760742,-0.060185447335243225,0.996999979019165,16.01801872253418,-10.506797790527344,17.576847076416016,0.7594945430755615,1.3173222541809082,0.8155333995819092,0.7408872842788696,6.068065166473389,-2.5671017169952393
5_20251106_152213,1762413697659,5,0.2657477855682373,0.4290280044078827,0.6559944748878479,0.5612346529960632,0.7503952980041504,1.2779656648635864,-1.7383992671966553,1.5003818273544312,7.385387420654297,-1.75156831741333,-0.8239037990570068,-0.1701411008834839,0.9554611444473267,15.62877368927002,-11.17010498046875,17.53564453125,0.7594945430755615,1.3173222541809082,0.8155333995819092,0.7408872842788696,6.068065166473389,-2.5671017169952393
5_20251106_152213,1762413697677,5,0.2641766667366028,0.4333520829677582,0.6476563811302185,0.5682938694953918,0.7741771340370178,1.2592389583587646,-1.7300173044204712,1.2011195421218872,8.840999603271484,-1.3302068710327148,-0.8477275371551514,0.047326743602752686,1.041593074798584,15.263875007629395,-11.855056762695312,17.305667877197266,0.2665855288505554,1.881742000579834,0.7399001121520996,0.9345340132713318,6.95925760269165,-2.0701069831848145
5_20251106_152213,1762413697696,5,0.2622237503528595,0.4369935393333435,0.6392744779586792,0.575850248336792,0.7878350019454956,1.2618110179901123,-1.7245984077453613,1.9576548337936401,9.73040771484375,-1.8844407796859741,-0.9485202431678772,0.10658062249422073,1.2944910526275635,15.263875007629395,-11.855056762695312,17.305667877197266,0.8184967041015625,2.2169198989868164,0.14853298664093018,1.1391581296920776,7.513487815856934,-2.0329737663269043
5_20251106_152213,1762413697715,5,0.25824031233787537,0.4402589499950409,0.6303150057792664,0.5849674940109253,0.8061012029647827,1.2740150690078735,-1.7171509265899658,3.5652923583984375,11.529573440551758,-0.9890478253364563,-1.1922552585601807,-0.06934841722249985,1.57671058177948,14.842367172241211,-12.693061828613281,16.989463806152344,1.9409074783325195,3.2128686904907227,0.8351407647132874,1.624384880065918,8.316704750061035,-1.8241885900497437
5_20251106_152213,1762413697736,5,0.2539350390434265,0.4455384910106659,0.6188098788261414,0.5950518846511841,0.8061012029647827,1.2740150690078735,-1.7171509265899658,3.5652923583984375,11.529573440551758,-0.9890478253364563,-1.1922552585601807,-0.06934841722249985,1.57671058177948,14.415107727050781,-13.643272399902344,16.58979034423828,1.9409074783325195,3.2128686904907227,0.8351407647132874,1.624384880065918,8.316704750061035,-1.8241885900497437
5_20251106_152213,1762413697754,5,0.2506242096424103,0.4523424506187439,0.604106605052948,0.6063241958618164,0.8752802014350891,1.349548578262329,-1.6797970533370972,6.0371994972229,15.679742813110352,1.4972237348556519,-1.3926188945770264,-0.1286022961139679,1.364129662513733,13.839094161987305,-14.65283203125,16.142623901367188,2.9870002269744873,5.03736686706543,2.29060959815979,3.050199270248413,10.642375946044922,-0.7933858036994934
5_20251106_152213,1762413697772,5,0.2485724687576294,0.4582357704639435,0.5886556506156921,0.6178318858146667,0.9173629879951477,1.4040701389312744,-1.6549906730651855,6.514822006225586,16.736736297607422,1.4768738746643066,-1.2008073329925537,0.06382009387016296,0.8846008777618408,13.246454238891602,-15.750411987304688,15.625537872314453,2.771697998046875,4.87548828125,1.816207766532898,3.743124008178711,11.861248016357422,-0.3393338918685913
5_20251106_152213,1762413697792,5,0.24711072444915771,0.461055725812912,0.5758129954338074,0.6283337473869324,0.9695691466331482,1.4768205881118774,-1.6246058940887451,6.304141044616699,16.861228942871094,1.0423450469970703,-1.0499237775802612,0.2373056709766388,0.43072837591171265,12.682401657104492,-16.782676696777344,15.01613998413086,2.048813819885254,3.9999847412109375,1.1053431034088135,4.255327224731445,12.861244201660156,-0.06299811601638794
5_20251106_152213,1762413697810,5,0.2467595338821411,0.46021661162376404,0.5665742754936218,0.6374198198318481,1.0184869766235352,1.5485268831253052,-1.596418023109436,5.994105339050293,16.721176147460938,0.834058403968811,-0.9118683338165283,0.24035999178886414,0.21631482243537903,12.063558578491211,-17.93073272705078,14.361854553222656,1.3910226821899414,3.0879459381103516,0.7176452279090881,4.603082656860352,13.633230209350586,0.1164131760597229
5_20251106_152213,1762413697830,5,0.247470885515213,0.45739492774009705,0.5597637891769409,0.6451453566551208,1.0184869766235352,1.5485268831253052,-1.596418023109436,5.994105339050293,16.721176147460938,0.834058403968811,-0.6375901103019714,0.13590213656425476,0.18454986810684204,11.5020170211792,-18.924789428710938,13.69918441772461,1.3910226821899414,3.0879459381103516,0.7176452279090881,4.603082656860352,13.633230209350586,0.1164131760597229
5_20251106_152213,1762413697848,5,0.2485177218914032,0.4549914300441742,0.5544223189353943,0.6510281562805176,1.1223077774047852,1.7102138996124268,-1.5356525182724,5.510497093200684,16.290237426757812,0.7777971029281616,-0.32910335063934326,0.036942046135663986,0.19859975576400757,10.925469398498535,-19.969863891601562,13.034965515136719,0.5535483360290527,1.680948257446289,0.4112194776535034,4.956948757171631,14.609289169311523,0.3665776252746582
5_20251106_152213,1762413697868,5,0.24872051179409027,0.45409467816352844,0.550778865814209,0.6546592712402344,1.1223077774047852,1.7102138996124268,-1.5356525182724,5.510497093200684,16.290237426757812,0.7777971029281616,-0.07742710411548615,-0.03880517929792404,0.1149112805724144,10.423765182495117,-20.74848175048828,12.500389099121094,0.5535483360290527,1.680948257446289,0.4112194776535034,4.956948757171631,14.609289169311523,0.3665776252746582
5_20251106_152213,1762413697886,5,0.24844351410865784,0.4542669653892517,0.5487539172172546,0.6563432812690735,1.1774344444274902,1.7996745109558105,-1.5025932788848877,5.301013946533203,15.776703834533691,0.7574472427368164,0.1461493819952011,-0.013148861937224865,-0.01398116908967495,10.027315139770508,-21.371002197265625,12.067516326904297,0.2752523422241211,0.9339323043823242,0.31269571185112,5.025761604309082,14.842771530151367,0.4447515308856964
5_20251106_152213,1762413697906,5,0.24790452420711517,0.4544583261013031,0.5488239526748657,0.6563560366630554,1.2636877298355103,1.9390298128128052,-1.4486035108566284,4.570813179016113,13.608846664428711,0.3839678466320038,0.3355174660682678,0.056489717215299606,-0.08667407184839249,9.808730125427246,-21.844955444335938,11.711996078491211,-0.34996604919433594,-0.9806652069091797,-0.10229727625846863,4.920779228210449,14.58951187133789,0.4862651228904724
5_20251106_152213,1762413697925,5,0.24685189127922058,0.4541110098361969,0.5507581233978271,0.6553722620010376,1.2636877298355103,1.9390298128128052,-1.4486035108566284,4.570813179016113,13.608846664428711,0.3839678466320038,0.5077812671661377,0.05893317610025406,-0.04085921496152878,9.608068466186523,-22.21752166748047,11.345561981201172,-0.34996604919433594,-0.9806652069091797,-0.10229727625846863,4.920779228210449,14.58951187133789,0.4862651228904724
5_20251106_152213,1762413697945,5,0.24487006664276123,0.4538652300834656,0.5540454387664795,0.6535125374794006,1.3095674514770508,2.00856351852417,-1.4209988117218018,4.321827411651611,12.579385757446289,-0.24927127361297607,0.6146825551986694,-0.04247036948800087,0.08620064705610275,9.50140380859375,-22.39873504638672,11.243328094482422,-0.47916126251220703,-1.6081008911132812,-0.5884290933609009,4.800988674163818,14.18748664855957,0.3391578495502472
5_20251106_152213,1762413697963,5,0.24209682643413544,0.4549678862094879,0.5575591325759888,0.6507850289344788,1.3799498081207275,2.0991122722625732,-1.3856934309005737,5.438674449920654,11.830032348632812,-0.5820510387420654,0.6146825551986694,-0.04247036948800087,0.08620064705610275,9.464350700378418,-22.40179443359375,11.309438705444336,0.5293560028076172,-1.5455436706542969,-0.5801888704299927,4.909318447113037,13.37557601928711,-0.0018621981143951416
5_20251106_152213,1762413697982,5,0.23877854645252228,0.457981675863266,0.5608561635017395,0.6470533013343811,1.4184842109680176,2.1362674236297607,-1.3704620599746704,6.156904220581055,11.718706130981445,-0.3893260359764099,0.7301360368728638,-0.26543599367141724,0.18760418891906738,9.477762222290039,-22.364540100097656,11.432367324829102,0.9980688095092773,-1.3254966735839844,-0.30997106432914734,5.158835411071777,13.04420280456543,-0.07935496419668198
5_20251106_152213,1762413698002,5,0.2356315404176712,0.4630293846130371,0.5641381740570068,0.6417396068572998,1.4609516859054565,2.1686108112335205,-1.3560638427734375,6.452575206756592,11.46134090423584,-0.3534145951271057,0.9866992235183716,-0.567203164100647,0.004344776272773743,9.435585021972656,-22.23120880126953,11.595504760742188,1.03499174118042,-1.2662897109985352,-0.2192476987838745,5.417583465576172,12.727630615234375,-0.1341668963432312
5_20251106_152213,1762413698021,5,0.23344895243644714,0.46914151310920715,0.5678911209106445,0.6347499489784241,1.5020524263381958,2.1933181285858154,-1.3434476852416992,6.428634166717529,11.093847274780273,-0.27201521396636963,0.9866992235183716,-0.567203164100647,0.004344776272773743,9.52938461303711,-22.040122985839844,11.886737823486328,0.808840274810791,-1.3070268630981445,-0.1102786511182785,5.619793891906738,12.400874137878418,-0.16173656284809113
5_20251106_152213,1762413698039,5,0.2323634773492813,0.47411277890205383,0.5731056928634644,0.6267169713973999,1.539908766746521,2.2105824947357178,-1.3325031995773315,5.9713616371154785,10.38160228729248,-0.32827651500701904,0.9885318279266357,-0.5091710090637207,-0.6382849216461182,9.66931438446045,-21.67125701904297,12.223686218261719,0.28125429153442383,-1.61541748046875,-0.1332319676876068,5.690107345581055,11.99701976776123,-0.19504454731941223
5_20251106_152213,1762413698058,5,0.23319600522518158,0.4770045280456543,0.5797142386436462,0.6180758476257324,1.5770819187164307,2.2213642597198486,-1.3232403993606567,5.402763366699219,9.616687774658203,-0.8190668225288391,0.9683732986450195,-0.4517497420310974,-0.8386485576629639,9.795845985412598,-21.328033447265625,12.532585144042969,-0.2298750877380371,-1.904266357421875,-0.49921780824661255,5.632638454437256,11.520954132080078,-0.31984901428222656
5_20251106_152213,1762413698078,5,0.2351638823747635,0.47758620977401733,0.5876324772834778,0.6093418002128601,1.6120679378509521,2.224508285522461,-1.3167178630828857,4.913169860839844,9.008586883544922,-1.2212753295898438,0.9567668437957764,-0.5110036134719849,-0.8765221834182739,10.025121688842773,-20.866920471191406,12.996463775634766,-0.5755748748779297,-2.0098934173583984,-0.7211410403251648,5.488744735717773,11.01848030090332,-0.500134289264679
5_20251106_152213,1762413698098,5,0.23779331147670746,0.47737613320350647,0.59593665599823,0.600354790687561,1.640838623046875,2.2205212116241455,-1.3134896755218506,4.466670513153076,8.530963897705078,-1.4690645933151245,0.9830340147018433,-0.6496699452400208,-0.8398702144622803,10.399004936218262,-20.22032928466797,13.37481689453125,-0.8176593780517578,-1.9900131225585938,-0.7751442193984985,5.284329891204834,10.520977020263672,-0.693920373916626
5_20251106_152213,1762413698116,5,0.24103233218193054,0.47789210081100464,0.6039010286331177,0.5906150341033936,1.6650242805480957,2.210193157196045,-1.3136727809906006,4.137481689453125,8.137134552001953,-1.878455400466919,1.0099120140075684,-0.7852818965911865,-0.7738968729972839,10.399004936218262,-20.22032928466797,13.37481689453125,-0.9174785614013672,-1.907073974609375,-0.9476280212402344,5.054960250854492,10.044208526611328,-0.9308273792266846
5_20251106_152213,1762413698135,5,0.24455925822257996,0.4794695973396301,0.6114301085472107,0.5800455808639526,1.6849678754806519,2.194489002227783,-1.3168965578079224,3.949544906616211,7.896527290344238,-2.0424511432647705,0.9757035970687866,-0.8958483934402466,-0.7140321135520935,10.918415069580078,-19.576766967773438,13.758792877197266,-0.8843321800231934,-1.7181453704833984,-0.8892990350723267,4.833877086639404,9.614672660827637,-1.1531521081924438
5_20251106_152213,1762413698154,5,0.2483784258365631,0.482042133808136,0.6183174848556519,0.5688822865486145,1.7004600763320923,2.174462080001831,-1.3224976062774658,3.574868679046631,7.752881050109863,-2.0783627033233643,0.8907934427261353,-0.9441066980361938,-0.7030365467071533,11.443253517150879,-18.844627380371094,14.077033996582031,-1.0072064399719238,-1.4894332885742188,-0.7401684522628784,4.582075119018555,9.242314338684082,-1.3381942510604858
5_20251106_152213,1762413698174,5,0.2526591122150421,0.4849480390548706,0.6244360208511353,0.5577350854873657,1.7111618518829346,2.149623394012451,-1.3297301530838013,3.006270170211792,7.659511566162109,-1.8748643398284912,0.8156570792198181,-0.9373871684074402,-0.7073125839233398,12.090459823608398,-18.092262268066406,14.427474975585938,-1.2606441974639893,-1.2662420272827148,-0.4293360710144043,4.266914367675781,8.925753593444824,-1.445528268814087
5_20251106_152213,1762413698192,5,0.2575084865093231,0.48765721917152405,0.6299319267272949,0.5468689203262329,1.7153270244598389,2.123927116394043,-1.3370064496994019,2.2425525188446045,7.114853858947754,-1.8892289400100708,0.8468111753463745,-0.984423816204071,-0.6004112958908081,12.77882194519043,-17.28485870361328,14.537151336669922,-1.6194894313812256,-1.4487199783325195,-0.354960560798645,3.86204195022583,8.563573837280273,-1.5342683792114258
5_20251106_152213,1762413698212,5,0.2623516619205475,0.49020928144454956,0.6350312829017639,0.5362851023674011,1.7141271829605103,2.0907180309295654,-1.3466649055480957,2.0210983753204346,6.561817169189453,-2.1849000453948975,0.8468111753463745,-0.984423816204071,-0.6004112958908081,13.488836288452148,-16.525955200195312,14.633235931396484,-1.472754955291748,-1.601405143737793,-0.5205053091049194,3.4938533306121826,8.163222312927246,-1.664394736289978
5_20251106_152213,1762413698230,5,0.26655372977256775,0.495066374540329,0.6391745805740356,0.5247039794921875,1.7103413343429565,2.057823896408081,-1.3575752973556519,2.3730311393737793,6.335575103759766,-2.741528034210205,1.304959774017334,-1.6142252683639526,0.05015962943434715,14.199357986450195,-15.754768371582031,14.75661849975586,-0.8966579437255859,-1.462118148803711,-0.8617067337036133,3.2696890830993652,7.797693252563477,-1.8798213005065918
5_20251106_152213,1762413698250,5,0.26973170042037964,0.5041452646255493,0.6419770121574402,0.5108305215835571,1.7103413343429565,2.057823896408081,-1.3575752973556519,2.3730311393737793,6.335575103759766,-2.741528034210205,1.450345516204834,-1.8775079250335693,0.22486692667007446,14.899089813232422,-14.970870971679688,14.785160064697266,-0.8966579437255859,-1.462118148803711,-0.8617067337036133,3.2696890830993652,7.797693252563477,-1.8798213005065918
5_20251106_152213,1762413698268,5,0.27262791991233826,0.5170599818229675,0.6434848308563232,0.49421682953834534,1.6966173648834229,1.9811670780181885,-1.3919745683670044,2.314375400543213,6.461265563964844,-4.149258136749268,1.3727657794952393,-1.9373726844787598,0.24930152297019958,15.616020202636719,-14.334320068359375,14.63580322265625,-0.6426198482513428,-0.8091554641723633,-1.5805718898773193,2.9569952487945557,7.270421028137207,-2.5686862468719482
5_20251106_152213,1762413698288,5,0.2756836414337158,0.5313899517059326,0.6438420414924622,0.47654032707214355,1.6855897903442383,1.9406942129135132,-1.4170252084732056,1.8810436725616455,6.64680814743042,-4.430564880371094,1.0477856397628784,-1.7974846363067627,0.114911288022995,16.29567527770996,-13.724327087402344,14.38983154296875,-0.8607614040374756,-0.49889039993286133,-1.4895029067993164,2.741805076599121,7.145698547363281,-2.9410619735717773
5_20251106_152213,1762413698307,5,0.27978554368019104,0.5445553660392761,0.6432632803916931,0.4597736895084381,1.6717126369476318,1.9026771783828735,-1.443578839302063,1.3112481832504272,6.602517127990723,-4.379091739654541,0.666606068611145,-1.4633417129516602,-0.08178715407848358,16.969282150268555,-13.226936340332031,14.100936889648438,-1.144445538520813,-0.43454504013061523,-1.1504237651824951,2.4556937217712402,7.037062168121338,-3.228667974472046
5_20251106_152213,1762413698326,5,0.28489771485328674,0.5540674328804016,0.6425769925117493,0.44602394104003906,1.6538819074630737,1.8646003007888794,-1.4719018936157227,0.7618024945259094,6.3224077224731445,-4.357544898986816,0.3819431960582733,-1.1365290880203247,-0.23389247059822083,17.693326950073242,-12.71246337890625,13.67910385131836,-1.3551130294799805,-0.571723461151123,-0.9031014442443848,2.116915464401245,6.894131183624268,-3.4544434547424316
5_20251106_152213,1762413698346,5,0.290482759475708,0.5598652958869934,0.6422322392463684,0.43555527925491333,1.6538819074630737,1.8646003007888794,-1.4719018936157227,0.7618024945259094,6.3224077224731445,-4.357544898986816,0.3819431960582733,-1.1365290880203247,-0.23389247059822083,18.37558364868164,-12.288681030273438,13.294502258300781,-1.3551130294799805,-0.571723461151123,-0.9031014442443848,2.116915464401245,6.894131183624268,-3.4544434547424316
5_20251106_152213,1762413698365,5,0.29620301723480225,0.5633410811424255,0.6419603228569031,0.4275483191013336,1.6060147285461426,1.7841688394546509,-1.5326029062271118,0.26742106676101685,5.7406415939331055,-4.337194919586182,0.07284562289714813,-0.9477719068527222,-0.12943461537361145,18.979677200317383,-11.969314575195312,12.823749542236328,-1.2120225429534912,-0.778071403503418,-0.5753035545349121,1.4794436693191528,6.518712997436523,-3.7618913650512695
5_20251106_152213,1762413698384,5,0.3019770085811615,0.566287636756897,0.640949547290802,0.4210841655731201,1.5790151357650757,1.7442647218704224,-1.5629557371139526,0.24228304624557495,5.650862693786621,-4.510766983032227,0.016646064817905426,-1.16951584815979,0.08253545314073563,19.671977996826172,-11.605636596679688,12.249092102050781,-0.9897285103797913,-0.6942806243896484,-0.5991005897521973,1.2320115566253662,6.3451433181762695,-3.9116663932800293
5_20251106_152213,1762413698403,5,0.30813121795654297,0.5704936385154724,0.6383461356163025,0.41485702991485596,1.5508275032043457,1.704802393913269,-1.592705488204956,0.3069237172603607,5.778946876525879,-4.245022296905518,-0.08536835014820099,-1.4578438997268677,0.2932837903499603,20.306472778320312,-11.408241271972656,11.655523300170898,-0.7400702238082886,-0.4529571533203125,-0.26668453216552734,1.0469939708709717,6.231904029846191,-3.9783377647399902
5_20251106_152213,1762413698422,5,0.31543436646461487,0.5769439935684204,0.633317232131958,0.40810060501098633,1.521976113319397,1.6669867038726807,-1.6207830905914307,0.29136204719543457,6.112923622131348,-3.9110453128814697,-0.2075413018465042,-1.5879580974578857,0.4233979880809784,20.824426651000977,-11.354911804199219,10.932991027832031,-0.6045055389404297,-0.095184326171875,0.05383419990539551,0.8958675861358643,6.208107948303223,-3.9648795127868652
5_20251106_152213,1762413698441,5,0.3240635395050049,0.5849151611328125,0.6260010600090027,0.4012228846549988,1.493095874786377,1.6328566074371338,-1.6469216346740723,0.35959386825561523,6.862277030944824,-3.7697932720184326,-0.35475966334342957,-1.5519170761108398,0.3965199589729309,21.30228614807129,-11.378364562988281,10.112789154052734,-0.4290189743041992,0.5233354568481445,0.15606904029846191,0.7886128425598145,6.33894157409668,-3.9258623123168945
5_20251106_152213,1762413698459,5,0.33328646421432495,0.5927942991256714,0.6175475716590881,0.3951582908630371,1.46589994430542,1.6052261590957642,-1.6691393852233887,0.2997414171695709,7.592476844787598,-3.3951170444488525,-0.35475966334342957,-1.5519170761108398,0.3965199589729309,21.816282272338867,-11.423202514648438,9.158369064331055,-0.39109715819358826,1.002828598022461,0.42459607124328613,0.6908385753631592,6.589648246765137,-3.8197131156921387
5_20251106_152213,1762413698479,5,0.34359076619148254,0.5989535450935364,0.609200119972229,0.38996821641921997,1.434708595275879,1.579848051071167,-1.6903618574142456,-0.1264081597328186,7.835477828979492,-3.0862784385681152,-0.6687442064285278,-1.3900378942489624,-0.2149556577205658,22.192819595336914,-11.527809143066406,8.278594970703125,-0.653797447681427,0.9966640472412109,0.5867478847503662,0.5273892879486084,6.838813781738281,-3.6730263233184814
5_20251106_152213,1762413698497,5,0.35552170872688293,0.6021409630775452,0.6021611094474792,0.385269433259964,1.434708595275879,1.579848051071167,-1.6903618574142456,-0.1264081597328186,7.835477828979492,-3.0862784385681152,-0.6546943187713623,-1.343001365661621,-0.5894157290458679,22.630359649658203,-11.651542663574219,7.198001861572266,-0.653797447681427,0.9966640472412109,0.5867478847503662,0.5273892879486084,6.838813781738281,-3.6730263233184814
5_20251106_152213,1762413698518,5,0.368926078081131,0.6025657057762146,0.5970885753631592,0.37985971570014954,1.3713477849960327,1.5416297912597656,-1.7236120700836182,-0.5717105269432068,7.652329444885254,-3.211968421936035,-0.5209149122238159,-1.5122108459472656,-0.8801873326301575,23.06909942626953,-11.762039184570312,6.050090789794922,-0.7024662494659424,0.5108814239501953,0.275158166885376,0.1307557225227356,7.141448020935059,-3.487126588821411
5_20251106_152213,1762413698538,5,0.38316482305526733,0.6012148261070251,0.5940461158752441,0.37260520458221436,1.3713477849960327,1.5416297912597656,-1.7236120700836182,-0.5717105269432068,7.652329444885254,-3.211968421936035,-0.26862773299217224,-1.8249735832214355,-1.0646685361862183,23.509939193725586,-11.846481323242188,4.808094024658203,-0.7024662494659424,0.5108814239501953,0.275158166885376,0.1307557225227356,7.141448020935059,-3.487126588821411
5_20251106_152213,1762413698555,5,0.3987579345703125,0.6001104712486267,0.591826856136322,0.36138686537742615,1.2974324226379395,1.5077329874038696,-1.7510586977005005,-2.844907283782959,6.299663543701172,-3.4142699241638184,-0.02733619697391987,-1.9074403047561646,-0.9443281888961792,23.509939193725586,-11.846481323242188,4.808094024658203,-2.1472816467285156,-0.6915817260742188,0.014259815216064453,-0.6976255178451538,6.991245269775391,-3.428529739379883
5_20251106_152213,1762413698574,5,0.41399821639060974,0.600273847579956,0.5898297429084778,0.3469547629356384,1.2520380020141602,1.4879982471466064,-1.7647812366485596,-3.5547573566436768,5.902243137359619,-3.82725191116333,-0.10674861073493958,-1.7590001821517944,-0.48495784401893616,23.972213745117188,-11.778366088867188,3.4616241455078125,-2.28570556640625,-0.8712015151977539,-0.31897783279418945,-1.2690517902374268,6.773444652557373,-3.5082740783691406
5_20251106_152213,1762413698595,5,0.42717498540878296,0.6021605730056763,0.5864872336387634,0.33310192823410034,1.20112144947052,1.4658478498458862,-1.7783852815628052,-3.0855140686035156,5.978854179382324,-3.4693338871002197,-0.42623084783554077,-1.6136143207550049,0.011675149202346802,24.502864837646484,-11.580169677734375,2.066181182861328,-1.453169822692871,-0.6356725692749023,0.03115224838256836,-1.6323442459106445,6.614526748657227,-3.500486135482788
5_20251106_152213,1762413698613,5,0.4393004775047302,0.6056253910064697,0.5796483159065247,0.3228633999824524,1.153763771057129,1.4452396631240845,-1.7885018587112427,-2.1446332931518555,6.389442443847656,-2.712798595428467,-0.7249437570571899,-1.4859436750411987,0.3000032901763916,24.953048706054688,-11.299766540527344,0.6826705932617188,-0.40983128547668457,-0.1800675392150879,0.6301500797271729,-1.734802007675171,6.569509983062744,-3.3429486751556396
5_20251106_152213,1762413698632,5,0.45119595527648926,0.6094975471496582,0.5697399377822876,0.3167512118816376,1.1093639135360718,1.4268559217453003,-1.7941405773162842,-1.5197736024856567,7.004725933074951,-1.8952140808105469,-0.8959858417510986,-1.4859435558319092,0.36414408683776855,25.313600540161133,-11.100395202636719,-0.6923408508300781,0.17202270030975342,0.348172664642334,1.1581878662109375,-1.6917963027954102,6.656553268432617,-3.0534019470214844
5_20251106_152213,1762413698652,5,0.4632468819618225,0.6125178337097168,0.5584926605224609,0.3135445713996887,1.1093639135360718,1.4268559217453003,-1.7941405773162842,-1.5197736024856567,7.004725933074951,-1.8952140808105469,-0.8959858417510986,-1.4859435558319092,0.36414408683776855,25.723899841308594,-10.8848876953125,-2.1056766510009766,0.17202270030975342,0.348172664642334,1.1581878662109375,-1.6917963027954102,6.656553268432617,-3.0534019470214844
5_20251106_152213,1762413698671,5,0.4758467674255371,0.6147324442863464,0.54693204164505,0.31070759892463684,1.0240050554275513,1.3974335193634033,-1.791122317314148,-2.1913182735443115,7.450028419494629,-1.3026747703552246,-0.917976975440979,-1.2794713973999023,0.06665297597646713,25.948883056640625,-10.731117248535156,-3.567974090576172,-0.4125850200653076,0.5304245948791504,1.1300420761108398,-1.778733253479004,6.9196038246154785,-2.4327168464660645
5_20251106_152213,1762413698689,5,0.4882725775241852,0.6155698299407959,0.5366489887237549,0.3076874017715454,0.984994649887085,1.3879101276397705,-1.7850899696350098,-2.5707828998565674,7.799566268920898,-1.2452163696289062,-1.0621410608291626,-1.0192430019378662,-0.05918515473604202,26.114137649536133,-10.568092346191406,-5.100040435791016,-0.6336398124694824,0.7039699554443359,0.950000524520874,-1.937143087387085,7.0955963134765625,-2.1952168941497803
5_20251106_152213,1762413698708,5,0.5005636811256409,0.6149529218673706,0.527398407459259,0.3051554560661316,0.9430437684059143,1.3807417154312134,-1.7746248245239258,-2.969400405883789,7.96356201171875,-0.5856421589851379,-1.2136354446411133,-0.8549204468727112,-0.14043018221855164,26.16550064086914,-10.475944519042969,-6.54322624206543,-0.8258059024810791,0.6943726539611816,1.2876596450805664,-2.14359450340271,7.269189357757568,-1.8733018636703491
5_20251106_152213,1762413698728,5,0.5131146907806396,0.6122627258300781,0.519113302230835,0.30392274260520935,0.9430437684059143,1.3807417154312134,-1.7746248245239258,-2.969400405883789,7.96356201171875,-0.5856421589851379,-1.206916093826294,-0.7107563614845276,-0.12271509319543839,26.13720703125,-10.501846313476562,-7.96469783782959,-0.8258059024810791,0.6943726539611816,1.2876596450805664,-2.14359450340271,7.269189357757568,-1.8733018636703491
5_20251106_152213,1762413698747,5,0.5254751443862915,0.6083242297172546,0.5114781260490417,0.30365708470344543,0.8512076139450073,1.3732326030731201,-1.7421554327011108,-3.7941675186157227,7.991094589233398,-0.45396673679351807,-1.1323904991149902,-0.6130180358886719,0.0373314693570137,25.963905334472656,-10.500816345214844,-9.269617080688477,-1.0998435020446777,0.45416688919067383,0.8825182914733887,-2.694324016571045,7.536927700042725,-1.3364850282669067
5_20251106_152213,1762413698767,5,0.5366047024726868,0.6046053171157837,0.5040244460105896,0.30408409237861633,0.8078691959381104,1.3726755380630493,-1.724373459815979,-3.7019944190979004,8.315494537353516,-0.3007444143295288,-1.1672098636627197,-0.5940812230110168,0.27617958188056946,25.798559188842773,-10.5743408203125,-10.575629234313965,-0.8061363697052002,0.6228532791137695,0.8285924196243286,-2.8958580493927,7.692641258239746,-1.1293368339538574
5_20251106_152213,1762413698785,5,0.5466480255126953,0.6018413305282593,0.4956355094909668,0.3054642379283905,0.7605748772621155,1.3749635219573975,-1.7006064653396606,-3.4051263332366943,8.63869857788086,0.5144462585449219,-1.2411243915557861,-0.558040201663971,0.5046429634094238,25.617103576660156,-10.499038696289062,-11.852421760559082,-0.40741467475891113,0.7568454742431641,1.3150265216827393,-2.997711658477783,7.881853103637695,-0.8005802631378174
5_20251106_152213,1762413698804,5,0.5563266277313232,0.599751889705658,0.48548513650894165,0.3083869516849518,0.7173454761505127,1.3796894550323486,-1.6746621131896973,-3.1968398094177246,8.851773262023926,0.8376495838165283,-1.1745401620864868,-0.43403467535972595,0.5736707448959351,25.399398803710938,-10.414100646972656,-13.076356887817383,-0.1593027114868164,0.7759361267089844,1.3105839490890503,-3.037537097930908,8.075837135314941,-0.4729343354701996
5_20251106_152213,1762413698824,5,0.5651381015777588,0.5979512929916382,0.47470200061798096,0.3126198947429657,0.6738646626472473,1.3877240419387817,-1.6444861888885498,-3.1202287673950195,9.164203643798828,0.9190489053726196,-1.092684268951416,-0.29414665699005127,0.5535121560096741,25.081016540527344,-10.363052368164062,-14.061450958251953,-0.06615352630615234,0.8706932067871094,1.113586664199829,-3.054075241088867,8.293510437011719,-0.1945377141237259
5_20251106_152213,1762413698841,5,0.5727502703666687,0.5960977673530579,0.46475493907928467,0.31721824407577515,0.6383588314056396,1.397339105606079,-1.6181175708770752,-3.233948230743408,9.717239379882812,0.7167476415634155,-1.1073451042175293,-0.1328783482313156,0.4893713593482971,24.748443603515625,-10.338722229003906,-14.96646499633789,-0.14389848709106445,1.1389827728271484,0.7290282845497131,-3.0900497436523438,8.578256607055664,-0.012280657887458801
5_20251106_152213,1762413698861,5,0.579495370388031,0.5936357975006104,0.455949604511261,0.3223222494125366,0.5996412038803101,1.410351037979126,-1.5868819952011108,-3.4613876342773438,9.599928855895996,1.1680351495742798,-1.0609192848205566,-0.09805905818939209,0.43011748790740967,24.429073333740234,-10.289024353027344,-15.81639575958252,-0.2970702648162842,0.8173379898071289,0.9442526698112488,-3.1643173694610596,8.782590866088867,0.223782479763031
5_20251106_152213,1762413698879,5,0.5852280855178833,0.5892921686172485,0.44951316714286804,0.32890841364860535,0.5637949109077454,1.4256806373596191,-1.5537735223770142,-2.8233604431152344,9.864477157592773,1.4756767749786377,-0.9906699061393738,0.020448697730898857,0.47165632247924805,24.12059211730957,-10.251899719238281,-16.585002899169922,0.2727653980255127,0.865509033203125,1.0015153884887695,-3.096125841140747,8.998968124389648,0.4741613268852234
5_20251106_152213,1762413698899,5,0.5909695625305176,0.586323082447052,0.44219306111335754,0.33383458852767944,0.5297494530677795,1.444460153579712,-1.517802357673645,-2.5037481784820557,10.13381290435791,1.4158244132995605,-1.064584493637085,0.12796089053153992,0.44172394275665283,23.79309844970703,-10.317642211914062,-17.194015502929688,0.47390222549438477,0.9078760147094727,0.7533304691314697,-2.9776504039764404,9.225936889648438,0.6624939441680908
5_20251106_152213,1762413698918,5,0.5960586071014404,0.5828372240066528,0.4355352818965912,0.33959370851516724,0.4991839826107025,1.4634759426116943,-1.4820071458816528,-2.9191243648529053,9.97939395904541,1.8766884803771973,-1.2545634508132935,0.16155844926834106,0.4692128300666809,23.465408325195312,-10.383651733398438,-17.775997161865234,0.046820878982543945,0.6027650833129883,0.971355676651001,-2.965945243835449,9.376628875732422,0.9053328037261963
5_20251106_152213,1762413698939,5,0.6016759276390076,0.5781628489494324,0.4287692606449127,0.34622347354888916,0.4991839826107025,1.4634759426116943,-1.4820071458816528,-2.9191243648529053,9.97939395904541,1.8766884803771973,-1.3724603652954102,0.2513555586338043,0.6384223699569702,23.122821807861328,-10.488937377929688,-18.27816390991211,0.046820878982543945,0.6027650833129883,0.971355676651001,-2.965945243835449,9.376628875732422,0.9053328037261963
5_20251106_152213,1762413698957,5,0.6076406836509705,0.5727024674415588,0.42108792066574097,0.354216992855072,0.4429140090942383,1.5076428651809692,-1.401721477508545,-2.0177459716796875,11.049555778503418,2.7026524543762207,-1.499520182609558,0.4285063147544861,0.720278263092041,23.122821807861328,-10.488937377929688,-18.27816390991211,0.759878396987915,1.2246618270874023,1.2207667827606201,-2.7776243686676025,9.824893951416016,1.4818856716156006
5_20251106_152213,1762413698977,5,0.6129888296127319,0.5665720105171204,0.4130229353904724,0.3642154633998871,0.42097899317741394,1.5360854864120483,-1.3555245399475098,-1.6777840852737427,11.594213485717773,3.472355365753174,-1.626579999923706,0.5427380204200745,0.6207072734832764,22.817710876464844,-10.567405700683594,-18.71074867248535,0.87987220287323,1.4154558181762695,1.5923757553100586,-2.5576562881469727,10.178757667541504,1.8799796104431152
5_20251106_152213,1762413698996,5,0.6185958981513977,0.5587942004203796,0.40524306893348694,0.37532147765159607,0.40229281783103943,1.5656055212020874,-1.3087633848190308,-2.153012752532959,11.582242965698242,3.7273268699645996,-1.626579999923706,0.5427380204200745,0.6207072734832764,22.550172805786133,-10.618911743164062,-19.087268829345703,0.3237149715423584,1.122788429260254,1.4778778553009033,-2.4767277240753174,10.459454536437988,2.2494490146636963
5_20251106_152213,1762413699015,5,0.6241450905799866,0.5499637722969055,0.3982033133506775,0.386544793844223,0.3846474587917328,1.5971897840499878,-1.2606337070465088,-2.437910556793213,11.74983024597168,3.6004395484924316,-1.3577995300292969,0.5677834749221802,0.7868624925613403,22.269248962402344,-10.684440612792969,-19.396963119506836,0.031053781509399414,1.0322999954223633,1.0807924270629883,-2.4689643383026123,10.717530250549316,2.5196471214294434
5_20251106_152213,1762413699033,5,0.6284418106079102,0.542331874370575,0.39114290475845337,0.39742204546928406,0.3846474587917328,1.5971897840499878,-1.2606337070465088,-2.437910556793213,11.74983024597168,3.6004395484924316,-1.2851066589355469,0.6166526675224304,0.8974289894104004,21.97443389892578,-10.776283264160156,-19.66712760925293,0.031053781509399414,1.0322999954223633,1.0807924270629883,-2.4689643383026123,10.717530250549316,2.5196471214294434
5_20251106_152213,1762413699052,5,0.6311814188957214,0.5358575582504272,0.3838118612766266,0.4088461399078369,0.35355865955352783,1.662904977798462,-1.163616418838501,-2.498960018157959,11.869534492492676,4.165446758270264,-1.2362375259399414,0.7540971636772156,0.8308447599411011,21.65334129333496,-10.895500183105469,-19.871217727661133,-0.05156564712524414,0.7286643981933594,1.1138346195220947,-2.447394371032715,11.140870094299316,3.051612138748169
5_20251106_152213,1762413699071,5,0.6332225799560547,0.5292989611625671,0.3770899176597595,0.42032721638679504,0.33741480112075806,1.6953755617141724,-1.112856388092041,-2.92630672454834,11.186019897460938,4.124747276306152,-1.2362375259399414,0.7540971636772156,0.8308447599411011,21.29488754272461,-11.029792785644531,-20.063528060913086,-0.3831298351287842,0.03612041473388672,0.8585081100463867,-2.5431768894195557,11.14989948272705,3.2662391662597656
5_20251106_152213,1762413699090,5,0.634522020816803,0.5217114090919495,0.3721767067909241,0.43206894397735596,0.3215852975845337,1.7259210348129272,-1.0618815422058105,-2.7228081226348877,11.039979934692383,4.269590377807617,-1.1623228788375854,1.0674707889556885,0.9713436365127563,20.93413543701172,-11.190414428710938,-20.134719848632812,-0.14370489120483398,-0.0879364013671875,0.8026809692382812,-2.5791032314300537,11.12791633605957,3.466909408569336
5_20251106_152213,1762413699110,5,0.634660005569458,0.5138113498687744,0.3679979145526886,0.44472700357437134,0.3083534240722656,1.756264567375183,-1.010235071182251,-1.9207850694656372,11.61097240447998,4.640675067901611,-1.1470513343811035,1.1285573244094849,1.0593081712722778,20.54640007019043,-11.390968322753906,-20.14010238647461,0.5266546010971069,0.3864450454711914,0.9390125274658203,-2.447439670562744,11.224527359008789,3.701662540435791
5_20251106_152213,1762413699129,5,0.6336195468902588,0.506045401096344,0.3635510206222534,0.4585575461387634,0.29799625277519226,1.7889328002929688,-0.9549844264984131,-1.5018178224563599,11.989239692687988,4.887267112731934,-1.1470513343811035,1.1285573244094849,1.0593081712722778,20.132080078125,-11.63092041015625,-20.13374137878418,0.7564975023269653,0.6117696762084961,0.9484834671020508,-2.258315324783325,11.377470016479492,3.938783645629883
5_20251106_152213,1762413699148,5,0.6322629451751709,0.4980480670928955,0.35940346121788025,0.4722508192062378,0.29053205251693726,1.817680835723877,-0.9063026905059814,-1.6933459043502808,11.70913028717041,4.524561882019043,-1.1085667610168457,1.2036936283111572,0.6793502569198608,19.686155319213867,-11.986686706542969,-20.009090423583984,0.4519754648208618,0.26532840728759766,0.46862268447875977,-2.1453213691711426,11.443801879882812,4.055939197540283
5_20251106_152213,1762413699167,5,0.6314243674278259,0.4892604947090149,0.35643309354782104,0.4846472144126892,0.2833939790725708,1.8466309309005737,-0.8529968857765198,-1.901632308959961,10.984914779663086,4.687359809875488,-1.1085667610168457,1.2036936283111572,0.6793502569198608,19.31424903869629,-12.324859619140625,-19.908266067504883,0.19495129585266113,-0.3671092987060547,0.5051364898681641,-2.096583604812622,11.35202407836914,4.182223320007324
5_20251106_152213,1762413699186,5,0.6312496066093445,0.47912174463272095,0.3548712134361267,0.49601683020591736,0.27743420004844666,1.872549295425415,-0.8021658062934875,-1.9207851886749268,11.275798797607422,5.174559116363525,-1.1488838195800781,1.2647801637649536,0.5388513803482056,18.93801498413086,-12.738510131835938,-19.795507431030273,0.1406388282775879,-0.06097984313964844,0.7938685417175293,-2.0614240169525146,11.33677864074707,4.380690574645996
5_20251106_152213,1762413699206,5,0.6310379505157471,0.4683775305747986,0.3536415696144104,0.5072979927062988,0.2736624479293823,1.8999109268188477,-0.750190794467926,-1.3725366592407227,12.335186004638672,5.724004745483398,-1.036484718322754,1.5360040664672852,0.6707981824874878,18.588577270507812,-13.100883483886719,-19.626649856567383,0.5511099100112915,0.7987260818481445,1.0746512413024902,-1.9236465692520142,11.536459922790527,4.649353504180908
5_20251106_152213,1762413699224,5,0.6294852495193481,0.45757201313972473,0.3529418408870697,0.5194306373596191,0.27370962500572205,1.9282535314559937,-0.6976690292358398,-0.6004397869110107,12.392644882202148,5.795827865600586,-0.8856011629104614,1.8060064315795898,0.6298702955245972,18.297149658203125,-13.509651184082031,-19.4428768157959,1.0585654973983765,0.6849479675292969,0.9171795845031738,-1.6590052843093872,11.707696914672852,4.878648281097412
5_20251106_152213,1762413699244,5,0.6263206601142883,0.44592538475990295,0.35447201132774353,0.5321866273880005,0.28018811345100403,1.9595153331756592,-0.6419769525527954,0.4565548896789551,12.667966842651367,5.921518325805664,-0.7053960561752319,1.9318444728851318,0.6604135036468506,18.030292510986328,-13.916557312011719,-19.28515625,1.6924481391906738,0.7682161331176758,0.8342962265014648,-1.2358932495117188,11.899750709533691,5.087222099304199
5_20251106_152213,1762413699262,5,0.6214792728424072,0.4341568052768707,0.3580187261104584,0.5450632572174072,0.28018811345100403,1.9595153331756592,-0.6419769525527954,0.4565548896789551,12.667966842651367,5.921518325805664,-0.48976078629493713,1.9330661296844482,0.6848480701446533,17.887523651123047,-14.266105651855469,-19.04037857055664,1.6924481391906738,0.7682161331176758,0.8342962265014648,-1.2358932495117188,11.899750709533691,5.087222099304199
5_20251106_152213,1762413699281,5,0.6151776909828186,0.42340877652168274,0.3624132573604584,0.5576182007789612,0.29357287287712097,1.9925174713134766,-0.5849829912185669,1.1424641609191895,12.986381530761719,6.431461334228516,-0.1934913992881775,1.9862115383148193,0.6830154657363892,17.737619400024414,-14.729743957519531,-18.68984603881836,1.9026859998703003,0.8693046569824219,1.0753912925720215,-0.7602218389511108,12.117076873779297,5.356070041656494
5_20251106_152213,1762413699300,5,0.6060066223144531,0.41317009925842285,0.3690870404243469,0.5708074569702148,0.3320125341415405,2.0533132553100586,-0.4825735092163086,1.8475263118743896,12.857100486755371,6.3847761154174805,-0.1934913992881775,1.9862115383148193,0.6830154657363892,17.72539710998535,-15.110107421875,-18.251237869262695,1.728524088859558,0.45158958435058594,0.6507105827331543,0.11900222301483154,12.405510902404785,5.734065532684326
5_20251106_152213,1762413699320,5,0.5968011617660522,0.40510132908821106,0.3763391375541687,0.5814551711082458,0.3320125341415405,2.0533132553100586,-0.4825735092163086,1.8475263118743896,12.857100486755371,6.3847761154174805,0.2585484981536865,2.091890811920166,0.6237615942955017,17.686813354492188,-15.506370544433594,-17.63816261291504,1.728524088859558,0.45158958435058594,0.6507105827331543,0.11900222301483154,12.405510902404785,5.734065532684326
5_20251106_152213,1762413699339,5,0.5864929556846619,0.39773255586624146,0.3850157856941223,0.5912678241729736,0.39368972182273865,2.115597724914551,-0.38025644421577454,3.286379814147949,12.760139465332031,5.6785173416137695,0.4864010512828827,2.1523666381835938,0.5608425140380859,17.719554901123047,-15.911911010742188,-16.873729705810547,2.162914991378784,0.22179126739501953,-0.12461185455322266,1.123464822769165,12.538348197937012,5.803129196166992
5_20251106_152213,1762413699358,5,0.5748742818832397,0.3908158838748932,0.3955231010913849,0.6002865433692932,0.4353046119213104,2.1452958583831787,-0.3324379622936249,3.7209086418151855,12.226255416870117,5.2511701583862305,0.7166969776153564,2.0680670738220215,0.5327427387237549,17.821392059326172,-16.376144409179688,-16.04009246826172,2.0779550075531006,-0.24967384338378906,-0.44156694412231445,1.642953634262085,12.475929260253906,5.692737102508545
5_20251106_152213,1762413699377,5,0.5624693036079407,0.38503497838974,0.4072157144546509,0.6079076528549194,0.4796075224876404,2.171190023422241,-0.29182666540145874,4.101570129394531,12.144855499267578,4.765168190002441,0.8669697046279907,1.8964142799377441,0.48143014311790466,17.910377502441406,-16.818885803222656,-14.922574996948242,1.966893196105957,-0.2648591995239258,-0.7420549392700195,2.134676933288574,12.409714698791504,5.507223129272461
5_20251106_152213,1762413699396,5,0.5495021343231201,0.38110074400901794,0.41929110884666443,0.6140069961547852,0.5281294584274292,2.1954076290130615,-0.25593867897987366,4.4798383712768555,12.270545959472656,4.525758743286133,0.8199331164360046,1.7779065370559692,0.23219731450080872,18.062620162963867,-17.208106994628906,-13.733968734741211,1.876129150390625,-0.11133480072021484,-0.7851715087890625,2.6037092208862305,12.381880760192871,5.310930252075195
5_20251106_152213,1762413699415,5,0.5375834107398987,0.37777721881866455,0.4310736358165741,0.6184366941452026,0.5786402821540833,2.2172977924346924,-0.2246265709400177,4.21289587020874,11.974875450134277,4.297122001647949,0.7081449031829834,1.7546937465667725,-0.12332595139741898,18.062620162963867,-17.208106994628906,-13.733968734741211,1.2873492240905762,-0.3256044387817383,-0.8110466003417969,2.925546646118164,12.300479888916016,5.108168601989746
5_20251106_152213,1762413699436,5,0.5277343392372131,0.3728448450565338,0.4431398808956146,0.62137770652771,0.6314598321914673,2.2365241050720215,-0.19654786586761475,3.684997081756592,11.424232482910156,4.044544696807861,0.584139347076416,1.8041737079620361,-0.38172173500061035,18.139446258544922,-17.62841796875,-12.427186965942383,0.6075601577758789,-0.7009983062744141,-0.8508992195129395,3.077436923980713,12.12523078918457,4.895443916320801
5_20251106_152213,1762413699455,5,0.5200291872024536,0.3657582402229309,0.455526739358902,0.6231259107589722,0.6820370554924011,2.2498233318328857,-0.17392271757125854,3.208571434020996,10.491730690002441,3.563331127166748,0.5951349139213562,1.7986758947372437,-0.4476951062679291,18.28616714477539,-17.88178253173828,-11.087489128112793,0.10490751266479492,-1.3067998886108398,-1.065690040588379,3.103663921356201,11.798530578613281,4.629021167755127
5_20251106_152213,1762413699473,5,0.5131711363792419,0.3571387529373169,0.4682607054710388,0.6243710517883301,0.7222830057144165,2.256012201309204,-0.15892958641052246,2.832697868347168,9.726816177368164,3.137181520462036,0.5951349139213562,1.7986758947372437,-0.4476951062679291,18.560401916503906,-18.01513671875,-9.645896911621094,-0.21677279472351074,-1.6573715209960938,-1.1934716701507568,3.0494706630706787,11.384187698364258,4.330653190612793
5_20251106_152213,1762413699492,5,0.5059308409690857,0.3492847979068756,0.4808766841888428,0.6251333951950073,0.7222830057144165,2.256012201309204,-0.15892958641052246,2.832697868347168,9.726816177368164,3.137181520462036,0.7356337904930115,1.4901893138885498,-0.08728493750095367,18.84088134765625,-18.035614013671875,-8.188413619995117,-0.21677279472351074,-1.6573715209960938,-1.1934716701507568,3.0494706630706787,11.384187698364258,4.330653190612793
5_20251106_152213,1762413699511,5,0.49778109788894653,0.34360286593437195,0.49242642521858215,0.62583327293396,0.76981520652771,2.2569737434387207,-0.14547695219516754,2.520267963409424,9.57718563079834,2.9767770767211914,0.768620491027832,1.4437634944915771,0.033055417239665985,19.073827743530273,-18.034423828125,-6.705330848693848,-0.42336225509643555,-1.445601463317871,-1.0831007957458496,2.9436302185058594,11.022787094116211,4.059877872467041
5_20251106_152213,1762413699529,5,0.4887659549713135,0.3393815755844116,0.503014326095581,0.626820981502533,0.8348493576049805,2.2450947761535645,-0.13675035536289215,1.974413514137268,8.40168285369873,1.9497084617614746,0.7820595502853394,1.4217724800109863,0.07703766971826553,19.191455841064453,-17.927894592285156,-5.251810073852539,-0.6601365804672241,-1.8085126876831055,-1.440718173980713,2.634550094604492,10.210195541381836,3.3904266357421875
5_20251106_152213,1762413699550,5,0.479099303483963,0.33554184436798096,0.5135154724121094,0.6278354525566101,0.8665213584899902,2.227710723876953,-0.14075495302677155,1.6631805896759033,7.896527290344238,1.4768738746643066,0.6965384483337402,1.3356404304504395,0.1497305929660797,19.37737274169922,-17.67980194091797,-3.7388687133789062,-0.7770955562591553,-1.8509349822998047,-1.5308423042297363,2.4402761459350586,9.747462272644043,3.007716178894043
5_20251106_152213,1762413699568,5,0.4693661332130432,0.33200281858444214,0.5233913064002991,0.628912627696991,0.8897435069084167,2.2083046436309814,-0.14798878133296967,1.3974356651306152,7.61522102355957,1.3942774534225464,0.5603156089782715,1.2440108060836792,0.23952770233154297,19.46569061279297,-17.449813842773438,-2.3112125396728516,-0.8342723846435547,-1.7057933807373047,-1.2907510995864868,2.23170804977417,9.321014404296875,2.685028553009033
5_20251106_152213,1762413699587,5,0.4596260190010071,0.32864516973495483,0.5319082140922546,0.6307217478752136,0.910291314125061,2.183396100997925,-0.15896135568618774,1.2334399223327637,7.335111618041992,1.329636812210083,0.451581746339798,1.267223596572876,0.3006141781806946,19.570112228393555,-17.15570068359375,-0.9358100891113281,-0.798614501953125,-1.5887222290039062,-1.0843133926391602,2.0320544242858887,8.923833847045898,2.413950204849243
5_20251106_152213,1762413699606,5,0.45009300112724304,0.3254404664039612,0.5391156077384949,0.6331343650817871,0.9269900918006897,2.1543002128601074,-0.17412056028842926,1.0036064386367798,6.943676471710205,0.6880183815956116,0.29336780309677124,1.3979487419128418,0.33298999071121216,19.539077758789062,-16.89543914794922,0.4336681365966797,-0.8227584362030029,-1.5841259956359863,-1.3807456493377686,1.8263648748397827,8.527802467346191,2.0687639713287354
5_20251106_152213,1762413699627,5,0.44009631872177124,0.32115063071250916,0.5458696484565735,0.6365562677383423,0.9419668912887573,2.118255615234375,-0.19573263823986053,1.0634589195251465,6.888611793518066,0.3696032762527466,-0.029168788343667984,1.461478590965271,0.43622612953186035,19.308319091796875,-16.74713134765625,1.6715431213378906,-0.6103247404098511,-1.3113527297973633,-1.3593285083770752,1.6737836599349976,8.19996452331543,1.7289317846298218
5_20251106_152213,1762413699645,5,0.4296097159385681,0.31532150506973267,0.5515245199203491,0.6417387127876282,0.9543316960334778,2.0900559425354004,-0.21292537450790405,2.059403896331787,7.981517791748047,1.4684944152832031,-0.38224858045578003,1.1774265766143799,0.5370188355445862,19.06183624267578,-16.67401885986328,2.8127288818359375,0.30849623680114746,-0.1747570037841797,-0.20834994316101074,1.7509076595306396,8.156274795532227,1.6768443584442139
5_20251106_152213,1762413699665,5,0.41976720094680786,0.3089587688446045,0.5541979074478149,0.6490027904510498,0.9710355997085571,2.0594942569732666,-0.23116396367549896,2.405351161956787,8.911624908447266,2.254956007003784,-0.3565922677516937,0.7198888063430786,0.4533303380012512,18.743026733398438,-16.604591369628906,3.8428421020507812,0.523554801940918,0.6042795181274414,0.46248936653137207,1.8817963600158691,8.307345390319824,1.792466640472412
5_20251106_152213,1762413699682,5,0.4124028980731964,0.30450230836868286,0.5536903738975525,0.6562234163284302,0.984106183052063,2.038503885269165,-0.2444084882736206,1.9839898347854614,9.451494216918945,2.14841890335083,-0.07559451460838318,0.23669478297233582,0.13262635469436646,18.4720458984375,-16.556427001953125,4.8068084716796875,0.08175480365753174,0.9153194427490234,0.284761905670166,1.9022350311279297,8.536174774169922,1.863656997680664
5_20251106_152213,1762413699701,5,0.4081718623638153,0.30282413959503174,0.552970826625824,0.6602397561073303,0.984106183052063,2.038503885269165,-0.2444084882736206,1.9839898347854614,9.451494216918945,2.14841890335083,0.005650500766932964,0.021059559658169746,-0.27543124556541443,18.14935302734375,-16.608261108398438,5.401762008666992,0.08175480365753174,0.9153194427490234,0.284761905670166,1.9022350311279297,8.536174774169922,1.863656997680664
5_20251106_152213,1762413699721,5,0.40784040093421936,0.3023671805858612,0.5532292127609253,0.6604375243186951,0.9999401569366455,2.0009403228759766,-0.27525609731674194,-0.32870951294898987,9.118715286254883,1.1057885885238647,-0.1721111387014389,0.03205512836575508,-0.5881940126419067,17.910451889038086,-16.679786682128906,6.01313591003418,-1.6053508520126343,0.3255186080932617,-0.5589655637741089,1.2766413688659668,8.793196678161621,1.6647541522979736
5_20251106_152213,1762413699740,5,0.41061994433403015,0.300057590007782,0.5539519190788269,0.6591615676879883,0.9999401569366455,2.0009403228759766,-0.27525609731674194,-0.32870951294898987,9.118715286254883,1.1057885885238647,-0.34009891748428345,0.05771144479513168,-0.7305254936218262,17.722185134887695,-16.73395538330078,6.464540481567383,-1.6053508520126343,0.3255186080932617,-0.5589655637741089,1.2766413688659668,8.793196678161621,1.6647541522979736
5_20251106_152213,1762413699760,5,0.41522178053855896,0.2952885627746582,0.5544202923774719,0.6580377221107483,0.9895907044410706,1.9696954488754272,-0.30993136763572693,-1.595187783241272,9.117518424987793,1.3499866724014282,-0.3798051178455353,-0.00459675770252943,-0.7262493968009949,17.58455467224121,-16.770774841308594,6.755975723266602,-1.9367990493774414,0.21120548248291016,-0.15318620204925537,0.3416112959384918,8.906312942504883,1.5031728744506836
5_20251106_152213,1762413699777,5,0.42063769698143005,0.28965243697166443,0.5544713139533997,0.6570593118667603,0.9759902358055115,1.9576730728149414,-0.3247271180152893,-2.121889352798462,9.295878410339355,1.598973035812378,-0.2912297546863556,-0.05041160807013512,-0.5649811029434204,17.625158309936523,-16.68170928955078,6.880941390991211,-1.970800518989563,0.31165218353271484,0.07664012908935547,-0.15108880400657654,8.98422622680664,1.5223329067230225
5_20251106_152213,1762413699798,5,0.42571842670440674,0.28482580184936523,0.5542237758636475,0.6561052203178406,0.9534885883331299,1.945176124572754,-0.3407164216041565,-2.3672845363616943,9.231237411499023,1.6444607973098755,-0.1256854236125946,-0.034529123455286026,-0.31635919213294983,17.641881942749023,-16.593551635742188,6.937343597412109,-1.7729566097259521,0.19760894775390625,0.09770238399505615,-0.5943279266357422,9.033628463745117,1.5467584133148193
5_20251106_152213,1762413699817,5,0.42917507886886597,0.28159430623054504,0.5541992783546448,0.6552683115005493,0.9292803406715393,1.9344940185546875,-0.3545758128166199,-2.3684816360473633,9.055272102355957,1.5044059753417969,0.011148281395435333,0.02961166761815548,0.0116751529276371,17.641881942749023,-16.593551635742188,6.937343597412109,-1.4193229675292969,0.017314910888671875,-0.03388190269470215,-0.9491586685180664,9.037957191467285,1.538287878036499
5_20251106_152213,1762413699836,5,0.43024131655693054,0.28020501136779785,0.5546220541000366,0.6548067927360535,0.9037579298019409,1.9248533248901367,-0.36680394411087036,-1.869312047958374,9.222858428955078,1.880279541015625,0.05451967939734459,0.1389564573764801,0.3775831460952759,17.784584045410156,-16.433860778808594,6.918872833251953,-0.736122727394104,0.1479206085205078,0.2735934257507324,-1.13318932056427,9.07493782043457,1.6066861152648926
5_20251106_152213,1762413699855,5,0.4283825755119324,0.2806130051612854,0.5549697279930115,0.6555557250976562,0.8796399235725403,1.9168920516967773,-0.37752553820610046,-1.0864417552947998,9.511347770690918,1.9329497814178467,0.09422588348388672,0.24891209602355957,0.6005487442016602,17.866146087646484,-16.290023803710938,6.830104827880859,0.03739809989929199,0.34912776947021484,0.26101088523864746,-1.1238398551940918,9.162220001220703,1.6719388961791992
5_20251106_152213,1762413699875,5,0.4238564670085907,0.2820116877555847,0.5551300048828125,0.6577581763267517,0.8796399235725403,1.9168920516967773,-0.37752553820610046,-1.0864417552947998,9.511347770690918,1.9329497814178467,0.12537996470928192,0.22814267873764038,0.6653003692626953,17.93402671813965,-16.160614013671875,6.848712921142578,0.03739809989929199,0.34912776947021484,0.26101088523864746,-1.1238398551940918,9.162220001220703,1.6719388961791992
5_20251106_152213,1762413699893,5,0.41803857684135437,0.28411102294921875,0.5552841424942017,0.6604424118995667,0.8414647579193115,1.906575083732605,-0.39575186371803284,0.13335156440734863,10.029669761657715,2.0442752838134766,0.10827577114105225,0.11085667461156845,0.6304811239242554,17.91519546508789,-16.06188201904297,6.863359451293945,0.8894493579864502,0.6170310974121094,0.2706634998321533,-0.7560977935791016,9.412638664245605,1.7736117839813232
5_20251106_152213,1762413699912,5,0.4123954772949219,0.28684303164482117,0.5550532341003418,0.6629984974861145,0.8288111686706543,1.9056429862976074,-0.402381032705307,0.32009124755859375,10.47856330871582,2.1448276042938232,0.13026688992977142,0.07176133245229721,0.47715407609939575,17.829299926757812,-16.068252563476562,6.9410247802734375,0.8609512448310852,0.8527402877807617,0.29697275161743164,-0.5408599972724915,9.625823020935059,1.8478548526763916
5_20251106_152213,1762413699932,5,0.4077737629413605,0.28979548811912537,0.5545708537101746,0.6649739146232605,0.8173995018005371,1.9078691005706787,-0.4099767506122589,0.23869189620018005,10.598268508911133,1.7737420797348022,0.15531234443187714,0.10230457037687302,0.22914299368858337,17.75357437133789,-16.111366271972656,7.004871368408203,0.6236414909362793,0.7779569625854492,-0.059290170669555664,-0.38494962453842163,9.820311546325684,1.833032250404358
5_20251106_152213,1762413699950,5,0.4042598605155945,0.29168006777763367,0.5548805594444275,0.6660362482070923,0.8173995018005371,1.9078691005706787,-0.4099767506122589,0.23869189620018005,10.598268508911133,1.7737420797348022,0.1369864046573639,0.14139990508556366,0.024503309279680252,17.487417221069336,-16.292770385742188,7.139820098876953,0.6236414909362793,0.7779569625854492,-0.059290170669555664,-0.38494962453842163,9.820311546325684,1.833032250404358
5_20251106_152213,1762413699969,5,0.40217694640159607,0.29212477803230286,0.5560353398323059,0.6661392450332642,0.8002517819404602,1.9132921695709229,-0.4245113432407379,-0.27603933215141296,9.986576080322266,1.5750319957733154,0.10399971902370453,0.16278016567230225,-0.04941131919622421,17.311187744140625,-16.392730712890625,7.225719451904297,0.04576161503791809,0.08629894256591797,-0.15573525428771973,-0.32180094718933105,9.900277137756348,1.7307672500610352
5_20251106_152213,1762413699988,5,0.400726854801178,0.29138949513435364,0.5576269626617432,0.6660047173500061,0.8002517819404602,1.9132921695709229,-0.4245113432407379,-0.27603933215141296,9.986576080322266,1.5750319957733154,0.12171478569507599,0.17927351593971252,-0.0805654227733612,17.020967483520508,-16.563705444335938,7.4140167236328125,0.04576161503791809,0.08629894256591797,-0.15573525428771973,-0.32180094718933105,9.900277137756348,1.7307672500610352
5_20251106_152213,1762413700008,5,0.39970535039901733,0.29031917452812195,0.5592703223228455,0.6657079458236694,0.7913020849227905,1.9160314798355103,-0.4327912926673889,-0.47115835547447205,9.860886573791504,1.4852532148361206,0.13759727776050568,0.16705623269081116,-0.04269180819392204,16.86590576171875,-16.70123291015625,7.648784637451172,-0.11948591470718384,-0.03151226043701172,-0.19641125202178955,-0.3516724407672882,9.892398834228516,1.6816644668579102
5_20251106_152213,1762413700027,5,0.39842626452445984,0.2891329824924469,0.5612329244613647,0.6653391718864441,0.7730358839035034,1.9189141988754272,-0.4485566020011902,-0.7021889686584473,9.568806648254395,1.7055103778839111,0.11255182325839996,0.10108283907175064,0.050159625709056854,16.765018463134766,-16.74700927734375,7.819780349731445,-0.22969338297843933,-0.22318744659423828,0.05739760398864746,-0.47249558568000793,9.791994094848633,1.6481127738952637
5_20251106_152213,1762413700045,5,0.3969714045524597,0.2885375916957855,0.5627720355987549,0.6651672124862671,0.764416515827179,1.9197496175765991,-0.45454704761505127,-0.5776957273483276,9.761530876159668,1.9820287227630615,0.1162170022726059,0.027168206870555878,0.1301828920841217,16.639957427978516,-16.794105529785156,7.962762832641602,-0.08416011929512024,-0.024370193481445312,0.2671327590942383,-0.4935356080532074,9.785901069641113,1.7148959636688232
5_20251106_152213,1762413700065,5,0.3954187333583832,0.28883054852485657,0.5636299848556519,0.6652384400367737,0.764416515827179,1.9197496175765991,-0.45454704761505127,-0.5776957273483276,9.761530876159668,1.9820287227630615,0.17363829910755157,0.0027336198836565018,0.13201549649238586,16.578445434570312,-16.787269592285156,8.136285781860352,-0.08416011929512024,-0.024370193481445312,0.2671327590942383,-0.4935356080532074,9.785901069641113,1.7148959636688232
5_20251106_152213,1762413700084,5,0.3937249481678009,0.2897711396217346,0.5643324851989746,0.6652384400367737,0.745743989944458,1.920279622077942,-0.4658633768558502,-0.7428886294364929,9.537683486938477,1.603761076927185,0.17608174681663513,0.0516027957201004,0.09780707210302353,16.528812408447266,-16.791656494140625,8.255970001220703,-0.1787387728691101,-0.18222618103027344,-0.11556088924407959,-0.5641498565673828,9.71990966796875,1.7193219661712646
5_20251106_152213,1762413700104,5,0.39192667603492737,0.29056602716445923,0.5655096173286438,0.6649539470672607,0.7360279560089111,1.9190716743469238,-0.4717223346233368,-0.7500709295272827,9.34615421295166,1.6205198764801025,0.08567377924919128,0.09375246614217758,0.10697004944086075,16.47061538696289,-16.733917236328125,8.362968444824219,-0.148736834526062,-0.29900455474853516,-0.07904171943664551,-0.6013340950012207,9.645158767700195,1.699561595916748
5_20251106_152213,1762413700122,5,0.39024290442466736,0.29084280133247375,0.5665246844291687,0.664959192276001,0.7273691892623901,1.9173616170883179,-0.4766935110092163,-0.7440856695175171,9.370096206665039,1.7150866985321045,0.08567377924919128,0.09375246614217758,0.10697004944086075,16.43026351928711,-16.776260375976562,8.59048080444336,-0.11420130729675293,-0.22004985809326172,0.012420058250427246,-0.6298843622207642,9.5901460647583,1.7026666402816772
5_20251106_152213,1762413700141,5,0.38826775550842285,0.2905673086643219,0.567205548286438,0.6656550168991089,0.7193809747695923,1.9158201217651367,-0.4808107614517212,-0.5334049463272095,9.623869895935059,1.9485113620758057,-0.01756235957145691,0.18721476197242737,0.19493457674980164,16.40611457824707,-16.754356384277344,8.75222396850586,0.0771835446357727,0.026979446411132812,0.19667577743530273,-0.6105884909629822,9.596890449523926,1.751835584640503
5_20251106_152213,1762413700160,5,0.3862917125225067,0.29039454460144043,0.5674251317977905,0.6666921973228455,0.7122425436973572,1.915363073348999,-0.483630895614624,-0.18506357073783875,9.98178768157959,2.2537591457366943,-0.018784090876579285,0.18354958295822144,0.23586249351501465,16.279939651489258,-16.82616424560547,8.854129791259766,0.3404199182987213,0.30791759490966797,0.4015388488769531,-0.5254834890365601,9.673870086669922,1.8522202968597412
5_20251106_152213,1762413700179,5,0.3835424780845642,0.2898363173007965,0.5675606727600098,0.668404757976532,0.7073351144790649,1.9163635969161987,-0.4847164452075958,0.033996470272541046,10.18887710571289,2.38423752784729,0.07040216028690338,0.11452186852693558,0.27617961168289185,16.151142120361328,-16.94792938232422,8.927947998046875,0.44758397340774536,0.4120054244995117,0.4256138801574707,-0.4135875105857849,9.776871681213379,1.9586236476898193
5_20251106_152213,1762413700198,5,0.38056710362434387,0.28988930583000183,0.5676711201667786,0.6699868440628052,0.7041801810264587,1.9189305305480957,-0.4851645827293396,0.13574564456939697,10.36604118347168,2.1711626052856445,0.1882990449666977,0.05282453075051308,0.3000032901763916,16.038562774658203,-16.99382781982422,9.030872344970703,0.4394665062427521,0.47133541107177734,0.17003107070922852,-0.3037208616733551,9.894705772399902,2.001131534576416
5_20251106_152213,1762413700217,5,0.37742334604263306,0.29108867049217224,0.5681030750274658,0.6708784103393555,0.702385425567627,1.9229577779769897,-0.48611894249916077,0.1345486044883728,10.473775863647461,1.808456540107727,0.23105958104133606,0.024113884195685387,0.28167736530303955,15.87692928314209,-17.05492401123047,9.077505111694336,0.35061556100845337,0.4632558822631836,-0.15414011478424072,-0.21606697142124176,10.010519981384277,1.9625966548919678
5_20251106_152213,1762413700237,5,0.37429937720298767,0.2929747700691223,0.5688726305961609,0.6711555123329163,0.7015765309333801,1.9285279512405396,-0.4883679449558258,0.10821352154016495,10.51806640625,1.5367263555526733,0.23105958104133606,0.024113884195685387,0.28167736530303955,15.716619491577148,-17.079421997070312,9.233060836791992,0.2594243884086609,0.4060373306274414,-0.34069621562957764,-0.15121087431907654,10.112029075622559,1.877422571182251
5_20251106_152213,1762413700256,5,0.37144148349761963,0.2947363257408142,0.569781482219696,0.6712010502815247,0.7014531493186951,1.9344983100891113,-0.4921666085720062,0.06990793347358704,10.455819129943848,1.2326757907867432,0.18524472415447235,0.0363311804831028,0.13690242171287537,15.716619491577148,-17.079421997070312,9.233060836791992,0.17689505219459534,0.27503204345703125,-0.51579749584198,-0.1069871112704277,10.180787086486816,1.7484732866287231
5_20251106_152213,1762413700276,5,0.369110107421875,0.2959306538105011,0.57080078125,0.6710955500602722,0.701681911945343,1.9412356615066528,-0.498188316822052,0.00885842740535736,10.433074951171875,1.0172069072723389,0.18524472415447235,0.0363311804831028,0.13690242171287537,15.605252265930176,-17.10047149658203,9.363546371459961,0.09267643094062805,0.20183086395263672,-0.5850131511688232,-0.08381800353527069,10.231244087219238,1.602220058441162
5_20251106_152213,1762413700295,5,0.3674074411392212,0.29673442244529724,0.571959376335144,0.6706883907318115,0.701948881149292,1.948063611984253,-0.5055530667304993,-0.06176750361919403,10.503702163696289,0.8986990451812744,0.16997309029102325,-0.008872809819877148,0.0635986477136612,15.46800422668457,-17.148361206054688,9.506038665771484,0.017640404403209686,0.21796607971191406,-0.562816858291626,-0.07940790802240372,10.285736083984375,1.4615159034729004
5_20251106_152213,1762413700314,5,0.3664468228816986,0.297481507062912,0.5729436874389648,0.6700425148010254,0.70234614610672,1.9556965827941895,-0.5133843421936035,-0.02705305814743042,10.703609466552734,1.157261610031128,0.12415824830532074,-0.06507236510515213,0.0220598503947258,15.354818344116211,-17.206680297851562,9.595182418823242,0.04188387840986252,0.33429908752441406,-0.24340343475341797,-0.06893693655729294,10.36931037902832,1.400665044784546
5_20251106_152213,1762413700332,5,0.3661244213581085,0.29812368750572205,0.573527991771698,0.6694331765174866,0.7026034593582153,1.9629385471343994,-0.5203391313552856,-0.10964946448802948,10.52046012878418,1.438568353652954,0.027030766010284424,-0.11516326665878296,-0.1068326011300087,15.272150993347168,-17.150665283203125,9.714715957641602,-0.032570019364356995,0.12092018127441406,0.030322670936584473,-0.07707944512367249,10.399539947509766,1.4082456827163696
5_20251106_152213,1762413700351,5,0.36651551723480225,0.2983625531196594,0.5738298296928406,0.6688538789749146,0.7026034593582153,1.9629385471343994,-0.5203391313552856,-0.10964946448802948,10.52046012878418,1.438568353652954,0.07895426452159882,-0.12615883350372314,-0.18502327799797058,15.16501235961914,-17.09637451171875,9.846784591674805,-0.032570019364356995,0.12092018127441406,0.030322670936584473,-0.07707944512367249,10.399539947509766,1.4082456827163696
5_20251106_152213,1762413700370,5,0.3675123155117035,0.29814550280570984,0.5743733048439026,0.6679365634918213,0.6999592185020447,1.9733272790908813,-0.5332218408584595,-0.7081741094589233,9.589155197143555,1.5020118951797485,0.1516471654176712,-0.14020872116088867,-0.18746674060821533,15.172994613647461,-17.14769744873047,10.035446166992188,-0.45350632071495056,-0.5891284942626953,0.05905270576477051,-0.2546677887439728,10.17828369140625,1.442959189414978
5_20251106_152213,1762413700390,5,0.3686314821243286,0.29789498448371887,0.5754858255386353,0.6664724349975586,0.696057915687561,1.9747978448867798,-0.5393120050430298,-0.8566083312034607,9.337776184082031,1.4649033546447754,0.19379682838916779,-0.1591455340385437,-0.10805433988571167,15.212991714477539,-17.07105255126953,10.146631240844727,-0.4815524220466614,-0.6724052429199219,0.0175553560256958,-0.3750559091567993,10.010181427001953,1.4473479986190796
5_20251106_152213,1762413700409,5,0.36933374404907227,0.2980157434940338,0.5768349170684814,0.6648613810539246,0.6916329264640808,1.9740897417068481,-0.5440245270729065,-0.7045830488204956,9.268346786499023,1.7330424785614014,0.2237291932106018,-0.18174752593040466,-0.0023747365921735764,15.286924362182617,-17.04198455810547,10.231199264526367,-0.2636216878890991,-0.5934677124023438,0.2285555601119995,-0.4409613609313965,9.861814498901367,1.5044869184494019
5_20251106_152213,1762413700429,5,0.3696257174015045,0.29903388023376465,0.5779508948326111,0.6632709503173828,0.6864756345748901,1.9709879159927368,-0.5482314825057983,-0.681839108467102,9.074424743652344,1.6707959175109863,0.2237291932106018,-0.18174752593040466,-0.0023747365921735764,15.376766204833984,-16.949066162109375,10.290544509887695,-0.19270217418670654,-0.6299114227294922,0.1330472230911255,-0.4891369342803955,9.704336166381836,1.5377486944198608
5_20251106_152213,1762413700447,5,0.3691869080066681,0.3007660210132599,0.5791003704071045,0.661727786064148,0.6822848916053772,1.9672706127166748,-0.5518438220024109,-0.501084566116333,9.152233123779297,1.4397653341293335,0.36422809958457947,-0.13471093773841858,0.09536362439393997,15.428638458251953,-16.883644104003906,10.347890853881836,-0.00955808162689209,-0.4416828155517578,-0.07838666439056396,-0.4915264844894409,9.593915939331055,1.5181519985198975
5_20251106_152213,1762413700467,5,0.3679853081703186,0.3029007613658905,0.5807607173919678,0.6599658727645874,0.6778524518013,1.9616845846176147,-0.556999683380127,-0.34666523337364197,9.228843688964844,1.2446463108062744,0.36422809958457947,-0.13471093773841858,0.09536362439393997,15.48120403289795,-16.817276000976562,10.310623168945312,0.11588901281356812,-0.29205799102783203,-0.21880459785461426,-0.4625542461872101,9.520901679992676,1.4634509086608887
5_20251106_152213,1762413700486,5,0.36665329337120056,0.30474594235420227,0.582467794418335,0.6583513617515564,0.6747879385948181,1.9565612077713013,-0.5618871450424194,-0.24132490158081055,9.28749942779541,1.1835968494415283,0.2029597908258438,-0.11760672181844711,-0.0011530080810189247,15.522189140319824,-16.739280700683594,10.286645889282227,0.17698347568511963,-0.1867218017578125,-0.2238832712173462,-0.4183083772659302,9.474221229553223,1.4074801206588745
5_20251106_152213,1762413700504,5,0.3660135567188263,0.3061298727989197,0.5837138295173645,0.6569602489471436,0.6721742153167725,1.951449990272522,-0.5673465728759766,-0.2509012818336487,9.483816146850586,1.203946590423584,0.2029597908258438,-0.11760672181844711,-0.0011530080810189247,15.636896133422852,-16.64409637451172,10.27939224243164,0.1339256763458252,0.007676124572753906,-0.1628267765045166,-0.3848269581794739,9.476140022277832,1.3667733669281006
5_20251106_152213,1762413700524,5,0.3660561740398407,0.30687904357910156,0.5845307111740112,0.6558597087860107,0.6693926453590393,1.9467477798461914,-0.5727406144142151,-0.4400350749492645,9.610702514648438,1.3882921934127808,0.023976441472768784,-0.14509564638137817,-0.12149336189031601,15.70638370513916,-16.489303588867188,10.271495819091797,-0.044166505336761475,0.1076498031616211,0.01721501350402832,-0.39586856961250305,9.503052711486816,1.3710771799087524
5_20251106_152213,1762413700543,5,0.3669274151325226,0.3071174919605255,0.5848378539085388,0.6549869179725647,0.6693926453590393,1.9467477798461914,-0.5727406144142151,-0.4400350749492645,9.610702514648438,1.3882921934127808,-0.0022907424718141556,-0.11882845312356949,-0.13676497340202332,15.695014953613281,-16.465789794921875,10.352630615234375,-0.044166505336761475,0.1076498031616211,0.01721501350402832,-0.39586856961250305,9.503052711486816,1.3710771799087524
5_20251106_152213,1762413700562,5,0.36805349588394165,0.30679965019226074,0.585004985332489,0.654354453086853,0.6621007919311523,1.9395406246185303,-0.5820465683937073,-0.7632384300231934,9.712451934814453,1.3559719324111938,-0.016340631991624832,-0.03269653394818306,-0.11233038455247879,15.674476623535156,-16.392578125,10.407299041748047,-0.24794912338256836,0.14914608001708984,-0.019243717193603516,-0.515289306640625,9.563305854797363,1.3752156496047974
5_20251106_152213,1762413700581,5,0.3688211143016815,0.306006520986557,0.5853018760681152,0.654028058052063,0.6580266356468201,1.9372456073760986,-0.5863996744155884,-0.7177505493164062,9.816595077514648,1.2721784114837646,-0.01756235957145691,0.03877463936805725,-0.09339358657598495,15.73601245880127,-16.376182556152344,10.423530578613281,-0.16196900606155396,0.20263099670410156,-0.08242976665496826,-0.5557815432548523,9.613964080810547,1.354608178138733
5_20251106_152213,1762413700600,5,0.3694874942302704,0.30518239736557007,0.5855230093002319,0.6538390517234802,0.6580266356468201,1.9372456073760986,-0.5863996744155884,-0.7177505493164062,9.816595077514648,1.2721784114837646,0.011759147047996521,0.07420479506254196,-0.07690023630857468,15.765615463256836,-16.286293029785156,10.385810852050781,-0.16196900606155396,0.20263099670410156,-0.08242976665496826,-0.5557815432548523,9.613964080810547,1.354608178138733
5_20251106_152213,1762413700618,5,0.36921265721321106,0.3037564158439636,0.586220383644104,0.6540334224700928,0.6531688570976257,1.9354212284088135,-0.5917614102363586,-0.6578980684280396,9.82856559753418,1.1943702697753906,0.059406597167253494,0.09497419744729996,-0.0652938038110733,15.843875885009766,-16.181747436523438,10.458446502685547,-0.08169323205947876,0.17168140411376953,-0.12819039821624756,-0.5762048363685608,9.65688419342041,1.3225606679916382
5_20251106_152213,1762413700638,5,0.3687264919281006,0.302535742521286,0.5871760845184326,0.6540161371231079,0.6436215043067932,1.9323842525482178,-0.6027283072471619,-0.8410466313362122,9.584367752075195,0.9573545455932617,0.0746782124042511,0.12307397276163101,-0.024976730346679688,15.944295883178711,-16.113418579101562,10.544788360595703,-0.17926669120788574,-0.06211566925048828,-0.24771344661712646,-0.6617799401283264,9.646483421325684,1.2050679922103882
5_20251106_152213,1762413700658,5,0.36782923340797424,0.3013930022716522,0.5883930921554565,0.6539552807807922,0.6378653049468994,1.9309346675872803,-0.6097049713134766,-0.8841403722763062,9.704072952270508,0.8532112240791321,0.1003345400094986,0.12124138325452805,0.04344011843204498,15.932531356811523,-16.09044647216797,10.679988861083984,-0.1778883934020996,0.04607200622558594,-0.281485378742218,-0.7062519788742065,9.658000946044922,1.13469660282135
5_20251106_152213,1762413700677,5,0.3665063679218292,0.30054834485054016,0.5895735025405884,0.6540235877037048,0.6321625709533691,1.9304194450378418,-0.6171809434890747,-0.8913227319717407,9.947072982788086,0.7047771215438843,0.1516471654176712,0.09925024956464767,0.11857647448778152,15.862333297729492,-16.04485321044922,10.66458511352539,-0.14805662631988525,0.23125743865966797,-0.34393560886383057,-0.7432661056518555,9.715815544128418,1.0487127304077148
5_20251106_152213,1762413700695,5,0.36470624804496765,0.3003399968147278,0.5907816290855408,0.6540353894233704,0.6321625709533691,1.9304194450378418,-0.6171809434890747,-0.8913227319717407,9.947072982788086,0.7047771215438843,0.19685114920139313,0.09375246614217758,0.22364521026611328,15.862333297729492,-16.04485321044922,10.66458511352539,-0.14805662631988525,0.23125743865966797,-0.34393560886383057,-0.7432661056518555,9.715815544128418,1.0487127304077148
5_20251106_152213,1762413700715,5,0.3621610105037689,0.3007831573486328,0.5920655727386475,0.6540850400924683,0.6209075450897217,1.9323853254318237,-0.6345574855804443,-0.7009918689727783,10.163740158081055,0.6604862213134766,0.26771149039268494,0.060765769332647324,0.3452073037624359,15.89154052734375,-15.955497741699219,10.680929183959961,0.05808299779891968,0.3018016815185547,-0.23122745752334595,-0.759074866771698,9.8619384765625,0.8917136788368225
5_20251106_152213,1762413700734,5,0.3589315116405487,0.30225899815559387,0.5932477116584778,0.65411376953125,0.6166183948516846,1.9344402551651,-0.6439133882522583,-0.4615819752216339,10.096704483032227,0.5491606593132019,0.38499751687049866,0.005787943489849567,0.4343935549259186,15.88167953491211,-15.90673828125,10.749076843261719,0.23799434304237366,0.18781280517578125,-0.27404242753982544,-0.6995763182640076,9.908891677856445,0.8232030868530273
5_20251106_152213,1762413700752,5,0.35493922233581543,0.3049471378326416,0.5945721864700317,0.6538419723510742,0.6137627363204956,1.9361891746520996,-0.6531411409378052,-0.29160094261169434,9.86806869506836,0.49529343843460083,0.4650208055973053,-0.07118100672960281,0.4808192849159241,15.818350791931152,-15.937171936035156,10.88125991821289,0.32638031244277954,-0.03265857696533203,-0.26232773065567017,-0.6179812550544739,9.900727272033691,0.757621169090271
5_20251106_152213,1762413700771,5,0.3505925238132477,0.30885595083236694,0.5961180925369263,0.6529441475868225,0.6137627363204956,1.9361891746520996,-0.6531411409378052,-0.29160094261169434,9.86806869506836,0.49529343843460083,0.4430296719074249,-0.05835285037755966,0.4631041884422302,15.694190979003906,-15.971443176269531,10.997474670410156,0.32638031244277954,-0.03265857696533203,-0.26232773065567017,-0.6179812550544739,9.900727272033691,0.757621169090271
5_20251106_152213,1762413700792,5,0.3462565243244171,0.3132632076740265,0.5976029634475708,0.6518000364303589,0.612662136554718,1.9387511014938354,-0.6737821698188782,0.06990792602300644,9.684919357299805,0.4055147171020508,0.3532325327396393,0.04793760925531387,0.35986804962158203,15.49763298034668,-15.986305236816406,11.205888748168945,0.4659138023853302,-0.16052532196044922,-0.24679923057556152,-0.39600586891174316,9.845444679260254,0.6523139476776123
5_20251106_152213,1762413700810,5,0.3420599102973938,0.3166542649269104,0.599094033241272,0.6510079503059387,0.612662136554718,1.9387511014938354,-0.6737821698188782,0.06990792602300644,9.684919357299805,0.4055147171020508,0.2090684473514557,0.17744092643260956,0.21631482243537903,15.260683059692383,-16.078353881835938,11.357181549072266,0.4659138023853302,-0.16052532196044922,-0.24679923057556152,-0.39600586891174316,9.845444679260254,0.6523139476776123
5_20251106_152213,1762413700829,5,0.33820462226867676,0.31807810068130493,0.600678563117981,0.6508680582046509,0.618602991104126,1.9379537105560303,-0.6952923536300659,0.45775192975997925,9.474239349365234,0.31094783544540405,0.2090684473514557,0.17744092643260956,0.21631482243537903,15.061700820922852,-16.142906188964844,11.510475158691406,0.5814546346664429,-0.24733829498291016,-0.22134721279144287,-0.12370269000530243,9.721577644348145,0.5322950482368469
