session_id,timestamp,label,quaternion_w,quaternion_x,quaternion_y,quaternion_z,position_x,position_y,position_z,accelerometer_x,accelerometer_y,accelerometer_z,gyroscope_x,gyroscope_y,gyroscope_z,magnetometer_x,magnetometer_y,magnetometer_z,linear_acceleration_x,linear_acceleration_y,linear_acceleration_z,gravity_x,gravity_y,gravity_z
2_20251106_213712,1762436194887,2,0.2579139471054077,0.5788845419883728,0.5623807907104492,0.5311317443847656,0.8974456191062927,2.7646610736846924,1.4876600503921509,2.6184258460998535,8.424427032470703,-3.338855743408203,-0.09605465829372406,0.4291400909423828,-0.6644527912139893,13.83995532989502,-19.33233642578125,25.425771713256836,-0.9434068202972412,0.5890254974365234,-0.6685535907745361,3.5618326663970947,7.83540153503418,-2.670302152633667
2_20251106_213712,1762436194907,2,0.2576318085193634,0.5710195302963257,0.568570077419281,0.5331891179084778,0.90595942735672,2.768648147583008,1.428197979927063,2.2293848991394043,8.417243957519531,-3.48250150680542,-0.1559194028377533,0.4761766791343689,-0.5129584074020386,13.759626388549805,-19.21515655517578,25.708818435668945,-1.065958023071289,0.46547365188598633,-0.6497595310211182,3.2953429222106934,7.951770305633545,-2.8327419757843018
2_20251106_213712,1762436194925,2,0.2567252516746521,0.5635549426078796,0.5736876130104065,0.5360788106918335,0.90595942735672,2.768648147583008,1.428197979927063,2.2293848991394043,8.417243957519531,-3.48250150680542,-0.18401919305324554,0.37966006994247437,-0.18553489446640015,13.70406436920166,-19.095848083496094,25.938783645629883,-1.065958023071289,0.46547365188598633,-0.6497595310211182,3.2953429222106934,7.951770305633545,-2.8327419757843018
2_20251106_213712,1762436194944,2,0.2548191547393799,0.5582369565963745,0.5766871571540833,0.5393242835998535,0.9151324033737183,2.780297040939331,1.3237098455429077,2.9057178497314453,8.775161743164062,-2.8193359375,-0.13148480653762817,0.1768529713153839,0.15593849122524261,13.685258865356445,-18.97388458251953,26.143186569213867,-0.16029977798461914,0.5643177032470703,0.09744882583618164,3.0660176277160645,8.210844039916992,-2.9167847633361816
2_20251106_213712,1762436194963,2,0.25195467472076416,0.5559332966804504,0.5776178240776062,0.5420467853546143,0.9205365777015686,2.788919448852539,1.2762935161590576,3.542548179626465,9.002601623535156,-2.1669442653656006,-0.015420514158904552,0.008254310116171837,0.36607596278190613,13.668962478637695,-18.81371307373047,26.2943172454834,0.3812246322631836,0.6334056854248047,0.599872350692749,3.1613235473632812,8.369195938110352,-2.7668166160583496
2_20251106_213712,1762436194983,2,0.24827907979488373,0.5559086799621582,0.5775189399719238,0.5438703298568726,0.9205365777015686,2.788919448852539,1.2762935161590576,3.542548179626465,9.002601623535156,-2.1669442653656006,0.07376573979854584,-0.011293360963463783,0.39661920070648193,13.615996360778809,-18.66767120361328,26.362611770629883,0.3812246322631836,0.6334056854248047,0.599872350692749,3.1613235473632812,8.369195938110352,-2.7668166160583496
2_20251106_213712,1762436195002,2,0.24398165941238403,0.5562633275985718,0.5776157975196838,0.5453475713729858,0.9371508955955505,2.813152313232422,1.1956102848052979,4.143466949462891,9.485013008117676,-1.6941099166870117,0.09453514218330383,0.10232748836278915,0.2866635322570801,13.553162574768066,-18.697425842285156,26.427213668823242,0.658066987991333,0.7273387908935547,0.7093241214752197,3.4853999614715576,8.757674217224121,-2.4034340381622314
2_20251106_213712,1762436195020,2,0.2395540475845337,0.5554812550544739,0.5785544514656067,0.547109842300415,0.9371508955955505,2.813152313232422,1.1956102848052979,4.143466949462891,9.485013008117676,-1.6941099166870117,0.10369810461997986,0.2580980062484741,0.1406668722629547,13.464460372924805,-18.742408752441406,26.59869956970215,0.658066987991333,0.7273387908935547,0.7093241214752197,3.4853999614715576,8.757674217224121,-2.4034340381622314
2_20251106_213712,1762436195041,2,0.23499855399131775,0.5531212687492371,0.5805972814559937,0.5493080615997314,0.9489490985870361,2.8286185264587402,1.1575357913970947,4.127905368804932,9.299469947814941,-1.878455638885498,0.11347194015979767,0.3228496313095093,0.06003273278474808,13.281682968139648,-18.742706298828125,26.686220169067383,0.5140042304992676,0.43343639373779297,0.4199826717376709,3.613901138305664,8.866033554077148,-2.298438310623169
2_20251106_213712,1762436195060,2,0.2303588092327118,0.549943208694458,0.5833287239074707,0.5515658855438232,0.9709372520446777,2.85593318939209,1.0933351516723633,3.8154754638671875,8.94155216217041,-2.587108612060547,0.14706949889659882,0.2959715723991394,0.08202386647462845,13.11250114440918,-18.71710205078125,26.77475929260254,0.10870552062988281,0.024007797241210938,-0.24373960494995117,3.7067699432373047,8.9175443649292,-2.3433690071105957
2_20251106_213712,1762436195080,2,0.22568006813526154,0.547240138053894,0.5859781503677368,0.5533772706985474,0.9709372520446777,2.85593318939209,1.0933351516723633,3.8154754638671875,8.94155216217041,-2.587108612060547,0.14706949889659882,0.2959715723991394,0.08202386647462845,12.868385314941406,-18.73352813720703,26.81901741027832,0.10870552062988281,0.024007797241210938,-0.24373960494995117,3.7067699432373047,8.9175443649292,-2.3433690071105957
2_20251106_213712,1762436195099,2,0.2207636535167694,0.5457873940467834,0.588169515132904,0.5544692277908325,0.9923287630081177,2.8795359134674072,1.0295277833938599,3.9064512252807617,8.715309143066406,-3.0778989791870117,0.23197969794273376,0.05040397495031357,0.3007134199142456,12.637271881103516,-18.724853515625,26.945390701293945,0.13852167129516602,-0.14092254638671875,-0.489060640335083,3.7679295539855957,8.856231689453125,-2.5888383388519287
2_20251106_213712,1762436195117,2,0.21589399874210358,0.5459162592887878,0.5895941853523254,0.5547467470169067,1.0027825832366943,2.88961124420166,0.9996110796928406,4.126708030700684,8.84578800201416,-3.0970516204833984,0.22403846681118011,-0.03145189583301544,0.383180171251297,12.637271881103516,-18.724853515625,26.945390701293945,0.28702259063720703,-0.008355140686035156,-0.4065706729888916,3.8396854400634766,8.854143142700195,-2.690480947494507
2_20251106_213712,1762436195135,2,0.2110593616962433,0.5469062924385071,0.5904033780097961,0.5547714233398438,1.0151103734970093,2.9007720947265625,0.9682232141494751,4.512158393859863,9.239617347717285,-3.196406602859497,0.20021472871303558,-0.05710821598768234,0.3972300589084625,12.403437614440918,-18.766273498535156,27.057191848754883,0.5379781723022461,0.3083791732788086,-0.404740571975708,3.974180221557617,8.931238174438477,-2.791666030883789
2_20251106_213712,1762436195155,2,0.20644128322601318,0.548088550567627,0.5909134149551392,0.5547993183135986,1.0151103734970093,2.9007720947265625,0.9682232141494751,4.512158393859863,9.239617347717285,-3.196406602859497,0.19777126610279083,-0.07665588706731796,0.2952156364917755,12.132847785949707,-18.810340881347656,27.194551467895508,0.5379781723022461,0.3083791732788086,-0.404740571975708,3.974180221557617,8.931238174438477,-2.791666030883789
2_20251106_213712,1762436195173,2,0.20251081883907318,0.5488389134407043,0.5918382406234741,0.5545201897621155,1.0467946529388428,2.9284214973449707,0.9090917110443115,5.340516090393066,10.109871864318848,-2.742724895477295,0.23381228744983673,-0.04611264914274216,0.07835866510868073,11.912932395935059,-18.802223205566406,27.456575393676758,0.9257841110229492,0.8167638778686523,0.062349796295166016,4.414731979370117,9.293107986450195,-2.805074691772461
2_20251106_213712,1762436195193,2,0.19924868643283844,0.5481259226799011,0.594177782535553,0.5539050102233887,1.0467946529388428,2.9284214973449707,0.9090917110443115,5.340516090393066,10.109871864318848,-2.742724895477295,0.26191210746765137,0.06506473571062088,-0.20630428194999695,11.768518447875977,-18.77448272705078,27.492029190063477,0.9257841110229492,0.8167638778686523,0.062349796295166016,4.414731979370117,9.293107986450195,-2.805074691772461
2_20251106_213712,1762436195212,2,0.19843435287475586,0.5470852851867676,0.5966002941131592,0.5526206493377686,1.0673069953918457,2.9475207328796387,0.8790697455406189,5.22320556640625,10.351675987243652,-2.807365894317627,0.26191210746765137,0.06506473571062088,-0.20630428194999695,11.601266860961914,-18.699859619140625,27.703271865844727,0.6467790603637695,0.8468542098999023,-0.0018329620361328125,4.5764265060424805,9.50482177734375,-2.805532932281494
2_20251106_213712,1762436195231,2,0.1965685337781906,0.5417850613594055,0.6020442247390747,0.5526052117347717,1.086638331413269,2.9671170711517334,0.8511590957641602,4.830573081970215,10.266685485839844,-3.0515637397766113,0.10369810461997986,0.41692280769348145,-0.5770992040634155,11.456865310668945,-18.66051483154297,27.83360481262207,0.20331716537475586,0.6094913482666016,-0.1968245506286621,4.627255916595459,9.657194137573242,-2.854739189147949
2_20251106_213712,1762436195250,2,0.19488117098808289,0.5345780849456787,0.6078758835792542,0.5538361668586731,1.1168824434280396,3.0022265911102295,0.8021965622901917,4.1446638107299805,9.974605560302734,-3.105431079864502,0.10369810461997986,0.41692280769348145,-0.5770992040634155,11.451371192932129,-18.501434326171875,28.17445182800293,-0.3525271415710449,0.1954822540283203,-0.13803410530090332,4.497190952301025,9.779123306274414,-2.9673969745635986
2_20251106_213712,1762436195270,2,0.1934340000152588,0.5272701978683472,0.6128396987915039,0.5558748841285706,1.130702257156372,3.021101474761963,0.7775440812110901,4.126708030700684,9.950664520263672,-2.7307543754577637,0.01756618171930313,0.3271256983280182,-0.3883419632911682,11.420774459838867,-18.379730224609375,28.324296951293945,-0.2963862419128418,0.13723278045654297,0.1893141269683838,4.423094272613525,9.813431739807129,-2.9200685024261475
2_20251106_213712,1762436195290,2,0.191664919257164,0.5212903618812561,0.6171126365661621,0.5573983192443848,1.1428790092468262,3.0394680500030518,0.7549617290496826,4.109949588775635,9.956649780273438,-2.6445670127868652,0.21304289996623993,0.079725481569767,-0.20630428194999695,11.415972709655762,-18.219711303710938,28.570531845092773,-0.2505159378051758,0.11457443237304688,0.22040128707885742,4.3604655265808105,9.84207534790039,-2.8649682998657227
2_20251106_213712,1762436195309,2,0.189558744430542,0.5181419253349304,0.6208683252334595,0.5568832755088806,1.1428790092468262,3.0394680500030518,0.7549617290496826,4.109949588775635,9.956649780273438,-2.6445670127868652,0.46533000469207764,-0.19943970441818237,-0.012049304321408272,11.425471305847168,-18.021224975585938,28.81804847717285,-0.2505159378051758,0.11457443237304688,0.22040128707885742,4.3604655265808105,9.84207534790039,-2.8649682998657227
2_20251106_213712,1762436195327,2,0.18677853047847748,0.5179626941680908,0.6245347261428833,0.5538815855979919,1.1620566844940186,3.0701096057891846,0.7154773473739624,4.217683792114258,9.644220352172852,-3.2646384239196777,0.6265982389450073,-0.4388986825942993,0.19197949767112732,11.503825187683105,-17.703598022460938,28.8541316986084,-0.06935453414916992,-0.14367294311523438,-0.3251218795776367,4.287038326263428,9.787893295288086,-2.939516544342041
2_20251106_213712,1762436195346,2,0.18360617756843567,0.5205835700035095,0.6275718212127686,0.5490310788154602,1.1620566844940186,3.0701096057891846,0.7154773473739624,4.217683792114258,9.644220352172852,-3.2646384239196777,0.6815760731697083,-0.6160494685173035,0.35080432891845703,11.534377098083496,-17.341476440429688,29.146120071411133,-0.06935453414916992,-0.14367294311523438,-0.3251218795776367,4.287038326263428,9.787893295288086,-2.939516544342041
2_20251106_213712,1762436195366,2,0.1812485307455063,0.5261863470077515,0.6289485096931458,0.5428633689880371,1.182473063468933,3.095299005508423,0.6748320460319519,5.143002986907959,9.404809951782227,-3.5650978088378906,0.6895173192024231,-0.6924075484275818,0.4204429090023041,11.585453987121582,-17.064186096191406,29.28856086730957,0.6363034248352051,-0.26739025115966797,-0.41895008087158203,4.506699562072754,9.672200202941895,-3.1461477279663086
2_20251106_213712,1762436195384,2,0.17882999777793884,0.5325285792350769,0.6298689842224121,0.536375105381012,1.1972910165786743,3.1066489219665527,0.6523971557617188,5.681675910949707,9.421568870544434,-3.6285414695739746,0.6449242234230042,-0.7296702861785889,0.3770714998245239,11.674808502197266,-16.74738311767578,29.487329483032227,0.9399809837341309,-0.20050525665283203,-0.38591504096984863,4.741694927215576,9.622074127197266,-3.242626428604126
2_20251106_213712,1762436195403,2,0.17625576257705688,0.5378381013870239,0.6313676238059998,0.5301311016082764,1.2135158777236938,3.1155941486358643,0.6320263147354126,6.185633659362793,9.313834190368652,-3.7255024909973145,0.6101049184799194,-0.7437201142311096,0.25184425711631775,11.836647033691406,-16.461463928222656,29.485506057739258,1.1551508903503418,-0.24659252166748047,-0.38630080223083496,5.030482769012451,9.560426712036133,-3.3392016887664795
2_20251106_213712,1762436195423,2,0.1745269000530243,0.5423858165740967,0.633217453956604,0.5238259434700012,1.2135158777236938,3.1155941486358643,0.6320263147354126,6.185633659362793,9.313834190368652,-3.7255024909973145,0.6101049184799194,-0.7437201142311096,0.25184425711631775,12.001825332641602,-16.101409912109375,29.60691261291504,1.1551508903503418,-0.24659252166748047,-0.38630080223083496,5.030482769012451,9.560426712036133,-3.3392016887664795
2_20251106_213712,1762436195442,2,0.17381876707077026,0.5464678406715393,0.6355749368667603,0.5169181823730469,1.2596226930618286,3.129689931869507,0.5837566256523132,6.895483493804932,9.07921314239502,-4.519146919250488,0.6168243885040283,-0.8060283660888672,0.11317796260118484,12.245238304138184,-15.6600341796875,29.6112003326416,1.240333080291748,-0.30797672271728516,-0.8183693885803223,5.655150413513184,9.387189865112305,-3.700777530670166
2_20251106_213712,1762436195460,2,0.17484992742538452,0.5506362915039062,0.638437807559967,0.5085512399673462,1.284921646118164,3.134397029876709,0.5579501986503601,6.562704086303711,8.98225212097168,-4.697506904602051,0.6638610363006592,-1.1982035636901855,-0.2350149303674698,12.532671928405762,-15.29150390625,29.683446884155273,0.7260427474975586,-0.32394981384277344,-0.7973835468292236,5.836661338806152,9.306201934814453,-3.900123357772827
2_20251106_213712,1762436195479,2,0.17788301408290863,0.5546017289161682,0.641997754573822,0.4986114799976349,1.284921646118164,3.134397029876709,0.5579501986503601,6.562704086303711,8.98225212097168,-4.697506904602051,0.6583632230758667,-1.2599009275436401,-0.44331979751586914,12.93420696258545,-14.8402099609375,29.73465919494629,0.7260427474975586,-0.32394981384277344,-0.7973835468292236,5.836661338806152,9.306201934814453,-3.900123357772827
2_20251106_213712,1762436195500,2,0.18234753608703613,0.5574326515197754,0.6464666724205017,0.48795396089553833,1.3311529159545898,3.137617349624634,0.4995245039463043,4.900002479553223,8.202972412109375,-4.915369987487793,0.5752856731414795,-1.1847645044326782,-0.5636601448059082,13.409734725952148,-14.394554138183594,29.572290420532227,-0.7325739860534668,-0.7997236251831055,-0.664313793182373,5.6325764656066895,9.00269603729248,-4.25105619430542
2_20251106_213712,1762436195519,2,0.1875007003545761,0.5589037537574768,0.6512418389320374,0.4778641164302826,1.3459535837173462,3.1341335773468018,0.47220945358276367,4.326615333557129,7.5829010009765625,-5.025498390197754,0.4415063261985779,-1.0741981267929077,-0.5245648622512817,14.02153491973877,-13.890739440917969,29.497468948364258,-1.0447688102722168,-1.1358356475830078,-0.6195535659790039,5.371384143829346,8.71873664855957,-4.40594482421875
2_20251106_213712,1762436195538,2,0.19262345135211945,0.5598065853118896,0.6553216576576233,0.46911221742630005,1.3576617240905762,3.1256422996520996,0.4413187801837921,4.083614349365234,7.135204315185547,-5.082956790924072,0.4415063261985779,-1.0741981267929077,-0.5245648622512817,14.02153491973877,-13.890739440917969,29.497468948364258,-1.0302157402038574,-1.2668256759643555,-0.5416092872619629,5.113830089569092,8.402029991149902,-4.541347503662109
2_20251106_213712,1762436195557,2,0.19753366708755493,0.5610872507095337,0.6578853726387024,0.46189650893211365,1.3576617240905762,3.1256422996520996,0.4413187801837921,4.083614349365234,7.135204315185547,-5.082956790924072,0.11225020885467529,-1.080917477607727,-0.193476140499115,14.621742248535156,-13.386909484863281,29.3410587310791,-1.0302157402038574,-1.2668256759643555,-0.5416092872619629,5.113830089569092,8.402029991149902,-4.541347503662109
2_20251106_213712,1762436195575,2,0.2030305713415146,0.5633746981620789,0.6586408615112305,0.4556092619895935,1.3659546375274658,3.1126253604888916,0.41192370653152466,4.182969570159912,6.77369499206543,-4.557452201843262,0.03711384907364845,-1.1737688779830933,-0.09879209846258163,15.293037414550781,-12.927459716796875,29.078405380249023,-0.7446885108947754,-1.3026676177978516,-0.012883663177490234,4.9276580810546875,8.076362609863281,-4.5445685386657715
2_20251106_213712,1762436195595,2,0.20916353166103363,0.5665687918663025,0.6581670641899109,0.449518084526062,1.3758933544158936,3.0774683952331543,0.3704977333545685,4.374497413635254,5.904637336730957,-3.041987419128418,0.10614156723022461,-1.2440184354782104,-0.08474220335483551,16.00994873046875,-12.527084350585938,28.762327194213867,-0.34961795806884766,-1.4387435913085938,1.05186128616333,4.724115371704102,7.343380928039551,-4.093848705291748
2_20251106_213712,1762436195614,2,0.21526165306568146,0.5701760649681091,0.6576494574546814,0.4427853524684906,1.3785209655761719,3.0517995357513428,0.35316652059555054,4.100373268127441,5.623331069946289,-3.37117600440979,0.10614156723022461,-1.2440184354782104,-0.08474220335483551,16.68958282470703,-12.15325927734375,28.349637985229492,-0.4989938735961914,-1.376039981842041,0.5781381130218506,4.599367141723633,6.99937105178833,-3.9493141174316406
2_20251106_213712,1762436195633,2,0.22108705341815948,0.5739433169364929,0.6577385067939758,0.43484434485435486,1.3781406879425049,3.0236823558807373,0.3375644087791443,3.5964155197143555,5.19478702545166,-3.934986114501953,0.33032894134521484,-1.3857390880584717,-0.16293290257453918,17.456323623657227,-11.748222351074219,27.886842727661133,-0.802361011505127,-1.4436674118041992,0.011462211608886719,4.398776531219482,6.638454437255859,-3.94644832611084
2_20251106_213712,1762436195652,2,0.2282121330499649,0.5795634984970093,0.6567103266716003,0.4251551926136017,1.3744874000549316,2.99363112449646,0.32259276509284973,3.054152011871338,4.711178779602051,-4.3240275382995605,0.30100739002227783,-1.4956947565078735,-0.1727067530155182,18.214494705200195,-11.505622863769531,27.33951759338379,-1.075699806213379,-1.5418205261230469,-0.3020634651184082,4.129851818084717,6.252999305725098,-4.021964073181152
2_20251106_213712,1762436195671,2,0.23515886068344116,0.5838262438774109,0.6567562222480774,0.4153535068035126,1.3656543493270874,2.956502676010132,0.30553993582725525,2.4927358627319336,4.474163055419922,-4.432959079742432,0.18066705763339996,-1.553115963935852,-0.1421635001897812,18.96038246154785,-11.263946533203125,26.805219650268555,-1.309692621231079,-1.4230690002441406,-0.3287959098815918,3.8024284839630127,5.8972320556640625,-4.10416316986084
2_20251106_213712,1762436195691,2,0.2431463599205017,0.5883585810661316,0.6557868123054504,0.4057803452014923,1.3526573181152344,2.918813943862915,0.2889323830604553,1.9708223342895508,4.3736114501953125,-4.54787540435791,0.18066705763339996,-1.553115963935852,-0.1421635001897812,19.66827392578125,-11.072998046875,26.07916831970215,-1.465284824371338,-1.2188968658447266,-0.35496950149536133,3.4361071586608887,5.592508316040039,-4.192905902862549
2_20251106_213712,1762436195709,2,0.2517503499984741,0.5924703478813171,0.6540607213973999,0.3972471058368683,1.3348548412322998,2.8793206214904785,0.27220430970191956,1.447711706161499,4.247920989990234,-4.539496421813965,-0.12048924714326859,-1.505468487739563,-0.120783232152462,20.4587345123291,-10.938194274902344,25.247098922729492,-1.5907166004180908,-1.075669765472412,-0.27727222442626953,3.03842830657959,5.3235907554626465,-4.262224197387695
2_20251106_213712,1762436195729,2,0.2611469626426697,0.5960310697555542,0.6517428159713745,0.38959017395973206,1.3104479312896729,2.8361971378326416,0.254909873008728,0.8659458160400391,4.12941312789917,-4.448520660400391,-0.2573229670524597,-1.449879765510559,-0.12505929172039032,21.198225021362305,-10.855987548828125,24.330915451049805,-1.7379860877990723,-0.9553418159484863,-0.14903736114501953,2.6039319038391113,5.084754943847656,-4.299483299255371
2_20251106_213712,1762436195747,2,0.271091490983963,0.5989963412284851,0.6489009261131287,0.3829364478588104,1.2844574451446533,2.797307252883911,0.2407170832157135,0.5235896110534668,4.264679908752441,-4.058282375335693,-0.2573229670524597,-1.449879765510559,-0.12505929172039032,21.948392868041992,-10.798233032226562,23.42820930480957,-1.664273977279663,-0.656059741973877,0.1929607391357422,2.18786358833313,4.920739650726318,-4.2512431144714355
2_20251106_213712,1762436195767,2,0.2816500663757324,0.6013787984848022,0.6456663608551025,0.3770036995410919,1.2526955604553223,2.757038116455078,0.2271653413772583,0.11060761660337448,4.457404613494873,-4.003218173980713,-0.41126084327697754,-1.3093808889389038,-0.2289062887430191,22.74125862121582,-10.84991455078125,22.484540939331055,-1.6618047952651978,-0.3706679344177246,0.19842004776000977,1.7724124193191528,4.828072547912598,-4.201638221740723
2_20251106_213712,1762436195785,2,0.29212889075279236,0.6025827527046204,0.642966628074646,0.3716835379600525,1.2526955604553223,2.757038116455078,0.2271653413772583,0.11060761660337448,4.457404613494873,-4.003218173980713,-0.4173694849014282,-1.2281359434127808,-0.3229794502258301,23.523235321044922,-10.889022827148438,21.45954704284668,-1.6618047952651978,-0.3706679344177246,0.19842004776000977,1.7724124193191528,4.828072547912598,-4.201638221740723
2_20251106_213712,1762436195804,2,0.30256757140159607,0.602870762348175,0.6408376097679138,0.36650627851486206,1.2120106220245361,2.713918447494507,0.21285881102085114,-0.4160940945148468,4.578306198120117,-4.224672317504883,-0.4173694849014282,-1.2281359434127808,-0.3229794502258301,24.2056941986084,-10.983634948730469,20.321443557739258,-1.7508052587509155,-0.1998128890991211,-0.018427371978759766,1.3347111940383911,4.778119087219238,-4.206244945526123
2_20251106_213712,1762436195824,2,0.3133825659751892,0.60277259349823,0.638491690158844,0.361642062664032,1.1274417638778687,2.639655113220215,0.18678627908229828,-1.5688526630401611,4.086319446563721,-4.580196380615234,-0.6262852549552917,-1.3338154554367065,-0.22646284103393555,24.883813858032227,-11.165336608886719,19.10039710998535,-1.9507888555526733,-0.4808659553527832,-0.23856258392333984,0.3819362223148346,4.567185401916504,-4.3416337966918945
2_20251106_213712,1762436195843,2,0.32549363374710083,0.6035209894180298,0.6343540549278259,0.3569471538066864,1.0775121450424194,2.602496385574341,0.17470301687717438,-2.0201401710510254,4.1653242111206055,-4.090602397918701,-0.8394770622253418,-1.4333864450454712,0.0020005833357572556,25.557294845581055,-11.434532165527344,17.83695411682129,-1.921661138534546,-0.3214888572692871,0.20082521438598633,-0.0984790027141571,4.486813068389893,-4.2914276123046875
2_20251106_213712,1762436195861,2,0.3386836349964142,0.6052585244178772,0.6277039647102356,0.35347306728363037,1.0273749828338623,2.570068836212158,0.16531004011631012,-2.2104711532592773,4.899115562438965,-3.6895911693573,-0.8394770622253418,-1.4333864450454712,0.0020005833357572556,26.195232391357422,-11.681541442871094,16.626630783081055,-1.68959379196167,0.32984209060668945,0.48146939277648926,-0.5208774209022522,4.569273471832275,-4.171060562133789
2_20251106_213712,1762436195881,2,0.3520987331867218,0.6080285906791687,0.6182228326797485,0.3523184359073639,0.9696799516677856,2.5387673377990723,0.15771406888961792,-2.090765953063965,5.532354831695557,-3.4082846641540527,-1.182172179222107,-1.4083410501480103,0.6342455744743347,26.752273559570312,-12.09466552734375,15.220705032348633,-1.255910873413086,0.7704648971557617,0.6102209091186523,-0.8348550796508789,4.761889934539795,-4.018505573272705
2_20251106_213712,1762436195899,2,0.3649994730949402,0.6118195056915283,0.6064833402633667,0.35303014516830444,0.9174261689186096,2.5156970024108887,0.1548149287700653,-2.0225343704223633,6.26135778427124,-2.5583794116973877,-1.2157697677612305,-1.4627079963684082,0.8126180768013,27.24514389038086,-12.585762023925781,13.675580978393555,-0.9501434564590454,1.1995744705200195,1.1681008338928223,-1.0723909139633179,5.061783313751221,-3.72648024559021
2_20251106_213712,1762436195919,2,0.3778994381427765,0.6167924404144287,0.5928177237510681,0.35401445627212524,0.8586822748184204,2.496541738510132,0.15910489857196808,-2.2523679733276367,6.77130126953125,-1.3086600303649902,-1.2169914245605469,-1.388182520866394,0.8193376064300537,27.65099334716797,-13.119544982910156,12.072168350219727,-0.9439816474914551,1.36761474609375,1.9342560768127441,-1.3083863258361816,5.4036865234375,-3.2429161071777344
2_20251106_213712,1762436195939,2,0.3903301954269409,0.6211907863616943,0.5791140198707581,0.35551556944847107,0.8586822748184204,2.496541738510132,0.15910489857196808,-2.2523679733276367,6.77130126953125,-1.3086600303649902,-1.1815613508224487,-1.0418221950531006,0.802844226360321,27.905563354492188,-13.76251220703125,10.379661560058594,-0.9439816474914551,1.36761474609375,1.9342560768127441,-1.3083863258361816,5.4036865234375,-3.2429161071777344
2_20251106_213712,1762436195960,2,0.4007652699947357,0.6240701079368591,0.5666932463645935,0.3588627278804779,0.7374525666236877,2.474945545196533,0.18488025665283203,-2.1242835521698,6.910159111022949,-1.7336125373840332,-1.1388007402420044,-0.6502578854560852,0.9048586487770081,28.052888870239258,-14.575881958007812,8.760896682739258,-0.46433281898498535,0.9264111518859863,0.856783390045166,-1.6599507331848145,5.983747959136963,-2.590395927429199
2_20251106_213712,1762436195976,2,0.40848782658576965,0.6261742115020752,0.5551019906997681,0.36456185579299927,0.6933977007865906,2.4713590145111084,0.1960604339838028,-1.477876901626587,7.424890041351318,-2.284255027770996,-1.2096611261367798,-0.546410858631134,1.0203120708465576,28.052888870239258,-14.575881958007812,8.760896682739258,0.14565908908843994,1.1529135704040527,0.24491286277770996,-1.6235359907150269,6.271976470947266,-2.529167890548706
2_20251106_213712,1762436195996,2,0.4155735969543457,0.6284875869750977,0.5425933599472046,0.371341347694397,0.6418856382369995,2.472395420074463,0.2119227647781372,-1.3593690395355225,8.013837814331055,-1.6785482168197632,-1.3648207187652588,-0.7382224202156067,0.9341801404953003,28.11298370361328,-15.443824768066406,7.015996932983398,0.21133363246917725,1.393488883972168,0.6804956197738647,-1.5707026720046997,6.620348930358887,-2.359043836593628
2_20251106_213712,1762436196014,2,0.4247710108757019,0.6305679678916931,0.5288666486740112,0.37716540694236755,0.6418856382369995,2.472395420074463,0.2119227647781372,-1.3593690395355225,8.013837814331055,-1.6785482168197632,-1.4833284616470337,-0.6795793175697327,0.8016225099563599,28.049819946289062,-16.333213806152344,5.360542297363281,0.21133363246917725,1.393488883972168,0.6804956197738647,-1.5707026720046997,6.620348930358887,-2.359043836593628
2_20251106_213712,1762436196033,2,0.4347902834415436,0.6309629082679749,0.515602707862854,0.3834019899368286,0.5561287999153137,2.4873366355895996,0.2529652416706085,-0.5872721672058105,8.771570205688477,-0.7233028411865234,-1.4833284616470337,-0.6795793175697327,0.8016225099563599,27.85753631591797,-17.367996215820312,3.629697799682617,0.7697854042053223,1.4539670944213867,0.985393762588501,-1.3570575714111328,7.31760311126709,-1.7086966037750244
2_20251106_213712,1762436196053,2,0.44312649965286255,0.6287165880203247,0.5036489963531494,0.3933091163635254,0.5561287999153137,2.4873366355895996,0.2529652416706085,-0.5872721672058105,8.771570205688477,-0.7233028411865234,-1.791815161705017,0.03024543821811676,0.7570293545722961,27.515701293945312,-18.250267028808594,1.9364585876464844,0.7697854042053223,1.4539670944213867,0.985393762588501,-1.3570575714111328,7.31760311126709,-1.7086966037750244
2_20251106_213712,1762436196073,2,0.45112720131874084,0.6241205334663391,0.4925508499145508,0.40540286898612976,0.5193865299224854,2.5057551860809326,0.2792153060436249,1.0682470798492432,9.355730056762695,-1.200925588607788,-1.9426987171173096,-0.2867933511734009,0.3355327248573303,27.165119171142578,-19.05907440185547,0.3524436950683594,1.9402437210083008,1.6305017471313477,0.4062168598175049,-0.8719966411590576,7.725228309631348,-1.607142448425293
2_20251106_213712,1762436196092,2,0.46317484974861145,0.6187232732772827,0.4809368848800659,0.413944810628891,0.49609488248825073,2.5285916328430176,0.30251049995422363,1.6260720491409302,10.540810585021973,-0.9663038849830627,-1.9207075834274292,-0.6258233189582825,-0.40239185094833374,26.77999496459961,-19.832725524902344,-1.2187347412109375,1.9984550476074219,2.25246524810791,0.5126709342002869,-0.3723829388618469,8.288345336914062,-1.4789748191833496
2_20251106_213712,1762436196110,2,0.4792904555797577,0.6111004948616028,0.4720928370952606,0.41709139943122864,0.4517500698566437,2.581878662109375,0.3606981039047241,-2.418757915496826,9.531697273254395,0.9346104860305786,-1.6867464780807495,-0.25136318802833557,-0.8538209199905396,26.489225387573242,-20.449317932128906,-2.864410400390625,-1.674540638923645,0.6350536346435547,1.5186468362808228,-0.7442172765731812,8.89664363861084,-0.5840363502502441
2_20251106_213712,1762436196129,2,0.4941462278366089,0.6000787019729614,0.4688321053981781,0.4194299876689911,0.4198363721370697,2.6069321632385254,0.3896303176879883,-3.5296194553375244,8.188608169555664,-1.2571868896484375,-1.5474692583084106,0.22083522379398346,-0.6088641285896301,26.21930503845215,-20.689605712890625,-4.461618423461914,-2.2283217906951904,-0.5664281845092773,-0.5385204553604126,-1.301297664642334,8.755036354064941,-0.7186664342880249
2_20251106_213712,1762436196150,2,0.5052559971809387,0.5887340307235718,0.4669656455516815,0.42432501912117004,0.3827388286590576,2.6286590099334717,0.41282787919044495,-3.0065088272094727,7.660708427429199,-2.6050643920898438,-1.5474692583084106,0.22083522379398346,-0.6088641285896301,26.07871437072754,-20.772613525390625,-5.915592193603516,-1.3641688823699951,-0.875462532043457,-1.5091183185577393,-1.6423399448394775,8.536170959472656,-1.0959460735321045
2_20251106_213712,1762436196167,2,0.5146137475967407,0.5814136862754822,0.45931005477905273,0.43146851658821106,0.3499840199947357,2.6471340656280518,0.4333730638027191,-2.0632340908050537,8.495052337646484,-0.8070962429046631,-1.8962730169296265,-0.6472035050392151,0.8065094351768494,25.967838287353516,-20.753982543945312,-7.325924873352051,-0.33671534061431885,-0.03289508819580078,0.2310798168182373,-1.7265187501907349,8.527947425842285,-1.0381760597229004
2_20251106_213712,1762436196187,2,0.5252366065979004,0.5787269473075867,0.44362592697143555,0.4386315941810608,0.31556129455566406,2.6688318252563477,0.46377527713775635,-1.6765869855880737,9.250391006469727,1.8288064002990723,-1.9121555089950562,-0.8518431782722473,0.9842710494995117,25.7941951751709,-20.57525634765625,-8.897964477539062,0.039945363998413086,0.5779552459716797,2.293586015701294,-1.7165323495864868,8.672435760498047,-0.4647795855998993
2_20251106_213712,1762436196206,2,0.5358285307884216,0.5769686102867126,0.4256383180618286,0.44590023159980774,0.31556129455566406,2.6688318252563477,0.46377527713775635,-1.6765869855880737,9.250391006469727,1.8288064002990723,-1.7124027013778687,-0.5134241580963135,0.940899670124054,25.620466232299805,-20.385047912597656,-10.36160945892334,0.039945363998413086,0.5779552459716797,2.293586015701294,-1.7165323495864868,8.672435760498047,-0.4647795855998993
2_20251106_213712,1762436196225,2,0.5441301465034485,0.5739070773124695,0.4101661741733551,0.45422109961509705,0.28198036551475525,2.6929259300231934,0.5041758418083191,-1.491044521331787,9.403614044189453,2.541050910949707,-1.6513162851333618,-0.12735766172409058,0.9983209371566772,25.374313354492188,-20.19866180419922,-11.922811508178711,0.1803903579711914,0.5849428176879883,2.4046645164489746,-1.6714348793029785,8.818671226501465,0.1363864541053772
2_20251106_213712,1762436196244,2,0.5501174926757812,0.5693379640579224,0.39657825231552124,0.4647049903869629,0.23555508255958557,2.733708620071411,0.5836449265480042,-0.08929963409900665,9.362913131713867,2.4572572708129883,-1.8241909742355347,0.044906195253133774,1.1137744188308716,29.010831832885742,-24.908096313476562,-12.567608833312988,1.1542972326278687,0.39140796661376953,1.5001050233840942,-1.2435969114303589,8.971505165100098,0.957152247428894
2_20251106_213712,1762436196264,2,0.556060791015625,0.5638057589530945,0.3817707896232605,0.4766240417957306,0.21834340691566467,2.757549285888672,0.6348427534103394,0.3153030574321747,9.700481414794922,3.53340482711792,-2.0043959617614746,-0.013736819848418236,1.0563530921936035,28.701772689819336,-24.728378295898438,-13.860937118530273,1.2471200227737427,0.5831813812255859,2.061002254486084,-0.9318169355392456,9.117300033569336,1.4724026918411255
2_20251106_213712,1762436196284,2,0.5631255507469177,0.5571956634521484,0.365911602973938,0.48839661478996277,0.2058636099100113,2.7818942070007324,0.6944550275802612,0.34163814783096313,9.675342559814453,5.082386016845703,-2.0043959617614746,-0.0033521200530231,0.9237954616546631,28.242534637451172,-24.644744873046875,-15.297161102294922,1.0187640190124512,0.44643402099609375,2.887986660003662,-0.6771259307861328,9.22890853881836,2.194399356842041
2_20251106_213712,1762436196301,2,0.5704440474510193,0.5495591759681702,0.3507601320743561,0.49954545497894287,0.1983392983675003,2.802551746368408,0.7499657869338989,0.48528409004211426,9.683722496032715,5.551630020141602,-1.8400734663009644,0.14264453947544098,0.8737045526504517,27.672212600708008,-24.593368530273438,-16.738327026367188,0.9299280643463135,0.36385154724121094,2.6857845783233643,-0.4446439743041992,9.319870948791504,2.8658454418182373
2_20251106_213712,1762436196320,2,0.576684832572937,0.541525661945343,0.33713310956954956,0.5104172825813293,0.1983392983675003,2.802551746368408,0.7499657869338989,0.48528409004211426,9.683722496032715,5.551630020141602,-1.7374482154846191,0.35583633184432983,0.8590437769889832,27.09031105041504,-24.530364990234375,-18.166202545166016,0.9299280643463135,0.36385154724121094,2.6857845783233643,-0.4446439743041992,9.319870948791504,2.8658454418182373
2_20251106_213712,1762436196340,2,0.5816013813018799,0.5327035188674927,0.32514849305152893,0.5217713117599487,0.191172793507576,2.851935386657715,0.8827486038208008,0.7462408542633057,10.42349910736084,5.346934795379639,-1.8205257654190063,0.5189372301101685,0.8040659427642822,26.554767608642578,-24.479034423828125,-19.362606048583984,0.7817021608352661,0.7635889053344727,1.6246705055236816,-0.03546130657196045,9.659910202026367,3.722264289855957
2_20251106_213712,1762436196359,2,0.5864313244819641,0.522351086139679,0.31393253803253174,0.5335672497749329,0.1912926882505417,2.878582239151001,0.9532779455184937,0.7414526343345642,10.589888572692871,6.074740409851074,-1.9543051719665527,0.6698207855224609,0.702662467956543,26.075042724609375,-24.275733947753906,-20.36465072631836,0.6215311884880066,0.743983268737793,1.8819808959960938,0.11992146819829941,9.845905303955078,4.1927595138549805
2_20251106_213712,1762436196379,2,0.5917899012565613,0.5099918246269226,0.30330178141593933,0.5456199049949646,0.19215573370456696,2.9076108932495117,1.0336769819259644,0.3643820881843567,10.629392623901367,7.4393768310546875,-2.019056558609009,0.7040292024612427,0.628136932849884,25.685468673706055,-23.967491149902344,-21.253019332885742,0.1955685019493103,0.6267900466918945,2.5972938537597656,0.1688135862350464,10.002602577209473,4.842082977294922
2_20251106_213712,1762436196396,2,0.5975170731544495,0.4965408444404602,0.2928359806537628,0.5573756694793701,0.19224922358989716,2.9343156814575195,1.111166000366211,-0.09289078414440155,10.76824951171875,8.394621849060059,-1.9139881134033203,0.7645048499107361,0.691666841506958,25.685468673706055,-23.967491149902344,-21.253019332885742,-0.20936350524425507,0.612518310546875,2.8420310020446777,0.11647272109985352,10.155731201171875,5.552590847015381
2_20251106_213712,1762436196415,2,0.6020177602767944,0.48302486538887024,0.28299209475517273,0.5693655014038086,0.19224922358989716,2.9343156814575195,1.111166000366211,-0.09289078414440155,10.76824951171875,8.394621849060059,-1.6445966958999634,0.881790816783905,0.857822060585022,25.39400291442871,-23.628860473632812,-22.02880859375,-0.20936350524425507,0.612518310546875,2.8420310020446777,0.11647272109985352,10.155731201171875,5.552590847015381
2_20251106_213712,1762436196435,2,0.6038001179695129,0.47042709589004517,0.2746162712574005,0.5819876790046692,0.18827508389949799,2.9912657737731934,1.290951132774353,-0.3706062436103821,10.453425407409668,8.389833450317383,-1.3709293603897095,1.0363396406173706,1.1186612844467163,25.080984115600586,-23.241592407226562,-22.804521560668945,-0.3033033013343811,0.1616039276123047,1.7689108848571777,-0.06730292737483978,10.291821479797363,6.620922565460205
2_20251106_213712,1762436196454,2,0.6023197770118713,0.4589846730232239,0.26749536395072937,0.5958105325698853,0.18680095672607422,3.0176968574523926,1.3778516054153442,0.2374948412179947,10.470184326171875,7.659633636474609,-1.182172179222107,1.1505712270736694,1.4564694166183472,24.82370376586914,-22.90381622314453,-23.25444793701172,0.24383822083473206,0.14268970489501953,0.8309688568115234,-0.006343379616737366,10.327494621276855,6.828664779663086
2_20251106_213712,1762436196474,2,0.5975459218025208,0.44872695207595825,0.26061275601387024,0.611280620098114,0.18911032378673553,3.045165777206421,1.4660154581069946,1.2382280826568604,10.66889476776123,7.244257926940918,-1.0196821689605713,1.1731733083724976,1.7765625715255737,24.6461124420166,-22.637710571289062,-23.51329803466797,0.995657205581665,0.2731199264526367,0.3324742317199707,0.2425708919763565,10.395774841308594,6.911783695220947
2_20251106_213712,1762436196493,2,0.5892705917358398,0.439859539270401,0.25375309586524963,0.6284052729606628,0.19670137763023376,3.0712969303131104,1.5476449728012085,2.249734878540039,10.884363174438477,7.663224697113037,-1.0196821689605713,1.1731733083724976,1.7765625715255737,24.465009689331055,-22.422775268554688,-23.6785888671875,1.6057312488555908,0.3908710479736328,0.6011528968811035,0.6440036296844482,10.493492126464844,7.062071800231934
2_20251106_213712,1762436196511,2,0.5785775184631348,0.4317796528339386,0.24735789000988007,0.6462417840957642,0.19670137763023376,3.0712969303131104,1.5476449728012085,2.249734878540039,10.884363174438477,7.663224697113037,-0.8248163461685181,1.3038983345031738,1.8914052248001099,24.325220108032227,-22.31916046142578,-23.695613861083984,1.6057312488555908,0.3908710479736328,0.6011528968811035,0.6440036296844482,10.493492126464844,7.062071800231934
2_20251106_213712,1762436196531,2,0.5677658915519714,0.4233826994895935,0.24150674045085907,0.663372814655304,0.23094165325164795,3.122365713119507,1.7122905254364014,3.6131739616394043,10.77303695678711,9.439645767211914,-0.8248163461685181,1.3038983345031738,1.8914052248001099,24.060274124145508,-22.475723266601562,-23.533105850219727,1.9743902683258057,0.1605224609375,1.6719965934753418,1.6387836933135986,10.61251449584961,7.767649173736572
2_20251106_213712,1762436196550,2,0.5574526786804199,0.4144086241722107,0.23675070703029633,0.6793092489242554,0.255599707365036,3.1462173461914062,1.7966609001159668,3.647888660430908,10.593481063842773,9.726938247680664,-0.5517597198486328,1.5329726934432983,1.5645924806594849,23.726558685302734,-22.762901306152344,-23.267559051513672,1.6072840690612793,-0.015227317810058594,1.5674314498901367,2.040604591369629,10.608708381652832,8.159506797790527
2_20251106_213712,1762436196570,2,0.5467864871025085,0.4048568904399872,0.23461699485778809,0.6943128108978271,0.28401580452919006,3.1683597564697266,1.8846827745437622,3.2768032550811768,10.046428680419922,9.360641479492188,-0.3367353677749634,1.6563671827316284,1.447306513786316,23.33898162841797,-23.12981414794922,-22.8839111328125,0.9889588356018066,-0.44982433319091797,0.9609079360961914,2.28784441947937,10.49625301361084,8.399733543395996
2_20251106_213712,1762436196588,2,0.5355332493782043,0.39513540267944336,0.2349364012479782,0.7084327936172485,0.30995094776153564,3.1848514080047607,1.9609870910644531,2.9535999298095703,9.505362510681152,8.824363708496094,-0.3367353677749634,1.6563671827316284,1.447306513786316,22.930686950683594,-23.62511444091797,-22.300647735595703,0.532604455947876,-0.7927122116088867,0.3397035598754883,2.4209954738616943,10.298074722290039,8.484660148620605
2_20251106_213712,1762436196608,2,0.52260822057724,0.3858942687511444,0.23645083606243134,0.7225353121757507,0.3382863998413086,3.198655843734741,2.0374631881713867,3.269620895385742,9.301864624023438,8.470035552978516,-0.006868407130241394,1.7449426651000977,1.7680104970932007,22.557952880859375,-24.34394073486328,-21.6525936126709,0.6789002418518066,-0.7969675064086914,-0.011699676513671875,2.5907206535339355,10.098832130432129,8.481735229492188
2_20251106_213712,1762436196626,2,0.5071237087249756,0.3775659203529358,0.238286092877388,0.7372172474861145,0.3382863998413086,3.198655843734741,2.0374631881713867,3.269620895385742,9.301864624023438,8.470035552978516,-0.006868407130241394,1.7449426651000977,1.7680104970932007,22.008806228637695,-25.151382446289062,-20.796730041503906,0.6789002418518066,-0.7969675064086914,-0.011699676513671875,2.5907206535339355,10.098832130432129,8.481735229492188
2_20251106_213712,1762436196645,2,0.4891189932823181,0.3703263998031616,0.24036693572998047,0.7522264719009399,0.4058389663696289,3.2189395427703857,2.176151990890503,5.287846088409424,9.702876091003418,7.9876251220703125,0.26252293586730957,1.7235623598098755,2.0673341751098633,21.46681022644043,-26.046066284179688,-19.9287052154541,1.8981523513793945,-0.18159008026123047,-0.3344259262084961,3.3896937370300293,9.884466171264648,8.322051048278809
2_20251106_213712,1762436196664,2,0.46966350078582764,0.3639025390148163,0.2427079677581787,0.7668663263320923,0.4457608163356781,3.227863073348999,2.2352962493896484,6.374767303466797,10.017699241638184,7.893058776855469,0.32422029972076416,1.7345579862594604,1.9695957899093628,20.79461669921875,-26.863067626953125,-18.915550231933594,2.38805890083313,0.10658645629882812,-0.34319400787353516,3.986708402633667,9.911112785339355,8.236252784729004
2_20251106_213712,1762436196683,2,0.4504445493221283,0.35747969150543213,0.2456381767988205,0.7803652286529541,0.4975401759147644,3.238708972930908,2.297396183013916,7.157637596130371,10.38040542602539,8.127679824829102,0.3749220371246338,1.6673628091812134,1.718530535697937,20.163623809814453,-27.803138732910156,-17.835491180419922,2.5367431640625,0.37543392181396484,-0.08685779571533203,4.620894432067871,10.004971504211426,8.214537620544434
2_20251106_213712,1762436196703,2,0.4327670633792877,0.35120755434036255,0.24930919706821442,0.791966438293457,0.5546751618385315,3.250990867614746,2.358427047729492,7.234248638153076,10.65572738647461,8.884215354919434,0.3749220371246338,1.6673628091812134,1.718530535697937,19.49346351623535,-28.783935546875,-16.690113067626953,2.0906834602355957,0.520604133605957,0.5357427597045898,5.1435651779174805,10.135123252868652,8.348472595214844
2_20251106_213712,1762436196721,2,0.4171045422554016,0.3451477587223053,0.25454357266426086,0.8013141751289368,0.6082491874694824,3.261583089828491,2.4122252464294434,7.061873435974121,10.172119140625,9.005117416381836,0.7115084528923035,1.5659593343734741,1.1156070232391357,18.750186920166016,-29.769500732421875,-15.54767894744873,1.5346465110778809,0.029596328735351562,0.5253162384033203,5.52722692489624,10.142522811889648,8.479801177978516
2_20251106_213712,1762436196741,2,0.40239742398262024,0.33919408917427063,0.2622092664241791,0.8088696002960205,0.6699889302253723,3.2715182304382324,2.468782424926758,7.234248638153076,9.73280143737793,8.404197692871094,0.7115084528923035,1.5659593343734741,1.1156070232391357,18.02161979675293,-30.704452514648438,-14.363149642944336,1.365617275238037,-0.3277769088745117,-0.06048297882080078,5.868631362915039,10.060578346252441,8.464680671691895
2_20251106_213712,1762436196760,2,0.3871670961380005,0.3342761993408203,0.27150899171829224,0.8152569532394409,0.7274330854415894,3.27844500541687,2.515522003173828,7.759753227233887,9.423962593078613,7.808067798614502,1.1354485750198364,1.3185590505599976,1.109498381614685,17.172924041748047,-31.598602294921875,-13.033788681030273,1.5128974914550781,-0.5092926025390625,-0.5252900123596191,6.246855735778809,9.933255195617676,8.333357810974121
2_20251106_213712,1762436196780,2,0.37136977910995483,0.3315766751766205,0.2812618911266327,0.8203859925270081,0.7274330854415894,3.27844500541687,2.515522003173828,7.759753227233887,9.423962593078613,7.808067798614502,1.3089340925216675,1.0534437894821167,1.0264207124710083,16.380205154418945,-32.375343322753906,-11.821738243103027,1.5128974914550781,-0.5092926025390625,-0.5252900123596191,6.246855735778809,9.933255195617676,8.333357810974121
2_20251106_213712,1762436196800,2,0.3560009002685547,0.33129072189331055,0.2915950119495392,0.8237003087997437,0.8011678457260132,3.284332752227783,2.565737247467041,8.159566879272461,9.34735107421875,7.231090068817139,1.4286636114120483,0.8457498550415039,0.7906269431114197,16.380205154418945,-32.375343322753906,-11.821738243103027,1.5301690101623535,-0.4687232971191406,-0.8818144798278809,6.629397869110107,9.81607437133789,8.11290454864502
2_20251106_213712,1762436196818,2,0.3425976634025574,0.332412987947464,0.3027459383010864,0.8249080777168274,0.9224890470504761,3.2862632274627686,2.632626533508301,7.576604843139648,8.369361877441406,6.435051918029785,1.4378266334533691,0.8298673629760742,0.5224573612213135,15.564538955688477,-33.116943359375,-10.515262603759766,0.5317082405090332,-1.0193614959716797,-1.14009428024292,7.044896602630615,9.388723373413086,7.575146198272705
2_20251106_213712,1762436196837,2,0.33115440607070923,0.33278754353523254,0.31464919447898865,0.8249757885932922,0.9224890470504761,3.2862632274627686,2.632626533508301,7.576604843139648,8.369361877441406,6.435051918029785,1.3266493082046509,0.9031711220741272,0.32453715801239014,14.868715286254883,-33.88813781738281,-9.21819019317627,0.5317082405090332,-1.0193614959716797,-1.14009428024292,7.044896602630615,9.388723373413086,7.575146198272705
2_20251106_213712,1762436196856,2,0.32125553488731384,0.3314681947231293,0.3264557123184204,0.8248335719108582,1.0440342426300049,3.2717044353485107,2.6790568828582764,7.177987098693848,7.418905258178711,5.412772178649902,1.1965349912643433,0.8451389670372009,0.2090837061405182,14.20965576171875,-34.43212127685547,-7.8748369216918945,0.07100486755371094,-1.3336553573608398,-1.4438676834106445,7.106982231140137,8.75256061553955,6.856639862060547
2_20251106_213712,1762436196875,2,0.3126068711280823,0.32970914244651794,0.3374292254447937,0.8244454860687256,1.0957438945770264,3.259927749633789,2.692523241043091,7.013991355895996,7.363840579986572,5.230820655822754,1.1818742752075195,0.6240059733390808,0.13455821573734283,13.613443374633789,-34.934730529785156,-6.50120735168457,-0.07439279556274414,-1.110975742340088,-1.3006553649902344,7.08838415145874,8.47481632232666,6.531476020812988
2_20251106_213712,1762436196893,2,0.30517062544822693,0.3293253481388092,0.34778472781181335,0.8230804800987244,1.0957438945770264,3.259927749633789,2.692523241043091,7.013991355895996,7.363840579986572,5.230820655822754,1.2203587293624878,0.38637956976890564,0.023991713300347328,13.105451583862305,-35.38141632080078,-5.136605262756348,-0.07439279556274414,-1.110975742340088,-1.3006553649902344,7.08838415145874,8.47481632232666,6.531476020812988
2_20251106_213712,1762436196914,2,0.29925137758255005,0.33047714829444885,0.35802900791168213,0.8203954696655273,1.195905327796936,3.2277517318725586,2.7097692489624023,5.990514278411865,7.43566370010376,5.381649017333984,1.2276891469955444,0.27764564752578735,-0.06885971873998642,12.580024719238281,-35.71586608886719,-3.851705551147461,-0.789973258972168,-0.6876587867736816,-0.7100334167480469,6.780487537384033,8.123322486877441,6.091682434082031
2_20251106_213712,1762436196932,2,0.2948318123817444,0.3322184979915619,0.36812877655029297,0.8168147206306458,1.195905327796936,3.2277517318725586,2.7097692489624023,5.990514278411865,7.43566370010376,5.381649017333984,1.2276891469955444,0.27764564752578735,-0.06885971873998642,12.243831634521484,-35.925254821777344,-2.5705909729003906,-0.789973258972168,-0.6876587867736816,-0.7100334167480469,6.780487537384033,8.123322486877441,6.091682434082031
2_20251106_213712,1762436196951,2,0.2901948094367981,0.3334147036075592,0.3784323036670685,0.8132715225219727,1.2691363096237183,3.191138744354248,2.7124886512756348,5.658931732177734,6.92332649230957,4.215722560882568,1.2441824674606323,0.24343721568584442,-0.06824886053800583,11.992433547973633,-36.14137268066406,-1.3133392333984375,-0.7246909141540527,-0.8093671798706055,-1.3358330726623535,6.383622646331787,7.732693672180176,5.551555633544922
2_20251106_213712,1762436196969,2,0.28525614738464355,0.33494582772254944,0.3886697292327881,0.8095530271530151,1.29879629611969,3.1720457077026367,2.7072808742523193,5.5140886306762695,7.162735939025879,3.769223690032959,1.1837068796157837,0.05284743383526802,-0.027320923283696175,11.79471206665039,-36.26641845703125,-0.05227851867675781,-0.6956272125244141,-0.4559659957885742,-1.425865650177002,6.209715843200684,7.618701934814453,5.195089340209961
2_20251106_213712,1762436196990,2,0.28088462352752686,0.33797791600227356,0.3977763056755066,0.8053873181343079,1.3282626867294312,3.150022029876709,2.697323799133301,5.193279266357422,7.361446380615234,3.9463868141174316,1.1837068796157837,0.05284743383526802,-0.027320923283696175,11.66354751586914,-36.29864501953125,1.11846923828125,-0.8131494522094727,-0.20580434799194336,-0.9989619255065918,6.0064287185668945,7.567250728607178,4.945348739624023
2_20251106_213712,1762436197008,2,0.277593195438385,0.34222739934921265,0.40563932061195374,0.8007990717887878,1.3494203090667725,3.1319973468780518,2.6869003772735596,4.8545145988464355,7.5302300453186035,4.00504207611084,1.084135890007019,-0.1524031162261963,-0.034040436148643494,11.574060440063477,-36.25193786621094,2.170625686645508,-0.9215312004089355,-0.029616355895996094,-0.7522454261779785,5.776045799255371,7.5598464012146,4.757287502288818
2_20251106_213712,1762436197028,2,0.27516070008277893,0.3464873135089874,0.413485586643219,0.7957780957221985,1.3494203090667725,3.1319973468780518,2.6869003772735596,4.8545145988464355,7.5302300453186035,4.00504207611084,1.050538420677185,-0.1572900265455246,-0.23806926608085632,11.52596664428711,-36.115081787109375,3.2396163940429688,-0.9215312004089355,-0.029616355895996094,-0.7522454261779785,5.776045799255371,7.5598464012146,4.757287502288818
2_20251106_213712,1762436197047,2,0.27338600158691406,0.3495073616504669,0.4217628240585327,0.7907090783119202,1.369121789932251,3.110717535018921,2.6709563732147217,4.453502655029297,7.46439266204834,3.7129621505737305,0.9534108638763428,-0.06138426810503006,-0.3015992045402527,11.735636711120605,-37.04564666748047,4.538078308105469,-1.0580344200134277,-0.07636308670043945,-0.8354601860046387,5.511537075042725,7.540755748748779,4.548422336578369
2_20251106_213712,1762436197065,2,0.2719261050224304,0.35114288330078125,0.42982497811317444,0.7861331701278687,1.3816639184951782,3.092825412750244,2.6543478965759277,4.191349029541016,7.382993698120117,3.262871742248535,0.8220750093460083,-0.056497350335121155,-0.27838632464408875,11.830633163452148,-36.973114013671875,5.4626922607421875,-1.0561504364013672,-0.12620973587036133,-1.0284404754638672,5.247499465942383,7.5092034339904785,4.291312217712402
2_20251106_213712,1762436197085,2,0.2708034813404083,0.3525109887123108,0.4368184506893158,0.782042920589447,1.3903305530548096,3.0766475200653076,2.6361663341522217,4.182969570159912,7.478756904602051,2.9779739379882812,0.735943078994751,-0.17561596632003784,-0.2246302366256714,11.929845809936523,-36.83685302734375,6.294012069702148,-0.8516240119934082,-0.024357318878173828,-1.0506706237792969,5.03459358215332,7.503114223480225,4.028644561767578
2_20251106_213712,1762436197104,2,0.2701307237148285,0.35480713844299316,0.4426438808441162,0.7779509425163269,1.3971773386001587,3.060584545135498,2.615652561187744,4.362526893615723,7.56135368347168,3.1970338821411133,0.7463277578353882,-0.3417711853981018,-0.20080651342868805,12.006195068359375,-36.67693328857422,7.111362457275391,-0.5376534461975098,0.046591758728027344,-0.6652884483337402,4.900180339813232,7.514761924743652,3.8623223304748535
2_20251106_213712,1762436197122,2,0.2698385417461395,0.3583744764328003,0.44798779487609863,0.7733445763587952,1.402451515197754,3.04486346244812,2.593538522720337,4.382876873016357,7.627191543579102,3.3358917236328125,0.7958078384399414,-0.45233768224716187,-0.21974331140518188,12.194307327270508,-36.49542236328125,7.744163513183594,-0.41384267807006836,0.08994340896606445,-0.4211444854736328,4.796719551086426,7.537248134613037,3.7570362091064453
2_20251106_213712,1762436197142,2,0.2698576748371124,0.36266645789146423,0.45346665382385254,0.7681261897087097,1.408141851425171,3.019381523132324,2.551703691482544,4.311054229736328,7.564944744110107,2.712228775024414,0.8031381964683533,-0.5079264044761658,-0.27227768301963806,12.332773208618164,-36.329917907714844,8.401771545410156,-0.317720890045166,-0.002384662628173828,-0.747011661529541,4.628775119781494,7.567329406738281,3.459240436553955
2_20251106_213712,1762436197161,2,0.27062350511550903,0.36720773577690125,0.45893290638923645,0.7624316215515137,1.4092100858688354,3.0075314044952393,2.528503656387329,4.18656063079834,7.545792102813721,2.355508327484131,0.7206714153289795,-0.5317500829696655,-0.3260337710380554,12.619473457336426,-36.12895202636719,8.984695434570312,-0.3537716865539551,-0.017229557037353516,-0.8829855918884277,4.540332317352295,7.563021659851074,3.2384939193725586
2_20251106_213712,1762436197181,2,0.2720755934715271,0.37143629789352417,0.46396273374557495,0.7568014860153198,1.4083257913589478,2.994255542755127,2.4997386932373047,3.9232101440429688,7.52065372467041,2.3279762268066406,0.5881137847900391,-0.526863157749176,-0.3938397467136383,12.929420471191406,-35.96272277832031,9.43264389038086,-0.4936976432800293,-0.03389453887939453,-0.7284142971038818,4.416907787322998,7.554548263549805,3.0563905239105225
2_20251106_213712,1762436197200,2,0.27452534437179565,0.3750098943710327,0.4682616591453552,0.7514881491661072,1.4083257913589478,2.994255542755127,2.4997386932373047,3.9232101440429688,7.52065372467041,2.3279762268066406,0.4714386463165283,-0.4761614203453064,-0.4677543640136719,13.253864288330078,-35.75775909423828,9.854843139648438,-0.4936976432800293,-0.03389453887939453,-0.7284142971038818,4.416907787322998,7.554548263549805,3.0563905239105225
2_20251106_213712,1762436197220,2,0.27767813205718994,0.37748968601226807,0.4721197783946991,0.7466587424278259,1.4048601388931274,2.981995105743408,2.46999454498291,3.633523941040039,7.659511566162109,2.335158348083496,0.4152390956878662,-0.4492833614349365,-0.5343385934829712,13.253864288330078,-35.75775909423828,9.854843139648438,-0.6267070770263672,0.08397054672241211,-0.5769858360290527,4.260231018066406,7.575541019439697,2.912144184112549
2_20251106_213712,1762436197240,2,0.28142979741096497,0.3792623281478882,0.4758746325969696,0.7419573068618774,1.3930736780166626,2.961334228515625,2.4168906211853027,3.208571434020996,7.3123674392700195,1.7210719585418701,0.3938588500022888,-0.45355942845344543,-0.5190670490264893,13.921876907348633,-35.23321533203125,10.621009826660156,-0.7044727802276611,-0.19026517868041992,-0.8427281379699707,3.9130442142486572,7.5026326179504395,2.563800096511841
2_20251106_213712,1762436197260,2,0.28507962822914124,0.3809710741043091,0.47943851351737976,0.7373800873756409,1.3823235034942627,2.948387622833252,2.3814287185668945,3.149916172027588,7.250121116638184,1.496026635169983,0.32055509090423584,-0.5042611956596375,-0.45736968517303467,13.921876907348633,-35.23321533203125,10.621009826660156,-0.6105024814605713,-0.2020092010498047,-0.8542188405990601,3.760418653488159,7.452130317687988,2.350245475769043
2_20251106_213712,1762436197276,2,0.28890374302864075,0.3832072615623474,0.4821034073829651,0.732982337474823,1.3746029138565063,2.940208911895752,2.356765031814575,3.317502975463867,7.573324203491211,1.3595631122589111,0.32055509090423584,-0.5042611956596375,-0.45736968517303467,14.446403503417969,-34.950599670410156,10.836114883422852,-0.35433244705200195,0.0969552993774414,-0.7925460338592529,3.671835422515869,7.4763689041137695,2.152109146118164
2_20251106_213712,1762436197295,2,0.2928297221660614,0.3856445252895355,0.48350003361701965,0.7292165160179138,1.3639501333236694,2.9310574531555176,2.323639154434204,3.384537696838379,7.873783588409424,1.531938076019287,0.19288435578346252,-0.527474045753479,-0.38223332166671753,14.897010803222656,-34.68544006347656,11.061529159545898,-0.22983813285827637,0.3179316520690918,-0.4961369037628174,3.6143758296966553,7.555851936340332,2.0280749797821045
2_20251106_213712,1762436197313,2,0.2973312735557556,0.38865771889686584,0.48362207412719727,0.7257058620452881,1.354479432106018,2.9245493412017822,2.2946488857269287,3.4671339988708496,8.090450286865234,1.7569833993911743,0.07437659800052643,-0.6233797669410706,-0.33886194229125977,15.373373985290527,-34.41680908203125,11.098697662353516,-0.11779356002807617,0.42767906188964844,-0.21687328815460205,3.584927558898926,7.662771224975586,1.9738566875457764
2_20251106_213712,1762436197334,2,0.30242598056793213,0.39210042357444763,0.4832701086997986,0.7219735383987427,1.3438045978546143,2.918894052505493,2.2614541053771973,3.5317747592926025,8.127557754516602,1.6564313173294067,0.05421806126832962,-0.7461636662483215,-0.4182743430137634,15.812276840209961,-34.16338348388672,11.161163330078125,-0.04252219200134277,0.3718290328979492,-0.253940224647522,3.5742969512939453,7.755728721618652,1.9103715419769287
2_20251106_213712,1762436197352,2,0.30802425742149353,0.39541321992874146,0.4831305742263794,0.7178817987442017,1.3344475030899048,2.9150631427764893,2.2333950996398926,3.304335355758667,8.070099830627441,1.4924355745315552,0.05421806126832962,-0.7461636662483215,-0.4182743430137634,16.27573585510254,-33.919715881347656,11.102699279785156,-0.21596932411193848,0.2514967918395996,-0.33434879779815674,3.5203046798706055,7.818603038787842,1.826784372329712
2_20251106_213712,1762436197372,2,0.31499770283699036,0.39841100573539734,0.48294439911842346,0.7133090496063232,1.3226330280303955,2.9112088680267334,2.2023823261260986,2.8829739093780518,7.880965709686279,1.367942452430725,0.0242856927216053,-0.7504397034645081,-0.5392255783081055,16.763158798217773,-33.686614990234375,11.004404067993164,-0.5098648071289062,0.04989004135131836,-0.367073655128479,3.392838716506958,7.831075668334961,1.735016107559204
2_20251106_213712,1762436197390,2,0.32243970036506653,0.399982213973999,0.48284974694252014,0.7091565132141113,1.3226330280303955,2.9112088680267334,2.2023823261260986,2.8829739093780518,7.880965709686279,1.367942452430725,-0.201734259724617,-0.6221581101417542,-0.6552898287773132,17.24935531616211,-33.489967346191406,10.783670425415039,-0.5098648071289062,0.04989004135131836,-0.367073655128479,3.392838716506958,7.831075668334961,1.735016107559204
2_20251106_213712,1762436197410,2,0.3300561010837555,0.40049880743026733,0.48219817876815796,0.7057964205741882,1.2958648204803467,2.9042105674743652,2.1456117630004883,2.4197158813476562,7.751684665679932,1.1225473880767822,-0.2884770631790161,-0.5879496932029724,-0.5935925245285034,17.776229858398438,-33.22734832763672,10.484630584716797,-0.6390786170959473,-0.056939125061035156,-0.4193685054779053,3.0587944984436035,7.808623790740967,1.5419158935546875
2_20251106_213712,1762436197429,2,0.33741092681884766,0.40071362257003784,0.4808558523654938,0.703107476234436,1.2792158126831055,2.9006118774414062,2.1154346466064453,2.34430193901062,7.807945728302002,1.188385009765625,-0.3513960838317871,-0.6618643403053284,-0.5092931985855103,18.2276611328125,-33.01904296875,10.114009857177734,-0.5715939998626709,-0.0005421638488769531,-0.2828247547149658,2.915895938873291,7.808487892150879,1.4712097644805908
2_20251106_213712,1762436197449,2,0.34489673376083374,0.40169912576675415,0.4784424901008606,0.7005546689033508,1.2792158126831055,2.9006118774414062,2.1154346466064453,2.34430193901062,7.807945728302002,1.188385009765625,-0.4173694849014282,-0.7418875694274902,-0.41216570138931274,18.69459342956543,-32.75904083251953,9.67735481262207,-0.5715939998626709,-0.0005421638488769531,-0.2828247547149658,2.915895938873291,7.808487892150879,1.4712097644805908
2_20251106_213712,1762436197468,2,0.35232824087142944,0.40340176224708557,0.4749223291873932,0.6982697248458862,1.2591866254806519,2.8972368240356445,2.084096670150757,2.200655937194824,7.913286209106445,1.524755835533142,-0.4595191478729248,-0.7742633819580078,-0.31442734599113464,19.182880401611328,-32.547950744628906,9.267656326293945,-0.5721919536590576,0.08383846282958984,0.042836785316467285,2.772847890853882,7.8294477462768555,1.4819190502166748
2_20251106_213712,1762436197486,2,0.359413743019104,0.405525267124176,0.47058558464050293,0.6963621377944946,1.226214051246643,2.8950014114379883,2.0396740436553955,2.280858278274536,8.434002876281738,1.935343861579895,-0.48761892318725586,-0.8054174780845642,-0.2508974075317383,19.731760025024414,-32.368133544921875,8.616325378417969,-0.3045308589935303,0.43020057678222656,0.33271098136901855,2.5853891372680664,8.003802299499512,1.6026328802108765
2_20251106_213712,1762436197505,2,0.36627382040023804,0.4079832136631012,0.46568766236305237,0.6946424841880798,1.226214051246643,2.8950014114379883,2.0396740436553955,2.280858278274536,8.434002876281738,1.935343861579895,-0.5273251533508301,-0.804195761680603,-0.2447887659072876,20.256465911865234,-32.18963623046875,7.936981201171875,-0.3045308589935303,0.43020057678222656,0.33271098136901855,2.5853891372680664,8.003802299499512,1.6026328802108765
2_20251106_213712,1762436197524,2,0.3733643889427185,0.4103669226169586,0.46036291122436523,0.6930108070373535,1.189507246017456,2.8996927738189697,2.003417491912842,1.9540636539459229,8.775161743164062,2.6930761337280273,-0.5505380630493164,-0.7376115322113037,-0.28449496626853943,20.758718490600586,-31.975326538085938,7.284481048583984,-0.4458014965057373,0.5034379959106445,0.7568743228912354,2.39986515045166,8.271723747253418,1.936201810836792
2_20251106_213712,1762436197543,2,0.38052505254745483,0.4119724929332733,0.4552134871482849,0.6915634274482727,1.189507246017456,2.8996927738189697,2.003417491912842,1.9540636539459229,8.775161743164062,2.6930761337280273,-0.5163295865058899,-0.6258232593536377,-0.2820515036582947,21.234371185302734,-31.81201934814453,6.548847198486328,-0.4458014965057373,0.5034379959106445,0.7568743228912354,2.39986515045166,8.271723747253418,1.936201810836792
2_20251106_213712,1762436197563,2,0.3869887590408325,0.41281259059906006,0.450695276260376,0.6904340982437134,1.1677485704421997,2.904188871383667,1.9884788990020752,1.7373976707458496,8.625531196594238,2.586538791656494,-0.5163295865058899,-0.6258232593536377,-0.2820515036582947,21.670745849609375,-31.701194763183594,5.797168731689453,-0.5299739837646484,0.28304576873779297,0.5202696323394775,2.267371654510498,8.342485427856445,2.0662691593170166
2_20251106_213712,1762436197581,2,0.3923857808113098,0.41415587067604065,0.4466562569141388,0.689207136631012,1.12782621383667,2.9095401763916016,1.9646648168563843,1.3016717433929443,7.894133567810059,1.959284782409668,-0.41065001487731934,-0.5830627083778381,-0.0853530690073967,22.01103973388672,-31.571609497070312,5.042095184326172,-0.6630569696426392,-0.3285064697265625,-0.09145331382751465,1.9647287130355835,8.222640037536621,2.0507380962371826
2_20251106_213712,1762436197600,2,0.39710733294487,0.41606855392456055,0.4421461224555969,0.6882583498954773,1.12782621383667,2.9095401763916016,1.9646648168563843,1.3016717433929443,7.894133567810059,1.959284782409668,-0.5322120785713196,-0.4303465485572815,0.00016798917204141617,22.311748504638672,-31.506515502929688,4.216648101806641,-0.6630569696426392,-0.3285064697265625,-0.09145331382751465,1.9647287130355835,8.222640037536621,2.0507380962371826
2_20251106_213712,1762436197620,2,0.4010901153087616,0.4168274402618408,0.4371185898780823,0.6887009143829346,1.0792322158813477,2.9095752239227295,1.944037675857544,1.056276559829712,7.671482086181641,2.7230024337768555,-0.6372808218002319,-0.11880554258823395,0.04415024816989899,22.5792236328125,-31.38129425048828,3.4180831909179688,-0.5793026685714722,-0.36116886138916016,0.4980502128601074,1.635579228401184,8.0326509475708,2.224952220916748
2_20251106_213712,1762436197639,2,0.40399402379989624,0.4152616262435913,0.432356595993042,0.6909518241882324,1.05559241771698,2.908252239227295,1.936684250831604,1.3351891040802002,7.766048908233643,2.618859052658081,-0.7221910357475281,0.14875319600105286,0.09790634363889694,22.708847045898438,-31.316383361816406,2.74822998046875,-0.2403120994567871,-0.21328163146972656,0.3151254653930664,1.5755012035369873,7.979330539703369,2.3037335872650146
2_20251106_213712,1762436197660,2,0.405718058347702,0.4117262065410614,0.42782407999038696,0.6948675513267517,1.031381368637085,2.9067862033843994,1.9305729866027832,1.7577476501464844,7.9563798904418945,2.7840518951416016,-0.8553595542907715,0.10293834656476974,0.22802051901817322,22.788822174072266,-31.267478942871094,2.1031837463378906,0.14579713344573975,-0.018360137939453125,0.38425469398498535,1.6119505167007446,7.974740028381348,2.399797201156616
2_20251106_213712,1762436197678,2,0.4072378873825073,0.40857186913490295,0.42168810963630676,0.6995751857757568,1.0137441158294678,2.9069886207580566,1.9283055067062378,2.45562744140625,8.54173755645752,3.499887466430664,-0.9207220673561096,-0.23670245707035065,0.4296059012413025,22.788822174072266,-31.267478942871094,2.1031837463378906,0.6749415397644043,0.4535980224609375,0.8800721168518066,1.7806859016418457,8.088139533996582,2.6198153495788574
2_20251106_213712,1762436197696,2,0.4090099632740021,0.4082929193973541,0.4129101037979126,0.7039268612861633,1.000522494316101,2.910048723220825,1.9311717748641968,3.2157535552978516,9.252784729003906,4.658630847930908,-0.9207220673561096,-0.23670245707035065,0.4296059012413025,22.902238845825195,-31.266822814941406,1.4991016387939453,1.1480541229248047,0.9317159652709961,1.6310524940490723,2.067699432373047,8.32106876373291,3.027578353881836
2_20251106_213712,1762436197716,2,0.4105905294418335,0.41116008162498474,0.402860552072525,0.7071535587310791,0.9919341206550598,2.9171266555786133,1.9397379159927368,3.8334312438964844,9.586761474609375,4.85015869140625,-0.5389316082000732,-0.7315028309822083,0.6311912536621094,22.97677230834961,-31.318099975585938,0.8249111175537109,1.4125854969024658,1.0125541687011719,1.458064317703247,2.4208457469940186,8.574207305908203,3.392094373703003
2_20251106_213712,1762436197734,2,0.4112713932991028,0.41632139682769775,0.3936208188533783,0.7089393138885498,0.9895461797714233,2.9264822006225586,1.9488749504089355,4.43315315246582,9.915950775146484,4.12833833694458,-0.5389316082000732,-0.7315028309822083,0.6311912536621094,22.86640167236328,-31.418968200683594,0.14257240295410156,1.6098458766937256,1.073394775390625,0.5889952182769775,2.8233072757720947,8.84255599975586,3.5393431186676025
2_20251106_213712,1762436197754,2,0.41149407625198364,0.4225187599658966,0.38557103276252747,0.709567129611969,0.9942885041236877,2.940439462661743,1.959789752960205,5.212432384490967,10.185286521911621,3.957160472869873,-0.38926970958709717,-0.7785394787788391,0.45709478855133057,22.74020767211914,-31.59516143798828,-0.6229381561279297,1.9113001823425293,1.0741844177246094,0.33425378799438477,3.3011322021484375,9.111102104187012,3.6229066848754883
2_20251106_213712,1762436197773,2,0.41296878457069397,0.4282115697860718,0.3776601254940033,0.7095522880554199,1.0060718059539795,2.956859827041626,1.97184157371521,6.036002159118652,10.504898071289062,4.425206184387207,-0.38926970958709717,-0.7785394787788391,0.45709478855133057,22.64000701904297,-31.732772827148438,-1.3190956115722656,2.1878957748413086,1.115036964416504,0.6418395042419434,3.8481063842773438,9.389861106872559,3.7833666801452637
2_20251106_213712,1762436197791,2,0.41620534658432007,0.43249380588531494,0.3698042631149292,0.7092016935348511,1.0235233306884766,2.975966691970825,1.9868919849395752,6.628541469573975,11.147713661193848,5.4905805587768555,-0.601239800453186,-0.8426802754402161,-0.03648389130830765,22.463363647460938,-31.937660217285156,-2.0465469360351562,2.2243480682373047,1.4062824249267578,1.3657712936401367,4.40419340133667,9.74143123626709,4.124809265136719
2_20251106_213712,1762436197812,2,0.4219107925891876,0.4361239969730377,0.3620029389858246,0.7076305747032166,1.0517408847808838,3.0033693313598633,2.0113439559936523,7.0522966384887695,11.599000930786133,6.443431377410889,-0.601239800453186,-0.8426802754402161,-0.03648389130830765,22.33917236328125,-32.087928771972656,-2.892627716064453,2.1184825897216797,1.4860553741455078,1.8548979759216309,4.93381404876709,10.112945556640625,4.588533401489258
2_20251106_213712,1762436197832,2,0.4293312430381775,0.4390760660171509,0.3553464412689209,0.7047097086906433,1.0828378200531006,3.032825231552124,2.036933660507202,6.765005111694336,11.646883964538574,5.728793144226074,-0.3660568594932556,-0.8994906544685364,-0.699272096157074,22.194429397583008,-32.176597595214844,-3.7789182662963867,1.4649529457092285,1.2271509170532227,0.912208080291748,5.300052165985107,10.419733047485352,4.816585063934326
2_20251106_213712,1762436197850,2,0.43847668170928955,0.44146618247032166,0.3514215350151062,0.6995346546173096,1.1085370779037476,3.057849645614624,2.0572450160980225,5.567955493927002,10.983718872070312,4.65623664855957,-0.1754670888185501,-0.9312556385993958,-1.1476467847824097,22.014934539794922,-32.24199676513672,-4.720217704772949,0.21432256698608398,0.4511880874633789,-0.1282787322998047,5.353632926940918,10.532530784606934,4.784515380859375
2_20251106_213712,1762436197870,2,0.4499231278896332,0.44343072175979614,0.35049837827682495,0.6914399862289429,1.1332969665527344,3.0845115184783936,2.076026201248169,4.0500969886779785,10.102689743041992,3.4950990676879883,-0.2066211849451065,-0.8261869549751282,-1.481178879737854,21.967182159423828,-32.112037658691406,-5.558038711547852,-1.0428290367126465,-0.3438720703125,-1.0315332412719727,5.092926025390625,10.446561813354492,4.526632308959961
2_20251106_213712,1762436197888,2,0.46318766474723816,0.44331708550453186,0.3514048755168915,0.6822329163551331,1.1488898992538452,3.105285406112671,2.0875186920166016,2.631593704223633,9.247997283935547,2.5374598503112793,-0.3819393515586853,-0.6972944140434265,-1.5764738321304321,22.172100067138672,-31.814834594726562,-6.450465202331543,-1.9690656661987305,-0.9588508605957031,-1.5913381576538086,4.600659370422363,10.20684814453125,4.128798007965088
2_20251106_213712,1762436197906,2,0.47739771008491516,0.4411786198616028,0.35222652554512024,0.6733419299125671,1.1558936834335327,3.1206305027008057,2.093003273010254,1.7457770109176636,8.845787048339844,2.1556010246276855,-0.5352663993835449,-0.7473853230476379,-1.3993231058120728,22.522247314453125,-31.30811309814453,-7.319757461547852,-2.283905506134033,-1.0888490676879883,-1.5785574913024902,4.029682636260986,9.934636116027832,3.734158515930176
2_20251106_213712,1762436197926,2,0.49135622382164,0.43917417526245117,0.35111454129219055,0.6651418209075928,1.1557016372680664,3.1335365772247314,2.0962510108947754,1.3998297452926636,9.030134201049805,2.9133331775665283,-0.6055158376693726,-1.0063921213150024,-1.0437997579574585,22.88849639892578,-30.737274169921875,-8.241304397583008,-2.103882312774658,-0.7236013412475586,-0.6566603183746338,3.5037119388580322,9.753735542297363,3.569993495941162
2_20251106_213712,1762436197945,2,0.5044397711753845,0.4396686255931854,0.3466951847076416,0.6572932600975037,1.1492412090301514,3.1464953422546387,2.1013708114624023,1.441726565361023,9.77110767364502,4.185796737670898,-0.5419859290122986,-1.2214163541793823,-0.7450869679450989,23.39523696899414,-30.04454803466797,-9.168597221374512,-1.6495884656906128,0.013897895812988281,0.4926424026489258,3.0913150310516357,9.757209777832031,3.6931543350219727
2_20251106_213712,1762436197963,2,0.5160184502601624,0.44253915548324585,0.34030765295028687,0.64967280626297,1.1395376920700073,3.158682346343994,2.109004020690918,1.393844485282898,10.206832885742188,5.015351295471191,-0.36239171028137207,-1.267842173576355,-0.6296335458755493,23.881229400634766,-29.290496826171875,-10.109067916870117,-1.3579763174057007,0.3596982955932617,1.0577573776245117,2.7518208026885986,9.847134590148926,3.9575939178466797
2_20251106_213712,1762436197982,2,0.5261008143424988,0.446626752614975,0.33425047993659973,0.6418871283531189,1.1395376920700073,3.158682346343994,2.109004020690918,1.393844485282898,10.206832885742188,5.015351295471191,-0.21150809526443481,-1.2073665857315063,-0.616194486618042,24.42874526977539,-28.531661987304688,-11.128183364868164,-1.3579763174057007,0.3596982955932617,1.0577573776245117,2.7518208026885986,9.847134590148926,3.9575939178466797
2_20251106_213712,1762436198002,2,0.5352391004562378,0.45094501972198486,0.32923397421836853,0.633855402469635,1.1080355644226074,3.1867682933807373,2.1338038444519043,0.9892418384552002,10.332523345947266,5.264338493347168,-0.15225420892238617,-1.102908730506897,-0.6198596954345703,24.953903198242188,-27.73688507080078,-12.13397216796875,-1.1592698097229004,0.2972421646118164,0.8424453735351562,2.1485116481781006,10.03528118133545,4.421893119812012
2_20251106_213712,1762436198022,2,0.5438652634620667,0.45484840869903564,0.3250056207180023,0.6258553266525269,1.085413932800293,3.2023813724517822,2.151190757751465,0.8240490555763245,10.257108688354492,5.376860618591309,-0.15225420892238617,-1.102908730506897,-0.6198596954345703,25.40130615234375,-27.03436279296875,-13.185099601745605,-1.059570074081421,0.1774616241455078,0.7639741897583008,1.8836191892623901,10.079647064208984,4.612886428833008
2_20251106_213712,1762436198041,2,0.5520570874214172,0.45837265253067017,0.3211888372898102,0.6180333495140076,1.0642664432525635,3.2151191234588623,2.167409658432007,0.776167094707489,10.089522361755371,5.449880599975586,-0.12354357540607452,-1.0045593976974487,-0.5990902781486511,23.07993507385254,-21.50959014892578,-13.960060119628906,-0.8859617114067078,0.007900238037109375,0.6695952415466309,1.6621288061141968,10.081622123718262,4.780285358428955
2_20251106_213712,1762436198060,2,0.5595018863677979,0.46207287907600403,0.3179719150066376,0.6101968288421631,1.0406426191329956,3.2272441387176514,2.1853466033935547,0.7809552550315857,9.84532356262207,5.39002799987793,0.12141318619251251,-0.9453055262565613,-0.5373929738998413,23.190773010253906,-20.954757690429688,-14.959487915039062,-0.7049388289451599,-0.1890392303466797,0.4877939224243164,1.4858940839767456,10.03436279296875,4.902234077453613
2_20251106_213712,1762436198079,2,0.5660879015922546,0.4666230380535126,0.31539544463157654,0.6019411683082581,1.0152214765548706,3.238015651702881,2.203238010406494,0.8946749567985535,9.589155197143555,4.887267112731934,0.23747748136520386,-0.9300338625907898,-0.48424771428108215,23.25901985168457,-20.50330352783203,-15.90843391418457,-0.47297531366348267,-0.3561668395996094,-0.011973381042480469,1.3676502704620361,9.945322036743164,4.899240493774414
2_20251106_213712,1762436198098,2,0.5717663168907166,0.4718312621116638,0.3132220208644867,0.5935911536216736,0.9913884997367859,3.246316432952881,2.2187280654907227,1.0431090593338013,9.427553176879883,4.659828186035156,0.2545816898345947,-0.9459163546562195,-0.4549262225627899,23.276111602783203,-20.093101501464844,-16.819583892822266,-0.25963294506073,-0.414215087890625,-0.1915297508239746,1.3027420043945312,9.841768264770508,4.851357936859131
2_20251106_213712,1762436198117,2,0.5771640539169312,0.4773542881011963,0.3108413815498352,0.5851428508758545,0.9679428935050964,3.2530033588409424,2.2331316471099854,1.0095915794372559,9.404809951782227,4.737636566162109,0.2545816898345947,-0.9459163546562195,-0.4549262225627899,23.276111602783203,-20.093101501464844,-16.819583892822266,-0.23452043533325195,-0.3495664596557617,-0.09097719192504883,1.2441120147705078,9.754376411437988,4.828613758087158
2_20251106_213712,1762436198136,2,0.5829160809516907,0.48232564330101013,0.3085610270500183,0.5765075087547302,0.9443495869636536,3.2580223083496094,2.246795415878296,0.7629995346069336,9.268346786499023,4.821430206298828,0.18127791583538055,-0.8298521041870117,-0.6479594707489014,23.23036766052246,-19.712661743164062,-17.666133880615234,-0.38488996028900146,-0.3888235092163086,-0.0057468414306640625,1.147889494895935,9.657170295715332,4.827177047729492
2_20251106_213712,1762436198154,2,0.5892279148101807,0.486167311668396,0.3071207106113434,0.5675638318061829,0.9443495869636536,3.2580223083496094,2.246795415878296,0.7629995346069336,9.268346786499023,4.821430206298828,0.1684497594833374,-0.6704164147377014,-0.7518064975738525,23.170448303222656,-19.347328186035156,-18.337724685668945,-0.38488996028900146,-0.3888235092163086,-0.0057468414306640625,1.147889494895935,9.657170295715332,4.827177047729492
2_20251106_213712,1762436198174,2,0.5956138968467712,0.48865988850593567,0.30696940422058105,0.5587713122367859,0.8945630788803101,3.2619049549102783,2.2710258960723877,0.14771613478660583,8.783540725708008,4.571246147155762,0.17578013241291046,-0.5311391949653625,-0.757304310798645,23.09703254699707,-19.007766723632812,-19.02385139465332,-0.6895251274108887,-0.5970449447631836,-0.1896524429321289,0.8372412919998169,9.380585670471191,4.760898590087891
2_20251106_213712,1762436198193,2,0.6015452146530151,0.49037641286849976,0.30764392018318176,0.5504812002182007,0.8680497407913208,3.2606377601623535,2.2800590991973877,-0.02106781303882599,8.626728057861328,4.086441516876221,0.2093776911497116,-0.4547811448574066,-0.6723940372467041,23.000259399414062,-18.645217895507812,-19.6563663482666,-0.6866472959518433,-0.6030855178833008,-0.5395655632019043,0.6655794978141785,9.229813575744629,4.626007080078125
2_20251106_213712,1762436198213,2,0.606641411781311,0.4921126365661621,0.3084930181503296,0.5428106188774109,0.8407778739929199,3.2574377059936523,2.286447763442993,-0.09408782422542572,8.502235412597656,3.8266818523406982,0.23808835446834564,-0.48776787519454956,-0.5441124439239502,22.97379493713379,-18.31652069091797,-20.192115783691406,-0.6077339053153992,-0.5820627212524414,-0.6394603252410889,0.5136460661888123,9.084298133850098,4.466142177581787
2_20251106_213712,1762436198231,2,0.609955906867981,0.4940197467803955,0.30963075160980225,0.5366815328598022,0.8407778739929199,3.2574377059936523,2.286447763442993,-0.09408782422542572,8.502235412597656,3.8266818523406982,0.2191515415906906,-0.49937427043914795,-0.4463741183280945,22.934551239013672,-17.989425659179688,-20.647258758544922,-0.6077339053153992,-0.5820627212524414,-0.6394603252410889,0.5136460661888123,9.084298133850098,4.466142177581787
2_20251106_213712,1762436198250,2,0.6138976812362671,0.4967803955078125,0.30915969610214233,0.5298671126365662,0.7847318649291992,3.2487668991088867,2.293163537979126,-0.19942818582057953,8.947537422180176,3.8099234104156494,0.16111938655376434,-0.40163594484329224,-0.42255041003227234,22.918481826782227,-17.673973083496094,-21.034103393554688,-0.4554098844528198,-0.03485584259033203,-0.4155747890472412,0.2559817135334015,8.982393264770508,4.225498199462891
2_20251106_213712,1762436198271,2,0.6176782846450806,0.49876609444618225,0.3088354170322418,0.5237619280815125,0.7552238702774048,3.244224786758423,2.294290542602539,-0.218580961227417,8.896063804626465,3.7608442306518555,0.1586759239435196,-0.25136318802833557,-0.4463741183280945,22.86313247680664,-17.410995483398438,-21.43699073791504,-0.37965014576911926,-0.06906318664550781,-0.3717231750488281,0.16106918454170227,8.965126991271973,4.132567405700684
2_20251106_213712,1762436198290,2,0.6210691332817078,0.4998946785926819,0.309513121843338,0.5182470679283142,0.725698709487915,3.239441394805908,2.293055772781372,-0.32990655303001404,8.811073303222656,3.374197006225586,0.1837213784456253,-0.17561596632003784,-0.4182743430137634,22.85613250732422,-17.14537811279297,-21.783851623535156,-0.392780601978302,-0.12324237823486328,-0.6066961288452148,0.06287404149770737,8.93431568145752,3.980893135070801
2_20251106_213712,1762436198308,2,0.6239587664604187,0.5008887648582458,0.31058967113494873,0.5131471157073975,0.6991986632347107,3.2349746227264404,2.2906181812286377,-0.4472174048423767,8.781147956848145,3.419685125350952,0.15989764034748077,-0.18477894365787506,-0.30404263734817505,22.870698928833008,-16.916786193847656,-22.03590965270996,-0.40807315707206726,-0.12253475189208984,-0.44896650314331055,-0.03914424031972885,8.903682708740234,3.8686516284942627
2_20251106_213712,1762436198328,2,0.6264461278915405,0.5022111535072327,0.31090644001960754,0.5086122155189514,0.670455276966095,3.2304439544677734,2.2868876457214355,-0.2927980124950409,8.964296340942383,3.487916946411133,0.12996529042720795,-0.1670638769865036,-0.1665980964899063,22.922231674194336,-16.673660278320312,-22.245683670043945,-0.2029230147600174,0.04849052429199219,-0.30458784103393555,-0.0898749977350235,8.91580581665039,3.7925047874450684
2_20251106_213712,1762436198346,2,0.6282780766487122,0.5036040544509888,0.31059741973876953,0.5051523447036743,0.645748496055603,3.227057933807373,2.2828211784362793,-0.14316686987876892,9.113926887512207,3.43644380569458,0.1531781405210495,-0.1310228556394577,-0.07924442738294601,22.969139099121094,-16.50641632080078,-22.402976989746094,-0.04263349622488022,0.15849685668945312,-0.2848489284515381,-0.1005333736538887,8.955430030822754,3.721292734146118
2_20251106_213712,1762436198365,2,0.6294420957565308,0.5052254796028137,0.3101670444011688,0.5023407936096191,0.645748496055603,3.227057933807373,2.2828211784362793,-0.14316686987876892,9.113926887512207,3.43644380569458,0.18249966204166412,-0.0699363723397255,-0.023044871166348457,22.926118850708008,-16.420616149902344,-22.511220932006836,-0.04263349622488022,0.15849685668945312,-0.2848489284515381,-0.1005333736538887,8.955430030822754,3.721292734146118
2_20251106_213712,1762436198384,2,0.6299777626991272,0.5069172382354736,0.3099570572376251,0.5000895261764526,0.6188881993293762,3.2243258953094482,2.2768099308013916,0.05554334074258804,9.259967803955078,3.2724480628967285,0.18249966204166412,-0.0699363723397255,-0.023044871166348457,22.91855812072754,-16.34552764892578,-22.564193725585938,0.12486137449741364,0.24363040924072266,-0.35907578468322754,-0.06931803375482559,9.016337394714355,3.631523847579956
2_20251106_213712,1762436198403,2,0.6301561594009399,0.5087534189224243,0.309861421585083,0.4980553090572357,0.5966100692749023,3.2224817276000977,2.270460844039917,0.22552436590194702,9.200115203857422,3.200624942779541,0.20632337033748627,-0.03939313814043999,0.005054906941950321,22.911108016967773,-16.258689880371094,-22.535802841186523,0.23587392270565033,0.14702224731445312,-0.34471917152404785,-0.010349560528993607,9.053092956542969,3.545344114303589
2_20251106_213712,1762436198422,2,0.6299341917037964,0.5106881260871887,0.309914767742157,0.49631980061531067,0.5605380535125732,3.219538688659668,2.2545580863952637,0.552318811416626,9.05527114868164,2.7349729537963867,0.23136882483959198,-0.00884990207850933,0.03437641263008118,22.935380935668945,-16.257240295410156,-22.521305084228516,0.3892199993133545,-0.008948326110839844,-0.5456428527832031,0.16309881210327148,9.06421947479248,3.28061580657959
2_20251106_213712,1762436198443,2,0.6294597387313843,0.5125206708908081,0.3100132644176483,0.49496951699256897,0.5450692772865295,3.2186107635498047,2.245022773742676,0.7234969139099121,9.255178451538086,2.951638698577881,0.15989765524864197,0.0436844639480114,0.07225003093481064,22.96007537841797,-16.232017517089844,-22.371118545532227,0.4483184814453125,0.15276718139648438,-0.2631816864013672,0.2751784324645996,9.102411270141602,3.214820384979248
2_20251106_213712,1762436198460,2,0.6291399598121643,0.5139626264572144,0.3098578155040741,0.4939771890640259,0.5317254662513733,3.2184176445007324,2.2369697093963623,0.7677876949310303,9.353337287902832,3.581286907196045,0.18677569925785065,0.032078031450510025,0.07591521739959717,22.9611759185791,-16.21892547607422,-22.42491912841797,0.39408743381500244,0.20074081420898438,0.29317331314086914,0.37370026111602783,9.152596473693848,3.288113594055176
2_20251106_213712,1762436198479,2,0.6286423802375793,0.5155720710754395,0.30976536870002747,0.49299049377441406,0.5205438733100891,3.2187225818634033,2.2293715476989746,0.9186159372329712,9.33059310913086,3.3071625232696533,0.3810306787490845,-0.009460767731070518,0.11195623129606247,22.932178497314453,-16.29639434814453,-22.3734188079834,0.43593254685401917,0.1423969268798828,0.01523900032043457,0.482683390378952,9.188196182250977,3.2919235229492188
2_20251106_213712,1762436198499,2,0.6272664070129395,0.5185771584510803,0.31002169847488403,0.4914276599884033,0.5205438733100891,3.2187225818634033,2.2293715476989746,0.9186159372329712,9.33059310913086,3.3071625232696533,0.5490184426307678,-0.17928116023540497,0.17915134131908417,22.849319458007812,-16.453598022460938,-22.20381736755371,0.43593254685401917,0.1423969268798828,0.01523900032043457,0.482683390378952,9.188196182250977,3.2919235229492188
2_20251106_213712,1762436198520,2,0.6251285076141357,0.5235702991485596,0.30976736545562744,0.4890119731426239,0.503542423248291,3.2206993103027344,2.2056844234466553,1.1292966604232788,9.451494216918945,2.102930784225464,0.5025927424430847,-0.333219051361084,0.2439029961824417,22.81287956237793,-16.657180786132812,-22.10089111328125,0.4232173562049866,0.19494152069091797,-0.8161153793334961,0.7060793042182922,9.256552696228027,2.91904616355896
2_20251106_213712,1762436198539,2,0.6232190132141113,0.529289722442627,0.3081168234348297,0.48632752895355225,0.503542423248291,3.2206993103027344,2.2056844234466553,1.1292966604232788,9.451494216918945,2.102930784225464,0.3431570529937744,-0.24281109869480133,0.2597855031490326,22.81287956237793,-16.657180786132812,-22.10089111328125,0.4232173562049866,0.19494152069091797,-0.8161153793334961,0.7060793042182922,9.256552696228027,2.91904616355896
2_20251106_213712,1762436198557,2,0.6217902898788452,0.5337623357772827,0.3061106204986572,0.48453158140182495,0.4962073862552643,3.226726770401001,2.1786715984344482,1.6500130891799927,9.858491897583008,2.0287137031555176,0.20143646001815796,-0.04428005591034889,0.17854046821594238,22.725481033325195,-16.90174102783203,-21.987201690673828,0.6610013842582703,0.39654064178466797,-0.5914554595947266,0.9890117049217224,9.46195125579834,2.620169162750244
2_20251106_213712,1762436198575,2,0.6208311915397644,0.5362114310264587,0.30504485964775085,0.48372888565063477,0.4957769513130188,3.231257438659668,2.162780523300171,1.7589445114135742,9.817792892456055,1.960481882095337,0.20143646001815796,-0.04428005591034889,0.17854046821594238,22.63898468017578,-17.13347625732422,-21.90028190612793,0.6159462928771973,0.28467369079589844,-0.52774977684021,1.142998218536377,9.533119201660156,2.488231658935547
2_20251106_213712,1762436198595,2,0.6206122040748596,0.5371159315109253,0.30514290928840637,0.48294389247894287,0.4970588684082031,3.235980272293091,2.145383358001709,1.706274390220642,9.596338272094727,1.992802381515503,0.065824493765831,0.1463097333908081,-0.1262810230255127,22.56850814819336,-17.28961944580078,-21.75722312927246,0.4506208896636963,0.05057525634765625,-0.396343469619751,1.2556535005569458,9.54576301574707,2.389145851135254
2_20251106_213712,1762436198613,2,0.6210664510726929,0.5370321273803711,0.3061382472515106,0.4818218946456909,0.4970588684082031,3.235980272293091,2.145383358001709,1.706274390220642,9.596338272094727,1.992802381515503,0.07987438142299652,0.1261511892080307,-0.16965241730213165,22.52944564819336,-17.54315948486328,-21.68238639831543,0.4506208896636963,0.05057525634765625,-0.396343469619751,1.2556535005569458,9.54576301574707,2.389145851135254
2_20251106_213712,1762436198633,2,0.6216785907745361,0.5369628071784973,0.307327002286911,0.48035067319869995,0.4989543557167053,3.242279291152954,2.1096560955047607,1.0478973388671875,9.285104751586914,1.676781177520752,0.03772471845149994,0.1053818091750145,-0.07741183042526245,22.467039108276367,-17.762100219726562,-21.45905876159668,-0.17318475246429443,-0.16528892517089844,-0.4647238254547119,1.221082091331482,9.450393676757812,2.141505002975464
2_20251106_213712,1762436198652,2,0.6215059757232666,0.5365896821022034,0.30852267146110535,0.48022451996803284,0.4996747076511383,3.2450296878814697,2.091719627380371,1.2693514823913574,9.490997314453125,1.9137969017028809,-0.048407211899757385,0.06995165348052979,0.05209149420261383,22.370485305786133,-17.945350646972656,-21.276958465576172,0.03861546516418457,0.03248310089111328,-0.18216657638549805,1.2307360172271729,9.458514213562012,2.095963478088379
2_20251106_213712,1762436198672,2,0.6220067143440247,0.5366855263710022,0.3077099025249481,0.47999051213264465,0.5013821721076965,3.248723268508911,2.07395339012146,1.5554461479187012,9.768712997436523,2.152009963989258,-0.035579051822423935,0.014362957328557968,0.1205083355307579,22.36595916748047,-18.021095275878906,-21.237993240356445,0.25976812839508057,0.24815940856933594,0.044837236404418945,1.2956780195236206,9.520553588867188,2.107172727584839
2_20251106_213712,1762436198691,2,0.6222388744354248,0.5372617840766907,0.3062930703163147,0.4799512028694153,0.5035937428474426,3.2527899742126465,2.0593247413635254,1.6009340286254883,9.889615058898926,2.335158348083496,-0.005035814829170704,-0.013736819848418236,0.08141300082206726,22.399822235107422,-18.045578002929688,-21.061338424682617,0.24420475959777832,0.29524898529052734,0.1823885440826416,1.35672926902771,9.594366073608398,2.1527698040008545
2_20251106_213712,1762436198709,2,0.6225619316101074,0.5380185842514038,0.3050072491168976,0.4795030653476715,0.5062482357025146,3.2575433254241943,2.0454678535461426,1.5159436464309692,9.840536117553711,2.448878288269043,-0.017253108322620392,0.01680641435086727,-0.004108063876628876,22.485532760620117,-18.027862548828125,-21.017093658447266,0.12737154960632324,0.19693660736083984,0.23688673973083496,1.388572096824646,9.643599510192871,2.211991548538208
2_20251106_213712,1762436198729,2,0.6231881976127625,0.5382407903671265,0.3043532967567444,0.47885531187057495,0.5089515447616577,3.2625787258148193,2.0322911739349365,1.4046179056167603,9.736392974853516,2.4357106685638428,-0.017253108322620392,0.01680641435086727,-0.004108063876628876,22.522796630859375,-18.012924194335938,-21.015357971191406,0.012836575508117676,0.0742349624633789,0.17897534370422363,1.3917813301086426,9.662158012390137,2.256735324859619
2_20251106_213712,1762436198748,2,0.6239396333694458,0.5380607843399048,0.3043457567691803,0.4780832529067993,0.511019229888916,3.2668769359588623,2.0204763412475586,1.2561838626861572,9.572397232055664,2.2848823070526123,-0.0038140853866934776,0.10171661525964737,-0.0749683752655983,22.548084259033203,-17.986892700195312,-20.94626808166504,-0.10847806930541992,-0.0718088150024414,0.02251744270324707,1.3646619319915771,9.644206047058105,2.2623648643493652
2_20251106_213712,1762436198767,2,0.6246660947799683,0.5377749800682068,0.30456191301345825,0.4773178994655609,0.512157142162323,3.2705628871917725,2.009235143661499,1.0634589195251465,9.49937629699707,2.256153106689453,-0.042298562824726105,0.09011019021272659,-0.043203406035900116,22.536306381225586,-17.97553253173828,-20.90594482421875,-0.24096238613128662,-0.11586380004882812,-0.004969358444213867,1.304421305656433,9.615240097045898,2.261122465133667
2_20251106_213712,1762436198786,2,0.6254276633262634,0.5373839735984802,0.30445387959480286,0.4768296778202057,0.5127840042114258,3.2739076614379883,1.9988774061203003,1.1388729810714722,9.558032989501953,2.3782520294189453,-0.042298562824726105,0.09011019021272659,-0.043203406035900116,22.548307418823242,-17.963394165039062,-20.783544540405273,-0.13243865966796875,-0.04576587677001953,0.0937037467956543,1.271311640739441,9.603798866271973,2.284548282623291
2_20251106_213712,1762436198805,2,0.626178503036499,0.5369294881820679,0.303938627243042,0.47668492794036865,0.513443112373352,3.2774062156677246,1.9898595809936523,1.2944895029067993,9.720830917358398,2.5841445922851562,-0.07772871851921082,0.08644499629735947,0.005665771663188934,22.564117431640625,-17.899681091308594,-20.795249938964844,0.01854228973388672,0.09362602233886719,0.23967695236206055,1.2759472131729126,9.627204895019531,2.3444676399230957
2_20251106_213712,1762436198824,2,0.6267008781433105,0.5365236401557922,0.303295761346817,0.47686484456062317,0.5145329236984253,3.2811598777770996,1.982236385345459,1.4776378870010376,9.872856140136719,2.5446419715881348,-0.0477963462471962,0.05590175837278366,0.06003273278474808,22.564327239990234,-17.887794494628906,-20.727405548095703,0.1613525152206421,0.19652080535888672,0.1601395606994629,1.3162853717803955,9.676335334777832,2.384502410888672
2_20251106_213712,1762436198842,2,0.6271382570266724,0.5365133881568909,0.3024166226387024,0.4768597185611725,0.5161243081092834,3.2853646278381348,1.9746636152267456,1.4979878664016724,9.836944580078125,2.4105725288391113,-0.0477963462471962,0.05590175837278366,0.06003273278474808,22.575807571411133,-17.899559020996094,-20.7271785736084,0.1453620195388794,0.12848758697509766,0.020856142044067383,1.352625846862793,9.708456993103027,2.389716386795044
2_20251106_213712,1762436198862,2,0.6273282170295715,0.5371344089508057,0.3014586865901947,0.4765171706676483,0.518405020236969,3.2902109622955322,1.9671177864074707,1.5793871879577637,9.919541358947754,2.39860200881958,0.04016817361116409,-0.02839757315814495,0.06736311316490173,22.597978591918945,-17.924163818359375,-20.618595123291016,0.18140900135040283,0.1688680648803711,0.007108449935913086,1.3979781866073608,9.750673294067383,2.391493558883667
2_20251106_213712,1762436198881,2,0.627419650554657,0.5380589962005615,0.3005014955997467,0.47595787048339844,0.521388053894043,3.295445442199707,1.9605176448822021,1.7350035905838013,10.064384460449219,2.4680309295654297,0.013900991529226303,-0.03633881360292435,0.05270235985517502,22.596384048461914,-17.93793487548828,-20.49721336364746,0.26962029933929443,0.25096893310546875,0.06122994422912598,1.4653832912445068,9.81341552734375,2.4068009853363037
2_20251106_213712,1762436198900,2,0.6277087330818176,0.5388178825378418,0.2994635999202728,0.4753720164299011,0.5250568985939026,3.3011233806610107,1.9544122219085693,1.769718050956726,10.070369720458984,2.4668338298797607,0.013900991529226303,-0.03633881360292435,0.05270235985517502,22.595691680908203,-17.938880920410156,-20.402599334716797,0.2434678077697754,0.20556354522705078,0.048026323318481445,1.5262502431869507,9.864806175231934,2.4188075065612793
2_20251106_213712,1762436198919,2,0.6281831860542297,0.539492130279541,0.2988223731517792,0.47438308596611023,0.5286683440208435,3.3066608905792236,1.9485697746276855,1.5722049474716187,9.917146682739258,2.403390407562256,0.04444422945380211,-0.00884990207850933,-0.10428988188505173,22.569515228271484,-17.96612548828125,-20.35004234313965,0.036763787269592285,0.04187202453613281,-0.01233363151550293,1.5354411602020264,9.875274658203125,2.415724039077759
2_20251106_213712,1762436198939,2,0.6288792490959167,0.5398359298706055,0.2989204525947571,0.4730059802532196,0.5320312976837158,3.3121984004974365,1.9429700374603271,1.4536969661712646,9.875250816345215,2.49556303024292,0.04444422945380211,-0.00884990207850933,-0.10428988188505173,22.569515228271484,-17.96612548828125,-20.35004234313965,-0.06539535522460938,-1.9073486328125e-05,0.06387114524841309,1.519092321395874,9.875269889831543,2.431691884994507
2_20251106_213712,1762436198959,2,0.6297276020050049,0.5397805571556091,0.29928484559059143,0.471708208322525,0.5348114371299744,3.3170809745788574,1.9387779235839844,1.4261648654937744,9.833353996276855,2.745746374130249,0.023674827069044113,0.0332997627556324,-0.17637193202972412,22.642024993896484,-17.973777770996094,-20.36087989807129,-0.07434201240539551,-0.03353309631347656,0.25124359130859375,1.50050687789917,9.866887092590332,2.4945027828216553
2_20251106_213712,1762436198977,2,0.630744218826294,0.53959721326828,0.2997736930847168,0.4702470600605011,0.537209153175354,3.322251319885254,1.9355899095535278,1.4118001461029053,10.060792922973633,2.7840518951416016,0.10858501493930817,0.010086903348565102,-0.17087414860725403,22.642024993896484,-17.973777770996094,-20.36087989807129,-0.07096529006958008,0.15512466430664062,0.23163938522338867,1.4827654361724854,9.905668258666992,2.552412509918213
2_20251106_213712,1762436198996,2,0.6313941478729248,0.5396233797073364,0.3005078434944153,0.4688742160797119,0.5392266511917114,3.3282291889190674,1.9327402114868164,1.3878593444824219,10.294218063354492,2.617661952972412,0.17578013241291046,0.008865173906087875,-0.17576107382774353,22.652999877929688,-17.997825622558594,-20.387950897216797,-0.07592487335205078,0.3108396530151367,0.052199602127075195,1.4637842178344727,9.983378410339355,2.565462350845337
2_20251106_213712,1762436199016,2,0.631764829158783,0.54004967212677,0.3015332818031311,0.4672228693962097,0.540655791759491,3.3344852924346924,1.9299331903457642,1.2861101627349854,10.193665504455566,2.529080390930176,0.17578013241291046,0.008865173906087875,-0.17576107382774353,22.690460205078125,-17.98261260986328,-20.41324806213379,-0.14213931560516357,0.1682291030883789,-0.029105424880981445,1.428249478340149,10.025436401367188,2.5581858158111572
2_20251106_213712,1762436199034,2,0.6319100856781006,0.5408245921134949,0.30277615785598755,0.46532246470451355,0.5414363145828247,3.3403513431549072,1.9265003204345703,1.2178783416748047,9.99734878540039,2.278897285461426,0.22281672060489655,0.01986073888838291,-0.1513264775276184,22.727327346801758,-17.96820831298828,-20.357446670532227,-0.1682969331741333,-0.022470474243164062,-0.22343063354492188,1.386175274848938,10.019819259643555,2.5023279190063477
2_20251106_213712,1762436199053,2,0.6318104267120361,0.5417686700820923,0.3041166663169861,0.46348175406455994,0.5417850017547607,3.3452811241149902,1.9218772649765015,1.243016242980957,9.78547191619873,2.005969762802124,0.22281672060489655,0.01986073888838291,-0.1513264775276184,22.813037872314453,-17.95049285888672,-20.313201904296875,-0.11452722549438477,-0.18747806549072266,-0.39708638191223145,1.3575434684753418,9.972949981689453,2.4030561447143555
2_20251106_213712,1762436199071,2,0.6315686702728271,0.5432485342025757,0.30517148971557617,0.4613809585571289,0.5416900515556335,3.3491265773773193,1.9163438081741333,1.1915432214736938,9.73280143737793,1.8455650806427002,0.21915152668952942,-0.056497346609830856,-0.10795506089925766,22.93771743774414,-17.892318725585938,-20.307241439819336,-0.13280022144317627,-0.19211864471435547,-0.44599294662475586,1.3243434429168701,9.924920082092285,2.291558027267456
2_20251106_213712,1762436199092,2,0.6309251189231873,0.5448437333106995,0.3062894344329834,0.4596363604068756,0.5416900515556335,3.3491265773773193,1.9163438081741333,1.1915432214736938,9.73280143737793,1.8455650806427002,0.1379065364599228,-0.011293359100818634,-0.11650718003511429,23.088092803955078,-17.79596710205078,-20.191377639770508,-0.13280022144317627,-0.19211864471435547,-0.44599294662475586,1.3243434429168701,9.924920082092285,2.291558027267456
2_20251106_213712,1762436199110,2,0.6310201287269592,0.5461596250534058,0.30687883496284485,0.4575464129447937,0.5394800305366516,3.3547170162200928,1.9017155170440674,1.0167739391326904,9.593944549560547,1.800077199935913,0.1379065364599228,-0.011293359100818634,-0.11650718003511429,23.1208438873291,-17.84516143798828,-20.05579948425293,-0.2098684310913086,-0.2263803482055664,-0.3283376693725586,1.226642370223999,9.820324897766113,2.1284148693084717
2_20251106_213712,1762436199130,2,0.6315529942512512,0.5461702942848206,0.3077162504196167,0.45623403787612915,0.5373413562774658,3.3559930324554443,1.8940958976745605,0.9892418384552002,9.501771926879883,2.0897631645202637,-0.03802251070737839,0.10232748091220856,-0.14888301491737366,23.233152389526367,-17.776443481445312,-19.92841911315918,-0.18992042541503906,-0.25484180450439453,-0.030921459197998047,1.1791622638702393,9.756613731384277,2.1206846237182617
2_20251106_213712,1762436199150,2,0.6324256658554077,0.5457713007926941,0.30850133299827576,0.4549707770347595,0.5345721244812012,3.356201410293579,1.8873928785324097,0.9365717172622681,9.42635726928711,2.2968528270721436,-0.019696567207574844,0.09866229444742203,-0.120783232152462,23.346067428588867,-17.695297241210938,-19.787260055541992,-0.19407236576080322,-0.2642049789428711,0.14093446731567383,1.1306440830230713,9.69056224822998,2.1559183597564697
2_20251106_213712,1762436199168,2,0.6331518888473511,0.5451186299324036,0.3092181980609894,0.4542559087276459,0.5315172672271729,3.355578660964966,1.8816639184951782,0.8515812158584595,9.365306854248047,2.1567978858947754,0.04077903926372528,0.08766672760248184,-0.07069232314825058,23.430889129638672,-17.678794860839844,-19.621366500854492,-0.22325026988983154,-0.2602043151855469,0.0007035732269287109,1.074831485748291,9.625511169433594,2.1560943126678467
2_20251106_213712,1762436199187,2,0.6335042119026184,0.5447059869766235,0.30985113978385925,0.45382818579673767,0.5281895399093628,3.354647397994995,1.8759210109710693,0.9784684181213379,9.513741493225098,2.1567981243133545,0.04077903926372528,0.08766672760248184,-0.07069232314825058,23.533620834350586,-17.572525024414062,-19.561267852783203,-0.07709050178527832,-0.0894155502319336,0.0005631446838378906,1.0555589199066162,9.603157043457031,2.1562349796295166
2_20251106_213712,1762436199205,2,0.6336711049079895,0.5448414087295532,0.30988967418670654,0.4534061551094055,0.5251668691635132,3.3538308143615723,1.8711575269699097,1.0443060398101807,9.611900329589844,2.320793867111206,0.035281259566545486,0.000923932995647192,0.0539240837097168,23.606651306152344,-17.55628204345703,-19.44993019104004,-0.009002327919006348,0.0069942474365234375,0.13164710998535156,1.053308367729187,9.60490608215332,2.1891467571258545
2_20251106_213712,1762436199225,2,0.6336745619773865,0.5453663468360901,0.3093253970146179,0.453155517578125,0.5251668691635132,3.3538308143615723,1.8711575269699097,1.0443060398101807,9.611900329589844,2.320793867111206,0.06826795637607574,0.027801979333162308,0.06247618794441223,23.62992286682129,-17.567787170410156,-19.3951473236084,-0.009002327919006348,0.0069942474365234375,0.13164710998535156,1.053308367729187,9.60490608215332,2.1891467571258545
2_20251106_213712,1762436199245,2,0.6333548426628113,0.5457723736763,0.3090348541736603,0.4533118009567261,0.5191459059715271,3.3514652252197266,1.8608769178390503,1.03113853931427,9.370095252990723,1.888658881187439,0.07743091881275177,0.06017781049013138,0.03926333039999008,23.650375366210938,-17.62952423095703,-19.341421127319336,-0.024914264678955078,-0.1851367950439453,-0.24804675579071045,1.056052803993225,9.555232048034668,2.1367056369781494
2_20251106_213712,1762436199263,2,0.6329671144485474,0.5461822152137756,0.3090093731880188,0.4533771276473999,0.516829252243042,3.349989891052246,1.8560125827789307,1.094582200050354,9.437129974365234,1.9341468811035156,0.03833558037877083,0.0846124067902565,0.028267765417695045,23.787240982055664,-17.570556640625,-19.334970474243164,0.030823469161987305,-0.0944814682006836,-0.1620469093322754,1.0637587308883667,9.531611442565918,2.096193790435791
2_20251106_213712,1762436199283,2,0.6326406598091125,0.5465823411941528,0.3091374635696411,0.4532632827758789,0.5149632692337036,3.3488833904266357,1.850782036781311,1.3016717433929443,9.710058212280273,2.163980484008789,0.03833558037877083,0.0846124067902565,0.028267765417695045,23.83116340637207,-17.643531799316406,-19.253496170043945,0.1903303861618042,0.14275741577148438,0.0542292594909668,1.1113413572311401,9.567300796508789,2.1097512245178223
2_20251106_213712,1762436199301,2,0.6324852705001831,0.5465537309646606,0.30920082330703735,0.453471302986145,0.5142908096313477,3.3492681980133057,1.8472480773925781,1.4800320863723755,10.071565628051758,2.542248010635376,0.007792344316840172,0.1664682775735855,-0.018157953396439552,23.878398895263672,-17.665603637695312,-19.23854637145996,0.2949526309967041,0.403411865234375,0.34599757194519043,1.1850794553756714,9.668153762817383,2.1962504386901855
2_20251106_213712,1762436199320,2,0.6321112513542175,0.546085774898529,0.3097628057003021,0.4541725814342499,0.5146286487579346,3.351515769958496,1.8453950881958008,1.5410816669464111,10.354070663452148,2.74454927444458,0.007792344316840172,0.1664682775735855,-0.018157953396439552,23.854040145874023,-17.65557861328125,-19.144649505615234,0.2848018407821655,0.5487337112426758,0.43863916397094727,1.2562798261642456,9.805336952209473,2.305910110473633
2_20251106_213712,1762436199339,2,0.6317259669303894,0.545098602771759,0.31108272075653076,0.4549916386604309,0.5153303146362305,3.3548214435577393,1.8441354036331177,1.3950414657592773,10.231971740722656,2.4883806705474854,0.11896972358226776,0.2898629307746887,-0.1977521926164627,23.885578155517578,-17.7296142578125,-19.036630630493164,0.11100935935974121,0.3413076400756836,0.14597654342651367,1.2840321063995361,9.890664100646973,2.3424041271209717
2_20251106_213712,1762436199359,2,0.6311917901039124,0.5437368154525757,0.3135353624820709,0.4556783139705658,0.5156198143959045,3.3582913875579834,1.8413180112838745,1.148449420928955,9.944679260253906,1.8300033807754517,0.158065065741539,0.28253257274627686,-0.25822776556015015,23.95990753173828,-17.70000457763672,-19.006128311157227,-0.10846614837646484,0.043211936950683594,-0.4099205732345581,1.25691556930542,9.901467323303223,2.2399239540100098
2_20251106_213712,1762436199379,2,0.63072270154953,0.5427159667015076,0.3165231943130493,0.4554792046546936,0.5156198143959045,3.3582913875579834,1.8413180112838745,1.148449420928955,9.944679260253906,1.8300033807754517,0.158065065741539,0.28253257274627686,-0.25822776556015015,23.95990753173828,-17.70000457763672,-19.006128311157227,-0.10846614837646484,0.043211936950683594,-0.4099205732345581,1.25691556930542,9.901467323303223,2.2399239540100098
2_20251106_213712,1762436199397,2,0.6305105090141296,0.5424097180366516,0.3191104531288147,0.45433107018470764,0.5135685205459595,3.3630521297454834,1.830495834350586,0.8671428561210632,9.720830917358398,1.3787158727645874,0.049331147223711014,0.20006583631038666,-0.1818697154521942,24.079383850097656,-17.7069091796875,-18.771711349487305,-0.2620953917503357,-0.11637306213378906,-0.5735819339752197,1.129238247871399,9.837203979492188,1.9522978067398071
2_20251106_213712,1762436199415,2,0.6303939819335938,0.5422646403312683,0.32117125391960144,0.4532124102115631,0.5117112994194031,3.3649723529815674,1.8239803314208984,0.9054483771324158,9.845324516296387,1.5917906761169434,-0.0025923559442162514,0.10660353302955627,-0.10367901623249054,24.193721771240234,-17.589035034179688,-18.535144805908203,-0.17903190851211548,0.006496429443359375,-0.2884056568145752,1.0844802856445312,9.838828086853027,1.8801963329315186
2_20251106_213712,1762436199435,2,0.6304712295532227,0.542580783367157,0.3221219778060913,0.45205041766166687,0.5092357993125916,3.3671317100524902,1.8172451257705688,0.9150247573852539,9.88243293762207,1.926964521408081,-0.011144462041556835,0.011308632791042328,-0.04014907777309418,24.29475975036621,-17.496665954589844,-18.340145111083984,-0.13556444644927979,0.03488349914550781,0.03741455078125,1.0505892038345337,9.847549438476562,1.889549970626831
2_20251106_213712,1762436199454,2,0.6307327747344971,0.5432355999946594,0.3219916820526123,0.45099076628685,0.5064917802810669,3.3689332008361816,1.8116830587387085,0.8647487163543701,9.793851852416992,2.0777926445007324,0.055439792573451996,-0.014347685500979424,-0.01632535830140114,24.387123107910156,-17.353919982910156,-18.239194869995117,-0.14867234230041504,-0.04295825958251953,0.15059423446655273,1.0134210586547852,9.836810111999512,1.9271984100341797
2_20251106_213712,1762436199473,2,0.6307405233383179,0.5439749956130981,0.32184281945228577,0.45019423961639404,0.5032241344451904,3.370112895965576,1.8063130378723145,0.7725759148597717,9.643022537231445,1.895841121673584,0.08781562745571136,0.012530362233519554,-0.023044869303703308,24.521604537963867,-17.30980682373047,-18.003231048583984,-0.1926761269569397,-0.1550302505493164,-0.025085926055908203,0.9652520418167114,9.798052787780762,1.9209270477294922
2_20251106_213712,1762436199492,2,0.6305783987045288,0.5444490909576416,0.3221079409122467,0.44965827465057373,0.5032241344451904,3.370112895965576,1.8063130378723145,0.7725759148597717,9.643022537231445,1.895841121673584,0.035281259566545486,0.04673878848552704,-0.02548833005130291,24.728878021240234,-17.28455352783203,-17.913532257080078,-0.1926761269569397,-0.1550302505493164,-0.025085926055908203,0.9652520418167114,9.798052787780762,1.9209270477294922
2_20251106_213712,1762436199511,2,0.6303699016571045,0.5444568395614624,0.32271796464920044,0.44950371980667114,0.4956532418727875,3.3709914684295654,1.7960854768753052,0.8025021553039551,9.59514045715332,1.9078116416931152,0.035281259566545486,0.04673878848552704,-0.02548833005130291,24.82879066467285,-17.22850799560547,-17.854488372802734,-0.0957326889038086,-0.13714218139648438,-0.0032224655151367188,0.8982348442077637,9.732282638549805,1.911034107208252
2_20251106_213712,1762436199530,2,0.6305482387542725,0.5442391633987427,0.32289618253707886,0.44938924908638,0.4918699860572815,3.3708817958831787,1.7914985418319702,0.8527781963348389,9.627461433410645,1.9640729427337646,-0.016031380742788315,0.05529089272022247,0.02948949486017227,24.854894638061523,-17.178176879882812,-17.703771591186523,-0.0363653302192688,-0.08385658264160156,0.04243111610412598,0.8891435265541077,9.711318016052246,1.9216418266296387
2_20251106_213712,1762436199549,2,0.6306069493293762,0.5442729592323303,0.3226688802242279,0.44942915439605713,0.4918699860572815,3.3708817958831787,1.7914985418319702,0.8527781963348389,9.627461433410645,1.9640729427337646,-0.015420515090227127,0.00031306827440857887,0.06980656832456589,24.857009887695312,-17.1405029296875,-17.702980041503906,-0.0363653302192688,-0.08385658264160156,0.04243111610412598,0.8891435265541077,9.711318016052246,1.9216418266296387
2_20251106_213712,1762436199569,2,0.6306184530258179,0.5445989966392517,0.32190603017807007,0.4495651423931122,0.48521730303764343,3.3708510398864746,1.785201072692871,1.008394718170166,9.871659278869629,2.433316469192505,-0.008701003156602383,-0.03756054490804672,0.07041743397712708,24.90595245361328,-17.137054443359375,-17.728050231933594,0.09317523241043091,0.1351785659790039,0.3797588348388672,0.9152194857597351,9.736480712890625,2.0535576343536377
2_20251106_213712,1762436199588,2,0.6307186484336853,0.5449473261833191,0.32092025876045227,0.4497072696685791,0.48211410641670227,3.3713674545288086,1.7837021350860596,0.9054484367370605,9.833353042602539,2.3495230674743652,0.0346703939139843,-0.018012873828411102,0.027656901627779007,24.915319442749023,-17.186485290527344,-17.72861671447754,-0.007816791534423828,0.07749748229980469,0.2367722988128662,0.9132652282714844,9.755855560302734,2.112750768661499
2_20251106_213712,1762436199607,2,0.6307268738746643,0.5449536442756653,0.32040953636169434,0.45005208253860474,0.47915080189704895,3.3718326091766357,1.7822797298431396,0.8539752960205078,9.755544662475586,2.087368965148926,0.0652136281132698,0.04979311302304268,0.008109230548143387,24.91240119934082,-17.236846923828125,-17.716156005859375,-0.04743194580078125,-0.00024890899658203125,-0.020305395126342773,0.9014072418212891,9.755793571472168,2.1076743602752686
2_20251106_213712,1762436199626,2,0.6305637359619141,0.5448879599571228,0.32056713104248047,0.4502479135990143,0.47915080189704895,3.3718326091766357,1.7822797298431396,0.8539752960205078,9.755544662475586,2.087368965148926,0.06277017295360565,0.0644538626074791,0.020937390625476837,24.900920867919922,-17.225082397460938,-17.71638298034668,-0.04743194580078125,-0.00024890899658203125,-0.020305395126342773,0.9014072418212891,9.755793571472168,2.1076743602752686
2_20251106_213712,1762436199645,2,0.6302470564842224,0.5450979471206665,0.320810467004776,0.4502637982368469,0.4764025807380676,3.3720996379852295,1.7800648212432861,0.925798237323761,9.692102432250977,1.7928948402404785,0.06765709072351456,0.01986073888838291,0.02948949672281742,24.963470458984375,-17.184112548828125,-17.645557403564453,0.019512832164764404,-0.050952911376953125,-0.25182366371154785,0.9062854051589966,9.74305534362793,2.0447185039520264
2_20251106_213712,1762436199664,2,0.6298160552978516,0.5459590554237366,0.32075235247612,0.44986486434936523,0.47233808040618896,3.3730416297912598,1.7743768692016602,1.0431090593338013,9.896798133850098,1.974846601486206,0.048720281571149826,-0.0064064436592161655,-0.013881899416446686,24.962173461914062,-17.197479248046875,-17.56472396850586,0.08775866031646729,0.1221456527709961,-0.009476900100708008,0.955350399017334,9.774652481079102,1.984323501586914
2_20251106_213712,1762436199683,2,0.629593014717102,0.5467556118965149,0.3206510543823242,0.4492814838886261,0.47233808040618896,3.3730416297912598,1.7743768692016602,1.0431090593338013,9.896798133850098,1.974846601486206,0.04444422945380211,0.06872992217540741,-0.08962912112474442,25.03106117248535,-17.26805877685547,-17.563364028930664,0.08775866031646729,0.1221456527709961,-0.009476900100708008,0.955350399017334,9.774652481079102,1.984323501586914
2_20251106_213712,1762436199702,2,0.6296043992042542,0.5467127561569214,0.3213101625442505,0.44884660840034485,0.470673531293869,3.37435245513916,1.772011637687683,1.0083945989608765,9.984182357788086,2.1232805252075195,0.04444422945380211,0.06872992217540741,-0.08962912112474442,25.067224502563477,-17.266212463378906,-17.507827758789062,0.042435407638549805,0.16762351989746094,0.11116552352905273,0.9659591913223267,9.816558837890625,2.012115001678467
2_20251106_213712,1762436199721,2,0.629489004611969,0.5460172891616821,0.32306164503097534,0.44859766960144043,0.4682643413543701,3.3789455890655518,1.769284963607788,0.9988182783126831,10.231971740722656,2.2010889053344727,0.11102847754955292,0.27275872230529785,-0.2130238115787506,25.07791519165039,-17.279052734375,-17.399471282958984,0.013943254947662354,0.2875070571899414,0.12190079689025879,0.9848750233650208,9.944464683532715,2.079188108444214
2_20251106_213712,1762436199742,2,0.6290618777275085,0.5448463559150696,0.32582512497901917,0.448621928691864,0.46706047654151917,3.3823201656341553,1.767234206199646,0.9772713780403137,10.137404441833496,1.784515619277954,0.13118700683116913,0.36072325706481934,-0.2655581533908844,25.150054931640625,-17.264022827148438,-17.166488647460938,-0.00608295202255249,0.15435218811035156,-0.23573803901672363,0.9833543300628662,9.983052253723145,2.0202536582946777
2_20251106_213712,1762436199759,2,0.6284233331680298,0.5432271957397461,0.32952481508255005,0.44877803325653076,0.4658953547477722,3.385155200958252,1.763738989830017,0.9281923770904541,9.962635040283203,1.312878131866455,0.07376573979854584,0.3222387731075287,-0.2906036376953125,25.274154663085938,-17.195045471191406,-16.98455238342285,-0.04412961006164551,-0.016333580017089844,-0.565900444984436,0.9723219871520996,9.978968620300293,1.8787785768508911
2_20251106_213712,1762436199780,2,0.6280884146690369,0.5418996214866638,0.33290398120880127,0.4483577609062195,0.46390244364738464,3.387709140777588,1.7583215236663818,0.7629995346069336,9.803428649902344,1.4182183742523193,-0.012977056205272675,0.18540507555007935,-0.2918253540992737,25.411144256591797,-17.112716674804688,-16.801862716674805,-0.1674579381942749,-0.14043140411376953,-0.36844825744628906,0.9304574728012085,9.943860054016113,1.7866666316986084
2_20251106_213712,1762436199799,2,0.6284858584403992,0.5412707924842834,0.33509019017219543,0.44692954421043396,0.461030513048172,3.3891937732696533,1.7533241510391235,0.5080280303955078,9.684919357299805,1.6624164581298828,-0.03191386163234711,0.08705586194992065,-0.26739075779914856,25.438968658447266,-17.025253295898438,-16.596290588378906,-0.33794355392456055,-0.2071523666381836,-0.09940016269683838,0.8459715843200684,9.892071723937988,1.7618166208267212
2_20251106_213712,1762436199819,2,0.6293116211891174,0.5407382249832153,0.3365812301635742,0.44528883695602417,0.4567969739437103,3.389691114425659,1.7484878301620483,0.2973473072052002,9.559228897094727,1.729451298713684,-0.012366191484034061,0.051625706255435944,-0.20935863256454468,25.589765548706055,-16.905136108398438,-16.344736099243164,-0.4388994574546814,-0.26627445220947266,-0.025892257690429688,0.7362467646598816,9.8255033493042,1.7553435564041138
2_20251106_213712,1762436199837,2,0.6301499605178833,0.5401280522346497,0.33782708644866943,0.44389817118644714,0.45180580019950867,3.3894829750061035,1.7444045543670654,0.25664764642715454,9.559229850769043,1.864717960357666,-0.016642244532704353,0.01741728000342846,-0.1110093966126442,25.589765548706055,-16.905136108398438,-16.344736099243164,-0.3836793303489685,-0.21301841735839844,0.08749961853027344,0.640326976776123,9.772248268127441,1.7772183418273926
2_20251106_213712,1762436199856,2,0.6308597326278687,0.5397035479545593,0.33851340413093567,0.44288232922554016,0.45180580019950867,3.3894829750061035,1.7444045543670654,0.25664764642715454,9.559229850769043,1.864717960357666,-0.016642244532704353,0.01741728000342846,-0.1110093966126442,25.693525314331055,-16.762672424316406,-16.135164260864258,-0.3836793303489685,-0.21301841735839844,0.08749961853027344,0.640326976776123,9.772248268127441,1.7772183418273926
2_20251106_213712,1762436199875,2,0.6313429474830627,0.5397971272468567,0.33827415108680725,0.44226208329200745,0.4394160211086273,3.387990951538086,1.7381037473678589,0.42303749918937683,9.725619316101074,2.1220836639404297,0.04138990491628647,-0.08093193918466568,0.07347176223993301,25.867778778076172,-16.6654052734375,-15.950738906860352,-0.11972096562385559,-0.008391380310058594,0.24676156044006348,0.5427584648132324,9.734010696411133,1.8753221035003662
2_20251106_213712,1762436199894,2,0.6313890814781189,0.5404080152511597,0.33762797713279724,0.441943883895874,0.4394160211086273,3.387990951538086,1.7381037473678589,0.42303749918937683,9.725619316101074,2.1220836639404297,0.036502987146377563,-0.04489092156291008,0.0691957026720047,25.94563102722168,-16.573013305664062,-15.918916702270508,-0.11972096562385559,-0.008391380310058594,0.24676156044006348,0.5427584648132324,9.734010696411133,1.8753221035003662
