session_id,timestamp,label,quaternion_w,quaternion_x,quaternion_y,quaternion_z,position_x,position_y,position_z,accelerometer_x,accelerometer_y,accelerometer_z,gyroscope_x,gyroscope_y,gyroscope_z,magnetometer_x,magnetometer_y,magnetometer_z,linear_acceleration_x,linear_acceleration_y,linear_acceleration_z,gravity_x,gravity_y,gravity_z
9_20251106_211129,1762434652727,9,0.2833530902862549,0.3826028108596802,0.6016525626182556,0.6413581371307373,0.6290857791900635,3.247898578643799,0.37372511625289917,1.518337607383728,10.059596061706543,-0.09844305366277695,-0.13203078508377075,0.025969386100769043,-0.034632209688425064,21.18006134033203,-17.44329833984375,15.1781005859375,0.18406367301940918,0.4808998107910156,0.17609649896621704,1.3342739343643188,9.578696250915527,-0.2745395600795746
9_20251106_211129,1762434652746,9,0.28405284881591797,0.3819912075996399,0.600959837436676,0.6420623064041138,0.6266859173774719,3.24688720703125,0.37436601519584656,1.644027829170227,10.16972541809082,0.057173363864421844,-0.15280018746852875,0.028412844985723495,-0.07189495861530304,21.204322814941406,-17.453460693359375,15.097721099853516,0.24780309200286865,0.4728231430053711,0.26537033915519714,1.3962247371673584,9.69690227508545,-0.2081969827413559
9_20251106_211129,1762434652766,9,0.28498902916908264,0.38108527660369873,0.6002967953681946,0.6428055763244629,0.6253887414932251,3.247520685195923,0.37642863392829895,1.7589446306228638,10.237957000732422,0.2594747245311737,-0.16135229170322418,0.024136792868375778,-0.11099030822515488,21.26251983642578,-17.511199951171875,14.99072265625,0.2901759147644043,0.4328441619873047,0.37413737177848816,1.4687687158584595,9.805112838745117,-0.11466265469789505
9_20251106_211129,1762434652784,9,0.286238431930542,0.37999227643013,0.5996617674827576,0.6434898972511292,0.6253887414932251,3.247520685195923,0.37642863392829895,1.7589446306228638,10.237957000732422,0.2594747245311737,-0.1344742327928543,0.032078035175800323,-0.16902245581150055,21.285356521606445,-17.558090209960938,14.814937591552734,0.2901759147644043,0.4328441619873047,0.37413737177848816,1.4687687158584595,9.805112838745117,-0.11466265469789505
9_20251106_211129,1762434652803,9,0.28773900866508484,0.3786383271217346,0.5993553996086121,0.6439040303230286,0.6255970001220703,3.2511661052703857,0.3832210898399353,1.739791750907898,10.056004524230957,0.2630658745765686,-0.07522035390138626,0.007643444929271936,-0.2337741106748581,21.282438278198242,-17.60845184326172,14.827400207519531,0.1569833755493164,0.13490581512451172,0.2233595848083496,1.5828083753585815,9.921098709106445,0.0397062823176384
9_20251106_211129,1762434652822,9,0.28955259919166565,0.3772386312484741,0.5995486378669739,0.6437326669692993,0.6255970001220703,3.2511661052703857,0.3832210898399353,1.739791750907898,10.056004524230957,0.2630658745765686,-0.0422336608171463,-0.013125956058502197,-0.280810683965683,21.32977294921875,-17.630386352539062,14.828834533691406,0.1569833755493164,0.13490581512451172,0.2233595848083496,1.5828083753585815,9.921098709106445,0.0397062823176384
9_20251106_211129,1762434652841,9,0.29155492782592773,0.3757067322731018,0.6001302003860474,0.643182635307312,0.6244106292724609,3.254915714263916,0.38996708393096924,1.0981733798980713,9.871659278869629,-0.13076338171958923,-0.07460948824882507,0.018639009445905685,-0.28203240036964417,21.37912368774414,-17.614784240722656,14.84457778930664,-0.3639857769012451,-0.04083442687988281,-0.13936199247837067,1.4621591567993164,9.912493705749512,0.008598610758781433
9_20251106_211129,1762434652860,9,0.29355451464653015,0.3738994300365448,0.6006359457969666,0.6428540945053101,0.6216603517532349,3.2564737796783447,0.3922882378101349,0.8779162764549255,9.874053955078125,-0.19660110771656036,-0.13080905377864838,0.051625702530145645,-0.228276327252388,21.41971206665039,-17.537330627441406,14.874664306640625,-0.46739429235458374,-0.030752182006835938,-0.16415977478027344,1.3453105688095093,9.904806137084961,-0.03244132921099663
9_20251106_211129,1762434652880,9,0.29520514607429504,0.37196144461631775,0.6007857918739319,0.6430824398994446,0.6174309253692627,3.2578654289245605,0.3944851756095886,0.8587634563446045,9.850112915039062,-0.07330502569675446,-0.1656283438205719,0.05284743383526802,-0.11893155425786972,21.520204544067383,-17.492095947265625,14.757732391357422,-0.38923776149749756,-0.04375457763671875,-0.03269095718860626,1.248001217842102,9.893867492675781,-0.04061406850814819
9_20251106_211129,1762434652900,9,0.29631346464157104,0.3705134987831116,0.6003723740577698,0.6437942981719971,0.6174309253692627,3.2578654289245605,0.3944851756095886,0.8587634563446045,9.850112915039062,-0.07330502569675446,-0.14913500845432281,0.03635408356785774,-0.005310704465955496,21.569046020507812,-17.488784790039062,14.746177673339844,-0.38923776149749756,-0.04375457763671875,-0.03269095718860626,1.248001217842102,9.893867492675781,-0.04061406850814819
9_20251106_211129,1762434652920,9,0.2969145178794861,0.3699900507926941,0.5995122790336609,0.6446194052696228,0.6090636253356934,3.260962963104248,0.3992624580860138,1.4010268449783325,10.047624588012695,0.03802056610584259,-0.09598975628614426,-0.0021303906105458736,0.053943172097206116,21.70340347290039,-17.468032836914062,14.805900573730469,0.1504150629043579,0.11660003662109375,0.0461125522851944,1.2506117820739746,9.931024551391602,-0.008091986179351807
9_20251106_211129,1762434652941,9,0.29705554246902466,0.3701131343841553,0.5986843109130859,0.6452529430389404,0.606717050075531,3.2633800506591797,0.40168601274490356,1.6739541292190552,10.233168601989746,0.06435565650463104,-0.06972257047891617,-0.030230168253183365,0.04783453047275543,21.70340347290039,-17.468032836914062,14.805900573730469,0.33867383003234863,0.2417154312133789,0.05795811489224434,1.3352802991867065,9.991453170776367,0.006397541146725416
9_20251106_211129,1762434652957,9,0.29730892181396484,0.3705522418022156,0.5979037880897522,0.6456078290939331,0.6060147285461426,3.2665693759918213,0.40399304032325745,1.8918170928955078,10.316961288452148,0.008094340562820435,-0.09110283106565475,-0.0015195258893072605,-0.028523562476038933,21.814796447753906,-17.423751831054688,14.86517333984375,0.4452294111251831,0.260406494140625,0.0013574399054050446,1.4465876817703247,10.056554794311523,0.00673690065741539
9_20251106_211129,1762434652975,9,0.29790759086608887,0.37035658955574036,0.5973166823387146,0.6459875106811523,0.6066381335258484,3.2699453830718994,0.4060167074203491,1.9564577341079712,10.261898040771484,-0.014649607241153717,-0.1247003898024559,0.0015347977168858051,-0.1201532706618309,21.901296615600586,-17.40496063232422,14.801288604736328,0.4078960418701172,0.1642742156982422,-0.017109205946326256,1.548561692237854,10.097623825073242,0.002459599170833826
9_20251106_211129,1762434652994,9,0.299161434173584,0.3695935308933258,0.5968278050422668,0.6462968587875366,0.6085892915725708,3.274096727371216,0.40787097811698914,2.031871795654297,10.376813888549805,-0.0613345205783844,-0.15707623958587646,-0.02595411241054535,-0.17024418711662292,21.98638916015625,-17.411285400390625,14.73687744140625,0.3866480588912964,0.22335243225097656,-0.05103529617190361,1.6452237367630005,10.153461456298828,-0.010299223475158215
9_20251106_211129,1762434653013,9,0.3010175824165344,0.36867979168891907,0.5962099432945251,0.646527111530304,0.6117795705795288,3.2789456844329834,0.4099949896335602,2.1324238777160645,10.48335075378418,0.12181402742862701,-0.15707623958587646,-0.02595411241054535,-0.17024418711662292,22.035118103027344,-17.419723510742188,14.643962860107422,0.38976001739501953,0.26391124725341797,0.105690598487854,1.742663860321045,10.219439506530762,0.016123425215482712
9_20251106_211129,1762434653033,9,0.3032689392566681,0.36773934960365295,0.5953945517539978,0.646761953830719,0.6117795705795288,3.2789456844329834,0.4099949896335602,2.1324238777160645,10.48335075378418,0.12181402742862701,-0.18395428359508514,-0.09498182684183121,-0.22033509612083435,22.105514526367188,-17.465049743652344,14.632331848144531,0.38976001739501953,0.26391124725341797,0.105690598487854,1.742663860321045,10.219439506530762,0.016123425215482712
9_20251106_211129,1762434653051,9,0.3057063817977905,0.3667451739311218,0.5946544408798218,0.646859884262085,0.6214309930801392,3.2890186309814453,0.4156331419944763,2.266493558883667,10.296611785888672,0.1720900982618332,-0.13691769540309906,-0.1524031013250351,-0.23499585688114166,22.154766082763672,-17.4495849609375,14.661590576171875,0.34501898288726807,0.0369415283203125,0.08679477870464325,1.921474575996399,10.25967025756836,0.08529531955718994
9_20251106_211129,1762434653071,9,0.30840080976486206,0.36618345975875854,0.5940446257591248,0.6464592814445496,0.6281560659408569,3.2944672107696533,0.4182714819908142,2.3993661403656006,10.423498153686523,0.00450318306684494,-0.13691769540309906,-0.1524031013250351,-0.23499585688114166,22.29322624206543,-17.376846313476562,14.54665756225586,0.38231325149536133,0.13106250762939453,-0.06463370472192764,2.0170528888702393,10.292435646057129,0.06913688778877258
9_20251106_211129,1762434653091,9,0.31141966581344604,0.3662225902080536,0.5932320356369019,0.6457356810569763,0.6360346674919128,3.30019474029541,0.4204540550708771,2.5071005821228027,10.473774909973145,-0.03739354759454727,-0.1247003972530365,-0.21776564419269562,-0.22461114823818207,22.36824607849121,-17.346290588378906,14.482547760009766,0.39203810691833496,0.14507102966308594,-0.08522434532642365,2.1150624752044678,10.328703880310059,0.04783080145716667
9_20251106_211129,1762434653109,9,0.3149746060371399,0.36644911766052246,0.5921081304550171,0.644913911819458,0.6360346674919128,3.30019474029541,0.4204540550708771,2.5071005821228027,10.473774909973145,-0.03739354759454727,-0.19250638782978058,-0.2965672016143799,-0.27225857973098755,22.550418853759766,-17.358413696289062,14.381248474121094,0.39203810691833496,0.14507102966308594,-0.08522434532642365,2.1150624752044678,10.328703880310059,0.04783080145716667
9_20251106_211129,1762434653130,9,0.31891828775405884,0.3665865361690521,0.5907918214797974,0.6441043615341187,0.6518348455429077,3.3107497692108154,0.42388173937797546,2.423306941986084,10.452227592468262,0.04041466861963272,-0.22549308836460114,-0.35459935665130615,-0.24049364030361176,22.74980926513672,-17.281707763671875,14.268768310546875,0.19612717628479004,0.0846090316772461,0.003680899739265442,2.227179765701294,10.367618560791016,0.03673376888036728
9_20251106_211129,1762434653148,9,0.3231753408908844,0.36721011996269226,0.5889394283294678,0.6433232426643372,0.6610862612724304,3.316650152206421,0.4264039695262909,2.565755844116211,10.527642250061035,0.3013714551925659,-0.2322125881910324,-0.44500732421875,-0.18857012689113617,22.87377166748047,-17.247711181640625,14.179588317871094,0.2708609104156494,0.12801837921142578,0.2117101550102234,2.2948949337005615,10.39962387084961,0.08966130018234253
9_20251106_211129,1762434653167,9,0.327631413936615,0.3686472773551941,0.5865691900253296,0.6424121856689453,0.6702378988265991,3.3224644660949707,0.4297439157962799,2.5873026847839355,10.577919006347656,0.47733768820762634,-0.19556070864200592,-0.5329717993736267,-0.16230295598506927,23.119678497314453,-17.217247009277344,13.986915588378906,0.23392629623413086,0.14263629913330078,0.31014111638069153,2.3533763885498047,10.435282707214355,0.16719657182693481
9_20251106_211129,1762434653186,9,0.3321831226348877,0.37079301476478577,0.5840412378311157,0.6411417722702026,0.6791211366653442,3.3282225131988525,0.433534175157547,2.6160318851470947,10.648544311523438,0.4857170581817627,-0.12714385986328125,-0.6136059761047363,-0.13725750148296356,23.353389739990234,-17.199188232421875,13.698875427246094,0.21012425422668457,0.1706085205078125,0.2548163831233978,2.40590763092041,10.477935791015625,0.23090067505836487
9_20251106_211129,1762434653204,9,0.33686065673828125,0.373833566904068,0.5814953446388245,0.6392468810081482,0.6890029311180115,3.334881544113159,0.43802422285079956,2.7608749866485596,10.800569534301758,0.4821258783340454,-0.12714385986328125,-0.6136059761047363,-0.13725750148296356,23.637054443359375,-17.153106689453125,13.440357208251953,0.28397393226623535,0.2581062316894531,0.20098015666007996,2.476901054382324,10.542463302612305,0.28114572167396545
9_20251106_211129,1762434653224,9,0.3417028784751892,0.37749409675598145,0.5790174603462219,0.6367700695991516,0.6993602514266968,3.341508626937866,0.44272953271865845,2.830303907394409,10.652135848999023,0.44142621755599976,-0.04650971293449402,-0.7333354353904724,-0.1977331042289734,23.9176025390625,-17.15766143798828,13.221332550048828,0.28272223472595215,0.087738037109375,0.12822440266609192,2.547581672668457,10.564397811889648,0.31320181488990784
9_20251106_211129,1762434653242,9,0.3470691740512848,0.3811909556388855,0.576715350151062,0.6337474584579468,0.7099195122718811,3.3480451107025146,0.4472886323928833,2.8099541664123535,10.652135848999023,0.34566226601600647,-0.0782746747136116,-0.776706874370575,-0.3021909296512604,24.288166046142578,-17.092254638671875,12.844863891601562,0.2098979949951172,0.0701904296875,0.02596837282180786,2.6000561714172363,10.581945419311523,0.3196938931941986
9_20251106_211129,1762434653262,9,0.3533767759799957,0.38446682691574097,0.574416995048523,0.6303611993789673,0.7206510901451111,3.35447096824646,0.45178475975990295,2.656731605529785,10.545598983764648,0.2989773154258728,-0.0782746747136116,-0.776706874370575,-0.3021909296512604,24.624481201171875,-16.991287231445312,12.440685272216797,0.04534029960632324,-0.029076576232910156,-0.016573280096054077,2.611391305923462,10.574675559997559,0.3155505955219269
9_20251106_211129,1762434653280,9,0.3609066307544708,0.38695910573005676,0.5717359185218811,0.6269984245300293,0.7290509939193726,3.35990834236145,0.4562866985797882,2.296419620513916,10.551583290100098,0.5826780200004578,-0.18517601490020752,-0.795032799243927,-0.4139792025089264,24.95737075805664,-16.952972412109375,12.021671295166016,-0.25197720527648926,-0.01847362518310547,0.21370193362236023,2.5483968257904053,10.570056915283203,0.36897608637809753
9_20251106_211129,1762434653301,9,0.3695935606956482,0.38904353976249695,0.5682611465454102,0.6237988471984863,0.7361071705818176,3.3670434951782227,0.46286383271217346,1.9528666734695435,11.029205322265625,0.9693249464035034,-0.3672136962413788,-0.9220926761627197,-0.47323307394981384,25.42731285095215,-16.867034912109375,11.487197875976562,-0.47642409801483154,0.36731815338134766,0.4802790880203247,2.429290771484375,10.661887168884277,0.4890458583831787
9_20251106_211129,1762434653320,9,0.37880033254623413,0.39116302132606506,0.5641959309577942,0.620632529258728,0.7405179142951965,3.375972032546997,0.47167477011680603,1.6751511096954346,11.369168281555176,1.3320308923721313,-0.3317835032939911,-0.979513943195343,-0.4445224106311798,25.951019287109375,-16.701499938964844,10.848136901855469,-0.6033117771148682,0.5658254623413086,0.67438805103302,2.2784628868103027,10.803342819213867,0.6576428413391113
9_20251106_211129,1762434653339,9,0.38807031512260437,0.39381295442581177,0.5599273443222046,0.6170852184295654,0.7405179142951965,3.375972032546997,0.47167477011680603,1.6751511096954346,11.369168281555176,1.3320308923721313,-0.2224387675523758,-1.045487403869629,-0.38649025559425354,25.951019287109375,-16.701499938964844,10.848136901855469,-0.6033117771148682,0.5658254623413086,0.67438805103302,2.2784628868103027,10.803342819213867,0.6576428413391113
9_20251106_211129,1762434653359,9,0.39708569645881653,0.3975730538368225,0.5556656718254089,0.6127758622169495,0.7421081066131592,3.3998866081237793,0.49512580037117004,1.372297763824463,12.055076599121094,1.6372785568237305,-0.2224387675523758,-1.045487403869629,-0.38649025559425354,26.569591522216797,-16.579566955566406,10.184913635253906,-0.605802059173584,0.8675689697265625,0.6378839612007141,1.9780998229980469,11.187507629394531,0.9993945956230164
9_20251106_211129,1762434653377,9,0.4058547019958496,0.4027307331562042,0.551462709903717,0.6074362397193909,0.7396047115325928,3.4150474071502686,0.5080448985099792,1.0826116800308228,12.63564682006836,1.7677569389343262,0.05489382892847061,-1.315489649772644,-0.29241710901260376,27.159969329833984,-16.522415161132812,9.5599365234375,-0.7163904905319214,1.1585111618041992,0.6146899461746216,1.7990021705627441,11.47713565826416,1.1530669927597046
9_20251106_211129,1762434653395,9,0.41450512409210205,0.4093332290649414,0.5473218560218811,0.6008915305137634,0.7396047115325928,3.4150474071502686,0.5080448985099792,1.0826116800308228,12.63564682006836,1.7677569389343262,0.15263216197490692,-1.3661913871765137,-0.31929513812065125,27.764833450317383,-16.438140869140625,8.814332962036133,-0.7163904905319214,1.1585111618041992,0.6146899461746216,1.7990021705627441,11.47713565826416,1.1530669927597046
9_20251106_211129,1762434653415,9,0.4232131838798523,0.41639208793640137,0.5435206294059753,0.5933747291564941,0.7253482937812805,3.461787462234497,0.5414748191833496,0.282982736825943,14.117593765258789,2.4883806705474854,0.21249692142009735,-1.3270959854125977,-0.4280290901660919,28.34823226928711,-16.31670379638672,7.960411071777344,-1.038053274154663,1.7843170166015625,0.9176133871078491,1.3210359811782837,12.333276748657227,1.5707672834396362
9_20251106_211129,1762434653434,9,0.4321952164173126,0.4228459596633911,0.5404564142227173,0.5850772857666016,0.7126500606536865,3.4919512271881104,0.5623136758804321,-0.27603933215141296,14.371367454528809,2.9779739379882812,0.2809138000011444,-1.25684654712677,-0.5795235633850098,28.99106216430664,-16.204933166503906,7.216806411743164,-1.2776603698730469,1.630472183227539,1.125765323638916,1.0016210079193115,12.74089527130127,1.8522086143493652
9_20251106_211129,1762434653453,9,0.44123104214668274,0.42809969186782837,0.5386540293693542,0.5761056542396545,0.695511519908905,3.52520489692688,0.58733069896698,-0.848228931427002,14.416855812072754,3.75485897064209,0.39697811007499695,-1.192705750465393,-0.7469004392623901,29.675880432128906,-16.00220489501953,6.408939361572266,-1.4798799753189087,1.3407678604125977,1.5221202373504639,0.6316510438919067,13.076087951660156,2.232738733291626
9_20251106_211129,1762434653472,9,0.44994401931762695,0.43199753761291504,0.5386514663696289,0.5663771629333496,0.695511519908905,3.52520489692688,0.58733069896698,-0.848228931427002,14.416855812072754,3.75485897064209,0.5979524850845337,-1.063813328742981,-0.9429880380630493,30.334423065185547,-15.826850891113281,5.667144775390625,-1.4798799753189087,1.3407678604125977,1.5221202373504639,0.6316510438919067,13.076087951660156,2.232738733291626
9_20251106_211129,1762434653492,9,0.4585722088813782,0.4351058304309845,0.540671706199646,0.5550392270088196,0.6416546106338501,3.592939853668213,0.6522392630577087,-2.767098903656006,12.931317329406738,4.279166221618652,0.9113261699676514,-0.9465273022651672,-1.098758578300476,30.93787384033203,-15.55474853515625,4.897977828979492,-2.351405620574951,-0.2516212463378906,1.287496566772461,-0.4156932234764099,13.182938575744629,2.9916696548461914
9_20251106_211129,1762434653510,9,0.46607980132102966,0.43779727816581726,0.5453969240188599,0.541890561580658,0.6062816381454468,3.6175413131713867,0.6838809847831726,-3.916266441345215,11.60977554321289,3.7596471309661865,1.209428071975708,-0.8823864459991455,-1.134799599647522,31.596324920654297,-15.413742065429688,4.280067443847656,-2.8004586696624756,-1.258530616760254,0.6143820285797119,-1.1158077716827393,12.868306159973145,3.1452651023864746
9_20251106_211129,1762434653529,9,0.4723534882068634,0.4412170946598053,0.5518779158592224,0.526915967464447,0.5604405403137207,3.6347415447235107,0.7155128717422485,-4.895452499389648,10.145783424377441,3.109649181365967,1.4146785736083984,-0.6649186015129089,-1.037061333656311,32.236328125,-14.926307678222656,3.4893360137939453,-3.0237157344818115,-2.178018569946289,-0.02849292755126953,-1.871736764907837,12.32380199432373,3.1381421089172363
9_20251106_211129,1762434653549,9,0.476107120513916,0.4447984993457794,0.5598852634429932,0.5118640661239624,0.5031548142433167,3.640542507171631,0.7441723942756653,-5.6364264488220215,8.574058532714844,2.1603891849517822,1.5759469270706177,-0.4358443319797516,-0.8531909584999084,32.856101989746094,-14.3536376953125,2.8076000213623047,-3.011751651763916,-2.9997949600219727,-0.7822024822235107,-2.6246747970581055,11.573853492736816,2.942591667175293
9_20251106_211129,1762434653568,9,0.47702938318252563,0.44884762167930603,0.5688521265983582,0.4973791539669037,0.441986083984375,3.634046792984009,0.7652707695960999,-6.075743675231934,7.298002243041992,1.205143690109253,1.6626896858215332,-0.33321908116340637,-0.5886865258216858,33.42938232421875,-13.711502075195312,2.395811080932617,-2.760855197906494,-3.4206809997558594,-1.389958381652832,-3.3148884773254395,10.718683242797852,2.595102071762085
9_20251106_211129,1762434653587,9,0.4757155776023865,0.45421114563941956,0.5774824619293213,0.4836330711841583,0.3796554207801819,3.618356704711914,0.7786849141120911,-6.270862579345703,6.721024513244629,0.3312976658344269,1.6669657230377197,-0.2849607467651367,-0.23499584197998047,33.92068862915039,-13.012413024902344,2.008941650390625,-2.364779472351074,-3.198126792907715,-1.8110437393188477,-3.906083106994629,9.919151306152344,2.142341375350952
9_20251106_211129,1762434653606,9,0.4723215103149414,0.4612477421760559,0.5847918391227722,0.4713612496852875,0.30752456188201904,3.5931460857391357,0.7856065034866333,-5.990753173828125,7.074154853820801,-0.23849783837795258,1.614431381225586,-0.18600067496299744,0.1932203322649002,34.419158935546875,-12.388946533203125,1.7291088104248047,-1.6677360534667969,-2.2759971618652344,-1.9046714305877686,-4.323017120361328,9.350152015686035,1.6661735773086548
9_20251106_211129,1762434653625,9,0.4665103554725647,0.46995458006858826,0.5903680324554443,0.4614936411380768,0.30752456188201904,3.5931460857391357,0.7856065034866333,-5.990753173828125,7.074154853820801,-0.23849783837795258,1.516693115234375,-0.021067196503281593,0.5444675087928772,34.75720977783203,-11.801727294921875,1.5234718322753906,-1.6677360534667969,-2.2759971618652344,-1.9046714305877686,-4.323017120361328,9.350152015686035,1.6661735773086548
9_20251106_211129,1762434653644,9,0.4583193063735962,0.47924602031707764,0.5946956872940063,0.4545368254184723,0.2329011857509613,3.5615780353546143,0.7854651212692261,-5.120498180389404,7.434466361999512,-0.4360109865665436,1.4549957513809204,0.15791615843772888,0.74727463722229,34.92068099975586,-11.467193603515625,1.6848983764648438,-0.6379847526550293,-1.532547950744629,-1.6817476749420166,-4.482513427734375,8.96701431274414,1.2457367181777954
9_20251106_211129,1762434653662,9,0.44831883907318115,0.48864448070526123,0.5983737111091614,0.44965067505836487,0.16969016194343567,3.5305747985839844,0.7810087203979492,-4.143705368041992,7.556565284729004,-0.33426177501678467,1.4549957513809204,0.15791615843772888,0.74727463722229,34.88173294067383,-11.271476745605469,1.8899040222167969,0.27104616165161133,-1.1283597946166992,-1.2639987468719482,-4.4147515296936035,8.684925079345703,0.9297370314598083
9_20251106_211129,1762434653683,9,0.4365833103656769,0.4978238344192505,0.6023122668266296,0.4458546042442322,0.06638003885746002,3.4679532051086426,0.762719452381134,-2.4714279174804688,7.702605724334717,-0.6383123397827148,1.61626398563385,0.3876012861728668,0.8193566799163818,34.74048614501953,-11.146652221679688,2.2653770446777344,1.3613250255584717,-0.6382613182067871,-1.0370689630508423,-3.8327529430389404,8.340867042541504,0.39875662326812744
9_20251106_211129,1762434653701,9,0.42395859956741333,0.5074470639228821,0.6065971255302429,0.4413575232028961,0.026478737592697144,3.437081813812256,0.7492883801460266,-1.9830317497253418,7.663103103637695,-1.05967378616333,1.61626398563385,0.3876012861728668,0.8193566799163818,34.52574920654297,-11.228469848632812,2.809886932373047,1.4797768592834473,-0.5422115325927734,-1.166744351387024,-3.462808609008789,8.205314636230469,0.10707056522369385
9_20251106_211129,1762434653721,9,0.41098833084106445,0.5173215270042419,0.611514151096344,0.43533605337142944,-0.010391142219305038,3.402785301208496,0.7297919988632202,-1.73643958568573,7.6427531242370605,-1.642636775970459,1.8899314403533936,0.32346051931381226,0.5548522472381592,34.54890441894531,-15.065452575683594,3.1002273559570312,1.381095290184021,-0.45004892349243164,-1.399765968322754,-3.117534875869751,8.092802047729492,-0.24287086725234985
9_20251106_211129,1762434653741,9,0.39812976121902466,0.526678740978241,0.6174012422561646,0.4276890456676483,-0.03981135040521622,3.3695600032806396,0.7065629363059998,-1.7124985456466675,7.2644853591918945,-2.2962255477905273,1.9247506856918335,0.33018001914024353,0.3025651276111603,34.102752685546875,-15.363555908203125,3.739816665649414,1.1240290403366089,-0.6626534461975098,-1.642683744430542,-2.8365275859832764,7.927138805389404,-0.6535418033599854
9_20251106_211129,1762434653760,9,0.3858393728733063,0.5344802737236023,0.6245520710945129,0.4188000559806824,-0.06607651710510254,3.3322315216064453,0.6765424609184265,-1.7986860275268555,6.57737922668457,-2.8875679969787598,1.8538904190063477,0.39920774102211,0.05821922793984413,33.5811767578125,-15.692756652832031,4.497581481933594,0.8302731513977051,-1.0798077583312988,-1.7872209548950195,-2.6289591789245605,7.657186985015869,-1.1003470420837402
9_20251106_211129,1762434653779,9,0.37432312965393066,0.5402425527572632,0.6326887607574463,0.4095425605773926,-0.08793313056230545,3.2942333221435547,0.6429494023323059,-1.9554994106292725,6.0865888595581055,-3.469334125518799,1.8538904190063477,0.39920774102211,0.05821922793984413,33.5811767578125,-15.692756652832031,4.497581481933594,0.5387678146362305,-1.2564783096313477,-1.8951897621154785,-2.494267225265503,7.343067169189453,-1.5741443634033203
9_20251106_211129,1762434653798,9,0.36390602588653564,0.5438158512115479,0.6412253379821777,0.4008326530456543,-0.08793313056230545,3.2942333221435547,0.6429494023323059,-1.9554994106292725,6.0865888595581055,-3.469334125518799,1.4073482751846313,0.606290876865387,-0.32296034693717957,33.07623291015625,-15.933937072753906,5.325265884399414,0.5387678146362305,-1.2564783096313477,-1.8951897621154785,-2.494267225265503,7.343067169189453,-1.5741443634033203
9_20251106_211129,1762434653817,9,0.35462743043899536,0.5447752475738525,0.6500431895256042,0.3935773968696594,-0.12397979199886322,3.2111330032348633,0.5675590634346008,-2.0775985717773438,4.992486000061035,-3.653679609298706,1.0597662925720215,0.8903429508209229,-0.4970568120479584,32.589717864990234,-16.061439514160156,6.169332504272461,0.2530694007873535,-1.5909428596496582,-1.3506300449371338,-2.3306679725646973,6.583428859710693,-2.3030495643615723
9_20251106_211129,1762434653835,9,0.3459012508392334,0.5422396063804626,0.6593664884567261,0.3893126845359802,-0.1404731720685959,3.163614511489868,0.5258477926254272,-2.265535354614258,4.534015655517578,-3.7063498497009277,0.684084415435791,1.1902774572372437,-0.6118993759155273,32.18629837036133,-15.996627807617188,7.101398468017578,0.05210614204406738,-1.6395306587219238,-1.1226401329040527,-2.317641496658325,6.173546314239502,-2.583709716796875
9_20251106_211129,1762434653854,9,0.3375672399997711,0.5365437269210815,0.668780505657196,0.3884609043598175,-0.15648171305656433,3.112837314605713,0.4832044243812561,-2.4415016174316406,4.119836807250977,-3.683605909347534,0.684084415435791,1.1902774572372437,-0.6118993759155273,31.844303131103516,-15.927177429199219,7.96833610534668,-0.09908819198608398,-1.642967700958252,-0.8799169063568115,-2.3424134254455566,5.7628045082092285,-2.8036890029907227
9_20251106_211129,1762434653874,9,0.3291507661342621,0.5284903645515442,0.6779485940933228,0.39082399010658264,-0.17260588705539703,3.0561084747314453,0.438431978225708,-2.3804521560668945,3.8050131797790527,-3.5040485858917236,0.06955458968877792,1.6679736375808716,-0.5300434827804565,31.49848175048828,-15.707969665527344,8.851465225219727,-0.030431032180786133,-1.5662331581115723,-0.5602877140045166,-2.3500211238861084,5.371246337890625,-2.943760871887207
9_20251106_211129,1762434653892,9,0.320328950881958,0.5191552639007568,0.6860957145690918,0.3964086174964905,-0.18513761460781097,3.00335955619812,0.398798406124115,-1.8405829668045044,3.6470022201538086,-3.4932749271392822,-0.19311724603176117,1.8231333494186401,-0.3559470474720001,31.098087310791016,-15.36810302734375,9.829397201538086,0.4075504541397095,-1.3793954849243164,-0.43961119651794434,-2.248133420944214,5.026397705078125,-3.053663730621338
9_20251106_211129,1762434653911,9,0.3108886182308197,0.5091550350189209,0.6928657293319702,0.40502652525901794,-0.19494059681892395,2.9465744495391846,0.3596976399421692,-1.2408610582351685,3.608696937561035,-2.819336175918579,-0.3763766586780548,1.7712098360061646,-0.22461114823818207,30.683181762695312,-15.078582763671875,10.738203048706055,0.8058179616928101,-1.1341605186462402,0.18746209144592285,-2.0466790199279785,4.742857456207275,-3.006798267364502
9_20251106_211129,1762434653931,9,0.3021371066570282,0.499835342168808,0.6977189183235168,0.4148085117340088,-0.20138245820999146,2.8907124996185303,0.3246459662914276,-1.0002542734146118,4.0444231033325195,-2.2435555458068848,-0.4295218884944916,1.7938117980957031,-0.13664664328098297,30.181365966796875,-14.82000732421875,11.670080184936523,0.8371398448944092,-0.5587472915649414,0.6105942726135254,-1.837394118309021,4.603170394897461,-2.85414981842041
9_20251106_211129,1762434653951,9,0.2930602431297302,0.49077293276786804,0.7016774415969849,0.4253309369087219,-0.2042422890663147,2.8351569175720215,0.2914068102836609,-0.6590951085090637,4.703996658325195,-2.257920026779175,-0.3812635838985443,1.9453061819076538,-0.053569015115499496,29.678226470947266,-14.5980224609375,12.493032455444336,0.942639172077179,0.08066082000732422,0.47698378562927246,-1.6017342805862427,4.623335838317871,-2.7349038124084473
9_20251106_211129,1762434653970,9,0.28251439332962036,0.4818252623081207,0.7054027318954468,0.4363909065723419,-0.20203381776809692,2.7836978435516357,0.26018065214157104,0.018434815108776093,5.057126045227051,-2.619428873062134,-0.38981565833091736,2.0937466621398926,0.08631900697946548,29.038530349731445,-14.422988891601562,13.363862991333008,1.2961353063583374,0.3470320701599121,0.09238004684448242,-1.2777005434036255,4.710093975067139,-2.711808919906616
9_20251106_211129,1762434653988,9,0.27038654685020447,0.4731103479862213,0.7084827423095703,0.44845277070999146,-0.20203381776809692,2.7836978435516357,0.26018065214157104,0.018434815108776093,5.057126045227051,-2.619428873062134,-0.377598375082016,2.0546512603759766,0.32394537329673767,28.243932723999023,-14.420051574707031,14.157796859741211,1.2961353063583374,0.3470320701599121,0.09238004684448242,-1.2777005434036255,4.710093975067139,-2.711808919906616
9_20251106_211129,1762434654007,9,0.25714167952537537,0.4659397304058075,0.7102510929107666,0.46078383922576904,-0.18133923411369324,2.7029316425323486,0.20950525999069214,1.967231273651123,6.047086238861084,-2.646961212158203,-0.30368372797966003,1.9178173542022705,0.5695129632949829,27.33967399597168,-14.412651062011719,15.042196273803711,2.2512383460998535,0.983424186706543,0.006453037261962891,-0.2840069830417633,5.063662052154541,-2.653414249420166
9_20251106_211129,1762434654026,9,0.24328327178955078,0.4611867070198059,0.7105159759521484,0.4725326895713806,-0.15676157176494598,2.668961524963379,0.18334978818893433,3.0948519706726074,6.98198127746582,-2.712798833847046,-0.3317835032939911,1.8151921033859253,0.6861881613731384,26.298538208007812,-14.475830078125,15.825265884399414,2.703087329864502,1.5346555709838867,-0.047507524490356445,0.391764760017395,5.447325706481934,-2.6652913093566895
9_20251106_211129,1762434654045,9,0.22946061193943024,0.4574783444404602,0.7096084952354431,0.48426976799964905,-0.12458264827728271,2.6444284915924072,0.1578669250011444,4.035732269287109,7.679861068725586,-3.3496289253234863,-0.4961061477661133,1.8707808256149292,0.7265052199363708,25.16745948791504,-14.632064819335938,16.5625057220459,2.9151740074157715,1.7860283851623535,-0.5474700927734375,1.120558261871338,5.893832683563232,-2.802158832550049
9_20251106_211129,1762434654065,9,0.21560482680797577,0.4533287286758423,0.7075218558311462,0.4974137246608734,-0.08000081777572632,2.6262712478637695,0.13023576140403748,5.200461387634277,7.991094589233398,-3.508836507797241,-0.7294565439224243,1.7693772315979004,0.7265052199363708,23.976566314697266,-14.767562866210938,17.338369369506836,3.2639224529266357,1.677809238433838,-0.5653421878814697,1.9365389347076416,6.3132853507995605,-2.9434943199157715
9_20251106_211129,1762434654083,9,0.20308716595172882,0.44889992475509644,0.7039670348167419,0.5115417242050171,-0.031264156103134155,2.6147220134735107,0.10563462972640991,6.249076843261719,7.9276509284973145,-3.340052604675293,-0.7294565439224243,1.7693772315979004,0.7265052199363708,22.7379150390625,-14.904891967773438,17.977109909057617,3.4500303268432617,1.2914929389953613,-0.317246675491333,2.799046516418457,6.636157989501953,-3.02280592918396
9_20251106_211129,1762434654103,9,0.19322051107883453,0.4445455074310303,0.6988522410392761,0.5259759426116943,-0.031264156103134155,2.6147220134735107,0.10563462972640991,6.249076843261719,7.9276509284973145,-3.340052604675293,-1.0342780351638794,1.2434227466583252,0.4644443094730377,21.461013793945312,-15.058509826660156,18.749277114868164,3.4500303268432617,1.2914929389953613,-0.317246675491333,2.799046516418457,6.636157989501953,-3.02280592918396
9_20251106_211129,1762434654121,9,0.18647442758083344,0.4404292702674866,0.693242073059082,0.5391333699226379,0.03592024743556976,2.6063785552978516,0.07764611393213272,6.727896690368652,7.965956687927246,-3.2383036613464355,-1.0953645706176758,0.9966334700584412,0.19260945916175842,20.243000030517578,-15.268913269042969,19.319833755493164,3.143080234527588,1.0638389587402344,-0.17239809036254883,3.5848164558410645,6.902117729187012,-3.0659055709838867
9_20251106_211129,1762434654141,9,0.18283598124980927,0.4355092942714691,0.6879052519798279,0.5510798692703247,0.10250038653612137,2.6032326221466064,0.053234562277793884,6.804507732391357,8.369361877441406,-3.195209503173828,-1.0953645706176758,0.9966334700584412,0.19260945916175842,19.12339210510254,-15.448524475097656,19.96242332458496,2.5757532119750977,1.1737957000732422,-0.10344314575195312,4.22875452041626,7.195566177368164,-3.091766357421875
9_20251106_211129,1762434654160,9,0.1811530888080597,0.4288729727268219,0.6828492879867554,0.562999427318573,0.17434893548488617,2.6041572093963623,0.02843940258026123,5.961784839630127,8.534555435180664,-3.217953681945801,-1.2633522748947144,0.9489859938621521,-0.034021344035863876,18.122995376586914,-15.693374633789062,20.392072677612305,1.3864240646362305,1.0711913108825684,-0.10094976425170898,4.5753607749938965,7.463364124298096,-3.117003917694092
9_20251106_211129,1762434654179,9,0.17967353761196136,0.4219503402709961,0.6774372458457947,0.5751122832298279,0.29721882939338684,2.613441228866577,-0.015807153657078743,4.916760444641113,8.58004379272461,-3.6034035682678223,-1.3415429592132568,0.8909538388252258,0.2188766449689865,17.17898941040039,-16.02161407470703,20.768259048461914,0.1899580955505371,0.7079720497131348,-0.32566022872924805,4.726802349090576,7.872071743011475,-3.277743339538574
9_20251106_211129,1762434654199,9,0.1776779145002365,0.4167605936527252,0.6704239845275879,0.5875992774963379,0.3621786832809448,2.621168851852417,-0.03893975913524628,5.206446647644043,8.455550193786621,-3.2239389419555664,-1.480209231376648,0.7278529405593872,0.46322256326675415,16.385723114013672,-16.500755310058594,20.94464683532715,0.3837156295776367,0.4667825698852539,0.04304361343383789,4.822731018066406,7.988767623901367,-3.2669825553894043
9_20251106_211129,1762434654218,9,0.17589102685451508,0.41369926929473877,0.6612984538078308,0.6004994511604309,0.4223240613937378,2.6305336952209473,-0.057248808443546295,5.37642765045166,8.860152244567871,-2.330940008163452,-1.480209231376648,0.7278529405593872,0.46322256326675415,15.663358688354492,-17.01293182373047,21.136701583862305,0.44295740127563477,0.697108268737793,0.7488341331481934,4.933470249176025,8.163043975830078,-3.0797741413116455
9_20251106_211129,1762434654237,9,0.1749335378408432,0.41215792298316956,0.6505026817321777,0.6134903430938721,0.48125550150871277,2.6421310901641846,-0.07025610655546188,5.587108612060547,9.147444725036621,-1.4810351133346558,-1.7062292098999023,0.5580325722694397,0.5603500008583069,15.663358688354492,-17.01293182373047,21.136701583862305,0.5229110717773438,0.7875204086303711,1.2789911031723022,5.064197540283203,8.35992431640625,-2.760026216506958
9_20251106_211129,1762434654256,9,0.17434075474739075,0.40986019372940063,0.6390141844749451,0.6271210312843323,0.48125550150871277,2.6421310901641846,-0.07025610655546188,5.587108612060547,9.147444725036621,-1.4810351133346558,-1.8021349906921387,0.6197298765182495,0.5554630756378174,15.034846305847168,-17.593284606933594,21.249998092651367,0.5229110717773438,0.7875204086303711,1.2789911031723022,5.064197540283203,8.35992431640625,-2.760026216506958
9_20251106_211129,1762434654275,9,0.1737443208694458,0.4068146347999573,0.6267815828323364,0.6414511799812317,0.5953038930892944,2.6717519760131836,-0.07832317054271698,5.81694221496582,9.61788558959961,-0.24208900332450867,-1.7807546854019165,0.5354305505752563,0.6709165573120117,14.417999267578125,-18.196746826171875,21.241613388061523,0.5168061256408691,0.851445198059082,1.7064775228500366,5.300136089324951,8.766440391540527,-1.9485665559768677
9_20251106_211129,1762434654294,9,0.17271192371845245,0.4046897888183594,0.6139217019081116,0.6553601622581482,0.6481416821479797,2.68878173828125,-0.07354336231946945,6.177253723144531,9.88243293762207,0.34326815605163574,-1.660414457321167,0.34972769021987915,0.810193657875061,13.86648941040039,-18.956802368164062,21.043508529663086,0.7016940116882324,0.8927936553955078,1.8334678411483765,5.475559711456299,8.989639282226562,-1.4901996850967407
9_20251106_211129,1762434654313,9,0.17149583995342255,0.4046729505062103,0.600655198097229,0.6678640246391296,0.6481416821479797,2.68878173828125,-0.07354336231946945,6.177253723144531,9.88243293762207,0.34326815605163574,-1.472267985343933,0.10293834656476974,0.9097646474838257,13.295633316040039,-19.85497283935547,20.760915756225586,0.7016940116882324,0.8927936553955078,1.8334678411483765,5.475559711456299,8.989639282226562,-1.4901996850967407
9_20251106_211129,1762434654332,9,0.17048068344593048,0.40713727474212646,0.5874475836753845,0.6782926321029663,0.7641931772232056,2.7363109588623047,-0.04491051286458969,7.029552936553955,11.292556762695312,0.8759551644325256,-1.2743477821350098,-0.040004003793001175,0.9745162725448608,12.63796615600586,-20.783950805664062,20.48787498474121,1.074805736541748,1.6219186782836914,1.5208511352539062,5.954747200012207,9.670638084411621,-0.6448959112167358
9_20251106_211129,1762434654351,9,0.16870629787445068,0.41076555848121643,0.5750646591186523,0.6871029138565063,0.7641931772232056,2.7363109588623047,-0.04491051286458969,7.029552936553955,11.292556762695312,0.8759551644325256,-1.1277403831481934,-0.1365206390619278,1.0264397859573364,12.09046745300293,-21.705101013183594,20.151670455932617,1.074805736541748,1.6219186782836914,1.5208511352539062,5.954747200012207,9.670638084411621,-0.6448959112167358
9_20251106_211129,1762434654370,9,0.16649816930294037,0.4154437482357025,0.5632107853889465,0.6946067214012146,0.8855975866317749,2.8010401725769043,-0.005063008517026901,8.709012985229492,12.44411849975586,0.6413334608078003,-1.0526039600372314,-0.26174789667129517,0.9916204810142517,11.516864776611328,-22.676589965820312,19.66474723815918,1.9161434173583984,1.881134033203125,0.8251021504402161,6.792869567871094,10.562984466552734,-0.18376867473125458
9_20251106_211129,1762434654390,9,0.16491498053073883,0.4209758937358856,0.551658570766449,0.7008959650993347,0.9561082720756531,2.8439877033233643,0.019092321395874023,9.453577995300293,13.247339248657227,0.9094725251197815,-1.0526039600372314,-0.26174789667129517,0.9916204810142517,10.955842971801758,-23.646743774414062,19.124250411987305,2.1285667419433594,2.1474838256835938,0.8745929598808289,7.325011253356934,11.099855422973633,0.03487955033779144
9_20251106_211129,1762434654409,9,0.16515487432479858,0.42633017897605896,0.5405609011650085,0.7062296867370605,1.0266350507736206,2.8898515701293945,0.044477641582489014,9.836633682250977,13.68904972076416,1.3416073322296143,-1.0257258415222168,-0.47982659935951233,0.5377479791641235,10.419700622558594,-24.60301971435547,18.612031936645508,2.0092978477478027,2.071354866027832,1.0453822612762451,7.827335834503174,11.617694854736328,0.29622510075569153
9_20251106_211129,1762434654428,9,0.16753315925598145,0.430986225605011,0.53045654296875,0.7104923725128174,1.0995882749557495,2.939945936203003,0.07271966338157654,9.997037887573242,13.99549388885498,1.800077199935913,-0.9634177088737488,-0.5684019923210144,0.22070924937725067,10.409259796142578,-25.670013427734375,18.444297790527344,1.7357616424560547,1.9022388458251953,1.203081727027893,8.261276245117188,12.093255043029785,0.59699547290802
9_20251106_211129,1762434654447,9,0.17220091819763184,0.4346380829811096,0.5218573212623596,0.7135134935379028,1.0995882749557495,2.939945936203003,0.07271966338157654,9.997037887573242,13.99549388885498,1.800077199935913,-0.9084398746490479,-0.6142168641090393,-0.10427079349756241,10.063648223876953,-26.48786163330078,17.847461700439453,1.7357616424560547,1.9022388458251953,1.203081727027893,8.261276245117188,12.093255043029785,0.59699547290802
9_20251106_211129,1762434654466,9,0.17907880246639252,0.4369947016239166,0.5148125290870667,0.7154959440231323,1.2458982467651367,3.048356533050537,0.1395759880542755,9.41646957397461,14.104425430297852,2.9253036975860596,-0.9084398746490479,-0.6142168641090393,-0.10427079349756241,9.847044944763184,-27.17205810546875,17.244651794433594,0.6577329635620117,1.272592544555664,1.591052532196045,8.758736610412598,12.831832885742188,1.3342511653900146
9_20251106_211129,1762434654485,9,0.18799827992916107,0.43863144516944885,0.5093144774436951,0.7161409258842468,1.3143396377563477,3.1026906967163086,0.17868489027023315,8.622825622558594,13.572936058044434,3.341876983642578,-0.604229211807251,-0.8402367830276489,-0.5654736757278442,9.79328727722168,-27.77032470703125,16.62276840209961,-0.10872840881347656,0.5928821563720703,1.6061006784439087,8.73155403137207,12.980053901672363,1.7357763051986694
9_20251106_211129,1762434654504,9,0.19784988462924957,0.4405013918876648,0.5057212114334106,0.7148846387863159,1.3768208026885986,3.154358386993408,0.22023171186447144,7.8064374923706055,12.99835205078125,3.3370885848999023,-0.2749730944633484,-1.0522068738937378,-0.6338905096054077,9.790993690490723,-28.31531524658203,16.017417907714844,-0.7400932312011719,0.014637947082519531,1.2810497283935547,8.546530723571777,12.98371410369873,2.0560388565063477
9_20251106_211129,1762434654523,9,0.20782698690891266,0.44391509890556335,0.5041888356208801,0.7110140323638916,1.429097294807434,3.199937343597412,0.2598527669906616,6.939774513244629,12.609312057495117,2.9612152576446533,-0.2749730944633484,-1.0522068738937378,-0.6338905096054077,10.090044975280762,-28.666793823242188,15.562698364257812,-1.285405158996582,-0.29952144622802734,0.7241411209106445,8.225179672241211,12.908833503723145,2.237074136734009
9_20251106_211129,1762434654542,9,0.21729819476604462,0.44885748624801636,0.5042886734008789,0.7049832344055176,1.4781287908554077,3.2455694675445557,0.3025735914707184,6.202391624450684,12.093382835388184,2.5326716899871826,0.21616210043430328,-1.3668022155761719,-0.6131211519241333,11.45576000213623,-28.49761199951172,16.84889793395996,-1.6182308197021484,-0.6523609161376953,0.23647809028625488,7.820622444152832,12.745743751525879,2.2961935997009277
9_20251106_211129,1762434654561,9,0.22642682492733002,0.455057829618454,0.5054311156272888,0.6972751617431641,1.5157362222671509,3.2834420204162598,0.34062516689300537,5.399171829223633,11.539148330688477,2.1125071048736572,0.32123085856437683,-1.4657622575759888,-0.6167863011360168,12.072248458862305,-28.603073120117188,16.397672653198242,-1.9371604919433594,-0.9652767181396484,-0.14694929122924805,7.336332321166992,12.504425048828125,2.2594563961029053
9_20251106_211129,1762434654580,9,0.2356501966714859,0.46202927827835083,0.5070141553878784,0.688429057598114,1.5435374975204468,3.315199613571167,0.3760524392127991,4.447517395019531,10.965763092041016,1.9963933229446411,0.33528074622154236,-1.5384552478790283,-0.6412209272384644,12.792470932006836,-28.58930206298828,15.966264724731445,-2.311051845550537,-1.2309293746948242,-0.21045053005218506,6.758569240570068,12.19669246673584,2.206843852996826
9_20251106_211129,1762434654600,9,0.2453257441520691,0.4692403972148895,0.5085943937301636,0.6789407134056091,1.5609774589538574,3.3404550552368164,0.4095480442047119,3.4886810779571533,10.405543327331543,2.14841890335083,0.3334481716156006,-1.5427312850952148,-0.682759702205658,13.712913513183594,-28.462905883789062,15.598878860473633,-2.615910768508911,-1.4329195022583008,-0.046740055084228516,6.1045918464660645,11.838462829589844,2.1951589584350586
9_20251106_211129,1762434654620,9,0.25529080629348755,0.4760330617427826,0.5103003978729248,0.6691880226135254,1.5676653385162354,3.3603451251983643,0.44529595971107483,2.6363821029663086,9.860885620117188,2.367478609085083,0.3786521553993225,-1.480423092842102,-0.7163572311401367,14.85792064666748,-28.18309783935547,15.849802017211914,-2.7745680809020996,-1.582061767578125,0.13785576820373535,5.410950183868408,11.442947387695312,2.2296228408813477
9_20251106_211129,1762434654639,9,0.2650974690914154,0.48220133781433105,0.5124386548995972,0.6592509150505066,1.5635944604873657,3.371281147003174,0.47632813453674316,1.8319646120071411,9.197721481323242,2.3411436080932617,0.478833943605423,-1.3875716924667358,-0.7469004988670349,15.818346977233887,-27.991661071777344,15.498723983764648,-2.8631887435913086,-1.7961807250976562,0.08921670913696289,4.69515323638916,10.993902206420898,2.251926898956299
9_20251106_211129,1762434654657,9,0.2740517854690552,0.48752501606941223,0.5155999660491943,0.6491314768791199,1.5504515171051025,3.3756189346313477,0.5033949613571167,0.8455958962440491,8.758403778076172,1.9018263816833496,0.5741288065910339,-1.3313721418380737,-0.7078051567077637,15.818346977233887,-27.991661071777344,15.498723983764648,-3.079645872116089,-1.7883987426757812,-0.28008031845092773,3.925241708755493,10.546802520751953,2.1819067001342773
9_20251106_211129,1762434654676,9,0.2821955382823944,0.49285775423049927,0.5191384553909302,0.6387113332748413,1.5261855125427246,3.3735742568969727,0.528865396976471,-0.11563471704721451,8.216139793395996,1.5726377964019775,0.7219580411911011,-1.3820738792419434,-0.5666953921318054,16.859148025512695,-27.658004760742188,15.221075057983398,-3.232701301574707,-1.8645296096801758,-0.487415075302124,3.1170666217803955,10.080669403076172,2.0600528717041016
9_20251106_211129,1762434654695,9,0.28905239701271057,0.49940788745880127,0.5227952599525452,0.6274755597114563,1.4924441576004028,3.365734815597534,0.5499055981636047,-0.7788000702857971,7.931241989135742,0.9094724655151367,0.8539048433303833,-1.413227915763855,-0.3223494589328766,17.880794525146484,-27.249252319335938,14.808866500854492,-3.1166932582855225,-1.7195425033569336,-0.920464277267456,2.33789324760437,9.650784492492676,1.8299367427825928
9_20251106_211129,1762434654714,9,0.29416200518608093,0.5076673626899719,0.5258520841598511,0.6158101558685303,1.4924441576004028,3.365734815597534,0.5499055981636047,-0.7788000702857971,7.931241989135742,0.9094724655151367,0.8905566930770874,-1.3997889757156372,-0.050514690577983856,18.886547088623047,-26.892730712890625,14.516756057739258,-3.1166932582855225,-1.7195425033569336,-0.920464277267456,2.33789324760437,9.650784492492676,1.8299367427825928
9_20251106_211129,1762434654733,9,0.29738596081733704,0.5171651244163513,0.5278704762458801,0.6045283675193787,1.4055548906326294,3.337501287460327,0.5784479379653931,-0.5884692072868347,7.957576751708984,0.22356322407722473,0.8520722389221191,-1.2635661363601685,0.11808396130800247,19.822792053222656,-26.489669799804688,14.114629745483398,-1.8226916790008545,-1.0645008087158203,-1.0807493925094604,1.2342225313186646,9.022077560424805,1.3043125867843628
9_20251106_211129,1762434654752,9,0.29920488595962524,0.5266215205192566,0.5290409326553345,0.5943583846092224,1.4055548906326294,3.337501287460327,0.5784479379653931,-0.5884692072868347,7.957576751708984,0.22356322407722473,0.786709725856781,-1.0980217456817627,0.1162513718008995,20.610395431518555,-26.13421630859375,13.746374130249023,-1.8226916790008545,-1.0645008087158203,-1.0807493925094604,1.2342225313186646,9.022077560424805,1.3043125867843628
9_20251106_211129,1762434654772,9,0.3005485534667969,0.5350074768066406,0.5301071405410767,0.5851700305938721,1.310254693031311,3.301924228668213,0.587845504283905,-0.13837864995002747,8.076085090637207,-0.5748687386512756,0.6694236993789673,-0.9361425638198853,-0.0010346523486077785,21.275543212890625,-25.787513732910156,13.454313278198242,-0.8650578260421753,-0.6230564117431641,-1.2482597827911377,0.7266791462898254,8.699141502380371,0.6733910441398621
9_20251106_211129,1762434654791,9,0.3021391034126282,0.5414861440658569,0.5315840840339661,0.5769948959350586,1.310254693031311,3.301924228668213,0.587845504283905,-0.13837864995002747,8.076085090637207,-0.5748687386512756,0.5582463145256042,-0.7333354353904724,-0.18368321657180786,21.886098861694336,-25.55632781982422,13.090330123901367,-0.8650578260421753,-0.6230564117431641,-1.2482597827911377,0.7266791462898254,8.699141502380371,0.6733910441398621
9_20251106_211129,1762434654811,9,0.3042655885219574,0.5456299185752869,0.5338831543922424,0.5698063373565674,1.2534977197647095,3.278442859649658,0.5847191214561462,-0.40771472454071045,7.80794620513916,-0.8944809436798096,0.41774749755859375,-0.4920439124107361,-0.26309558749198914,22.388107299804688,-25.29596710205078,12.857889175415039,-0.9075151681900024,-0.712956428527832,-1.2542976140975952,0.4998004138469696,8.520902633666992,0.35981667041778564
9_20251106_211129,1762434654829,9,0.3063412606716156,0.547662079334259,0.5365122556686401,0.5642480850219727,1.203571081161499,3.256643533706665,0.5773071646690369,-0.7249329090118408,7.597265243530273,-1.4068180322647095,0.2711399495601654,-0.3173365890979767,-0.2020091563463211,22.837139129638672,-25.11412811279297,12.621904373168945,-0.9797866344451904,-0.7389097213745117,-1.413307785987854,0.254853755235672,8.336174964904785,0.006489753723144531
9_20251106_211129,1762434654848,9,0.3079853057861328,0.5486939549446106,0.5385592579841614,0.5603872537612915,1.1109848022460938,3.212846279144287,0.5521429777145386,-0.21020163595676422,7.608038425445557,-1.8724702596664429,0.2711399495601654,-0.3173365890979767,-0.2020091563463211,23.138248443603516,-24.955718994140625,12.514932632446289,-0.23021765053272247,-0.4434075355529785,-1.223602533340454,0.020016014575958252,8.051445960998535,-0.6488677263259888
9_20251106_211129,1762434654867,9,0.30927538871765137,0.5496879816055298,0.5396146178245544,0.5576808452606201,1.0657689571380615,3.190237522125244,0.5354653596878052,0.15848958492279053,7.86540412902832,-1.5408875942230225,0.1172020360827446,-0.2342589944601059,-0.041351720690727234,23.375890731811523,-24.86272430419922,12.269025802612305,0.11077886074781418,-0.1488332748413086,-0.713615894317627,0.04771072417497635,8.014237403869629,-0.8272716999053955
9_20251106_211129,1762434654886,9,0.310340940952301,0.5507631897926331,0.5401776432991028,0.5554786324501038,1.0236629247665405,3.168902635574341,0.5180019736289978,0.3571997880935669,8.066508293151855,-1.4175914525985718,0.1172020360827446,-0.2342589944601059,-0.041351720690727234,23.599258422851562,-24.78496551513672,12.211591720581055,0.24759125709533691,0.04181671142578125,-0.4722558259963989,0.10960853099822998,8.024691581726074,-0.9453356266021729
9_20251106_211129,1762434654906,9,0.3109235167503357,0.5512188076972961,0.5411091446876526,0.5537917613983154,1.0236629247665405,3.168902635574341,0.5180019736289978,0.3571997880935669,8.066508293151855,-1.4175914525985718,0.12697584927082062,0.035132355988025665,-0.08044706284999847,23.796039581298828,-24.746604919433594,12.165903091430664,0.24759125709533691,0.04181671142578125,-0.4722558259963989,0.10960853099822998,8.024691581726074,-0.9453356266021729
9_20251106_211129,1762434654924,9,0.3107113540172577,0.5506483316421509,0.5426269173622131,0.5529927015304565,0.9806746244430542,3.1465530395507812,0.496907114982605,0.4745106101036072,8.04017448425293,-1.768326997756958,0.08665879815816879,0.10721439868211746,-0.04929296672344208,23.93349838256836,-24.68682861328125,12.091257095336914,0.2919216752052307,0.012386322021484375,-0.658393144607544,0.18258893489837646,8.027788162231445,-1.109933853149414
9_20251106_211129,1762434654944,9,0.3101685345172882,0.5498374104499817,0.5439534783363342,0.5528010129928589,0.9468455910682678,3.1285996437072754,0.4773746728897095,0.6600532531738281,8.127557754516602,-2.066392183303833,0.03595702722668648,0.14753146469593048,-0.012030215933918953,24.035003662109375,-24.61701202392578,12.028921127319336,0.38197147846221924,0.07981586456298828,-0.7651667594909668,0.2780817747116089,8.047741889953613,-1.3012254238128662
9_20251106_211129,1762434654963,9,0.3095123767852783,0.5489805936813354,0.5448681712150574,0.5531193614006042,0.8867514729499817,3.0956056118011475,0.4355018436908722,1.0885969400405884,8.193395614624023,-1.815011978149414,-0.006192641332745552,0.1872376650571823,0.012404372915625572,24.110742568969727,-24.562286376953125,12.05994987487793,0.5604828000068665,0.08613204956054688,-0.30545711517333984,0.5281141400337219,8.107263565063477,-1.5095548629760742
9_20251106_211129,1762434654981,9,0.30873000621795654,0.5479146242141724,0.5455202460289001,0.553970217704773,0.8614314198493958,3.0800907611846924,0.4152001440525055,1.3495537042617798,8.09882926940918,-1.5025819540023804,-0.010468694381415844,0.17440950870513916,0.03256290778517723,24.150726318359375,-24.49725341796875,12.076257705688477,0.6571516990661621,-0.006747245788574219,0.005578279495239258,0.6924020051956177,8.105576515197754,-1.5081602334976196
9_20251106_211129,1762434655000,9,0.30782002210617065,0.546942949295044,0.5460379123687744,0.5549259781837463,0.8614314198493958,3.0800907611846924,0.4152001440525055,1.3495537042617798,8.09882926940918,-1.5025819540023804,-0.010468694381415844,0.17440950870513916,0.03256290778517723,24.18920135498047,-24.457473754882812,12.105554580688477,0.6571516990661621,-0.006747245788574219,0.005578279495239258,0.6924020051956177,8.105576515197754,-1.5081602334976196
9_20251106_211129,1762434655020,9,0.3066970109939575,0.5460377931594849,0.5466715693473816,0.5558145642280579,0.8206841945648193,3.0516459941864014,0.3774721324443817,1.7745062112808228,8.376544952392578,-1.3373892307281494,0.043287403881549835,0.20067669451236725,-0.00225638085976243,24.178550720214844,-24.4097900390625,12.281831741333008,0.7275962829589844,0.20406436920166016,0.1215512752532959,1.0469099283218384,8.172480583190918,-1.4589405059814453
9_20251106_211129,1762434655039,9,0.30550312995910645,0.5448905825614929,0.5476452708244324,0.5566388368606567,0.8053855299949646,3.0398035049438477,0.36112427711486816,1.7038804292678833,8.395697593688965,-1.3038718700408936,0.053061239421367645,0.27764564752578735,-0.10793598741292953,24.094051361083984,-24.40265655517578,12.265146255493164,0.5255764722824097,0.1785736083984375,0.1240549087524414,1.1783039569854736,8.217123985290527,-1.427926778793335
9_20251106_211129,1762434655059,9,0.30434781312942505,0.542762279510498,0.5494581460952759,0.5575636625289917,0.8053855299949646,3.0398035049438477,0.36112427711486816,1.7038804292678833,8.395697593688965,-1.3038718700408936,0.0707763209939003,0.3613341450691223,-0.1916244477033615,24.010679244995117,-24.35919952392578,12.384416580200195,0.5255764722824097,0.1785736083984375,0.1240549087524414,1.1783039569854736,8.217123985290527,-1.427926778793335
9_20251106_211129,1762434655078,9,0.30323928594589233,0.5399074554443359,0.5519164800643921,0.5585105419158936,0.7904946804046631,3.0279908180236816,0.34448397159576416,1.3124451637268066,8.226913452148438,-1.5241289138793945,0.0707763209939003,0.3613341450691223,-0.1916244477033615,24.010679244995117,-24.35919952392578,12.384416580200195,0.10731291770935059,0.007831573486328125,-0.07696163654327393,1.205132246017456,8.21908187866211,-1.4471672773361206
9_20251106_211129,1762434655096,9,0.3016167879104614,0.5365384221076965,0.554463803768158,0.5601103901863098,0.7642159461975098,3.006718158721924,0.31310325860977173,1.1352818012237549,7.9563798904418945,-1.9095786809921265,0.039622217416763306,0.44807690382003784,-0.16413554549217224,23.951988220214844,-24.302139282226562,12.558996200561523,-0.03646862506866455,-0.19762420654296875,-0.312031626701355,1.1717504262924194,8.154004096984863,-1.5975470542907715
9_20251106_211129,1762434655115,9,0.2994421124458313,0.5335144996643066,0.5563116669654846,0.5623291730880737,0.7517614364624023,2.9955008029937744,0.29685741662979126,1.2035136222839355,7.86540412902832,-1.9011993408203125,0.012133299373090267,0.440135657787323,0.0753234401345253,23.931560516357422,-24.217178344726562,12.695024490356445,0.02541053295135498,-0.2308797836303711,-0.2429218292236328,1.1781030893325806,8.096283912658691,-1.6582775115966797
9_20251106_211129,1762434655134,9,0.2968055009841919,0.5315165519714355,0.5573956966400146,0.5645411014556885,0.7402916550636292,2.983297824859619,0.2812565863132477,1.3100510835647583,7.532624244689941,-1.719247817993164,0.053061239421367645,0.3588906526565552,0.17428351938724518,23.91103744506836,-24.132347106933594,12.844572067260742,0.10555839538574219,-0.450927734375,-0.04877626895904541,1.2044926881790161,7.983551979064941,-1.6704715490341187
9_20251106_211129,1762434655153,9,0.29377567768096924,0.5305318236351013,0.5580185651779175,0.5664336681365967,0.7402916550636292,2.983297824859619,0.2812565863132477,1.3100510835647583,7.532624244689941,-1.719247817993164,0.053061239421367645,0.3588906526565552,0.17428351938724518,23.792022705078125,-24.06683349609375,13.030477523803711,0.10555839538574219,-0.450927734375,-0.04877626895904541,1.2044926881790161,7.983551979064941,-1.6704715490341187
9_20251106_211129,1762434655172,9,0.2905453145503998,0.5297104120254517,0.5583091974258423,0.5685781240463257,0.7190159559249878,2.955227851867676,0.25342169404029846,1.1017645597457886,7.227376937866211,-1.610316514968872,0.03595702722668648,0.357668936252594,0.2188766449689865,23.621047973632812,-24.055267333984375,13.267431259155273,-0.09007012844085693,-0.4939117431640625,0.018388748168945312,1.1918346881866455,7.721288681030273,-1.6287052631378174
9_20251106_211129,1762434655191,9,0.28730523586273193,0.5280359387397766,0.5583473443984985,0.5717359781265259,0.7089365124702454,2.940142869949341,0.23999711871147156,1.156828761100769,7.251317977905273,-1.8437411785125732,-0.21816271543502808,0.5836889147758484,0.23292653262615204,23.502639770507812,-23.977333068847656,13.467119216918945,-0.028004765510559082,-0.3759765625,-0.1720287799835205,1.1848335266113281,7.627294540405273,-1.6717123985290527
9_20251106_211129,1762434655210,9,0.2840726673603058,0.5252954959869385,0.5578188300132751,0.5763727426528931,0.6997242569923401,2.9243831634521484,0.2273760885000229,1.3172333240509033,7.106474876403809,-1.6234838962554932,-0.41425028443336487,0.6502731442451477,0.2799631357192993,23.34727668762207,-23.902320861816406,13.719400405883789,0.10591983795166016,-0.4166555404663086,0.038582801818847656,1.2113134860992432,7.523130416870117,-1.6620666980743408
9_20251106_211129,1762434655229,9,0.28118860721588135,0.5219348073005676,0.5561461448669434,0.5824246406555176,0.691053032875061,2.907595157623291,0.2168155163526535,1.2406222820281982,6.861079692840576,-1.1410731077194214,-0.41425028443336487,0.6502731442451477,0.2799631357192993,23.22242546081543,-23.937530517578125,13.930227279663086,0.023447036743164062,-0.5296406745910645,0.41679489612579346,1.2171752452850342,7.390720367431641,-1.5578680038452148
9_20251106_211129,1762434655250,9,0.2786019444465637,0.5181567668914795,0.5535507202148438,0.5894710421562195,0.6820200681686401,2.889728307723999,0.20819520950317383,1.0981733798980713,7.035848617553711,-0.9196189641952515,-0.6268312335014343,0.8274238705635071,0.39541658759117126,22.972991943359375,-24.030784606933594,14.121580123901367,-0.09520149230957031,-0.28389739990234375,0.5105992555618286,1.1933748722076416,7.319746017456055,-1.43021821975708
9_20251106_211129,1762434655269,9,0.27513620257377625,0.5136979818344116,0.550460934638977,0.5978354215621948,0.6745623350143433,2.8731791973114014,0.2021709680557251,1.44651460647583,7.165130138397217,-0.7903376221656799,-0.6738678216934204,0.9471533894538879,0.6574774980545044,22.613590240478516,-24.131591796875,14.349065780639648,0.20251178741455078,-0.12369251251220703,0.5119044184684753,1.2440028190612793,7.288822650909424,-1.3022420406341553
9_20251106_211129,1762434655287,9,0.26977288722991943,0.5096771717071533,0.5460935831069946,0.6076459288597107,0.6705257892608643,2.8571181297302246,0.19891977310180664,2.3550751209259033,7.165130138397217,-0.40129655599594116,-0.6934155225753784,0.9697553515434265,1.0288832187652588,22.238574981689453,-24.29583740234375,14.561223983764648,0.8888578414916992,-0.0989537239074707,0.720756471157074,1.466217279434204,7.2640838623046875,-1.1220530271530151
9_20251106_211129,1762434655306,9,0.26213398575782776,0.5073190927505493,0.5397540926933289,0.6185293793678284,0.6726996898651123,2.842235565185547,0.19878073036670685,3.6562678813934326,7.400949001312256,-0.0469699427485466,-0.6231660842895508,0.8371977210044861,1.329428791999817,21.821460723876953,-24.562789916992188,14.756284713745117,1.7520405054092407,0.10949182510375977,0.8600664734840393,1.904227375984192,7.291457176208496,-0.9070364236831665
9_20251106_211129,1762434655325,9,0.2528397738933563,0.5073491930961609,0.5318489074707031,0.6291307806968689,0.6824159622192383,2.8297934532165527,0.20237784087657928,4.692912578582764,7.909694671630859,0.45219966769218445,-0.4551781713962555,0.6203407645225525,1.4180041551589966,21.216609954833984,-24.94116973876953,14.847265243530273,2.2309482097625732,0.49459028244018555,1.0873888731002808,2.4619643688201904,7.415104389190674,-0.6351892352104187
9_20251106_211129,1762434655345,9,0.2430969625711441,0.5094928741455078,0.5237212777137756,0.6379944682121277,0.6999644041061401,2.820929765701294,0.2088671326637268,5.493738651275635,8.492658615112305,0.48451998829841614,-0.3360596001148224,0.5812453627586365,1.3166004419326782,20.470565795898438,-25.453994750976562,14.943723678588867,2.425419569015503,0.8620433807373047,0.8957674503326416,3.068319082260132,7.630615234375,-0.4112474322319031
9_20251106_211129,1762434655364,9,0.23346078395843506,0.5115320682525635,0.5164926052093506,0.6458067893981934,0.7251256704330444,2.8152389526367188,0.2167670577764511,6.16288948059082,8.625532150268555,0.2211691290140152,-0.4124176800251007,0.6912010312080383,1.051485300064087,19.661094665527344,-25.99738311767578,15.185884475708008,2.475656270980835,0.795933723449707,0.5059332251548767,3.6872332096099854,7.829598426818848,-0.2847641110420227
9_20251106_211129,1762434655383,9,0.22518706321716309,0.5113595724105835,0.5102103352546692,0.6538253426551819,0.7251256704330444,2.8152389526367188,0.2167670577764511,6.16288948059082,8.625532150268555,0.2211691290140152,-0.6072835922241211,0.8420846462249756,0.7057358026504517,18.780719757080078,-26.507736206054688,15.412374496459961,2.475656270980835,0.795933723449707,0.5059332251548767,3.6872332096099854,7.829598426818848,-0.2847641110420227
9_20251106_211129,1762434655403,9,0.21910931169986725,0.5081315636634827,0.5046809315681458,0.6626390814781189,0.7937592267990112,2.808816909790039,0.23300336301326752,6.421452045440674,8.35140609741211,-0.17984241247177124,-0.8943899869918823,0.9117231965065002,0.26835671067237854,17.83315658569336,-27.14655303955078,15.525644302368164,1.7242350578308105,0.32993507385253906,0.04512418806552887,4.697216987609863,8.02147102355957,-0.2249666005373001
9_20251106_211129,1762434655421,9,0.10665280371904373,0.4156249761581421,0.5732244253158569,0.6980650424957275,0.8332642912864685,2.8067879676818848,0.2418571561574936,5.739133834838867,8.19219970703125,0.06674975156784058,-1.224256992340088,0.9831944108009338,-0.11404462903738022,10.956003189086914,-24.192832946777344,19.191144943237305,0.8335332870483398,0.1365833282470703,0.23337309062480927,4.905600547790527,8.05561637878418,-0.1666233390569687
9_20251106_211129,1762434655440,9,0.10681720077991486,0.4077129065990448,0.5661445260047913,0.7084071040153503,0.8673102855682373,2.8040661811828613,0.25058838725090027,5.014919281005859,7.654723167419434,0.3049625754356384,-1.4447791576385498,1.0076289176940918,-0.2814215421676636,10.071261405944824,-24.813499450683594,19.14493751525879,0.08745479583740234,-0.32071495056152344,0.3772687315940857,4.927464485168457,7.975438117980957,-0.07230617105960846
9_20251106_211129,1762434655460,9,0.10882758349180222,0.39826756715774536,0.5582196712493896,0.719673752784729,0.9043307304382324,2.8000266551971436,0.26390907168388367,4.714459419250488,7.670285224914551,1.0148128271102905,-1.5474042892456055,0.9581489562988281,-0.20628522336483002,9.284896850585938,-25.426597595214844,18.98100471496582,-0.17040395736694336,-0.24412250518798828,0.8696951866149902,4.884863376617432,7.914407730102539,0.1451176106929779
9_20251106_211129,1762434655479,9,0.11090841889381409,0.38920360803604126,0.5491952896118164,0.7311664819717407,0.9357948303222656,2.7971951961517334,0.2805493474006653,4.755159378051758,8.147908210754395,2.037093162536621,-1.5663411617279053,0.9098906517028809,-0.07067322731018066,9.284896850585938,-25.426597595214844,18.98100471496582,-0.10376310348510742,0.18680047988891602,1.5135804414749146,4.858922481536865,7.9611077308654785,0.5235127210617065
9_20251106_211129,1762434655498,9,0.1124180480837822,0.38098132610321045,0.5392733812332153,0.7425628900527954,0.9357948303222656,2.7971951961517334,0.2805493474006653,4.755159378051758,8.147908210754395,2.037093162536621,-1.4912047386169434,0.7486223578453064,0.060662686824798584,8.182249069213867,-26.531883239746094,18.38978385925293,-0.10376310348510742,0.18680047988891602,1.5135804414749146,4.858922481536865,7.9611077308654785,0.5235127210617065
9_20251106_211129,1762434655517,9,0.11353181302547455,0.3744215667247772,0.5290250182151794,0.7530282139778137,0.992809534072876,2.795954465866089,0.32928866147994995,4.589966773986816,8.548919677734375,3.140772581100464,-1.4912047386169434,0.7486223578453064,0.060662686824798584,8.182249069213867,-26.531883239746094,18.38978385925293,-0.19071006774902344,0.39075565338134766,1.741698145866394,4.78067684173584,8.158164024353027,1.3990744352340698
9_20251106_211129,1762434655536,9,0.11366855353116989,0.36982521414756775,0.5186325907707214,0.762449324131012,1.019237756729126,2.796858072280884,0.36029449105262756,4.935914039611816,8.46153450012207,3.454399585723877,-1.379416584968567,0.5916301608085632,0.24453295767307281,7.742779731750488,-27.06861114501953,17.848669052124023,0.12418985366821289,0.24269676208496094,1.6442601680755615,4.8117241859436035,8.21883773803711,1.8101394176483154
9_20251106_211129,1762434655554,9,0.1121070384979248,0.3673882484436035,0.5084840059280396,0.770650327205658,1.0443753004074097,2.7987022399902344,0.3926052153110504,5.360866546630859,8.637500762939453,3.599242687225342,-1.0361106395721436,0.37049707770347595,0.655034065246582,7.353240966796875,-27.600540161132812,17.147321701049805,0.4393138885498047,0.334930419921875,1.4312825202941895,4.921552658081055,8.302570343017578,2.1679601669311523
9_20251106_211129,1762434655573,9,0.10911333560943604,0.36664849519729614,0.4986877739429474,0.7778005599975586,1.0443753004074097,2.7987022399902344,0.3926052153110504,5.360866546630859,8.637500762939453,3.599242687225342,-0.9780784845352173,0.32956916093826294,0.7484963536262512,7.000556945800781,-28.129684448242188,16.406896591186523,0.4393138885498047,0.334930419921875,1.4312825202941895,4.921552658081055,8.302570343017578,2.1679601669311523
9_20251106_211129,1762434655594,9,0.10549997538328171,0.36677810549736023,0.4888278543949127,0.7844685316085815,1.0751608610153198,2.8028316497802734,0.4330528974533081,5.794198036193848,8.924793243408203,3.551360607147217,-1.0397758483886719,0.2868086099624634,0.7576593160629272,6.625700950622559,-28.63422393798828,15.557886123657227,0.6981163024902344,0.49777793884277344,1.1067204475402832,5.096081733703613,8.42701530456543,2.4446401596069336
9_20251106_211129,1762434655613,9,0.10232856869697571,0.3672829866409302,0.4783478081226349,0.7910849452018738,1.1064213514328003,2.8089325428009033,0.4731183648109436,6.216756820678711,9.204902648925781,3.5860748291015625,-1.1246860027313232,0.2813108563423157,0.6556448936462402,6.211566925048828,-29.191238403320312,14.692832946777344,0.8965396881103516,0.622309684753418,0.9131476879119873,5.320217132568359,8.582592964172363,2.672927141189575
9_20251106_211129,1762434655631,9,0.09998054802417755,0.36712226271629333,0.4676600992679596,0.7978215217590332,1.1689801216125488,2.8253674507141113,0.5505480766296387,6.98047399520874,9.537683486938477,4.507802963256836,-1.1472880840301514,0.33384519815444946,0.42168375849723816,5.729151248931885,-29.665252685546875,13.840200424194336,1.100487232208252,0.6229410171508789,1.2463350296020508,5.879986763000488,8.914742469787598,3.261467933654785
9_20251106_211129,1762434655651,9,0.09944988787174225,0.3655947744846344,0.4574602544307709,0.8044751286506653,1.1689801216125488,2.8253674507141113,0.5505480766296387,6.98047399520874,9.537683486938477,4.507802963256836,-1.1136903762817383,0.4028729200363159,0.17611610889434814,5.226171493530273,-30.089279174804688,12.852479934692383,1.100487232208252,0.6229410171508789,1.2463350296020508,5.879986763000488,8.914742469787598,3.261467933654785
9_20251106_211129,1762434655670,9,0.10032732784748077,0.3624204099178314,0.4483698904514313,0.810894787311554,1.2369321584701538,2.8485207557678223,0.6383089423179626,6.155706882476807,9.416780471801758,4.44795036315918,-1.0330562591552734,0.43219441175460815,0.030730312690138817,4.694504737854004,-30.578758239746094,11.970590591430664,0.09218835830688477,0.27054882049560547,0.7275550365447998,6.063518524169922,9.146231651306152,3.72039532661438
9_20251106_211129,1762434655689,9,0.10209869593381882,0.3584480881690979,0.4403983950614929,0.8167864084243774,1.2691799402236938,2.8595516681671143,0.6825633645057678,5.758286476135254,8.920005798339844,3.8362584114074707,-0.9279875755310059,0.41142499446868896,0.06188441812992096,4.2785468101501465,-30.96009063720703,11.041160583496094,-0.2441854476928711,-0.18098068237304688,0.09269046783447266,6.002471923828125,9.10098648071289,3.743567943572998
9_20251106_211129,1762434655708,9,0.10320825129747391,0.3547118008136749,0.4332323670387268,0.8220932483673096,1.2691799402236938,2.8595516681671143,0.6825633645057678,5.758286476135254,8.920005798339844,3.8362584114074707,-0.9231005907058716,0.27764564752578735,0.20604847371578217,3.875084400177002,-31.32861328125,10.16655158996582,-0.2441854476928711,-0.18098068237304688,0.09269046783447266,6.002471923828125,9.10098648071289,3.743567943572998
9_20251106_211129,1762434655727,9,0.10394653677940369,0.3527563512325287,0.4254544675350189,0.82688969373703,1.3005166053771973,2.869595527648926,0.7258542776107788,5.754694938659668,8.814664840698242,3.4891140460968018,-1.00251305103302,0.17440952360630035,0.26774582266807556,3.5265121459960938,-31.581214904785156,9.323310852050781,-0.19822168350219727,-0.22905731201171875,-0.20356321334838867,5.952916622161865,9.043722152709961,3.6926772594451904
9_20251106_211129,1762434655746,9,0.1048816666007042,0.35181179642677307,0.41678115725517273,0.8315778970718384,1.327180027961731,2.877143383026123,0.7648864388465881,5.854050636291504,8.648274421691895,4.3569746017456055,-1.0348889827728271,0.24771328270435333,0.20177242159843445,3.189124584197998,-31.845985412597656,8.520845413208008,-0.07909297943115234,-0.3163576126098633,0.531437873840332,5.933143615722656,8.964632034301758,3.8255367279052734
9_20251106_211129,1762434655765,9,0.10612976551055908,0.34986642003059387,0.408000111579895,0.8365798592567444,1.3713551759719849,2.887824773788452,0.8402048945426941,5.286649703979492,8.516599655151367,4.838188648223877,-1.0348889827728271,0.24771328270435333,0.20177242159843445,2.926447868347168,-32.09221649169922,7.599941253662109,-0.4735126495361328,-0.30321216583251953,0.6549921035766602,5.760162353515625,8.819811820983887,4.183196544647217
9_20251106_211129,1762434655784,9,0.10724876821041107,0.34659138321876526,0.39899349212646484,0.8421260714530945,1.3906927108764648,2.891801357269287,0.881192684173584,5.22559928894043,8.544132232666016,5.354116439819336,-1.2083745002746582,0.5024438500404358,0.21215711534023285,2.689058303833008,-32.31242370605469,6.748126983642578,-0.42765045166015625,-0.22054386138916016,0.9367361068725586,5.653249740600586,8.764676094055176,4.417380332946777
9_20251106_211129,1762434655803,9,0.10810692608356476,0.34227845072746277,0.3889869451522827,0.8484382629394531,1.3906927108764648,2.891801357269287,0.881192684173584,5.22559928894043,8.544132232666016,5.354116439819336,-1.2548002004623413,0.5427609086036682,0.25247421860694885,2.468380928039551,-32.456085205078125,5.857837677001953,-0.42765045166015625,-0.22054386138916016,0.9367361068725586,5.653249740600586,8.764676094055176,4.417380332946777
9_20251106_211129,1762434655822,9,0.10848677903413773,0.3375549614429474,0.37851032614707947,0.8549954295158386,1.42500901222229,2.8951833248138428,0.9700047373771667,5.456630229949951,8.052145004272461,6.318938732147217,-1.2548002004623413,0.5427609086036682,0.25247421860694885,2.299168109893799,-32.546478271484375,4.98408317565918,-0.12315511703491211,-0.49892234802246094,1.2734980583190918,5.579785346984863,8.551067352294922,5.045440673828125
9_20251106_211129,1762434655842,9,0.10853677242994308,0.3340350091457367,0.3682679831981659,0.8608246445655823,1.4414762258529663,2.894273281097412,1.0197782516479492,5.582320213317871,7.995882987976074,6.497298717498779,-1.0086216926574707,0.3210170269012451,0.420462042093277,2.042229175567627,-32.692115783691406,4.051774978637695,0.0020275115966796875,-0.44414806365966797,1.1614861488342285,5.580292701721191,8.440031051635742,5.335812568664551
9_20251106_211129,1762434655860,9,0.10749588906764984,0.3318411409854889,0.35881754755973816,0.8657805919647217,1.4560294151306152,2.8920979499816895,1.0647908449172974,5.772650718688965,7.872586250305176,6.333303451538086,-0.9035530090332031,0.28253257274627686,0.47421810030937195,1.751749038696289,-32.789642333984375,3.0920181274414062,0.1538863182067871,-0.45395565032958984,0.7979927062988281,5.618764400482178,8.326541900634766,5.535310745239258
9_20251106_211129,1762434655880,9,0.10595529526472092,0.33028942346572876,0.34993627667427063,0.8701878786087036,1.4726667404174805,2.8884472846984863,1.1143988370895386,6.038395881652832,7.8809661865234375,6.224371433258057,-0.8534620404243469,0.2758130431175232,0.4314575791358948,1.4620723724365234,-32.874473571777344,2.119009017944336,0.3357048034667969,-0.3564605712890625,0.5512480735778809,5.702691078186035,8.2374267578125,5.673123359680176
9_20251106_211129,1762434655899,9,0.1046176329255104,0.32873350381851196,0.3416021764278412,0.874241054058075,1.4881103038787842,2.8845808506011963,1.1585248708724976,6.197603702545166,7.934832572937012,6.368017673492432,-0.8497968912124634,0.284365177154541,0.2952347695827484,1.1832842826843262,-32.97187805175781,1.2273235321044922,0.39593029022216797,-0.24207496643066406,0.555915355682373,5.801673412322998,8.176907539367676,5.812102317810059
9_20251106_211129,1762434655920,9,0.10447482764720917,0.3267512023448944,0.33370375633239746,0.878043532371521,1.5070096254348755,2.8788883686065674,1.2127516269683838,6.064731121063232,7.849842548370361,6.625383377075195,-0.8479642868041992,0.29413899779319763,0.10708840191364288,0.8854665756225586,-32.97081756591797,0.3773174285888672,0.21044588088989258,-0.26165246963500977,0.6506247520446777,5.85428524017334,8.111495018005371,5.974758625030518
9_20251106_211129,1762434655939,9,0.10580712556838989,0.32406291365623474,0.3264354169368744,0.881605327129364,1.521106481552124,2.8733065128326416,1.2567001581192017,5.613443374633789,7.6415557861328125,6.705585479736328,-0.7874886989593506,0.29841506481170654,-0.008975893259048462,0.6699209213256836,-33.02631378173828,-0.5381565093994141,-0.1926736831665039,-0.37595176696777344,0.5846614837646484,5.806117057800293,8.017507553100586,6.12092399597168
9_20251106_211129,1762434655957,9,0.10795354098081589,0.3209853768348694,0.320005863904953,0.884822428226471,1.5340800285339355,2.8666975498199463,1.3017213344573975,5.382412910461426,7.648737907409668,6.467372894287109,-0.6934155225753784,0.3002476692199707,0.009350048378109932,0.6699209213256836,-33.02631378173828,-0.5381565093994141,-0.33896350860595703,-0.295015811920166,0.2771587371826172,5.721376419067383,7.943753719329834,6.190214157104492
9_20251106_211129,1762434655976,9,0.1097092553973198,0.31796297430992126,0.31430724263191223,0.8877355456352234,1.5456883907318115,2.8592514991760254,1.345176339149475,5.460221290588379,7.5182600021362305,6.439840316772461,-0.6934155225753784,0.3002476692199707,0.009350048378109932,0.5426216125488281,-33.002655029296875,-1.272902488708496,-0.2089242935180664,-0.3403949737548828,0.19970083236694336,5.669145584106445,7.858654975891113,6.240139484405518
9_20251106_211129,1762434655995,9,0.11068667471408844,0.31576505303382874,0.30883949995040894,0.8903140425682068,1.5566325187683105,2.8511223793029785,1.3871345520019531,5.6385817527771,7.473968505859375,6.486525535583496,-0.5602469444274902,0.18601594865322113,0.16389881074428558,0.4149141311645508,-32.99114990234375,-2.0484609603881836,-0.02445077896118164,-0.30774879455566406,0.19710874557495117,5.663032531738281,7.781717300415039,6.289416790008545
9_20251106_211129,1762434656014,9,0.11113779246807098,0.3143293857574463,0.30371910333633423,0.8925246000289917,1.567254662513733,2.8424863815307617,1.4273812770843506,5.745119094848633,7.448830604553223,6.430264472961426,-0.5602469444274902,0.18601594865322113,0.16389881074428558,0.23958873748779297,-32.946502685546875,-2.69002628326416,0.06566905975341797,-0.2663092613220215,0.11267805099487305,5.679450035095215,7.715139865875244,6.317586421966553
9_20251106_211129,1762434656033,9,0.11173605173826218,0.31304314732551575,0.2989360988140106,0.8945145606994629,1.567254662513733,2.8424863815307617,1.4273812770843506,5.745119094848633,7.448830604553223,6.430264472961426,-0.5260385870933533,0.15302924811840057,0.0905950590968132,0.102935791015625,-32.86180114746094,-3.3293285369873047,0.06566905975341797,-0.2663092613220215,0.11267805099487305,5.679450035095215,7.715139865875244,6.317586421966553
9_20251106_211129,1762434656052,9,0.11221326887607574,0.31157252192497253,0.29449471831321716,0.8964394330978394,1.5870693922042847,2.8242180347442627,1.5025889873504639,5.643369674682617,7.46558952331543,6.411110877990723,-0.5174864530563354,0.12370774894952774,0.04905625432729721,0.05007648468017578,-32.796783447265625,-3.95220947265625,-0.03362560272216797,-0.1507101058959961,0.06770849227905273,5.676995277404785,7.616299629211426,6.34340238571167
9_20251106_211129,1762434656070,9,0.113653264939785,0.3104269802570343,0.29004621505737305,0.8981042504310608,1.5951919555664062,2.815190076828003,1.5357041358947754,5.478177070617676,7.289623260498047,6.393155097961426,-0.47167155146598816,0.09255364537239075,0.0014088074676692486,0.03730010986328125,-32.666603088378906,-4.572299003601074,-0.15905475616455078,-0.2613410949707031,0.03980255126953125,5.637231826782227,7.55096435546875,6.3533525466918945
9_20251106_211129,1762434656090,9,0.11561403423547745,0.3094918429851532,0.28606918454170227,0.8994513154029846,1.5951919555664062,2.815190076828003,1.5357041358947754,5.478177070617676,7.289623260498047,6.393155097961426,-0.41608285903930664,0.0638430044054985,-0.03341047838330269,0.0085296630859375,-32.58879089355469,-5.058772087097168,-0.15905475616455078,-0.2613410949707031,0.03980255126953125,5.637231826782227,7.55096435546875,6.3533525466918945
9_20251106_211129,1762434656110,9,0.11775030940771103,0.3087271451950073,0.28264734148979187,0.9005181193351746,1.6032719612121582,2.802786350250244,1.5743273496627808,5.269890785217285,7.0286664962768555,6.4003376960754395,-0.43135446310043335,0.06262127310037613,-0.03646480292081833,-0.045416831970214844,-32.52526092529297,-5.5329742431640625,-0.2938728332519531,-0.41783809661865234,0.03758811950683594,5.563763618469238,7.446504592895508,6.3627495765686035
9_20251106_211129,1762434656129,9,0.11984549462795258,0.3078727126121521,0.27911925315856934,0.9016340374946594,1.6130183935165405,2.7793467044830322,1.636704683303833,5.133427143096924,6.77249813079834,6.900704383850098,-0.460065096616745,0.05590175837278366,-0.04012998938560486,-0.1151723861694336,-32.52544403076172,-5.99547004699707,-0.2834596633911133,-0.4570293426513672,0.4017496109008789,5.416886806488037,7.229527473449707,6.498954772949219
9_20251106_211129,1762434656148,9,0.12211567908525467,0.3070104718208313,0.2753180265426636,0.9027913808822632,1.6165577173233032,2.766214370727539,1.6688706874847412,5.188491344451904,6.764118671417236,7.202361106872559,-0.4551782011985779,0.07850375771522522,-0.03951912745833397,-0.14353466033935547,-32.43547821044922,-6.441130638122559,-0.18271636962890625,-0.3723273277282715,0.5627250671386719,5.3712077140808105,7.136445999145508,6.639636039733887
9_20251106_211129,1762434656167,9,0.1243450865149498,0.3059178292751312,0.27151578664779663,0.904008686542511,1.6196749210357666,2.7527105808258057,1.7014747858047485,5.281860828399658,6.761724472045898,7.385509490966797,-0.4173045754432678,0.08522326499223709,-0.0743384137749672,-0.12194061279296875,-32.31748962402344,-6.857269287109375,-0.07147741317749023,-0.2997775077819824,0.5966987609863281,5.353338241577148,7.061501979827881,6.788810729980469
9_20251106_211129,1762434656185,9,0.12671923637390137,0.3046862781047821,0.26813122630119324,0.9051045179367065,1.622428297996521,2.7394447326660156,1.7323615550994873,5.332137107849121,6.609699249267578,7.415435791015625,-0.34400078654289246,0.0540691614151001,-0.1299271136522293,-0.018667221069335938,-32.256866455078125,-7.257778167724609,-0.016960620880126953,-0.36144256591796875,0.5012998580932617,5.349097728729248,6.971141815185547,6.914135932922363
9_20251106_211129,1762434656204,9,0.12939965724945068,0.303656667470932,0.2654971778392792,0.905847430229187,1.624778151512146,2.7247891426086426,1.7647390365600586,5.1992645263671875,6.478023529052734,7.426209449768066,-0.2737513780593872,0.01680641621351242,-0.187348410487175,0.03728485107421875,-32.162689208984375,-7.56484317779541,-0.11986637115478516,-0.39449453353881836,0.40965890884399414,5.319130897521973,6.872518062591553,7.016550540924072
9_20251106_211129,1762434656224,9,0.1325540393590927,0.30292952060699463,0.2635264992713928,0.90621018409729,1.625915765762329,2.7091379165649414,1.797943353652954,4.920351982116699,6.545058727264404,7.288548469543457,-0.2370995134115219,0.029634574428200722,-0.25148919224739075,0.10550880432128906,-32.079193115234375,-7.979811668395996,-0.31902313232421875,-0.26196718215942383,0.21759796142578125,5.239375114440918,6.807025909423828,7.070950508117676
9_20251106_211129,1762434656243,9,0.13652433454990387,0.3020707666873932,0.26192617416381836,0.9063713550567627,1.6254595518112183,2.693650245666504,1.8280836343765259,4.6988983154296875,6.310437202453613,7.134129524230957,-0.2370995134115219,0.029634574428200722,-0.25148919224739075,3.1280317306518555,-36.331260681152344,-8.345562934875488,-0.43238162994384766,-0.39727115631103516,0.05054283142089844,5.131279945373535,6.707708358764648,7.083586692810059
9_20251106_211129,1762434656262,9,0.14076781272888184,0.3008970320224762,0.26057323813438416,0.9065026044845581,1.6233177185058594,2.677157402038574,1.8568817377090454,4.508566856384277,6.059056282043457,7.143705368041992,-0.2169409841299057,0.0436844639480114,-0.2539326548576355,3.2611312866210938,-36.15724182128906,-8.621068954467773,-0.4981703758239746,-0.5189213752746582,0.048094749450683594,5.006737232208252,6.577977657318115,7.095610618591309
9_20251106_211129,1762434656281,9,0.14468394219875336,0.29988783597946167,0.2592087388038635,0.9066116213798523,1.6197125911712646,2.659947156906128,1.8847233057022095,4.43435001373291,6.015962600708008,7.27178955078125,-0.18517601490020752,0.03940841183066368,-0.2123938649892807,3.4170942306518555,-36.00688934326172,-8.88260555267334,-0.45790958404541016,-0.4496116638183594,0.1409435272216797,4.89225959777832,6.465574264526367,7.13084602355957
9_20251106_211129,1762434656300,9,0.14804984629154205,0.29899853467941284,0.2579959034919739,0.9067078828811646,1.6148769855499268,2.6417694091796875,1.9115135669708252,4.37808895111084,5.799296855926514,7.255031108856201,-0.1552436500787735,0.05284743383526802,-0.20078742504119873,3.57033634185791,-35.90662384033203,-9.158714294433594,-0.41133642196655273,-0.5330219268798828,0.09934759140014648,4.789425373077393,6.3323187828063965,7.155683517456055
9_20251106_211129,1762434656320,9,0.15126235783100128,0.29805654287338257,0.2569914162158966,0.9067730903625488,1.6148769855499268,2.6417694091796875,1.9115135669708252,4.37808895111084,5.799296855926514,7.255031108856201,-0.1350851058959961,0.032078031450510025,-0.17024420201778412,3.7215757369995117,-35.83228302001953,-9.354253768920898,-0.41133642196655273,-0.5330219268798828,0.09934759140014648,4.789425373077393,6.3323187828063965,7.155683517456055
9_20251106_211129,1762434656340,9,0.1541820913553238,0.2973904609680176,0.2560144066810608,0.9067763686180115,1.601325511932373,2.6014511585235596,1.96280038356781,4.203319549560547,5.670015335083008,7.197572708129883,-0.13080905377864838,0.028412844985723495,-0.13420318067073822,3.8129982948303223,-35.737205505371094,-9.511167526245117,-0.38698244094848633,-0.4169793128967285,0.031023025512695312,4.590301990509033,6.086994647979736,7.1665496826171875
9_20251106_211129,1762434656359,9,0.15664859116077423,0.2968073785305023,0.2549959123134613,0.906831681728363,1.5927907228469849,2.58028244972229,1.9869893789291382,4.11713171005249,5.641286849975586,7.123355865478516,-0.12653300166130066,0.05284743756055832,-0.11893153935670853,4.024166584014893,-35.67185974121094,-9.663969039916992,-0.3785362243652344,-0.3565664291381836,-0.03455495834350586,4.495667934417725,5.9978532791137695,7.1579108238220215
9_20251106_211129,1762434656377,9,0.15888532996177673,0.2960330843925476,0.2540315091609955,0.9069663286209106,1.5845319032669067,2.561325788497925,2.00740909576416,4.105161666870117,5.649665832519531,7.051532745361328,-0.11798088252544403,0.05956694483757019,-0.07494928687810898,4.024166584014893,-35.67185974121094,-9.663969039916992,-0.3124051094055176,-0.2785501480102539,-0.08510255813598633,4.417566776275635,5.928215980529785,7.1366353034973145
9_20251106_211129,1762434656396,9,0.1608545184135437,0.2953583598136902,0.2529897689819336,0.9071303606033325,1.5760136842727661,2.5418643951416016,2.027615785598755,4.331403732299805,5.76338529586792,7.038365364074707,-0.14241547882556915,0.0644538626074791,-0.015084540471434593,4.210270881652832,-35.609046936035156,-9.723138809204102,-0.06893062591552734,-0.1318645477294922,-0.07861566543579102,4.400334358215332,5.895249843597412,7.116981029510498
9_20251106_211129,1762434656415,9,0.16234925389289856,0.2947530150413513,0.2515951097011566,0.9074487686157227,1.5760136842727661,2.5418643951416016,2.027615785598755,4.331403732299805,5.76338529586792,7.038365364074707,-0.1454698145389557,0.028412844985723495,0.00018707802519202232,4.335938930511475,-35.549530029296875,-9.852340698242188,-0.06893062591552734,-0.1318645477294922,-0.07861566543579102,4.400334358215332,5.895249843597412,7.116981029510498
9_20251106_211129,1762434656434,9,0.16380567848682404,0.29454007744789124,0.2500850558280945,0.9076735973358154,1.5606199502944946,2.50429105758667,2.0659472942352295,4.454699516296387,5.6305131912231445,7.330445289611816,-0.1454698145389557,0.028412844985723495,0.00018707802519202232,4.461297512054443,-35.50202941894531,-10.035872459411621,0.03498554229736328,-0.18628549575805664,0.1607494354248047,4.419713973999023,5.816798686981201,7.169695854187012
9_20251106_211129,1762434656453,9,0.16539156436920166,0.2947850525379181,0.24894686043262482,0.9076193571090698,1.5533045530319214,2.486205577850342,2.0836598873138428,4.325418472290039,5.667621612548828,7.070685386657715,-0.09598975628614426,-0.01923460327088833,-0.016917133703827858,4.549406051635742,-35.457855224609375,-10.126260757446289,-0.07543611526489258,-0.11934185028076172,-0.0792083740234375,4.400854587554932,5.78696346282959,7.149893760681152
9_20251106_211129,1762434656472,9,0.16688784956932068,0.29453086853027344,0.24825073778629303,0.9076186418533325,1.5533045530319214,2.486205577850342,2.0836598873138428,4.325418472290039,5.667621612548828,7.070685386657715,-0.10087666660547256,0.09255364537239075,-0.04868210107088089,4.624623775482178,-35.427032470703125,-10.21740436553955,-0.07543611526489258,-0.11934185028076172,-0.0792083740234375,4.400854587554932,5.78696346282959,7.149893760681152
9_20251106_211129,1762434656491,9,0.16737723350524902,0.293410062789917,0.24771295487880707,0.9080383777618408,1.5450295209884644,2.4668478965759277,2.1016275882720947,4.223669052124023,5.6771979331970215,6.961753845214844,-0.1760130375623703,0.1511966437101364,-0.053569015115499496,4.65270471572876,-35.374000549316406,-10.337014198303223,-0.14174842834472656,-0.08781242370605469,-0.1505117416381836,4.36541748046875,5.765010356903076,7.112265586853027
9_20251106_211129,1762434656511,9,0.16905905306339264,0.2919420301914215,0.24631047248840332,0.9085813164710999,1.537751317024231,2.449883222579956,2.1167502403259277,4.3050689697265625,5.6460747718811035,6.995271682739258,-0.2432081699371338,0.1573053002357483,-0.06700804084539413,4.753493785858154,-35.32836151123047,-10.49449348449707,-0.04827880859375,-0.09514856338500977,-0.09359550476074219,4.3533477783203125,5.741223335266113,7.0888671875
9_20251106_211129,1762434656531,9,0.17088863253593445,0.2902613878250122,0.2444085031747818,0.9092908501625061,1.5244178771972656,2.4168994426727295,2.145972967147827,4.397241592407227,5.5503106117248535,7.379524230957031,-0.2432081699371338,0.1573053002357483,-0.06700804084539413,4.734141826629639,-35.25353240966797,-10.602021217346191,0.033263206481933594,-0.1202692985534668,0.21838855743408203,4.363978385925293,5.67057991027832,7.161135673522949
9_20251106_211129,1762434656549,9,0.17301905155181885,0.2887224853038788,0.24212945997714996,0.9099873900413513,1.5186195373535156,2.4019033908843994,2.1596007347106934,4.358935832977295,5.522778511047363,7.3591742515563965,-0.27680566906929016,0.13531416654586792,-0.0737275555729866,4.713577747344971,-35.20354461669922,-10.737109184265137,-0.0040340423583984375,-0.1182413101196289,0.1584310531616211,4.362969875335693,5.641019821166992,7.200743198394775
9_20251106_211129,1762434656570,9,0.1749763935804367,0.2878176271915436,0.24020405113697052,0.9104099869728088,1.5119709968566895,2.385183334350586,2.1750471591949463,4.296689510345459,5.6113600730896,7.302913188934326,-0.1754021793603897,0.011308632791042328,-0.050514690577983856,4.738938331604004,-35.20060729980469,-10.871291160583496,-0.0530242919921875,-0.023727893829345703,0.08173608779907227,4.3497138023376465,5.635087966918945,7.221177101135254
9_20251106_211129,1762434656587,9,0.17681542038917542,0.28752949833869934,0.23856018483638763,0.9105778932571411,1.5119709968566895,2.385183334350586,2.1750471591949463,4.296689510345459,5.6113600730896,7.302913188934326,-0.17418044805526733,0.0436844639480114,-0.02974529378116131,4.802279472351074,-35.15856170654297,-10.90859603881836,-0.0530242919921875,-0.023727893829345703,0.08173608779907227,4.3497138023376465,5.635087966918945,7.221177101135254
9_20251106_211129,1762434656606,9,0.17842841148376465,0.2870110869407654,0.23695074021816254,0.910847008228302,1.5008152723312378,2.359355926513672,2.201272487640381,4.269157409667969,5.743035316467285,7.525564193725586,-0.1442480832338333,0.06017781049013138,-0.02913442812860012,4.842645645141602,-35.10459899902344,-11.041231155395508,-0.05040693283081055,0.06832027435302734,0.20917272567749023,4.319564342498779,5.674715042114258,7.316391468048096
9_20251106_211129,1762434656625,9,0.1798841655254364,0.28636977076530457,0.23566272854804993,0.9110966324806213,1.4950896501541138,2.346851110458374,2.21482515335083,4.245216369628906,5.670015335083008,7.472894191741943,-0.11859174817800522,0.07850375771522522,-0.03829739987850189,4.870726585388184,-35.05156707763672,-11.16084098815918,-0.0594782829284668,-0.0037598609924316406,0.12520217895507812,4.304694652557373,5.6737751960754395,7.347692012786865
9_20251106_211129,1762434656644,9,0.18136334419250488,0.2852996587753296,0.23504945635795593,0.9112975597381592,1.4896427392959595,2.335298776626587,2.226844549179077,4.18536376953125,5.552704811096191,7.275381088256836,-0.1143156960606575,0.07178424298763275,-0.03218875080347061,4.970204830169678,-35.030906677246094,-11.332365036010742,-0.09546470642089844,-0.09685611724853516,-0.05784893035888672,4.280828475952148,5.649560928344727,7.333230018615723
9_20251106_211129,1762434656664,9,0.18276578187942505,0.28435924649238586,0.23440691828727722,0.911476731300354,1.4896427392959595,2.335298776626587,2.226844549179077,4.18536376953125,5.552704811096191,7.275381088256836,-0.1143156960606575,0.07178424298763275,-0.03218875080347061,5.02386999130249,-34.951446533203125,-11.423433303833008,-0.09546470642089844,-0.09685611724853516,-0.05784893035888672,4.280828475952148,5.649560928344727,7.333230018615723
9_20251106_211129,1762434656683,9,0.18400838971138,0.28386691212654114,0.23350143432617188,0.9116126298904419,1.4780503511428833,2.31087064743042,2.2514827251434326,4.228457450866699,5.441379070281982,7.475288391113281,-0.11370483040809631,0.02047160267829895,0.06188441440463066,5.099693775177002,-34.908203125,-11.500797271728516,-0.028154850006103516,-0.14740943908691406,0.11026144027709961,4.256612300872803,5.5887885093688965,7.365026950836182
9_20251106_211129,1762434656702,9,0.18473593890666962,0.28366199135780334,0.23246625065803528,0.9117938280105591,1.472812294960022,2.2987678050994873,2.2636301517486572,4.354147911071777,5.495246410369873,7.462120532989502,-0.11370483040809631,0.02047160267829895,0.06188441440463066,5.128183364868164,-34.843017578125,-11.579593658447266,0.07802867889404297,-0.07483339309692383,0.07767486572265625,4.276119232177734,5.570079803466797,7.384445667266846
9_20251106_211129,1762434656721,9,0.18482762575149536,0.2836998701095581,0.23124979436397552,0.9120727181434631,1.468941569328308,2.288435935974121,2.2745375633239746,4.5229315757751465,5.576645851135254,7.596189975738525,-0.10087666660547256,-0.010071631520986557,0.1376316398382187,5.134006977081299,-34.75390625,-11.699392318725586,0.1974501609802246,0.005252838134765625,0.16939544677734375,4.325481414794922,5.571393013000488,7.426794528961182
9_20251106_211129,1762434656740,9,0.1848677396774292,0.2840628921985626,0.22994665801525116,0.9122810363769531,1.4658087491989136,2.278191566467285,2.2860023975372314,4.598345756530762,5.6137542724609375,7.61893367767334,-0.09171369671821594,0.01741728000342846,0.10525581240653992,5.1393232345581055,-34.67707824707031,-11.846487045288086,0.2182917594909668,0.033888816833496094,0.15371131896972656,4.380053997039795,5.579865455627441,7.465222358703613
9_20251106_211129,1762434656760,9,0.18522164225578308,0.2842862010002136,0.2287808507680893,0.9124327898025513,1.4632549285888672,2.2676570415496826,2.2983431816101074,4.599542617797852,5.6460747718811035,7.555490493774414,-0.08010726422071457,0.05040397495031357,0.07165824621915817,5.1314520835876465,-34.61400604248047,-11.953788757324219,0.17559099197387695,0.05296754837036133,0.07221460342407227,4.423951625823975,5.593107223510742,7.483275890350342
9_20251106_211129,1762434656779,9,0.1858387142419815,0.2842819094657898,0.22785891592502594,0.9125393629074097,1.461488962173462,2.2588658332824707,2.3089120388031006,4.580389976501465,5.689168453216553,7.469303131103516,-0.07644208520650864,0.06567559391260147,0.06310614198446274,5.146345615386963,-34.574729919433594,-12.03360366821289,0.1251506805419922,0.07684898376464844,-0.011178016662597656,4.455239295959473,5.612319469451904,7.480481147766113
9_20251106_211129,1762434656799,9,0.18654382228851318,0.28420910239219666,0.22710789740085602,0.9126054048538208,1.4603550434112549,2.2510666847229004,2.318803548812866,4.653409957885742,5.813661575317383,7.426208972930908,-0.07033343613147736,0.0436844639480114,0.08082122355699539,5.146345615386963,-34.574729919433594,-12.03360366821289,0.15853643417358398,0.1610736846923828,-0.04341745376586914,4.494873523712158,5.652587890625,7.469626426696777
9_20251106_211129,1762434656816,9,0.18718421459197998,0.2844330966472626,0.22645123302936554,0.912567675113678,1.4599018096923828,2.2445502281188965,2.327543020248413,4.72523307800293,5.856755256652832,7.403465270996094,-0.07033343613147736,0.0436844639480114,0.08082122355699539,5.1525774002075195,-34.47346496582031,-12.112589836120605,0.18428754806518555,0.16333389282226562,-0.052928924560546875,4.540945529937744,5.693421363830566,7.456394195556641
9_20251106_211129,1762434656836,9,0.18791626393795013,0.2852447032928467,0.22616760432720184,0.9122341275215149,1.4599653482437134,2.2382590770721436,2.3363378047943115,4.719247817993164,5.88668155670166,7.314883232116699,-0.03001636639237404,0.004589121323078871,0.08692986518144608,5.057895660400391,-34.441200256347656,-12.210334777832031,0.14264202117919922,0.15460824966430664,-0.11320877075195312,4.576605796813965,5.7320733070373535,7.428092002868652
9_20251106_211129,1762434656857,9,0.18880827724933624,0.2862812578678131,0.22621272504329681,0.9117138981819153,1.4599370956420898,2.2320806980133057,2.3445866107940674,4.549266815185547,5.760991096496582,7.27178955078125,0.01091157179325819,-0.019845468923449516,0.009960913099348545,4.987177848815918,-34.41950225830078,-12.347912788391113,-0.021871089935302734,0.023134231567382812,-0.12504196166992188,4.57113790512085,5.737856864929199,7.396831512451172
9_20251106_211129,1762434656874,9,0.190193772315979,0.287360817193985,0.22652652859687805,0.9110081195831299,1.4597017765045166,2.227567434310913,2.3502323627471924,4.460684776306152,5.716700553894043,7.229892730712891,0.01885281130671501,-0.0009086611680686474,-0.0028672455810010433,5.001267910003662,-34.392921447753906,-12.41447639465332,-0.0883626937866211,-0.016925334930419922,-0.13355064392089844,4.549047470092773,5.733625888824463,7.363443374633789
9_20251106_211129,1762434656894,9,0.19150172173976898,0.2880110740661621,0.22694377601146698,0.9104247689247131,1.4592993259429932,2.2221710681915283,2.3566982746124268,4.508566856384277,5.721488952636719,7.284957408905029,0.01885281130671501,-0.0009086611680686474,-0.0028672455810010433,4.964907646179199,-34.39503479003906,-12.44297981262207,-0.032384395599365234,-0.009709358215332031,-0.06278848648071289,4.540951251983643,5.731198310852051,7.347745895385742
9_20251106_211129,1762434656912,9,0.19189415872097015,0.28829920291900635,0.22762832045555115,0.9100799560546875,1.4592993259429932,2.2221710681915283,2.3566982746124268,4.508566856384277,5.721488952636719,7.284957408905029,0.01152243372052908,-0.02900843694806099,-0.027912700548768044,4.878294467926025,-34.425575256347656,-12.460456848144531,-0.032384395599365234,-0.009709358215332031,-0.06278848648071289,4.540951251983643,5.731198310852051,7.347745895385742
9_20251106_211129,1762434656932,9,0.19325147569179535,0.28897738456726074,0.2279810905456543,0.9094891548156738,1.4585556983947754,2.2117815017700195,2.368361473083496,4.427167892456055,5.555098533630371,7.428603172302246,0.01457675825804472,-0.05099956691265106,-0.07617101073265076,4.8153486251831055,-34.46708679199219,-12.477216720581055,-0.0973367691040039,-0.1268768310546875,0.06247377395629883,4.524504661560059,5.681975364685059,7.366129398345947
9_20251106_211129,1762434656950,9,0.1989305168390274,0.2907432019710541,0.2269795536994934,0.9079511761665344,1.4573121070861816,2.2062742710113525,2.374009370803833,4.2547926902771,5.498837471008301,7.425012111663818,0.003581194207072258,-0.019845468923449516,-0.11832068115472794,4.755432605743408,-34.44647979736328,-12.425076484680176,-0.21576976776123047,-0.14651012420654297,0.047106266021728516,4.47056245803833,5.645347595214844,7.37790584564209
9_20251106_211129,1762434656970,9,0.20080481469631195,0.2908256947994232,0.22727669775485992,0.9074376821517944,1.4551938772201538,2.2002432346343994,2.379507541656494,4.12910270690918,5.353994369506836,7.426208972930908,-0.00985782966017723,0.00031306827440857887,-0.12442933768033981,4.72673225402832,-34.52354431152344,-12.414125442504883,-0.27316808700561523,-0.23308277130126953,0.03864240646362305,4.402270793914795,5.5870771408081055,7.387566566467285
9_20251106_211129,1762434656989,9,0.20253701508045197,0.2904285192489624,0.22758221626281738,0.9071033000946045,1.4521541595458984,2.1936163902282715,2.385043144226074,4.099175930023193,5.3911027908325195,7.399874210357666,-0.020853394642472267,0.00031306827440857887,-0.0889991745352745,4.786252975463867,-34.54468536376953,-12.412200927734375,-0.2424759864807129,-0.15677928924560547,0.009846210479736328,4.341651916503906,5.547882080078125,7.39002799987793
9_20251106_211129,1762434657009,9,0.20393215119838715,0.2899165451526642,0.2275763601064682,0.9069559574127197,1.4521541595458984,2.1936163902282715,2.385043144226074,4.099175930023193,5.3911027908325195,7.399874210357666,-0.02329685352742672,0.0021456624381244183,-0.05784507095813751,4.785758972167969,-34.54535675048828,-12.344619750976562,-0.2424759864807129,-0.15677928924560547,0.009846210479736328,4.341651916503906,5.547882080078125,7.39002799987793
9_20251106_211129,1762434657027,9,0.20511388778686523,0.2894695997238159,0.22752855718135834,0.9068441987037659,1.4484137296676636,2.186765432357788,2.391183614730835,4.1302995681762695,5.476093292236328,7.574643135070801,-0.01169042382389307,0.02047160267829895,-0.05601247400045395,4.723926067352295,-34.562156677246094,-12.320302963256836,-0.1690821647644043,-0.05743122100830078,0.1476917266845703,4.299381732940674,5.533524513244629,7.4269514083862305
9_20251106_211129,1762434657045,9,0.20604416728019714,0.28877532482147217,0.2276395708322525,0.9068267941474915,1.441888689994812,2.175424098968506,2.401770830154419,4.206910610198975,5.340826988220215,7.632102012634277,-0.014744747430086136,0.014362957328557968,-0.0480712354183197,4.759680271148682,-34.57246398925781,-12.305580139160156,-0.0534358024597168,-0.14152193069458008,0.13953208923339844,4.260346412658691,5.482348918914795,7.492569923400879
9_20251106_211129,1762434657064,9,0.20689623057842255,0.2882179021835327,0.22762875258922577,0.906812846660614,1.4384164810180664,2.1690611839294434,2.4081931114196777,4.218881130218506,5.318082809448242,7.817644119262695,-0.023907717317342758,0.009476039558649063,-0.04868210107088089,4.870850086212158,-34.55168151855469,-12.409031867980957,-0.0331721305847168,-0.13141250610351562,0.2600593566894531,4.252053260803223,5.449495315551758,7.557584762573242
9_20251106_211129,1762434657084,9,0.2077951580286026,0.28771573305130005,0.2273106575012207,0.9068465828895569,1.4384164810180664,2.1690611839294434,2.4081931114196777,4.218881130218506,5.318082809448242,7.817644119262695,-0.010468694381415844,0.029634574428200722,-0.06945150345563889,4.972172260284424,-34.47052001953125,-12.349459648132324,-0.0331721305847168,-0.13141250610351562,0.2600593566894531,4.252053260803223,5.449495315551758,7.557584762573242
9_20251106_211129,1762434657103,9,0.20883683860301971,0.2869240343570709,0.2270323485136032,0.9069278240203857,1.4307535886764526,2.155775785446167,2.421327590942383,4.083614349365234,5.304915428161621,7.504017353057861,-0.010468694381415844,0.029634574428200722,-0.06945150345563889,5.029874801635742,-34.5289306640625,-12.388875961303711,-0.11661100387573242,-0.09253120422363281,-0.07239723205566406,4.200225353240967,5.397446632385254,7.576414585113525
9_20251106_211129,1762434657121,9,0.20960506796836853,0.28604957461357117,0.22700510919094086,0.9070336222648621,1.427064299583435,2.149625301361084,2.4262821674346924,4.105161190032959,5.260624885559082,7.361568450927734,0.004802923649549484,0.03879754617810249,-0.06151025742292404,5.0829339027404785,-34.461891174316406,-12.493724822998047,-0.07605123519897461,-0.10945749282836914,-0.1718769073486328,4.181212425231934,5.370082378387451,7.533445358276367
9_20251106_211129,1762434657141,9,0.21002496778964996,0.28561916947364807,0.2271774709224701,0.9070289731025696,1.427064299583435,2.149625301361084,2.4262821674346924,4.105161190032959,5.260624885559082,7.361568450927734,0.04573085904121399,0.01375209167599678,0.008739183656871319,5.105178356170654,-34.50959014892578,-12.58841323852539,-0.07605123519897461,-0.10945749282836914,-0.1718769073486328,4.181212425231934,5.370082378387451,7.533445358276367
9_20251106_211129,1762434657160,9,0.21048983931541443,0.2855882942676544,0.2273302972316742,0.9068926572799683,1.4189977645874023,2.1361849308013916,2.434018135070801,4.075235366821289,5.216333866119385,7.216725826263428,0.0194636769592762,0.041851866990327835,-0.008365029469132423,5.140214920043945,-34.5440673828125,-12.668831825256348,-0.07357120513916016,-0.10261297225952148,-0.21227693557739258,4.148806571960449,5.318946838378906,7.42900276184082
9_20251106_211129,1762434657179,9,0.21109993755817413,0.2853163480758667,0.2273797243833542,0.9068240523338318,1.4150183200836182,2.1293718814849854,2.4366374015808105,4.069250106811523,5.107402801513672,7.245454788208008,-0.034292418509721756,0.07606030255556107,-0.026690969243645668,5.151782035827637,-34.56730651855469,-12.776999473571777,-0.0636453628540039,-0.1692352294921875,-0.14683866500854492,4.132895469665527,5.276638031005859,7.392293453216553
9_20251106_211129,1762434657199,9,0.211869478225708,0.28460970520973206,0.22713111340999603,0.9069289565086365,1.4150183200836182,2.1293718814849854,2.4366374015808105,4.069250106811523,5.107402801513672,7.245454788208008,-0.034292418509721756,0.07606030255556107,-0.026690969243645668,5.17805814743042,-34.53993225097656,-12.843071937561035,-0.0636453628540039,-0.1692352294921875,-0.14683866500854492,4.132895469665527,5.276638031005859,7.392293453216553
9_20251106_211129,1762434657219,9,0.2124692052602768,0.28378382325172424,0.2262580692768097,0.9072656035423279,1.4080828428268433,2.1147258281707764,2.442021131515503,4.313447952270508,5.164860725402832,7.554293632507324,-0.10270927101373672,0.05345829948782921,0.01668042503297329,5.128213882446289,-34.55620574951172,-12.79123306274414,0.13489770889282227,-0.060237884521484375,0.13451623916625977,4.1785502433776855,5.225098609924316,7.4197773933410645
9_20251106_211129,1762434657237,9,0.21306189894676208,0.2833140194416046,0.22497747838497162,0.9075918197631836,1.4080828428268433,2.1147258281707764,2.442021131515503,4.313447952270508,5.164860725402832,7.554293632507324,-0.10148753970861435,0.03696494922041893,-0.005310704465955496,5.128213882446289,-34.55620574951172,-12.79123306274414,0.13489770889282227,-0.060237884521484375,0.13451623916625977,4.1785502433776855,5.225098609924316,7.4197773933410645
9_20251106_211129,1762434657256,9,0.21377521753311157,0.28294837474823,0.22369703650474548,0.9078546166419983,1.4057751893997192,2.1082077026367188,2.4451968669891357,4.361330032348633,5.231895446777344,7.629707336425781,-0.10454186052083969,0.04551705718040466,-0.04684950411319733,5.137073516845703,-34.61792755126953,-12.81909465789795,0.1462240219116211,0.005437374114990234,0.16794395446777344,4.215106010437012,5.2264580726623535,7.461763381958008
9_20251106_211129,1762434657275,9,0.21485845744609833,0.2824513018131256,0.22255736589431763,0.9080337882041931,1.4037935733795166,2.1020665168762207,2.448621988296509,4.291901111602783,5.245062828063965,7.6105546951293945,-0.13141991198062897,0.06628646701574326,-0.06639717519283295,5.142205238342285,-34.529754638671875,-12.844280242919922,0.06143617630004883,0.01488351821899414,0.1190328598022461,4.230464935302734,5.230179309844971,7.491521835327148
9_20251106_211129,1762434657295,9,0.21612809598445892,0.281626433134079,0.22138948738574982,0.9082741141319275,1.399825930595398,2.091134786605835,2.4548609256744385,4.153043270111084,5.301324367523193,7.46451473236084,-0.1448589414358139,0.06323213875293732,-0.0633428543806076,5.1536993980407715,-34.52989959716797,-12.749176025390625,-0.05912637710571289,0.048596858978271484,-0.020540714263916016,4.212169647216797,5.252727508544922,7.485055446624756
9_20251106_211129,1762434657314,9,0.21754756569862366,0.2808684706687927,0.2202596217393875,0.9084446430206299,1.3977811336517334,2.086411237716675,2.45768404006958,4.172196388244629,5.345615386962891,7.474091053009033,-0.1448589414358139,0.06323213875293732,-0.0633428543806076,5.167901039123535,-34.49156951904297,-12.734376907348633,-0.031978607177734375,0.074310302734375,-0.008771419525146484,4.204174995422363,5.271305084228516,7.48286247253418
9_20251106_211129,1762434657332,9,0.21882814168930054,0.2801176607608795,0.2192116528749466,0.9086223840713501,1.3957796096801758,2.0823254585266113,2.4603006839752197,4.138678550720215,5.338433265686035,7.513593673706055,-0.12347866594791412,0.04918224737048149,-0.03341048210859299,5.2460503578186035,-34.398765563964844,-12.74310302734375,-0.05239725112915039,0.053702354431152344,0.02458477020263672,4.191075801849365,5.284730911254883,7.489008903503418
9_20251106_211129,1762434657351,9,0.21947290003299713,0.2794846296310425,0.2184755653142929,0.9088390469551086,1.3933955430984497,2.078277111053467,2.4627718925476074,4.053688049316406,5.302521705627441,7.433391571044922,-0.11003964394330978,0.047960516065359116,-0.016917133703827858,5.345850944519043,-34.354469299316406,-12.765419960021973,-0.1099100112915039,0.014232635498046875,-0.044493675231933594,4.16359806060791,5.2882890701293945,7.4778852462768555
9_20251106_211129,1762434657371,9,0.22050170600414276,0.27900007367134094,0.2176433652639389,0.9089385867118835,1.390615463256836,2.0743303298950195,2.46502423286438,4.03333854675293,5.321674346923828,7.405859470367432,-0.11003964394330978,0.047960516065359116,-0.016917133703827858,5.39630126953125,-34.325775146484375,-12.803479194641113,-0.10420751571655273,0.026708126068115234,-0.05762052536010742,4.137546062469482,5.294966220855713,7.463479995727539
9_20251106_211129,1762434657390,9,0.2212371677160263,0.27859339118003845,0.2168491631746292,0.9090744256973267,1.3881226778030396,2.0708086490631104,2.467207431793213,4.143466949462891,5.309703826904297,7.5183820724487305,-0.10087666660547256,0.03696494922041893,0.05883008986711502,5.495594501495361,-34.29376983642578,-12.853092193603516,0.004736900329589844,0.011790275573730469,0.043921470642089844,4.138730049133301,5.297913551330566,7.474460601806641
9_20251106_211129,1762434657409,9,0.22165656089782715,0.2783566117286682,0.21601572632789612,0.9092431664466858,1.3881226778030396,2.0708086490631104,2.467207431793213,4.143466949462891,5.309703826904297,7.5183820724487305,-0.08132899552583694,0.032078031450510025,0.08082122355699539,5.475339889526367,-34.23176574707031,-12.93385124206543,0.004736900329589844,0.011790275573730469,0.043921470642089844,4.138730049133301,5.297913551330566,7.474460601806641
9_20251106_211129,1762434657429,9,0.22182008624076843,0.27831122279167175,0.21515625715255737,0.9094209671020508,1.3860186338424683,2.0673952102661133,2.469839572906494,4.291901111602783,5.382723808288574,7.575840473175049,-0.06972257047891617,0.012530362233519554,0.060051821172237396,5.498993873596191,-34.25434875488281,-13.0280122756958,0.12253665924072266,0.06784820556640625,0.08110380172729492,4.1693644523620605,5.314875602722168,7.494736671447754
9_20251106_211129,1762434657446,9,0.22214384377002716,0.2785780727863312,0.21441100537776947,0.9094362258911133,1.3844605684280396,2.0627336502075195,2.4750473499298096,4.441532135009766,5.413846969604492,7.709909439086914,-0.07277689129114151,0.01069776900112629,0.002630536910146475,5.500192642211914,-34.241119384765625,-13.095329284667969,0.17706012725830078,0.06410741806030273,0.1470956802368164,4.264472007751465,5.3497395515441895,7.562813758850098
9_20251106_211129,1762434657466,9,0.22303053736686707,0.27887651324272156,0.2136889100074768,0.9092977046966553,1.3844605684280396,2.0627336502075195,2.4750473499298096,4.441532135009766,5.413846969604492,7.709909439086914,-0.07033343613147736,0.016195550560951233,-0.05784507095813751,5.550742149353027,-34.21228790283203,-13.146904945373535,0.17706012725830078,0.06410741806030273,0.1470956802368164,4.264472007751465,5.3497395515441895,7.562813758850098
9_20251106_211129,1762434657485,9,0.22440238296985626,0.2789866626262665,0.2131309062242508,0.9090573191642761,1.3840022087097168,2.058239459991455,2.4812581539154053,4.24162483215332,5.328856468200684,7.5937957763671875,-0.08316159248352051,0.012530362233519554,-0.09571868181228638,5.477118492126465,-34.229339599609375,-13.177144050598145,-0.03454113006591797,-0.014706134796142578,0.007953643798828125,4.276165962219238,5.343562602996826,7.585842132568359
9_20251106_211129,1762434657504,9,0.22617655992507935,0.27896466851234436,0.2125137895345688,0.9087688326835632,1.3833937644958496,2.056047201156616,2.4846115112304688,4.168604850769043,5.34800910949707,7.693151473999023,-0.12103521078824997,0.01069776900112629,-0.1097685769200325,5.443676471710205,-34.18109130859375,-13.218108177185059,-0.08604907989501953,0.0035572052001953125,0.08584785461425781,4.2546539306640625,5.344451904296875,7.607303619384766
9_20251106_211129,1762434657524,9,0.22799283266067505,0.2787070870399475,0.21178270876407623,0.9085646271705627,1.382611870765686,2.0539700984954834,2.48868465423584,4.169801712036133,5.308506965637207,7.9888224601745605,-0.15341104567050934,0.031467169523239136,-0.12870539724826813,5.44608736038208,-34.14301300048828,-13.257865905761719,-0.06788158416748047,-0.028756141662597656,0.30521488189697266,4.237683296203613,5.337263107299805,7.683607578277588
9_20251106_211129,1762434657542,9,0.23001688718795776,0.27800899744033813,0.210894376039505,0.9084749817848206,1.3815908432006836,2.0516815185546875,2.4938480854034424,4.136284828186035,5.22231912612915,8.15521240234375,-0.15341104567050934,0.031467169523239136,-0.12870539724826813,5.437623500823975,-34.08075714111328,-13.284069061279297,-0.08111858367919922,-0.09195518493652344,0.37728357315063477,4.217403411865234,5.314274311065674,7.777928829193115
9_20251106_211129,1762434657561,9,0.2320835292339325,0.2767806947231293,0.2101537436246872,0.908496081829071,1.3800009489059448,2.049133539199829,2.4994797706604004,3.9914417266845703,5.178028106689453,8.04269027709961,-0.1344742327928543,0.06201040372252464,-0.16535727679729462,5.526028633117676,-34.03617858886719,-13.415006637573242,-0.1807694435119629,-0.10899686813354492,0.2118091583251953,4.172211170196533,5.287024974822998,7.830881118774414
9_20251106_211129,1762434657580,9,0.2339618057012558,0.27546969056129456,0.20968621969223022,0.9085207581520081,1.3775873184204102,2.0462167263031006,2.505236864089966,3.8430075645446777,5.106204986572266,7.979246139526367,-0.06178132817149162,0.054069165140390396,-0.14275528490543365,5.617154598236084,-33.941505432128906,-13.5313720703125,-0.2633628845214844,-0.14465618133544922,0.11869192123413086,4.106370449066162,5.250861167907715,7.860554218292236
9_20251106_211129,1762434657599,9,0.23553861677646637,0.2742839753627777,0.20942726731300354,0.9085318446159363,1.3744404315948486,2.042809247970581,2.5106706619262695,3.7951254844665527,5.018820762634277,7.847570419311523,-0.06178132817149162,0.054069165140390396,-0.14275528490543365,5.69368314743042,-33.885704040527344,-13.608470916748047,-0.24899578094482422,-0.18563222885131836,-0.010387420654296875,4.044121265411377,5.204452991485596,7.85795783996582
9_20251106_211129,1762434657620,9,0.23636804521083832,0.27317649126052856,0.20929281413555145,0.9086810350418091,1.3744404315948486,2.042809247970581,2.5106706619262695,3.7951254844665527,5.018820762634277,7.847570419311523,-0.0037491824477910995,0.022915061563253403,0.008128318935632706,5.720565319061279,-33.84590148925781,-13.66076374053955,-0.24899578094482422,-0.18563222885131836,-0.010387420654296875,4.044121265411377,5.204452991485596,7.85795783996582
9_20251106_211129,1762434657639,9,0.23643244802951813,0.27259090542793274,0.20913121104240417,0.9088773727416992,1.3662830591201782,2.0349321365356445,2.52042818069458,3.8322341442108154,5.09902286529541,7.723077297210693,0.009078976698219776,0.01375209167599678,0.06799305975437164,5.798293113708496,-33.77687072753906,-13.805179595947266,-0.13024497032165527,-0.05904817581176758,-0.09379291534423828,3.9624791145324707,5.158071041107178,7.816870212554932
9_20251106_211129,1762434657658,9,0.23603597283363342,0.27232930064201355,0.208974689245224,0.9090948104858398,1.3622238636016846,2.03122615814209,2.524228096008301,3.869342803955078,5.103811264038086,7.701530456542969,0.00785724725574255,0.02047160267829895,0.09792543202638626,5.798293113708496,-33.77687072753906,-13.805179595947266,-0.0745091438293457,-0.043407440185546875,-0.09227180480957031,3.943851947784424,5.147218704223633,7.793802261352539
9_20251106_211129,1762434657676,9,0.23549127578735352,0.2721884846687317,0.20879997313022614,0.9093183279037476,1.3586347103118896,2.027996063232422,2.5272881984710693,3.9698948860168457,5.189998626708984,7.647663116455078,0.00785724725574255,0.02047160267829895,0.09792543202638626,5.887007713317871,-33.72027587890625,-13.88178825378418,0.02083444595336914,0.03422403335571289,-0.11691141128540039,3.9490604400634766,5.1557745933532715,7.7645745277404785
9_20251106_211129,1762434657696,9,0.23472850024700165,0.27197176218032837,0.2085401862859726,0.9096399545669556,1.3586347103118896,2.027996063232422,2.5272881984710693,3.9698948860168457,5.189998626708984,7.647663116455078,-0.01963166519999504,0.04734965041279793,0.14618372917175293,5.9022111892700195,-33.668983459472656,-13.907275199890137,0.02083444595336914,0.03422403335571289,-0.11691141128540039,3.9490604400634766,5.1557745933532715,7.7645745277404785
9_20251106_211129,1762434657714,9,0.23395229876041412,0.2719416916370392,0.20813000202178955,0.9099428057670593,1.353422999382019,2.0217063426971436,2.532339334487915,4.276339530944824,5.134934425354004,7.666816234588623,-0.041011929512023926,0.025358520448207855,0.14129681885242462,5.930404186248779,-33.60420227050781,-13.945523262023926,0.2295694351196289,-0.019275665283203125,-0.05681943893432617,4.046770095825195,5.154210090637207,7.723635673522949
