session_id,timestamp,label,quaternion_w,quaternion_x,quaternion_y,quaternion_z,position_x,position_y,position_z,accelerometer_x,accelerometer_y,accelerometer_z,gyroscope_x,gyroscope_y,gyroscope_z,magnetometer_x,magnetometer_y,magnetometer_z,linear_acceleration_x,linear_acceleration_y,linear_acceleration_z,gravity_x,gravity_y,gravity_z
0_20251106_211809,1762435052270,0,0.3668835461139679,0.47492390871047974,0.5564050078392029,0.5746801495552063,0.9270583391189575,3.4062254428863525,0.7385693788528442,0.5211955308914185,9.261164665222168,-0.5581099987030029,0.10361412167549133,0.184091717004776,-0.15736258029937744,19.65981674194336,-25.199928283691406,8.645374298095703,-0.38896018266677856,-0.15196895599365234,-0.13339245319366455,0.910155713558197,9.41313362121582,-0.4247175455093384
0_20251106_211809,1762435052289,0,0.3663042187690735,0.473221093416214,0.5585048794746399,0.5744174122810364,0.9270583391189575,3.4062254428863525,0.7385693788528442,0.5211955308914185,9.261164665222168,-0.5581099987030029,0.12499438226222992,0.2152458131313324,-0.10482820123434067,19.830947875976562,-24.940345764160156,8.846256256103516,-0.38896018266677856,-0.15196895599365234,-0.13339245319366455,0.910155713558197,9.41313362121582,-0.4247175455093384
0_20251106_211809,1762435052309,0,0.3651435375213623,0.4716712236404419,0.5605955123901367,0.5743945240974426,0.8811002969741821,3.398632049560547,0.733327329158783,0.7510290145874023,9.293484687805176,-0.48030179738998413,0.14942896366119385,0.23723694682121277,-0.07123064249753952,19.9157772064209,-24.69928741455078,9.083992004394531,-0.08805108070373535,-0.07351016998291016,-0.03270101547241211,0.8390800952911377,9.366994857788086,-0.447600781917572
0_20251106_211809,1762435052326,0,0.36359912157058716,0.47031792998313904,0.5626754760742188,0.5744501948356628,0.8613709211349487,3.3948824405670166,0.7308063507080078,0.8312313556671143,9.204902648925781,-0.5437453985214233,0.15859194099903107,0.2628932595252991,-0.05229383707046509,20.019634246826172,-24.55669403076172,9.280044555664062,-0.00627899169921875,-0.12967395782470703,-0.0769156813621521,0.837510347366333,9.334576606750488,-0.46682971715927124
0_20251106_211809,1762435052345,0,0.36157432198524475,0.468779057264328,0.5649397373199463,0.5747636556625366,0.8613709211349487,3.3948824405670166,0.7308063507080078,0.8312313556671143,9.204902648925781,-0.5437453985214233,0.13965512812137604,0.2812192142009735,-0.03824394941329956,20.051082611083984,-24.40630340576172,9.473419189453125,-0.00627899169921875,-0.12967395782470703,-0.0769156813621521,0.837510347366333,9.334576606750488,-0.46682971715927124
0_20251106_211809,1762435052364,0,0.3595506250858307,0.4672758877277374,0.5669964551925659,0.5752317905426025,0.822507917881012,3.3863840103149414,0.7243771553039551,0.7833493947982788,9.214479446411133,-0.6191595196723938,0.13965512812137604,0.2812192142009735,-0.03824394941329956,20.116069793701172,-24.304031372070312,9.694244384765625,-0.041558027267456055,-0.07034969329833984,-0.0882977843284607,0.8249074220657349,9.284829139709473,-0.5308617353439331
0_20251106_211809,1762435052384,0,0.35761281847953796,0.46557724475860596,0.5687733292579651,0.5760623216629028,0.8034053444862366,3.38175892829895,0.720806360244751,0.7761670351028442,9.161809921264648,-0.6275388598442078,0.054744940251111984,0.368572860956192,-0.025415785610675812,20.09575653076172,-24.207321166992188,9.911636352539062,-0.03899228572845459,-0.09841537475585938,-0.07734173536300659,0.8151593208312988,9.260225296020508,-0.5501971244812012
0_20251106_211809,1762435052403,0,0.3554788827896118,0.4634245038032532,0.5705539584159851,0.5773566365242004,0.8034053444862366,3.38175892829895,0.720806360244751,0.7761670351028442,9.161809921264648,-0.6275388598442078,0.054744940251111984,0.368572860956192,-0.025415785610675812,20.072620391845703,-24.16083526611328,10.127971649169922,-0.03899228572845459,-0.09841537475585938,-0.07734173536300659,0.8151593208312988,9.260225296020508,-0.5501971244812012
0_20251106_211809,1762435052421,0,0.3529123365879059,0.4607674181461334,0.5725870728492737,0.5790425539016724,0.7842840552330017,3.376326084136963,0.7169050574302673,0.7953198552131653,9.015768051147461,-0.6514798402786255,0.029088616371154785,0.4791393578052521,-0.006478982977569103,20.028034210205078,-24.065574645996094,10.330863952636719,-0.01587158441543579,-0.19556617736816406,-0.08102619647979736,0.8111914396286011,9.211334228515625,-0.5704536437988281
0_20251106_211809,1762435052441,0,0.3501022458076477,0.4579576551914215,0.5745437145233154,0.5810359120368958,0.7687042355537415,3.371093511581421,0.7130954265594482,0.8072903156280518,8.882896423339844,-0.8274461627006531,0.005875756032764912,0.4382114112377167,0.04666624963283539,19.952743530273438,-24.07330322265625,10.62527847290039,-0.003120899200439453,-0.26275062561035156,-0.205594003200531,0.8104112148284912,9.145647048950195,-0.6218521595001221
0_20251106_211809,1762435052460,0,0.347317636013031,0.4556250274181366,0.575995683670044,0.5830996632575989,0.740817666053772,3.3593626022338867,0.7021204233169556,1.1448582410812378,9.026542663574219,-1.1997284889221191,-0.016726236790418625,0.3129841387271881,0.0772094801068306,19.842487335205078,-24.06964874267578,10.79684066772461,0.23262429237365723,-0.0482635498046875,-0.3851630687713623,0.9122339487075806,9.074806213378906,-0.8145654201507568
0_20251106_211809,1762435052479,0,0.3450884521007538,0.45413661003112793,0.5767785906791687,0.5848079919815063,0.7287411689758301,3.353367805480957,0.6958277821540833,1.1951344013214111,8.946340560913086,-0.9842596650123596,-0.014282778836786747,0.23784781992435455,0.06254873424768448,19.708974838256836,-24.042869567871094,11.008499145507812,0.22632038593292236,-0.10277271270751953,-0.13575541973114014,0.9688140153884888,9.049113273620605,-0.8485042452812195
0_20251106_211809,1762435052499,0,0.3432754874229431,0.45296603441238403,0.5774248242378235,0.5861435532569885,0.7287411689758301,3.353367805480957,0.6958277821540833,1.1951344013214111,8.946340560913086,-0.9842596650123596,-0.017947968095541,0.24884337186813354,0.008792635053396225,19.597930908203125,-24.04029083251953,11.288192749023438,0.22632038593292236,-0.10277271270751953,-0.13575541973114014,0.9688140153884888,9.049113273620605,-0.8485042452812195
0_20251106_211809,1762435052519,0,0.3417395353317261,0.4514220356941223,0.5782718658447266,0.5873957872390747,0.7061834335327148,3.339491605758667,0.6837148666381836,0.9784684181213379,8.781147003173828,-0.6323270797729492,-0.07659097015857697,0.31115156412124634,-0.08039361238479614,19.439550399780273,-24.015777587890625,11.566452026367188,-0.019485950469970703,-0.17475414276123047,0.18202173709869385,0.9979543685913086,8.955901145935059,-0.8143488168716431
0_20251106_211809,1762435052538,0,0.34056395292282104,0.44877856969833374,0.5794095993041992,0.5889809131622314,0.6955202221870422,3.332606792449951,0.6796320080757141,0.7294821739196777,8.775161743164062,-0.4814988374710083,-0.1364557147026062,0.4406549036502838,-0.1750776618719101,19.289623260498047,-24.065139770507812,11.77603530883789,-0.21477776765823364,-0.1445913314819336,0.26627999544143677,0.9442599415779114,8.919753074645996,-0.7477788329124451
0_20251106_211809,1762435052555,0,0.3394472897052765,0.444588303565979,0.5810449123382568,0.5911883115768433,0.6955202221870422,3.332606792449951,0.6796320080757141,0.7294821739196777,8.775161743164062,-0.4814988374710083,-0.14317522943019867,0.5890950560569763,-0.22028164565563202,19.289623260498047,-24.065139770507812,11.77603530883789,-0.21477776765823364,-0.1445913314819336,0.26627999544143677,0.9442599415779114,8.919753074645996,-0.7477788329124451
0_20251106_211809,1762435052575,0,0.3378094732761383,0.43921881914138794,0.5833103656768799,0.5939028859138489,0.6729241013526917,3.316096305847168,0.6757231950759888,0.3883230686187744,8.094040870666504,-0.23370963335037231,-0.10835593938827515,0.7149331569671631,-0.19401445984840393,19.119142532348633,-24.052894592285156,11.94540786743164,-0.37763381004333496,-0.5910854339599609,0.3368569016456604,0.7659568786621094,8.685126304626465,-0.5705665349960327
0_20251106_211809,1762435052595,0,0.33544376492500305,0.43241456151008606,0.5864135026931763,0.5971719026565552,0.6603180766105652,3.3050708770751953,0.6755645275115967,0.3069237172603607,7.8749799728393555,-0.15111324191093445,-0.08147789537906647,0.7515850067138672,-0.11582376807928085,18.909482955932617,-24.092994689941406,12.085220336914062,-0.3672265112400055,-0.6481170654296875,0.33556264638900757,0.6741502285003662,8.523097038269043,-0.486675888299942
0_20251106_211809,1762435052614,0,0.3323448598384857,0.42583250999450684,0.5894742012023926,0.60061115026474,0.6464464664459229,3.291416645050049,0.6763386726379395,0.2578446865081787,7.6583147048950195,-0.17984241247177124,-0.08147789537906647,0.7515850067138672,-0.11582376807928085,18.669212341308594,-24.02300262451172,12.28000259399414,-0.3330444097518921,-0.6918258666992188,0.24546679854393005,0.5908890962600708,8.350140571594238,-0.4253092110157013
0_20251106_211809,1762435052633,0,0.3287075161933899,0.4196990728378296,0.5924209952354431,0.6040210723876953,0.6330530047416687,3.276003360748291,0.675805926322937,0.2722092866897583,7.223785877227783,-0.8741310238838196,-0.0075632669031620026,0.6098644733428955,0.025285981595516205,18.52633285522461,-23.946792602539062,12.492225646972656,-0.25494384765625,-0.9010834693908691,-0.3590574860572815,0.5271531343460083,8.124869346618652,-0.5150735378265381
0_20251106_211809,1762435052651,0,0.3251865804195404,0.4161037802696228,0.5942658185958862,0.6065966486930847,0.6330530047416687,3.276003360748291,0.675805926322937,0.2722092866897583,7.223785877227783,-0.8741310238838196,-0.0075632669031620026,0.6098644733428955,0.025285981595516205,18.259380340576172,-23.91632843017578,12.712268829345703,-0.25494384765625,-0.9010834693908691,-0.3590574860572815,0.5271531343460083,8.124869346618652,-0.5150735378265381
0_20251106_211809,1762435052671,0,0.32209140062332153,0.4136457145214081,0.5949790477752686,0.6092243194580078,0.6069396734237671,3.242349624633789,0.6725468039512634,0.46732833981513977,7.608038425445557,-0.5724745988845825,-0.08636482059955597,0.441265732049942,0.12058087438344955,17.99272346496582,-23.885459899902344,12.891761779785156,-0.009941726922988892,-0.2907423973083496,0.024552226066589355,0.47727006673812866,7.898780822753906,-0.5970268249511719
0_20251106_211809,1762435052690,0,0.31929969787597656,0.4118267595767975,0.594207763671875,0.6126692295074463,0.5957657098770142,3.225684404373169,0.672562301158905,0.8156697154045105,7.678664207458496,-0.05654633045196533,-0.29405882954597473,0.4162202775478363,0.2995642423629761,17.726165771484375,-23.854461669921875,13.0577392578125,0.2707197070121765,-0.17609310150146484,0.4323844015598297,0.544950008392334,7.854757308959961,-0.48893073201179504
0_20251106_211809,1762435052709,0,0.3160572350025177,0.40980905294418335,0.5928892493247986,0.6169657111167908,0.5870229601860046,3.2098684310913086,0.674613893032074,1.227454662322998,7.8606157302856445,0.2534894645214081,-0.30261093378067017,0.4944109618663788,0.3588181138038635,17.327068328857422,-23.80694580078125,13.205333709716797,0.5460036993026733,0.004686832427978516,0.5939362049102783,0.6814509630203247,7.855928897857666,-0.34044671058654785
0_20251106_211809,1762435052730,0,0.3119942843914032,0.40758466720581055,0.5914296507835388,0.6218885183334351,0.5870229601860046,3.2098684310913086,0.674613893032074,1.227454662322998,7.8606157302856445,0.2534894645214081,-0.2708459794521332,0.5371715426445007,0.4070764183998108,16.946508407592773,-23.85857391357422,13.378829956054688,0.5460036993026733,0.004686832427978516,0.5939362049102783,0.6814509630203247,7.855928897857666,-0.34044671058654785
0_20251106_211809,1762435052747,0,0.30717208981513977,0.4054248034954071,0.590033769607544,0.6270057559013367,0.5785335898399353,3.1818552017211914,0.6835250854492188,1.9708223342895508,7.900118827819824,0.07512909919023514,-0.19509874284267426,0.5255651473999023,0.46449771523475647,16.530502319335938,-23.88787078857422,13.591930389404297,0.8870612382888794,-0.0008311271667480469,0.21483057737350464,1.0837610960006714,7.900949954986572,-0.1397014707326889
0_20251106_211809,1762435052767,0,0.30175530910491943,0.4039178192615509,0.5887439846992493,0.6318026781082153,0.5795804858207703,3.169562816619873,0.6880912184715271,2.3670458793640137,8.127558708190918,-0.09964010119438171,-0.15478165447711945,0.4632568657398224,0.5701773166656494,16.074501037597656,-23.993812561035156,13.69384765625,1.0266278982162476,0.18128681182861328,0.032049089670181274,1.3404179811477661,7.946271896362305,-0.131689190864563
0_20251106_211809,1762435052786,0,0.2958020865917206,0.40357205271720886,0.5870935320854187,0.6363582611083984,0.5845247507095337,3.1587207317352295,0.6931278705596924,2.7800278663635254,8.2508544921875,0.12301108241081238,-0.09919297695159912,0.31603845953941345,0.5976662039756775,15.469236373901367,-24.17139434814453,13.720977783203125,1.1516878604888916,0.2436656951904297,0.20376022160053253,1.6283400058746338,8.00718879699707,-0.08074913918972015
0_20251106_211809,1762435052804,0,0.29023945331573486,0.40449342131614685,0.58521968126297,0.6400500535964966,0.5920993685722351,3.1506593227386475,0.6983659863471985,2.8973388671875,8.69615650177002,0.20560748875141144,-0.052156392484903336,0.19875246286392212,0.5604034662246704,14.928426742553711,-24.2822265625,13.751880645751953,1.0151991844177246,0.5511741638183594,0.229085311293602,1.8821396827697754,8.14498233795166,-0.023477818816900253
0_20251106_211809,1762435052823,0,0.2853004038333893,0.40603363513946533,0.5833880305290222,0.6429609656333923,0.5920993685722351,3.1506593227386475,0.6983659863471985,2.8973388671875,8.69615650177002,0.20560748875141144,-0.06803887337446213,0.14499637484550476,0.48160192370414734,14.312287330627441,-24.435630798339844,13.792564392089844,1.0151991844177246,0.5511741638183594,0.229085311293602,1.8821396827697754,8.14498233795166,-0.023477818816900253
0_20251106_211809,1762435052842,0,0.2811986804008484,0.4073854088783264,0.5816040635108948,0.6455239057540894,0.6139161586761475,3.1426706314086914,0.7120487689971924,2.6698992252349854,9.209692001342773,0.3348888158798218,-0.2451896369457245,0.3636859357357025,0.3893613815307617,13.730182647705078,-24.636474609375,13.793113708496094,0.4999525547027588,0.6927146911621094,0.2234172821044922,2.1699466705322266,8.516977310180664,0.11147152632474899
0_20251106_211809,1762435052862,0,0.2770935297012329,0.4062334895133972,0.5797409415245056,0.6496875882148743,0.6277236938476562,3.1421642303466797,0.7181814908981323,3.025423049926758,9.19053840637207,-0.13076338171958923,-0.49808764457702637,0.5609952211380005,0.33071833848953247,13.125511169433594,-24.813255310058594,13.739147186279297,0.6843810081481934,0.538848876953125,-0.19378793239593506,2.3410420417785645,8.651689529418945,0.06302455067634583
0_20251106_211809,1762435052880,0,0.2733270227909088,0.4029364287853241,0.5769977569580078,0.6557500958442688,0.6422106623649597,3.141970634460449,0.7223906517028809,3.430025577545166,8.74882698059082,-0.3570057153701782,-0.6239258050918579,0.47119811177253723,0.28490349650382996,12.536661148071289,-24.914703369140625,13.768352508544922,0.8711869716644287,0.07771015167236328,-0.3360242247581482,2.5588386058807373,8.671116828918457,-0.020981501787900925
0_20251106_211809,1762435052904,0,0.27079424262046814,0.39978039264678955,0.5733751058578491,0.6618815064430237,0.6648985743522644,3.140241861343384,0.725350022315979,3.5497305393218994,8.332254409790039,-0.5628982186317444,-0.6495820879936218,0.21402409672737122,0.21831920742988586,12.027969360351562,-25.110374450683594,13.73129653930664,0.7927134037017822,-0.2710895538330078,-0.43353337049484253,2.757017135620117,8.603343963623047,-0.12936483323574066
0_20251106_211809,1762435052919,0,0.27004656195640564,0.3978853225708008,0.5691629648208618,0.6669449806213379,0.679413914680481,3.1393373012542725,0.7272050380706787,3.367779016494751,8.674610137939453,-0.07210797816514969,-0.8108503818511963,0.019769109785556793,0.08270726352930069,11.54755687713623,-25.25274658203125,13.547599792480469,0.48860931396484375,0.05701255798339844,0.04580548405647278,2.8791697025299072,8.617597579956055,-0.11791346222162247
0_20251106_211809,1762435052939,0,0.27184417843818665,0.39619266986846924,0.5638843774795532,0.6716893315315247,0.6982700824737549,3.140064239501953,0.7315571308135986,3.0338022708892822,9.233631134033203,0.5407813191413879,-1.1144500970840454,0.07780125737190247,-0.15614084899425507,11.249624252319336,-25.395225524902344,13.31692886352539,0.12370586395263672,0.4928264617919922,0.5269558429718018,2.9100964069366455,8.740804672241211,0.013825483620166779
0_20251106_211809,1762435052958,0,0.2760525643825531,0.39196428656578064,0.5576395392417908,0.6776408553123474,0.7146386504173279,3.1423614025115967,0.7383264899253845,2.673490524291992,9.338972091674805,1.0495272874832153,-1.4033890962600708,0.2769431471824646,-0.43469512462615967,11.021271705627441,-25.607337951660156,12.993003845214844,-0.1892845630645752,0.4785337448120117,0.8285614252090454,2.8627750873565674,8.860438346862793,0.22096583247184753
0_20251106_211809,1762435052976,0,0.28208523988723755,0.38402342796325684,0.5510132312774658,0.685082733631134,0.7279226779937744,3.145268201828003,0.7480567693710327,2.2748727798461914,9.201312065124512,1.6983280181884766,-1.546331524848938,0.4046138823032379,-0.5953525900840759,11.021271705627441,-25.607337951660156,12.993003845214844,-0.4703216552734375,0.27269935607910156,1.1818897724151611,2.745194435119629,8.92861270904541,0.5164382457733154
0_20251106_211809,1762435052996,0,0.2889820635318756,0.3738536536693573,0.5442572236061096,0.6931860446929932,0.7395287752151489,3.1493802070617676,0.764005720615387,1.9504724740982056,9.271937370300293,2.384237289428711,-1.546331524848938,0.4046138823032379,-0.5953525900840759,10.89704704284668,-25.699676513671875,12.63482666015625,-0.6357775926589966,0.2746591567993164,1.4942392110824585,2.586250066757202,8.997278213500977,0.8899980783462524
0_20251106_211809,1762435053014,0,0.295516699552536,0.3636053800582886,0.5374326109886169,0.7011613249778748,0.7472674250602722,3.153657913208008,0.7821468114852905,1.699092149734497,9.306652069091797,2.7194113731384277,-1.3624612092971802,0.36246421933174133,-0.34856322407722473,10.769989967346191,-25.853858947753906,12.180717468261719,-0.7097263336181641,0.2474994659423828,1.4635306596755981,2.408818483352661,9.059152603149414,1.2558807134628296
0_20251106_211809,1762435053036,0,0.3000923991203308,0.35500839352607727,0.5306791663169861,0.7087264657020569,0.7472674250602722,3.153657913208008,0.7821468114852905,1.699092149734497,9.306652069091797,2.7194113731384277,-1.3624612092971802,0.36246421933174133,-0.34856322407722473,10.788558959960938,-26.01093292236328,11.718711853027344,-0.7097263336181641,0.2474994659423828,1.4635306596755981,2.408818483352661,9.059152603149414,1.2558807134628296
0_20251106_211809,1762435053052,0,0.30191490054130554,0.3493746519088745,0.5236433744430542,0.7159485816955566,0.7578666806221008,3.165043592453003,0.8325091004371643,2.171926498413086,9.628658294677734,3.140772819519043,-1.0350377559661865,0.20791544020175934,0.36187243461608887,10.784634590148926,-26.167030334472656,10.998916625976562,-0.08419299125671387,0.40355587005615234,1.216673493385315,2.2561194896698,9.225102424621582,1.924099326133728
0_20251106_211809,1762435053073,0,0.30176568031311035,0.3465458154678345,0.5158671736717224,0.7229968905448914,0.7647026777267456,3.1741719245910645,0.8646931648254395,2.862624168395996,10.199650764465332,3.843440532684326,-1.0588613748550415,0.16576577723026276,0.5048148036003113,10.829256057739258,-26.320220947265625,10.308116912841797,0.48520374298095703,0.7796382904052734,1.5354728698730469,2.377420425415039,9.420012474060059,2.3079676628112793
0_20251106_211809,1762435053091,0,0.3003891408443451,0.34437426924705505,0.5074769854545593,0.7305065989494324,0.7737732529640198,3.185636520385742,0.8993937969207764,3.434813976287842,10.595873832702637,4.368945121765137,-1.0588613748550415,0.16576577723026276,0.5048148036003113,10.857771873474121,-26.53752899169922,9.669570922851562,0.8459148406982422,0.9406890869140625,1.6487820148468018,2.5888991355895996,9.655184745788574,2.720163106918335
0_20251106_211809,1762435053110,0,0.29936903715133667,0.34099024534225464,0.4991014301776886,0.7382422685623169,0.7852990031242371,3.1993417739868164,0.9360126852989197,3.649085521697998,10.680864334106445,4.051727294921875,-1.1138392686843872,0.2506759762763977,0.4058547019958496,10.825048446655273,-26.770828247070312,8.974246978759766,0.848149299621582,0.8205432891845703,1.065251350402832,2.800936222076416,9.860321044921875,2.986475944519043
0_20251106_211809,1762435053129,0,0.2994877099990845,0.33542072772979736,0.49135977029800415,0.7458992004394531,0.7988349199295044,3.2145211696624756,0.9735754728317261,3.74365234375,10.647347450256348,3.9978599548339844,-1.166373610496521,0.3838444650173187,0.16639572381973267,10.708234786987305,-26.984840393066406,8.303047180175781,0.7541728019714355,0.6296205520629883,0.8091070652008057,2.9894795417785645,10.01772689819336,3.1887528896331787
0_20251106_211809,1762435053149,0,0.3016810119152069,0.3281760513782501,0.48347213864326477,0.7533549666404724,0.8145361542701721,3.2315926551818848,1.014642357826233,3.7017557621002197,10.640165328979492,4.3414130210876465,-1.4760820865631104,0.359409898519516,-0.2569335103034973,10.586065292358398,-27.310523986816406,7.4943084716796875,0.5698211193084717,0.49795055389404297,0.9221282005310059,3.131934642791748,10.14221477508545,3.4192848205566406
0_20251106_211809,1762435053168,0,0.3059031069278717,0.32015126943588257,0.47463518381118774,0.7606890797615051,0.8298888802528381,3.247725486755371,1.0554141998291016,3.5628981590270996,10.406740188598633,4.771153450012207,-1.4760820865631104,0.359409898519516,-0.2569335103034973,10.504596710205078,-27.5469970703125,6.797019958496094,0.3447709083557129,0.21162033081054688,1.0814950466156006,3.2181272506713867,10.195119857788086,3.6896584033966064
0_20251106_211809,1762435053187,0,0.3121255934238434,0.31282076239585876,0.4648441970348358,0.7672291994094849,0.8298888802528381,3.247725486755371,1.0554141998291016,3.5628981590270996,10.406740188598633,4.771153450012207,-1.4498149156570435,-0.03154353052377701,-0.4371386170387268,10.470858573913574,-27.80487060546875,6.047101974487305,0.3447709083557129,0.21162033081054688,1.0814950466156006,3.2181272506713867,10.195119857788086,3.6896584033966064
0_20251106_211809,1762435053205,0,0.31919389963150024,0.30677080154418945,0.45535534620285034,0.7724366784095764,0.8572537899017334,3.2749931812286377,1.139098048210144,2.987117290496826,9.719634056091309,4.933952331542969,-1.3416918516159058,-0.10118210315704346,-0.415758341550827,10.412959098815918,-28.052452087402344,5.364048004150391,-0.185577392578125,-0.35046958923339844,0.7737479209899902,3.172694683074951,10.070103645324707,4.1602044105529785
0_20251106_211809,1762435053225,0,0.32606202363967896,0.30154794454574585,0.44629213213920593,0.776901364326477,0.8698050379753113,3.2865800857543945,1.1844837665557861,2.9152941703796387,9.602323532104492,4.937542915344238,-1.3398592472076416,-0.1909792125225067,-0.34856322407722473,10.40539836883545,-28.2830810546875,4.561573028564453,-0.20592045783996582,-0.3742237091064453,0.6218709945678711,3.1212146282196045,9.976547241210938,4.315671920776367
0_20251106_211809,1762435053243,0,0.33272477984428406,0.29722750186920166,0.4367600381374359,0.7811470627784729,0.8698050379753113,3.2865800857543945,1.1844837665557861,2.9152941703796387,9.602323532104492,4.937542915344238,-1.332528829574585,-0.30276748538017273,-0.29236364364624023,10.536211967468262,-28.42949676513672,3.7525596618652344,-0.20592045783996582,-0.3742237091064453,0.6218709945678711,3.1212146282196045,9.976547241210938,4.315671920776367
0_20251106_211809,1762435053262,0,0.3394606113433838,0.2940368354320526,0.42668622732162476,0.7850144505500793,0.890336275100708,3.304426670074463,1.2691463232040405,2.987117290496826,9.662175178527832,5.36129903793335,-1.2689989805221558,-0.41394487023353577,-0.2673182189464569,10.752413749694824,-28.581832885742188,2.8385848999023438,-0.0842900276184082,-0.20847606658935547,0.6962070465087891,3.0714073181152344,9.870651245117188,4.6650919914245605
0_20251106_211809,1762435053282,0,0.3462994396686554,0.2920036315917969,0.4165620505809784,0.7882173657417297,0.890336275100708,3.304426670074463,1.2691463232040405,2.987117290496826,9.662175178527832,5.36129903793335,-1.1651519536972046,-0.5196244716644287,-0.23433154821395874,11.023591995239258,-28.629722595214844,1.8475875854492188,-0.0842900276184082,-0.20847606658935547,0.6962070465087891,3.0714073181152344,9.870651245117188,4.6650919914245605
0_20251106_211809,1762435053300,0,0.35316646099090576,0.29130885004997253,0.4066489338874817,0.7906005382537842,0.900318443775177,3.3116095066070557,1.3172073364257812,2.882974147796631,9.332987785339355,5.3912248611450195,-1.0777982473373413,-0.5990368127822876,-0.21844905614852905,11.257223129272461,-28.68134307861328,0.9902801513671875,-0.15074658393859863,-0.4301309585571289,0.5809063911437988,3.0337207317352295,9.763118743896484,4.810318470001221
0_20251106_211809,1762435053320,0,0.36001038551330566,0.2915489971637726,0.397007554769516,0.792323648929596,0.9081071019172668,3.316202402114868,1.3602092266082764,2.7453131675720215,9.186946868896484,5.427136421203613,-1.0942915678024292,-0.5776565670967102,-0.23249894380569458,11.566268920898438,-28.701873779296875,0.014797210693359375,-0.2307262420654297,-0.4609375,0.4934544563293457,2.976039409637451,9.647884368896484,4.933681964874268
0_20251106_211809,1762435053339,0,0.36672088503837585,0.2913753390312195,0.3873952627182007,0.7940661907196045,0.9148305654525757,3.3196098804473877,1.4025298357009888,2.7297515869140625,9.299469947814941,5.469033241271973,-1.1810344457626343,-0.52878737449646,-0.2777029275894165,11.844186782836914,-28.636215209960938,-1.0278911590576172,-0.19703006744384766,-0.2787313461303711,0.4282808303833008,2.92678165435791,9.578201293945312,5.040752410888672
0_20251106_211809,1762435053360,0,0.37400534749031067,0.2904456555843353,0.37733301520347595,0.7958524227142334,0.9260550737380981,3.3254024982452393,1.4853160381317139,2.849456548690796,9.57598876953125,5.63662052154541,-1.1810344457626343,-0.52878737449646,-0.2777029275894165,12.143049240112305,-28.631614685058594,-2.0844345092773438,-0.02899456024169922,0.014481544494628906,0.3892083168029785,2.878451108932495,9.561507225036621,5.247412204742432
0_20251106_211809,1762435053379,0,0.38178423047065735,0.288958340883255,0.36723968386650085,0.7974201440811157,0.9314680695533752,3.3272857666015625,1.5276219844818115,2.879383087158203,9.245601654052734,5.690487384796143,-1.139495611190796,-0.5440590381622314,-0.3949889540672302,12.424095153808594,-28.503707885742188,-3.071737289428711,0.0007457733154296875,-0.25272464752197266,0.3544602394104004,2.8786373138427734,9.498326301574707,5.336027145385742
0_20251106_211809,1762435053397,0,0.389931321144104,0.28792986273765564,0.357658326625824,0.7982045412063599,0.9358150959014893,3.327059268951416,1.5640414953231812,2.7644662857055664,8.752418518066406,5.436713218688965,-1.0173226594924927,-0.6106432676315308,-0.40048670768737793,12.424095153808594,-28.503707885742188,-3.071737289428711,-0.09133672714233398,-0.5967264175415039,0.08054876327514648,2.8558030128479004,9.34914493560791,5.356164455413818
0_20251106_211809,1762435053415,0,0.3979805111885071,0.28781482577323914,0.34869450330734253,0.7982394695281982,0.939663827419281,3.324920654296875,1.5985260009765625,2.7417221069335938,8.568072319030762,5.309825897216797,-1.0118248462677002,-0.7041056156158447,-0.32168519496917725,12.64268970489502,-28.41663360595703,-4.143381118774414,-0.09126472473144531,-0.6248579025268555,-0.03707075119018555,2.832986831665039,9.192930221557617,5.346896648406982
0_20251106_211809,1762435053436,0,0.4057759642601013,0.28868940472602844,0.33913326263427734,0.7981183528900146,0.939663827419281,3.324920654296875,1.5985260009765625,2.7417221069335938,8.568072319030762,5.309825897216797,-1.0118248462677002,-0.7041056156158447,-0.32168519496917725,12.891901016235352,-28.21509552001953,-5.198152542114258,-0.09126472473144531,-0.6248579025268555,-0.03707075119018555,2.832986831665039,9.192930221557617,5.346896648406982
0_20251106_211809,1762435053455,0,0.4134758412837982,0.2905639111995697,0.3279808759689331,0.7981471419334412,0.9500138759613037,3.318459987640381,1.6748735904693604,3.36777925491333,9.295879364013672,6.438643455505371,-1.1016219854354858,-0.8189481496810913,-0.19829052686691284,13.062061309814453,-28.119186401367188,-6.217430114746094,0.3989593982696533,0.1432647705078125,0.8073139190673828,2.9688198566436768,9.15261459350586,5.631329536437988
0_20251106_211809,1762435053473,0,0.42135506868362427,0.2931893765926361,0.3158937096595764,0.7979417443275452,0.9567369222640991,3.3175315856933594,1.7116845846176147,3.6861941814422607,9.769909858703613,7.159266948699951,-1.146825909614563,-0.9466188549995422,-0.1793537139892578,13.32365608215332,-27.916580200195312,-7.298744201660156,0.573899507522583,0.4938364028930664,1.2223501205444336,3.1122946739196777,9.276073455810547,5.936916828155518
0_20251106_211809,1762435053493,0,0.43039369583129883,0.29626211524009705,0.3036479353904724,0.7967358231544495,0.9567369222640991,3.3175315856933594,1.7116845846176147,3.6861941814422607,9.769909858703613,7.159266948699951,-1.140106439590454,-1.0522984266281128,-0.29541799426078796,13.43942642211914,-27.71135711669922,-8.345130920410156,0.573899507522583,0.4938364028930664,1.2223501205444336,3.1122946739196777,9.276073455810547,5.936916828155518
0_20251106_211809,1762435053514,0,0.44095057249069214,0.2989353537559509,0.2921658158302307,0.7942540049552917,0.966709554195404,3.3195137977600098,1.7587989568710327,3.8645546436309814,10.17451286315918,7.821235656738281,-1.0319833755493164,-1.1060545444488525,-0.8690199851989746,13.606042861938477,-27.476898193359375,-9.483640670776367,0.6018080711364746,0.7187519073486328,1.5074548721313477,3.262746572494507,9.455760955810547,6.313780784606934
0_20251106_211809,1762435053531,0,0.45374423265457153,0.3009806275367737,0.28206223249435425,0.7899162769317627,0.9848276972770691,3.325998544692993,1.8452911376953125,3.149916172027588,9.504164695739746,7.933757781982422,-0.9073669910430908,-1.1402629613876343,-1.1451307535171509,13.828155517578125,-27.114097595214844,-10.577001571655273,-0.16318726539611816,-0.05942344665527344,1.03582763671875,3.313103437423706,9.56358814239502,6.897930145263672
0_20251106_211809,1762435053550,0,0.46851661801338196,0.3030533790588379,0.2733604609966278,0.7835335731506348,0.9848276972770691,3.325998544692993,1.8452911376953125,3.149916172027588,9.504164695739746,7.933757781982422,-0.9073669910430908,-1.1402629613876343,-1.1451307535171509,14.026180267333984,-26.76409149169922,-11.806769371032715,-0.16318726539611816,-0.05942344665527344,1.03582763671875,3.313103437423706,9.56358814239502,6.897930145263672
0_20251106_211809,1762435053571,0,0.48362740874290466,0.3046776354312897,0.2656465172767639,0.7763426899909973,0.9923686385154724,3.3273766040802,1.8989876508712769,2.6675052642822266,8.973873138427734,7.751806735992432,-0.7662572860717773,-1.083452582359314,-1.2447017431259155,14.385456085205078,-26.3419189453125,-12.93422794342041,-0.5164785385131836,-0.4717721939086914,0.6831011772155762,3.18398380279541,9.445645332336426,7.0687055587768555
0_20251106_211809,1762435053588,0,0.498330682516098,0.3062782287597656,0.2584107220172882,0.7688199281692505,0.9996188282966614,3.3238468170166016,1.985243320465088,2.5406179428100586,8.478294372558594,7.792506217956543,-0.6306452751159668,-1.1640866994857788,-1.211104154586792,14.72711181640625,-25.796165466308594,-14.019478797912598,-0.4192237854003906,-0.6531972885131836,0.4749155044555664,2.959841728210449,9.131491661071777,7.317590713500977
0_20251106_211809,1762435053607,0,0.5124786496162415,0.3090927004814148,0.2515694797039032,0.760618269443512,1.0004931688308716,3.31933331489563,2.029742479324341,2.2293848991394043,8.48427963256836,7.951713562011719,-0.6306452751159668,-1.1640866994857788,-1.211104154586792,15.160920143127441,-25.119552612304688,-15.071624755859375,-0.5843653678894043,-0.5177698135375977,0.507298469543457,2.8137502670288086,9.002049446105957,7.444415092468262
0_20251106_211809,1762435053627,0,0.5265647768974304,0.313477486371994,0.24476616084575653,0.7513660192489624,1.0004931688308716,3.31933331489563,2.029742479324341,2.2293848991394043,8.48427963256836,7.951713562011719,-0.4382229149341583,-1.3449026346206665,-1.2269866466522217,15.60640811920166,-24.454429626464844,-16.150577545166016,-0.5843653678894043,-0.5177698135375977,0.507298469543457,2.8137502670288086,9.002049446105957,7.444415092468262
0_20251106_211809,1762435053645,0,0.5405407547950745,0.3182445466518402,0.23824863135814667,0.7414672374725342,0.9934115409851074,3.306603193283081,2.118190288543701,1.4836232662200928,8.428017616271973,8.21147346496582,-0.402792751789093,-1.228838324546814,-1.2624168395996094,16.11392593383789,-23.772239685058594,-17.28087615966797,-0.895524263381958,-0.3692951202392578,0.49398231506347656,2.379147529602051,8.79731273651123,7.717491149902344
0_20251106_211809,1762435053664,0,0.5542665123939514,0.32207226753234863,0.23264649510383606,0.7313916087150574,0.9934115409851074,3.306603193283081,2.118190288543701,1.4836232662200928,8.428017616271973,8.21147346496582,-0.35942134261131287,-1.0932263135910034,-1.2721905708312988,16.640396118164062,-22.952476501464844,-18.272621154785156,-0.895524263381958,-0.3692951202392578,0.49398231506347656,2.379147529602051,8.79731273651123,7.717491149902344
0_20251106_211809,1762435053684,0,0.567535936832428,0.3250367343425751,0.2280253916978836,0.7212894558906555,0.9763067364692688,3.289768934249878,2.2030136585235596,1.3375831842422485,7.995882987976074,7.998398780822754,-0.2494656890630722,-0.9967097043991089,-1.211104154586792,17.187910079956055,-22.193641662597656,-19.291736602783203,-0.6717723608016968,-0.5713310241699219,0.14339065551757812,2.0093555450439453,8.567214012145996,7.855008125305176
0_20251106_211809,1762435053702,0,0.5799431204795837,0.3280368149280548,0.22430385649204254,0.7111579179763794,0.9656717777252197,3.2787933349609375,2.242611885070801,1.4141943454742432,7.742108345031738,7.931364059448242,-0.1621120423078537,-0.9490623474121094,-1.099315881729126,17.73656463623047,-21.386871337890625,-20.080020904541016,-0.4761289358139038,-0.6600847244262695,0.061084747314453125,1.890323281288147,8.402193069458008,7.870279312133789
0_20251106_211809,1762435053721,0,0.5910304188728333,0.3313401937484741,0.22101159393787384,0.7014631628990173,0.9656717777252197,3.2787933349609375,2.242611885070801,1.4141943454742432,7.742108345031738,7.931364059448242,-0.18349231779575348,-0.8928627967834473,-0.9612605571746826,18.13697052001953,-20.627166748046875,-20.888498306274414,-0.4761289358139038,-0.6600847244262695,0.061084747314453125,1.890323281288147,8.402193069458008,7.870279312133789
0_20251106_211809,1762435053741,0,0.600943922996521,0.3343464434146881,0.21739287674427032,0.692689836025238,0.9416741728782654,3.2500078678131104,2.3183910846710205,1.337583303451538,7.296805381774902,7.858344078063965,-0.30871957540512085,-0.7853505611419678,-0.796937882900238,18.450366973876953,-19.898544311523438,-21.66038703918457,-0.3734809160232544,-0.7354106903076172,-0.024109840393066406,1.7110642194747925,8.03221607208252,7.882453918457031
0_20251106_211809,1762435053759,0,0.6098352074623108,0.3361842930316925,0.2129603773355484,0.6853678226470947,0.9296938180923462,3.234525680541992,2.351067066192627,1.2525928020477295,7.2201948165893555,8.029521942138672,-0.49930939078330994,-0.5446698665618896,-0.69675612449646,18.715118408203125,-19.17296600341797,-22.44775390625,-0.3667771816253662,-0.6496171951293945,0.11765480041503906,1.6193699836730957,7.86981201171875,7.911867141723633
0_20251106_211809,1762435053779,0,0.6182898283004761,0.33554062247276306,0.20826247334480286,0.6795269846916199,0.9159401655197144,3.216714382171631,2.3863601684570312,1.2549867630004883,7.386584758758545,8.175561904907227,-0.7595377564430237,-0.25573089718818665,-0.7040864825248718,18.990659713745117,-18.46009063720703,-23.14027976989746,-0.2915065288543701,-0.3865818977355957,0.21095561981201172,1.5464932918548584,7.773166656494141,7.964606285095215
0_20251106_211809,1762435053799,0,0.6270074248313904,0.3314186930656433,0.20357663929462433,0.67496657371521,0.9021262526512146,3.1991679668426514,2.422356605529785,1.300474762916565,7.567338943481445,8.776481628417969,-0.9146974086761475,-0.1396665871143341,-0.7682272791862488,19.244760513305664,-17.68682861328125,-23.751371383666992,-0.1968148946762085,-0.16466236114501953,0.6494998931884766,1.4972896575927734,7.732001304626465,8.126981735229492
0_20251106_211809,1762435053819,0,0.636269748210907,0.3254697322845459,0.19881173968315125,0.6705998778343201,0.9021262526512146,3.1991679668426514,2.422356605529785,1.300474762916565,7.567338943481445,8.776481628417969,-0.7693115472793579,-0.165933758020401,-0.816485583782196,19.542980194091797,-16.98626708984375,-24.30801773071289,-0.1968148946762085,-0.16466236114501953,0.6494998931884766,1.4972896575927734,7.732001304626465,8.126981735229492
0_20251106_211809,1762435053837,0,0.6453580260276794,0.32041406631469727,0.1949230432510376,0.6654719114303589,0.8762817978858948,3.167137622833252,2.492643356323242,1.2430163621902466,7.3913726806640625,8.74655532836914,-0.3581996262073517,-0.26672646403312683,-0.8287028670310974,19.542980194091797,-16.98626708984375,-24.30801773071289,-0.17690801620483398,-0.26320314407348633,0.33811092376708984,1.4199243783950806,7.654575824737549,8.40844440460205
0_20251106_211809,1762435053855,0,0.6534653306007385,0.31849202513694763,0.19298161566257477,0.6590174436569214,0.8637351989746094,3.1513590812683105,2.523456573486328,1.0263502597808838,7.101686477661133,8.225838661193848,0.08895336091518402,-0.3876776695251465,-0.7431818842887878,19.80514907836914,-16.275802612304688,-24.838838577270508,-0.3148592710494995,-0.44231128692626953,-0.14608478546142578,1.3412095308303833,7.543997764587402,8.371923446655273
0_20251106_211809,1762435053876,0,0.6598027348518372,0.3202546238899231,0.192827969789505,0.6518548130989075,0.8502274751663208,3.134539842605591,2.553402900695801,1.0036064386367798,7.180691719055176,8.024734497070312,0.3418513536453247,-0.4994659125804901,-0.5806918740272522,20.053115844726562,-15.603668212890625,-25.38446044921875,-0.2700824737548828,-0.29064464569091797,-0.27775096893310547,1.2736889123916626,7.471336364746094,8.302485466003418
0_20251106_211809,1762435053894,0,0.6645084023475647,0.32458117604255676,0.19304940104484558,0.6448314189910889,0.8502274751663208,3.134539842605591,2.553402900695801,1.0036064386367798,7.180691719055176,8.024734497070312,0.3821684420108795,-0.5550545454025269,-0.4530211091041565,20.309249877929688,-14.99420166015625,-25.86332893371582,-0.2700824737548828,-0.29064464569091797,-0.27775096893310547,1.2736889123916626,7.471336364746094,8.302485466003418
0_20251106_211809,1762435053913,0,0.6677297949790955,0.32955145835876465,0.1930766999721527,0.6389476656913757,0.8247075080871582,3.1039576530456543,2.6077146530151367,1.4620763063430786,7.880965232849121,7.756594657897949,0.3821684420108795,-0.5550545454025269,-0.4530211091041565,20.549884796142578,-14.436431884765625,-26.276161193847656,0.15791571140289307,0.3148322105407715,-0.3968687057495117,1.3041605949401855,7.56613302230835,8.153463363647461
0_20251106_211809,1762435053933,0,0.6702549457550049,0.33433154225349426,0.19306589663028717,0.6338030099868774,0.8137040734291077,3.091736078262329,2.6304798126220703,1.5686136484146118,8.126360893249512,7.411844730377197,0.3565120995044708,-0.5648283958435059,-0.42492130398750305,20.79827880859375,-13.953475952148438,-26.663055419921875,0.2115623950958252,0.4481821060180664,-0.593294620513916,1.3570512533187866,7.678178787231445,8.005139350891113
0_20251106_211809,1762435053953,0,0.6742984652519226,0.339581698179245,0.1926085352897644,0.6268236041069031,0.8041207194328308,3.0821657180786133,2.649325370788574,1.4836232662200928,8.210155487060547,7.385509490966797,0.43775710463523865,-0.6161410808563232,-0.5703070759773254,21.02008819580078,-13.509918212890625,-27.038206100463867,0.1012575626373291,0.4255809783935547,-0.49570369720458984,1.3823657035827637,7.784574508666992,7.881213188171387
0_20251106_211809,1762435053970,0,0.6787145733833313,0.3454607129096985,0.19247090816497803,0.6188362836837769,0.8041207194328308,3.0821657180786133,2.649325370788574,1.4836232662200928,8.210155487060547,7.385509490966797,0.5122826099395752,-0.660123348236084,-0.5880221724510193,21.200515747070312,-13.144889831542969,-27.33531379699707,0.1012575626373291,0.4255809783935547,-0.49570369720458984,1.3823657035827637,7.784574508666992,7.881213188171387
0_20251106_211809,1762435053989,0,0.6829579472541809,0.3519858121871948,0.19252996146678925,0.6104151606559753,0.7951083779335022,3.07487154006958,2.665820360183716,1.2250607013702393,8.320283889770508,7.691954135894775,0.5440475940704346,-0.6198062300682068,-0.5153293013572693,21.228466033935547,-12.902275085449219,-27.654197692871094,-0.12584400177001953,0.42856740951538086,-0.15140724182128906,1.3509047031402588,7.891716480255127,7.8433613777160645
0_20251106_211809,1762435054009,0,0.6865015625953674,0.3584774434566498,0.1927909106016159,0.602528989315033,0.7744973301887512,3.065032482147217,2.698911428451538,1.1257054805755615,8.574058532714844,7.666816234588623,0.5855863690376282,-0.5306199789047241,-0.3510066866874695,21.21695327758789,-12.700790405273438,-27.867216110229492,-0.1270815134048462,0.4556598663330078,-0.1484217643737793,1.2527869939804077,8.118398666381836,7.815237998962402
0_20251106_211809,1762435054027,0,0.6888388395309448,0.3649637997150421,0.19323515892028809,0.5957874059677124,0.7658951878547668,3.0633978843688965,2.711498498916626,1.4058150053024292,8.861349105834961,7.300518989562988,0.6307903528213501,-0.547724187374115,-0.17263419926166534,21.17774200439453,-12.56341552734375,-28.109567642211914,0.12242245674133301,0.5943603515625,-0.4117755889892578,1.2833925485610962,8.266988754272461,7.712294578552246
0_20251106_211809,1762435054046,0,0.6899049878120422,0.37216150760650635,0.19319140911102295,0.5900880694389343,0.7658951878547668,3.0633978843688965,2.711498498916626,1.4058150053024292,8.861349105834961,7.300518989562988,0.6307903528213501,-0.547724187374115,-0.17263419926166534,21.112945556640625,-12.452468872070312,-28.380460739135742,0.12242245674133301,0.5943603515625,-0.4117755889892578,1.2833925485610962,8.266988754272461,7.712294578552246
0_20251106_211809,1762435054066,0,0.6903584599494934,0.38049226999282837,0.1920257955789566,0.5845998525619507,0.7501370906829834,3.069823741912842,2.734914779663086,1.4884114265441895,9.808215141296387,7.8607378005981445,0.6442294120788574,-0.6833361387252808,-0.03274616599082947,21.05268096923828,-12.478721618652344,-28.667282104492188,0.1348510980606079,1.0654850006103516,0.18808650970458984,1.3535603284835815,8.742730140686035,7.672651290893555
0_20251106_211809,1762435054085,0,0.6907358169555664,0.38885942101478577,0.19055785238742828,0.5791028141975403,0.7442755699157715,3.0776004791259766,2.745645046234131,1.6164957284927368,10.084733963012695,7.846373558044434,0.539771556854248,-0.538561224937439,-0.08589139580726624,20.95728302001953,-12.470634460449219,-28.86016845703125,0.2103482484817505,1.073603630065918,0.1389780044555664,1.4061474800109863,9.011130332946777,7.707395553588867
0_20251106_211809,1762435054104,0,0.6914948225021362,0.3955332636833191,0.18962079286575317,0.5739619135856628,0.7393591403961182,3.089204788208008,2.755781412124634,1.7565505504608154,10.398361206054688,7.480076313018799,0.22945226728916168,-0.4634248912334442,-0.17385593056678772,20.859359741210938,-12.512367248535156,-29.094661712646484,0.2803225517272949,1.1097850799560547,-0.1818552017211914,1.4762279987335205,9.288576126098633,7.66193151473999
0_20251106_211809,1762435054123,0,0.6937235593795776,0.3995945155620575,0.18777978420257568,0.5690435767173767,0.7354367971420288,3.1044411659240723,2.7656524181365967,1.803235411643982,10.48335075378418,7.574643135070801,-0.19204440712928772,-0.3033783435821533,-0.2941962778568268,20.7457275390625,-12.617683410644531,-29.330963134765625,0.2616058588027954,0.9558200836181641,-0.06983089447021484,1.5416295528411865,9.527530670166016,7.644474029541016
0_20251106_211809,1762435054142,0,0.6978767514228821,0.39987999200820923,0.18516813218593597,0.5646032094955444,0.7326605916023254,3.1200754642486572,2.7766847610473633,1.8199940919876099,10.21401596069336,8.418562889099121,-0.2134246677160263,-0.1610468477010727,-0.3601696491241455,20.67156982421875,-12.670249938964844,-29.57825469970703,0.22269165515899658,0.5491886138916016,0.6192712783813477,1.5973024368286133,9.664827346801758,7.799291610717773
0_20251106_211809,1762435054160,0,0.7020944356918335,0.3991069793701172,0.18368692696094513,0.5603892803192139,0.7308223843574524,3.134387254714966,2.7890849113464355,1.865481972694397,9.762727737426758,8.802816390991211,0.34979256987571716,-0.17387500405311584,-0.3864368498325348,20.611404418945312,-12.696372985839844,-29.87859344482422,0.21454370021820068,0.07832050323486328,0.8028202056884766,1.6509382724761963,9.684407234191895,7.999996185302734
0_20251106_211809,1762435054180,0,0.7043516635894775,0.40195366740226746,0.18511682748794556,0.5550259351730347,0.7293705344200134,3.1494085788726807,2.803013324737549,1.811614751815796,9.656190872192383,8.276114463806152,0.9960874319076538,-0.38767769932746887,-0.34306544065475464,20.64470863342285,-12.779594421386719,-30.108745574951172,0.1285412311553955,-0.02257251739501953,0.22089481353759766,1.6830735206604004,9.678763389587402,8.055219650268555
0_20251106_211809,1762435054199,0,0.7041603922843933,0.4101615846157074,0.18829341232776642,0.548152506351471,0.7281041741371155,3.162965774536133,2.8148465156555176,1.699092149734497,9.678934097290039,7.786520957946777,1.3271760940551758,-0.5220679044723511,-0.2526574730873108,20.666446685791016,-12.839576721191406,-30.230731964111328,0.012814998626708984,0.00013637542724609375,-0.21495914459228516,1.686277151107788,9.678797721862793,8.001480102539062
0_20251106_211809,1762435054220,0,0.7022258043289185,0.42138952016830444,0.19195134937763214,0.5407998561859131,0.7270742058753967,3.177060842514038,2.825343370437622,1.7757033109664917,9.63703727722168,7.426208972930908,1.3271760940551758,-0.5220679044723511,-0.2526574730873108,20.67458724975586,-12.925468444824219,-30.353734970092773,0.0715409517288208,-0.033408164978027344,-0.4602169990539551,1.704162359237671,9.670445442199707,7.886425971984863
0_20251106_211809,1762435054239,0,0.6994225382804871,0.4329569637775421,0.1959328055381775,0.5338227152824402,0.7267300486564636,3.188699960708618,2.8335955142974854,1.9013934135437012,9.49698257446289,7.605766773223877,1.3442803621292114,-0.4988550543785095,-0.2929745316505432,20.67458724975586,-12.925468444824219,-30.353734970092773,0.15778493881225586,-0.13877010345458984,-0.22452688217163086,1.7436084747314453,9.63575267791748,7.830293655395508
0_20251106_211809,1762435054257,0,0.6967962980270386,0.4437958300113678,0.20025783777236938,0.5267038941383362,0.7267300486564636,3.188699960708618,2.8335955142974854,1.9013934135437012,9.49698257446289,7.605766773223877,1.3925386667251587,-0.33208897709846497,-0.44996678829193115,20.74909210205078,-13.131759643554688,-30.516984939575195,0.15778493881225586,-0.13877010345458984,-0.22452688217163086,1.7436084747314453,9.63575267791748,7.830293655395508
0_20251106_211809,1762435054276,0,0.6947705745697021,0.45383739471435547,0.2060609608888626,0.5185213088989258,0.7269536852836609,3.1996214389801025,2.8411989212036133,1.9181522130966187,9.24799633026123,7.513593673706055,1.3925386667251587,-0.33208897709846497,-0.44996678829193115,20.749282836914062,-13.356048583984375,-30.615859985351562,0.13963496685028076,-0.31020545959472656,-0.2533597946166992,1.778517246246338,9.558201789855957,7.766953468322754
0_20251106_211809,1762435054295,0,0.6928272247314453,0.4636352062225342,0.2138977199792862,0.5091959834098816,0.7258476614952087,3.211012125015259,2.8457703590393066,1.229848861694336,8.40766716003418,6.474555015563965,1.5141007900238037,-0.2276310920715332,-0.6503303647041321,20.859851837158203,-13.560630798339844,-30.71005630493164,-0.43484532833099365,-0.813145637512207,-0.8713779449462891,1.6646941900253296,9.220812797546387,7.345932960510254
0_20251106_211809,1762435054314,0,0.6912747621536255,0.4728277325630188,0.22259864211082458,0.499021977186203,0.7258476614952087,3.211012125015259,2.8457703590393066,1.229848861694336,8.40766716003418,6.474555015563965,1.365660548210144,-0.00771980220451951,-0.8128203749656677,21.01749038696289,-13.977272033691406,-30.54947853088379,-0.43484532833099365,-0.813145637512207,-0.8713779449462891,1.6646941900253296,9.220812797546387,7.345932960510254
0_20251106_211809,1762435054334,0,0.6898426413536072,0.480004221200943,0.23187626898288727,0.48984330892562866,0.714779257774353,3.208012342453003,2.8348686695098877,0.3571997880935669,7.434466361999512,5.313416957855225,1.2306596040725708,0.15721367299556732,-0.8091552257537842,21.224071502685547,-14.390472412109375,-30.413972854614258,-0.8923395872116089,-1.2131690979003906,-1.404618740081787,1.2495393753051758,8.647635459899902,6.718035697937012
0_20251106_211809,1762435054354,0,0.6886060237884521,0.48548245429992676,0.2414732724428177,0.4814760982990265,0.7043012976646423,3.19966983795166,2.8207080364227295,0.05913449823856354,7.090912818908691,4.593990325927734,1.1976728439331055,0.27816489338874817,-0.817096471786499,21.382217407226562,-14.794830322265625,-30.226099014282227,-0.9523239135742188,-1.2453784942626953,-1.6992363929748535,1.011458396911621,8.336291313171387,6.293226718902588
0_20251106_211809,1762435054371,0,0.6861974000930786,0.4896489679813385,0.2526731789112091,0.4749034643173218,0.6930124759674072,3.189727306365967,2.8046629428863525,-0.27603933215141296,6.876641273498535,4.194175720214844,1.195229411125183,0.3606316149234772,-0.8378658890724182,21.580036163330078,-15.146171569824219,-30.07624626159668,-1.0299981832504272,-1.167719841003418,-1.6792411804199219,0.7539588809013367,8.044361114501953,5.873416900634766
0_20251106_211809,1762435054390,0,0.684547483921051,0.49389418959617615,0.2634352147579193,0.4669744372367859,0.6930124759674072,3.189727306365967,2.8046629428863525,-0.27603933215141296,6.876641273498535,4.194175720214844,1.1359754800796509,0.37834668159484863,-0.7969379425048828,21.972366333007812,-15.462249755859375,-29.661209106445312,-1.0299981832504272,-1.167719841003418,-1.6792411804199219,0.7539588809013367,8.044361114501953,5.873416900634766
0_20251106_211809,1762435054410,0,0.6828780770301819,0.49777519702911377,0.2737390697002411,0.45930853486061096,0.6589479446411133,3.159487724304199,2.75398325920105,-0.5298137664794922,7.040637016296387,3.6686716079711914,1.080386757850647,0.29587993025779724,-0.6155111193656921,22.40569305419922,-15.688720703125,-29.175273895263672,-0.8271688222885132,-0.6090574264526367,-1.4424476623535156,0.2973550260066986,7.649694442749023,5.111119270324707
0_20251106_211809,1762435054429,0,0.6806080341339111,0.5020137429237366,0.28252455592155457,0.4526972472667694,0.6589479446411133,3.159487724304199,2.75398325920105,-0.5298137664794922,7.040637016296387,3.6686716079711914,1.1353646516799927,0.18836776912212372,-0.3815498948097229,22.914052963256836,-15.873023986816406,-28.6585693359375,-0.8271688222885132,-0.6090574264526367,-1.4424476623535156,0.2973550260066986,7.649694442749023,5.111119270324707
0_20251106_211809,1762435054449,0,0.67722088098526,0.507677435874939,0.28968536853790283,0.44689810276031494,0.6199803352355957,3.1301112174987793,2.69303560256958,-0.2365366816520691,8.034188270568848,3.7117652893066406,1.2514289617538452,0.12605956196784973,-0.17324507236480713,23.34970474243164,-16.049942016601562,-28.10399627685547,-0.30721569061279297,0.3397331237792969,-0.9231667518615723,0.07067900896072388,7.694455146789551,4.634932041168213
0_20251106_211809,1762435054466,0,0.6724482774734497,0.5148385167121887,0.29585355520248413,0.44184309244155884,0.6199803352355957,3.1301112174987793,2.69303560256958,-0.2365366816520691,8.034188270568848,3.7117652893066406,1.310682773590088,0.03320813179016113,-0.0620676726102829,23.735401153564453,-16.2548828125,-27.578943252563477,-0.30721569061279297,0.3397331237792969,-0.9231667518615723,0.07067900896072388,7.694455146789551,4.634932041168213
0_20251106_211809,1762435054486,0,0.6670594811439514,0.5230877995491028,0.3010127544403076,0.4368089735507965,0.60190749168396,3.1199233531951904,2.660496473312378,0.07589319348335266,8.59440803527832,3.362226963043213,1.250818133354187,-0.09751691669225693,-0.04252000153064728,24.082239151000977,-16.48853302001953,-26.93424415588379,0.004171349108219147,0.7199621200561523,-1.0181641578674316,0.07172184437513351,7.874445915222168,4.3803911209106445
0_20251106_211809,1762435054505,0,0.6620307564735413,0.5315279364585876,0.3049815893173218,0.43148529529571533,0.5853080749511719,3.1138720512390137,2.625805616378784,0.2793915867805481,9.196523666381836,3.0031118392944336,1.0791651010513306,-0.1445535123348236,-0.06145680695772171,24.40752410888672,-16.673545837402344,-26.289470672607422,0.1661357879638672,1.057662010192871,-1.101823329925537,0.11325579136610031,8.138861656188965,4.104935169219971
0_20251106_211809,1762435054524,0,0.6579287052154541,0.5390270352363586,0.30799657106399536,0.42628368735313416,0.5565721392631531,3.1159017086029053,2.5623185634613037,0.3823378086090088,10.249927520751953,4.355777740478516,1.0461783409118652,-0.010774124413728714,-0.07428496330976486,24.725563049316406,-16.984397888183594,-25.620304107666016,0.1938551366329193,1.4252033233642578,0.24289608001708984,0.18848267197608948,8.824724197387695,4.112881660461426
0_20251106_211809,1762435054543,0,0.6535588502883911,0.5454444885253906,0.31182944774627686,0.4220349192619324,0.544409990310669,3.1234214305877686,2.5320370197296143,0.6097772121429443,10.376813888549805,3.909278392791748,1.2282160520553589,0.09612719714641571,-0.12559761106967926,24.90873908996582,-17.328292846679688,-25.038156509399414,0.3370356261730194,1.2416715621948242,-0.16288280487060547,0.2727415859699249,9.13514232635498,4.0721611976623535
0_20251106_211809,1762435054563,0,0.6480373740196228,0.5522083640098572,0.3173067569732666,0.4176480770111084,0.544409990310669,3.1234214305877686,2.5320370197296143,0.6097772121429443,10.376813888549805,3.909278392791748,1.3619954586029053,0.08574250340461731,-0.1799645721912384,25.028165817260742,-17.72638702392578,-24.459518432617188,0.3370356261730194,1.2416715621948242,-0.16288280487060547,0.2727415859699249,9.13514232635498,4.0721611976623535
0_20251106_211809,1762435054581,0,0.6418699622154236,0.5596343278884888,0.32351335883140564,0.4124942719936371,0.5332186818122864,3.1355228424072266,2.4968068599700928,0.7438467741012573,10.389981269836426,3.047402858734131,1.4065885543823242,0.008773544803261757,-0.22883376479148865,25.195842742919922,-18.121978759765625,-23.811336517333984,0.3768841624259949,1.003870964050293,-0.8198068141937256,0.36696261167526245,9.386110305786133,3.8672096729278564
0_20251106_211809,1762435054601,0,0.6357275247573853,0.5675443410873413,0.3295876681804657,0.40634456276893616,0.5170167684555054,3.1594793796539307,2.4293880462646484,0.4637371897697449,9.86806869506836,1.7725450992584229,1.3968147039413452,-0.017493637278676033,-0.27464860677719116,25.338441848754883,-18.531715393066406,-23.164400100708008,0.02975904941558838,0.25942230224609375,-1.4411375522613525,0.4339781403541565,9.608646392822266,3.2136826515197754
0_20251106_211809,1762435054619,0,0.6296950578689575,0.575289249420166,0.3357253968715668,0.39976856112480164,0.5086502432823181,3.171781063079834,2.389692544937134,0.24826829135417938,9.683721542358398,1.5606672763824463,1.2422659397125244,0.03198640048503876,-0.27525946497917175,25.49555206298828,-18.89110565185547,-22.448335647583008,-0.14856787025928497,0.06006050109863281,-1.3224122524261475,0.39683616161346436,9.623661041259766,2.8830795288085938
0_20251106_211809,1762435054641,0,0.6242687702178955,0.581929087638855,0.34147128462791443,0.39375680685043335,0.4991031289100647,3.1853973865509033,2.3426735401153564,0.3033325672149658,9.646614074707031,1.9712553024291992,1.0681694746017456,0.13888773322105408,-0.27587032318115234,25.675823211669922,-19.27375030517578,-21.758852005004883,-0.07480287551879883,0.018362045288085938,-0.7294595241546631,0.37813544273376465,9.628252029418945,2.7007148265838623
0_20251106_211809,1762435054660,0,0.6192951798439026,0.5869688391685486,0.3473135530948639,0.3889915347099304,0.4991031289100647,3.1853973865509033,2.3426735401153564,0.3033325672149658,9.646614074707031,1.9712553024291992,1.0981018543243408,0.19325469434261322,-0.34795236587524414,25.880353927612305,-19.666549682617188,-21.149747848510742,-0.07480287551879883,0.018362045288085938,-0.7294595241546631,0.37813544273376465,9.628252029418945,2.7007148265838623
0_20251106_211809,1762435054678,0,0.6141825914382935,0.5915499925613403,0.3539619743824005,0.3841344714164734,0.48472175002098083,3.205587387084961,2.262298345565796,0.4242345690727234,9.125898361206055,1.2554197311401367,1.2862482070922852,0.17676134407520294,-0.48050999641418457,25.880353927612305,-19.666549682617188,-21.149747848510742,0.023566067218780518,-0.40309715270996094,-1.0358834266662598,0.40066850185394287,9.528995513916016,2.2913031578063965
0_20251106_211809,1762435054696,0,0.6084580421447754,0.5967574715614319,0.3618524968624115,0.3777857720851898,0.47753074765205383,3.2121174335479736,2.2196526527404785,0.09025777876377106,8.74643325805664,0.28341567516326904,1.2862482070922852,0.17676134407520294,-0.48050999641418457,26.042497634887695,-19.937904357910156,-20.445350646972656,-0.2483285814523697,-0.6260499954223633,-1.6063100099563599,0.33858636021614075,9.372483253479004,1.889725685119629
0_20251106_211809,1762435054715,0,0.6028297543525696,0.6021758913993835,0.36991366744041443,0.3703300952911377,0.4686531722545624,3.216212511062622,2.172208786010742,-0.26885703206062317,8.478294372558594,0.18406060338020325,1.330230474472046,0.10834449529647827,-0.5605332851409912,26.294692993164062,-20.104454040527344,-19.613765716552734,-0.48595473170280457,-0.7153511047363281,-1.3645321130752563,0.2170976996421814,9.193645477294922,1.5485926866531372
0_20251106_211809,1762435054736,0,0.5979673862457275,0.6071155667304993,0.37702637910842896,0.3629005551338196,0.4572138786315918,3.2182564735412598,2.1212427616119385,-0.6255777478218079,8.518993377685547,0.389953076839447,1.0437349081039429,0.08329904079437256,-0.48600780963897705,26.57236099243164,-20.256317138671875,-18.834999084472656,-0.6741403341293335,-0.5397214889526367,-0.9269117712974548,0.04856261610984802,9.058714866638184,1.3168648481369019
0_20251106_211809,1762435054754,0,0.593528687953949,0.6111066937446594,0.38358035683631897,0.3565647602081299,0.4448268711566925,3.218820810317993,2.072463035583496,-0.7033859491348267,8.592013359069824,0.3025684952735901,0.889797031879425,0.22990655899047852,-0.42369958758354187,26.753244400024414,-20.4019775390625,-18.059890747070312,-0.6015588641166687,-0.37336158752441406,-0.81143718957901,-0.10182708501815796,8.965374946594238,1.1140056848526
0_20251106_211809,1762435054773,0,0.5892133712768555,0.6137800216674805,0.39010754227638245,0.35201960802078247,0.4448268711566925,3.218820810317993,2.072463035583496,-0.7033859491348267,8.592013359069824,0.3025684952735901,0.7358590960502625,0.2360152006149292,-0.3607805371284485,27.033533096313477,-20.503883361816406,-17.253036499023438,-0.6015588641166687,-0.37336158752441406,-0.81143718957901,-0.10182708501815796,8.965374946594238,1.1140056848526
0_20251106_211809,1762435054792,0,0.5853426456451416,0.6155409812927246,0.39607498049736023,0.34872329235076904,0.43123704195022583,3.2188432216644287,2.0210273265838623,-0.4974935054779053,8.787132263183594,0.24032191932201385,0.76029372215271,0.12361611425876617,-0.3345133364200592,27.311491012573242,-20.442398071289062,-16.537853240966797,-0.3165331482887268,-0.1425943374633789,-0.698947012424469,-0.18096035718917847,8.929726600646973,0.939268946647644
0_20251106_211809,1762435054812,0,0.5818013548851013,0.6180980205535889,0.4009453058242798,0.344535768032074,0.40672484040260315,3.219892978668213,1.9296653270721436,-0.21858097612857819,9.032527923583984,0.4917023181915283,1.046789288520813,0.06986001878976822,-0.35283929109573364,27.56488037109375,-20.382766723632812,-15.796619415283203,-0.015458449721336365,0.05870628356933594,-0.3699488043785095,-0.20312252640724182,8.973821640014648,0.8616511225700378
0_20251106_211809,1762435054831,0,0.5768014192581177,0.6220722794532776,0.4065975546836853,0.3391232490539551,0.3955814242362976,3.220224142074585,1.885991096496582,-0.3598327934741974,8.88409423828125,-0.39172011613845825,1.2263835668563843,-0.0034437510184943676,-0.3717760741710663,27.78423500061035,-20.27569580078125,-15.015252113342285,-0.12536820769309998,-0.07178211212158203,-1.0026969909667969,-0.2344645857810974,8.955876350402832,0.6109769344329834
0_20251106_211809,1762435054849,0,0.5709530115127563,0.6271873712539673,0.41249433159828186,0.3324110209941864,0.3836919665336609,3.2199389934539795,1.8381308317184448,-0.49509939551353455,8.730871200561523,-0.8705399036407471,1.1597992181777954,-0.04681514576077461,-0.3644457161426544,28.039541244506836,-20.178665161132812,-14.246193885803223,-0.20850786566734314,-0.18000411987304688,-1.1852134466171265,-0.2865915298461914,8.91087532043457,0.3146735727787018
0_20251106_211809,1762435054869,0,0.5655076503753662,0.6321606040000916,0.4178406000137329,0.32555076479911804,0.37079018354415894,3.2184553146362305,1.7864564657211304,-0.6195924878120422,8.516599655151367,-0.9399687647819519,1.0168569087982178,0.00694095017388463,-0.3925454616546631,28.25927734375,-20.082672119140625,-13.61376953125,-0.2664007544517517,-0.31542015075683594,-1.003713846206665,-0.3531917333602905,8.832019805908203,0.06374514102935791
0_20251106_211809,1762435054888,0,0.5606616139411926,0.6360216736793518,0.42323121428489685,0.31939053535461426,0.37079018354415894,3.2184553146362305,1.7864564657211304,-0.6195924878120422,8.516599655151367,-0.9399687647819519,0.8616971969604492,0.13949859142303467,-0.43958207964897156,28.517501831054688,-19.935279846191406,-12.857172012329102,-0.2664007544517517,-0.31542015075683594,-1.003713846206665,-0.3531917333602905,8.832019805908203,0.06374514102935791
0_20251106_211809,1762435054906,0,0.5562798380851746,0.6383278369903564,0.4291967749595642,0.3144526183605194,0.35735246539115906,3.2160797119140625,1.7334740161895752,-0.741691529750824,8.514205932617188,-1.216487169265747,0.6979855298995972,0.2097480446100235,-0.5104423761367798,28.79193115234375,-19.7236328125,-12.166345596313477,-0.31079983711242676,-0.25425148010253906,-1.0241858959197998,-0.4308916926383972,8.768457412719727,-0.19230130314826965
0_20251106_211809,1762435054926,0,0.5527084469795227,0.6391608119010925,0.4355626702308655,0.31027722358703613,0.33153092861175537,3.207982063293457,1.6373178958892822,-0.894913911819458,8.048552513122559,-0.5437453985214233,0.6979855298995972,0.2097480446100235,-0.5104423761367798,29.0557804107666,-19.487396240234375,-11.502513885498047,-0.31574398279190063,-0.4996194839477539,-0.1306924819946289,-0.5791699290275574,8.548171997070312,-0.41305291652679443
0_20251106_211809,1762435054944,0,0.5494371652603149,0.6391339898109436,0.4427659511566162,0.30591636896133423,0.33153092861175537,3.207982063293457,1.6373178958892822,-0.894913911819458,8.048552513122559,-0.5437453985214233,0.7798413634300232,0.3795684278011322,-0.7877749800682068,29.332027435302734,-19.238479614257812,-10.770346641540527,-0.31574398279190063,-0.4996194839477539,-0.1306924819946289,-0.5791699290275574,8.548171997070312,-0.41305291652679443
0_20251106_211809,1762435054964,0,0.5454592704772949,0.6384429335594177,0.4519064128398895,0.30107370018959045,0.3006942570209503,3.192267417907715,1.545933485031128,-1.9602876901626587,7.482348442077637,-1.4942026138305664,0.8054976463317871,0.5249542593955994,-0.8885676264762878,29.637876510620117,-18.899673461914062,-10.075899124145508,-0.9978744983673096,-0.7089414596557617,-0.8127899169921875,-0.9624131917953491,8.191289901733398,-0.6814126968383789
0_20251106_211809,1762435054984,0,0.5408838987350464,0.6368808150291443,0.4625494182109833,0.2964378893375397,0.27897849678993225,3.1810317039489746,1.4947102069854736,-2.4726250171661377,7.478756904602051,-2.0436482429504395,0.6301795244216919,0.6623988151550293,-0.7999922633171082,29.983102798461914,-18.508255004882812,-9.378925323486328,-1.2081694602966309,-0.5700263977050781,-1.0897884368896484,-1.2644555568695068,8.048783302307129,-0.953859806060791
0_20251106_211809,1762435055002,0,0.536462128162384,0.6344540119171143,0.47277969121932983,0.2935231328010559,0.25614410638809204,3.169987678527832,1.4454058408737183,-2.4438958168029785,7.719364166259766,-2.0747714042663574,0.4444766342639923,0.7601372003555298,-0.5452616810798645,30.318370819091797,-18.068214416503906,-8.600288391113281,-0.9435522556304932,-0.2635354995727539,-0.8967292308807373,-1.5003435611724854,7.9828996658325195,-1.1780421733856201
0_20251106_211809,1762435055021,0,0.5319477915763855,0.6319359540939331,0.481416255235672,0.2931329011917114,0.25614410638809204,3.169987678527832,1.4454058408737183,-2.4438958168029785,7.719364166259766,-2.0747714042663574,0.4444766342639923,0.7601372003555298,-0.5452616810798645,30.62030792236328,-17.56816864013672,-7.781253814697266,-0.9435522556304932,-0.2635354995727539,-0.8967292308807373,-1.5003435611724854,7.9828996658325195,-1.1780421733856201
0_20251106_211809,1762435055041,0,0.5267972350120544,0.6302298903465271,0.48850855231285095,0.294371098279953,0.23203885555267334,3.1602821350097656,1.3942378759384155,-1.9183909893035889,8.423229217529297,-1.7910709381103516,0.5709255933761597,0.6746160984039307,-0.19951224327087402,30.827774047851562,-17.02397918701172,-6.992120742797852,-0.3344379663467407,0.3522634506225586,-0.49042296409606934,-1.5839530229568481,8.070965766906738,-1.3006479740142822
0_20251106_211809,1762435055061,0,0.5207493305206299,0.6297842264175415,0.49511221051216125,0.2950522303581238,0.19063431024551392,3.1493685245513916,1.2973318099975586,-1.2600138187408447,8.931975364685059,-1.8353617191314697,0.5709255933761597,0.6746160984039307,-0.19951224327087402,31.071304321289062,-16.47808074951172,-6.133934020996094,0.21842968463897705,0.5590906143188477,-0.34221673011779785,-1.4784435033798218,8.372884750366211,-1.4931449890136719
0_20251106_211809,1762435055079,0,0.5142280459403992,0.6301296353340149,0.5022336840629578,0.29371336102485657,0.17318344116210938,3.14628267288208,1.2540383338928223,-1.538926362991333,8.643486976623535,-2.0711803436279297,0.8690276145935059,0.5585517883300781,-0.43041908740997314,31.277175903320312,-15.947669982910156,-5.223417282104492,-0.048386216163635254,0.21648120880126953,-0.4624282121658325,-1.4905401468276978,8.427005767822266,-1.6087521314620972
0_20251106_211809,1762435055099,0,0.5073937177658081,0.630134105682373,0.5104588866233826,0.2914007008075714,0.15401917695999146,3.1425044536590576,1.2049177885055542,-1.735242486000061,8.255642890930176,-2.7343456745147705,0.842760443687439,0.6630097031593323,-0.47501224279403687,31.47096061706543,-15.417915344238281,-4.326908111572266,-0.1957617998123169,-0.13709068298339844,-0.9004747867584229,-1.5394806861877441,8.392733573913574,-1.8338708877563477
0_20251106_211809,1762435055117,0,0.50028395652771,0.6294164657592773,0.5193591713905334,0.28951147198677063,0.13688641786575317,3.138190746307373,1.1595970392227173,-1.8429769277572632,7.952789306640625,-3.183238983154297,0.7468546628952026,0.7729653120040894,-0.4084279537200928,31.47096061706543,-15.417915344238281,-4.326908111572266,-0.24279701709747314,-0.3519554138183594,-1.0794944763183594,-1.60017991065979,8.304744720458984,-2.1037445068359375
0_20251106_211809,1762435055135,0,0.492885023355484,0.6282261610031128,0.5281288623809814,0.28892239928245544,0.13688641786575317,3.138190746307373,1.1595970392227173,-1.8429769277572632,7.952789306640625,-3.183238983154297,0.6118535399436951,0.8364952802658081,-0.2832007110118866,31.60494041442871,-14.855812072753906,-3.296895980834961,-0.24279701709747314,-0.3519554138183594,-1.0794944763183594,-1.60017991065979,8.304744720458984,-2.1037445068359375
0_20251106_211809,1762435055155,0,0.4854974150657654,0.6267565488815308,0.536116361618042,0.2899097502231598,0.1184021532535553,3.132403612136841,1.106995701789856,-1.7316513061523438,7.898921012878418,-3.670438289642334,0.4921240508556366,0.8145041465759277,-0.20317743718624115,31.707401275634766,-14.420997619628906,-2.256988525390625,-0.10517704486846924,-0.3246593475341797,-1.2533550262451172,-1.6264742612838745,8.223580360412598,-2.417083263397217
0_20251106_211809,1762435055174,0,0.4786299169063568,0.6252409219741821,0.543085515499115,0.2916252911090851,0.08812017738819122,3.119711399078369,1.0061496496200562,-1.2935312986373901,7.854630947113037,-4.012794494628906,0.4041595458984375,0.780295729637146,-0.16591468453407288,31.825559616088867,-13.934219360351562,-1.3101482391357422,0.24621784687042236,-0.23210573196411133,-1.048835277557373,-1.5397491455078125,8.086736679077148,-2.963959217071533
0_20251106_211809,1762435055194,0,0.47224536538124084,0.6235155463218689,0.5494456887245178,0.2938062846660614,0.07504492253065109,3.112675189971924,0.9533708095550537,-1.2085407972335815,7.857024669647217,-4.1205291748046875,0.3363535702228546,0.74120032787323,-0.17691025137901306,31.84431266784668,-13.491195678710938,-0.39505577087402344,0.2649667263031006,-0.18376970291137695,-0.9252560138702393,-1.4735075235366821,8.040794372558594,-3.1952731609344482
0_20251106_211809,1762435055212,0,0.4664229154586792,0.6214962601661682,0.5554630160331726,0.29606229066848755,0.06387069821357727,3.1055099964141846,0.9038273096084595,-1.2324817180633545,7.702605247497559,-4.0247650146484375,0.28320834040641785,0.7039376497268677,-0.21356213092803955,31.970428466796875,-13.078964233398438,0.5506916046142578,0.19282066822052002,-0.2705516815185547,-0.6635932922363281,-1.4253023862838745,7.973156929016113,-3.3611717224121094
0_20251106_211809,1762435055232,0,0.4615120589733124,0.6197550296783447,0.5606290102005005,0.2976666986942291,0.05234162136912346,3.0971059799194336,0.8499653339385986,-1.3378220796585083,7.696619987487793,-3.876330852508545,0.28320834040641785,0.7039376497268677,-0.21356213092803955,32.00862121582031,-12.722251892089844,1.4649162292480469,0.0699843168258667,-0.22122955322265625,-0.4121272563934326,-1.407806396484375,7.917849540710449,-3.4642035961151123
0_20251106_211809,1762435055250,0,0.45659157633781433,0.6169297695159912,0.5663719773292542,0.3002408444881439,0.05234162136912346,3.0971059799194336,0.8499653339385986,-1.3378220796585083,7.696619987487793,-3.876330852508545,0.12255091965198517,0.8010650873184204,-0.17568852007389069,32.00994110107422,-12.379936218261719,2.3233413696289062,0.0699843168258667,-0.22122955322265625,-0.4121272563934326,-1.407806396484375,7.917849540710449,-3.4642035961151123
0_20251106_211809,1762435055269,0,0.4516443908214569,0.6136044263839722,0.571944534778595,0.3039512634277344,0.03220909461379051,3.0801050662994385,0.7526004910469055,-1.318669319152832,7.554171562194824,-3.812887191772461,0.044971100986003876,0.8914730548858643,-0.09688696265220642,31.939165115356445,-12.017814636230469,3.233417510986328,0.07083785533905029,-0.2509489059448242,-0.23369121551513672,-1.3895071744918823,7.805120468139648,-3.579195976257324
0_20251106_211809,1762435055289,0,0.4464406967163086,0.6100589036941528,0.5771466493606567,0.30890214443206787,0.023224079981446266,3.0710251331329346,0.703694224357605,-1.1678410768508911,7.678664207458496,-3.972095012664795,0.044971100986003876,0.8914730548858643,-0.09688696265220642,31.85296058654785,-11.730484008789062,4.006256103515625,0.17733287811279297,-0.1011648178100586,-0.3143191337585449,-1.345173954963684,7.779829025268555,-3.65777587890625
0_20251106_211809,1762435055308,0,0.44103699922561646,0.6066683530807495,0.581680417060852,0.31478211283683777,0.016107406467199326,3.063229560852051,0.6587761044502258,-0.9834954738616943,7.925256729125977,-3.942168712615967,-0.05826503783464432,0.8548212051391602,0.139517679810524,31.768869400024414,-11.405479431152344,4.779886245727539,0.28934288024902344,0.11634254455566406,-0.22751426696777344,-1.2728383541107178,7.8089141845703125,-3.7146544456481934
0_20251106_211809,1762435055327,0,0.43575048446655273,0.6039326786994934,0.5850546956062317,0.3210885226726532,0.01088264212012291,3.056464672088623,0.6160150170326233,-0.7129623293876648,8.04256820678711,-3.747049331665039,-0.03993909806013107,0.798621654510498,0.23969949781894684,31.665037155151367,-11.219131469726562,5.523090362548828,0.44790083169937134,0.18692302703857422,-0.025916099548339844,-1.1608631610870361,7.855645179748535,-3.721133232116699
0_20251106_211809,1762435055346,0,0.4303048551082611,0.6019160151481628,0.5876487493515015,0.3274199664592743,0.008208781480789185,3.0501208305358887,0.5753438472747803,-0.32631540298461914,7.885753631591797,-3.7386698722839355,0.054744940251111984,0.7723544836044312,0.30689460039138794,31.55597496032715,-11.121086120605469,6.304996490478516,0.6676382422447205,0.024086952209472656,-0.014029502868652344,-0.9939536452293396,7.861666679382324,-3.724640369415283
0_20251106_211809,1762435055365,0,0.4242042899131775,0.6006578803062439,0.5900047421455383,0.3333994448184967,0.008383803069591522,3.043818712234497,0.5366545915603638,-0.004309132695198059,7.761260986328125,-3.7434582710266113,0.11644227802753448,0.7466981410980225,0.33132922649383545,31.336631774902344,-11.042610168457031,7.068706512451172,0.7917156219482422,-0.08032417297363281,-0.015054464340209961,-0.796024739742279,7.841585159301758,-3.7284038066864014
0_20251106_211809,1762435055384,0,0.4177039563655853,0.5998055934906006,0.5923025012016296,0.3390197157859802,0.011211574077606201,3.0378477573394775,0.4990276098251343,0.1740512251853943,7.847448348999023,-4.046311855316162,0.11644227802753448,0.7466981410980225,0.33132922649383545,31.092309951782227,-10.978141784667969,7.817657470703125,0.7760607600212097,0.004690647125244141,-0.25432658195495605,-0.6020095348358154,7.842757701873779,-3.791985273361206
0_20251106_211809,1762435055403,0,0.41129711270332336,0.5987645983695984,0.5944567322731018,0.34487223625183105,0.01604483462870121,3.0325324535369873,0.46399471163749695,0.32727354764938354,7.866601467132568,-4.266569137573242,-0.02161315456032753,0.7112679481506348,0.30017513036727905,30.833589553833008,-10.952278137207031,8.578842163085938,0.743426501750946,0.01907491683959961,-0.3796672821044922,-0.4161529541015625,7.847526550292969,-3.88690185546875
0_20251106_211809,1762435055422,0,0.40570175647735596,0.597244143486023,0.5962961316108704,0.3509080708026886,0.02391608990728855,3.025935649871826,0.4263707995414734,0.4948604702949524,7.523047924041748,-4.098982334136963,-0.1315688043832779,0.6819465160369873,0.2531385123729706,30.603561401367188,-11.073905944824219,9.257232666015625,0.7288107872009277,-0.2595829963684082,-0.1696643829345703,-0.23395028710365295,7.782630920410156,-3.9293179512023926
0_20251106_211809,1762435055442,0,0.40100106596946716,0.5951570272445679,0.5978599190711975,0.3571411967277527,0.03327563405036926,3.018343687057495,0.39252448081970215,0.5882303714752197,7.185480117797852,-3.889498233795166,-0.23785926401615143,0.716154932975769,0.22748219966888428,30.34914779663086,-11.208732604980469,9.839763641357422,0.6577445268630981,-0.4777202606201172,0.03185558319091797,-0.06951417028903961,7.663200378417969,-3.921353816986084
0_20251106_211809,1762435055460,0,0.3967245817184448,0.5923399925231934,0.599327802658081,0.3640729486942291,0.04412614554166794,3.009675979614258,0.36046773195266724,0.6444916725158691,7.132810115814209,-3.8859071731567383,-0.23785926401615143,0.716154932975769,0.22748219966888428,30.056581497192383,-11.359718322753906,10.542205810546875,0.571204662322998,-0.42431211471557617,0.028357267379760742,0.0732869803905487,7.557122230529785,-3.914264440536499
0_20251106_211809,1762435055481,0,0.39297914505004883,0.5887773036956787,0.600238025188446,0.37232106924057007,0.05651691183447838,3.000277519226074,0.33123779296875,0.8324283957481384,7.132809638977051,-3.46813702583313,-0.6147627830505371,0.8389387130737305,0.22870391607284546,29.748390197753906,-11.585762023925781,11.134445190429688,0.6073131561279297,-0.3394498825073242,0.3569018840789795,0.22511525452136993,7.472259521484375,-3.8250389099121094
0_20251106_211809,1762435055500,0,0.38997846841812134,0.5839880108833313,0.600771427154541,0.38203197717666626,0.05651691183447838,3.000277519226074,0.33123779296875,0.8324283957481384,7.132809638977051,-3.46813702583313,-0.7473204135894775,0.9061338305473328,0.1499023735523224,29.748390197753906,-11.585762023925781,11.134445190429688,0.6073131561279297,-0.3394498825073242,0.3569018840789795,0.22511525452136993,7.472259521484375,-3.8250389099121094
0_20251106_211809,1762435055520,0,0.38762974739074707,0.5780155062675476,0.6013000011444092,0.3925296664237976,0.08746125549077988,2.982041358947754,0.2792320251464844,0.7103293538093567,7.890542507171631,-3.2730178833007812,-0.7632029056549072,1.009369969367981,-0.029691841453313828,29.222126007080078,-12.180694580078125,12.170997619628906,0.2632296681404114,0.3492922782897949,0.3111572265625,0.4470996856689453,7.541250228881836,-3.5841751098632812
0_20251106_211809,1762435055537,0,0.38537469506263733,0.5704013705253601,0.6030406951904297,0.40307632088661194,0.09933450073003769,2.9769208431243896,0.25987064838409424,0.26382994651794434,8.135937690734863,-3.5555214881896973,-0.6984512805938721,1.1003888845443726,-0.1848514974117279,29.222126007080078,-12.180694580078125,12.170997619628906,-0.14661580324172974,0.4757499694824219,0.022922992706298828,0.4104457497596741,7.660187721252441,-3.578444480895996
0_20251106_211809,1762435055556,0,0.3827936053276062,0.5616901516914368,0.6061263084411621,0.41301828622817993,0.11092796921730042,2.9719979763031006,0.23844358325004578,0.04117874056100845,7.847448348999023,-3.89548397064209,-0.6984512805938721,1.1003888845443726,-0.1848514974117279,28.911596298217773,-12.467903137207031,12.599720001220703,-0.295413613319397,0.14980840682983398,-0.253631591796875,0.33659234642982483,7.6976399421691895,-3.641852378845215
0_20251106_211809,1762435055575,0,0.3795223534107208,0.5530131459236145,0.6096178293228149,0.422498881816864,0.12069446593523026,2.967252731323242,0.21644943952560425,-0.11802880465984344,7.6726789474487305,-4.239037036895752,-0.6178171634674072,1.1468144655227661,-0.18912754952907562,28.638540267944336,-12.728294372558594,13.0980224609375,-0.3636969327926636,-0.01996898651123047,-0.47774767875671387,0.24566811323165894,7.692647933959961,-3.761289358139038
0_20251106_211809,1762435055595,0,0.3758399188518524,0.5456465482711792,0.6121571660041809,0.4315991997718811,0.12941718101501465,2.9631271362304688,0.19332318007946014,-0.09767897427082062,7.896527290344238,-4.133696556091309,-0.5744457244873047,1.05701744556427,-0.04190913587808609,28.290241241455078,-13.042732238769531,13.49771499633789,-0.27467769384384155,0.1631031036376953,-0.2979257106781006,0.17699870467185974,7.733424186706543,-3.835770845413208
0_20251106_211809,1762435055614,0,0.372372031211853,0.5404247045516968,0.6126111745834351,0.44044041633605957,0.12941718101501465,2.9631271362304688,0.19332318007946014,-0.09767897427082062,7.896527290344238,-4.133696556091309,-0.6294235587120056,0.6996615529060364,0.42967844009399414,28.002094268798828,-13.342658996582031,14.102867126464844,-0.27467769384384155,0.1631031036376953,-0.2979257106781006,0.17699870467185974,7.733424186706543,-3.835770845413208
0_20251106_211809,1762435055633,0,0.36897340416908264,0.5370053648948669,0.6111113429069519,0.44947388768196106,0.14617110788822174,2.960940361022949,0.15233640372753143,0.7594083547592163,8.684186935424805,-3.6955761909484863,-0.6275910139083862,0.5090717673301697,0.5597925782203674,27.674135208129883,-13.730583190917969,14.474922180175781,0.4635263979434967,0.6730337142944336,0.12630629539489746,0.2958819568157196,8.011153221130371,-3.821882486343384
0_20251106_211809,1762435055651,0,0.3667788803577423,0.536071240901947,0.607346773147583,0.45741745829582214,0.14617110788822174,2.960940361022949,0.15233640372753143,0.7594083547592163,8.684186935424805,-3.6955761909484863,-0.5793326497077942,0.33558616042137146,0.5402449369430542,27.334497451782227,-14.107009887695312,14.873783111572266,0.4635263979434967,0.6730337142944336,0.12630629539489746,0.2958819568157196,8.011153221130371,-3.821882486343384
0_20251106_211809,1762435055671,0,0.3646765947341919,0.535035252571106,0.6039655804634094,0.46472981572151184,0.16972015798091888,2.9681456089019775,0.1203785091638565,1.2968835830688477,8.978660583496094,-3.075504779815674,-0.5793326497077942,0.33558616042137146,0.5402449369430542,26.870365142822266,-14.552955627441406,15.144775390625,0.6611345410346985,0.6301212310791016,0.5119650363922119,0.6357490420341492,8.348539352416992,-3.5874698162078857
0_20251106_211809,1762435055690,0,0.36312586069107056,0.5335832238197327,0.6011868119239807,0.47117194533348083,0.18178796768188477,2.974104881286621,0.1092957928776741,0.925798237323761,9.084000587463379,-2.7331485748291016,-0.5964368581771851,0.3630750775337219,0.23969949781894684,26.35445785522461,-15.064186096191406,15.344902038574219,0.23203939199447632,0.5883693695068359,0.6834568977355957,0.6937588453292847,8.495631217956543,-3.4166054725646973
0_20251106_211809,1762435055709,0,0.36227235198020935,0.530636191368103,0.5991449356079102,0.47771263122558594,0.1946275383234024,2.9815216064453125,0.10118891298770905,0.7270880937576294,8.866137504577637,-2.2351760864257812,-0.7454878091812134,0.5457236766815186,0.15540015697479248,26.01972007751465,-15.600502014160156,15.484016418457031,0.026663362979888916,0.2964048385620117,0.9451436996459961,0.7004247307777405,8.569732666015625,-3.1803197860717773
0_20251106_211809,1762435055728,0,0.361571729183197,0.5257599949836731,0.5974522829055786,0.4856882393360138,0.20708318054676056,2.988492965698242,0.09687936305999756,1.0167739391326904,8.671018600463867,-2.08434796333313,-0.8456696271896362,0.7302048206329346,0.19449549913406372,25.6212215423584,-16.20262908935547,15.524742126464844,0.253079354763031,0.08102893829345703,0.8767776489257812,0.7636945843696594,8.58998966217041,-2.961125612258911
0_20251106_211809,1762435055747,0,0.3601844608783722,0.5198404788970947,0.595628023147583,0.4952375888824463,0.220418319106102,2.995305299758911,0.09476715326309204,1.3112481832504272,8.659049034118652,-2.238767147064209,-0.8694933652877808,0.7815174460411072,0.271464467048645,25.21919822692871,-16.86754608154297,15.56414794921875,0.43804287910461426,0.05524730682373047,0.5778868198394775,0.873205304145813,8.603801727294922,-2.8166539669036865
0_20251106_211809,1762435055766,0,0.3581521511077881,0.5140143036842346,0.5933760404586792,0.5053921341896057,0.220418319106102,2.995305299758911,0.09476715326309204,1.3112481832504272,8.659049034118652,-2.238767147064209,-0.8536108732223511,0.6795030236244202,0.37775492668151855,24.779489517211914,-17.5711669921875,15.466129302978516,0.43804287910461426,0.05524730682373047,0.5778868198394775,0.873205304145813,8.603801727294922,-2.8166539669036865
0_20251106_211809,1762435055786,0,0.3560308814048767,0.5094071626663208,0.5901979207992554,0.5151822566986084,0.23722034692764282,3.0030767917633057,0.09376401454210281,1.70866858959198,8.788330078125,-2.4542360305786133,-0.8536108732223511,0.6795030236244202,0.37775492668151855,24.33877944946289,-18.287750244140625,15.408393859863281,0.6683706045150757,0.14762306213378906,0.2899343967437744,1.0402979850769043,8.640707015991211,-2.7441704273223877
0_20251106_211809,1762435055805,0,0.35461491346359253,0.5064472556114197,0.5858529806137085,0.52396160364151,0.2707253396511078,3.020078182220459,0.09570103883743286,1.8666789531707764,9.208494186401367,-1.8365588188171387,-0.8395609855651855,0.45470479130744934,0.45533472299575806,23.877716064453125,-18.942459106445312,15.283416748046875,0.5244786739349365,0.3555307388305664,0.6806573867797852,1.3422002792358398,8.8529634475708,-2.517216205596924
0_20251106_211809,1762435055824,0,0.35428616404533386,0.5046079158782959,0.5809276700019836,0.5313898324966431,0.2886224687099457,3.0298545360565186,0.10089157521724701,1.7541563510894775,9.262361526489258,-1.3637242317199707,-0.807185173034668,0.23296087980270386,0.4425065815448761,23.4765682220459,-19.617774963378906,15.106300354003906,0.32956480979919434,0.3275184631347656,0.9227936267852783,1.4245915412902832,8.934843063354492,-2.286517858505249
0_20251106_211809,1762435055843,0,0.35417360067367554,0.5028541088104248,0.576276957988739,0.5381483435630798,0.3067883849143982,3.0408027172088623,0.1081605851650238,1.8487234115600586,9.540077209472656,-1.4343502521514893,-0.7479313015937805,0.18714603781700134,0.39791345596313477,23.137056350708008,-20.27655792236328,14.931900024414062,0.3393055200576782,0.48418712615966797,0.6817340850830078,1.5094178915023804,9.055890083312988,-2.116084337234497
0_20251106_211809,1762435055861,0,0.35400936007499695,0.5004445910453796,0.5720564723014832,0.5449623465538025,0.32406458258628845,3.0526206493377686,0.11680880188941956,1.8858318328857422,9.853704452514648,-1.2607780694961548,-0.807796061038971,0.30015602707862854,0.24458640813827515,22.73550033569336,-20.964027404785156,14.713970184326172,0.3011312484741211,0.6382513046264648,0.6842449903488159,1.584700584411621,9.215453147888184,-1.9450230598449707
0_20251106_211809,1762435055881,0,0.3544033467769623,0.4970475733280182,0.5680572390556335,0.5519537329673767,0.32406458258628845,3.0526206493377686,0.11680880188941956,1.8858318328857422,9.853704452514648,-1.2607780694961548,-0.8859867453575134,0.3545229732990265,0.14623717963695526,22.339879989624023,-21.550636291503906,14.457603454589844,0.3011312484741211,0.6382513046264648,0.6842449903488159,1.584700584411621,9.215453147888184,-1.9450230598449707
0_20251106_211809,1762435055900,0,0.35543397068977356,0.49259456992149353,0.5641839504241943,0.5592081546783447,0.34514379501342773,3.0688047409057617,0.13021709024906158,1.8618909120559692,9.88482666015625,-1.029747486114502,-0.9171408414840698,0.36796197295188904,0.08515072613954544,21.97063446044922,-22.10973358154297,14.121646881103516,0.22175228595733643,0.5354986190795898,0.7322204113006592,1.6401386260986328,9.34932804107666,-1.7619678974151611
0_20251106_211809,1762435055919,0,0.3567991852760315,0.4875484108924866,0.5604528784751892,0.5664657950401306,0.38012173771858215,3.097681999206543,0.1574244499206543,2.1360151767730713,10.124236106872559,-0.7017558813095093,-0.9146974086761475,0.3068754971027374,0.05338576063513756,21.576004028320312,-22.694992065429688,13.730117797851562,0.3313424587249756,0.529841423034668,0.6919426918029785,1.8046727180480957,9.59439468383789,-1.3936985731124878
0_20251106_211809,1762435055939,0,0.3586389422416687,0.4826980233192444,0.5565491914749146,0.5732658505439758,0.39929819107055664,3.1153206825256348,0.17532020807266235,2.0234925746917725,10.22957706451416,-0.48030179738998413,-0.9061452746391296,0.23357175290584564,0.022231658920645714,21.222654342651367,-23.20185089111328,13.274059295654297,0.1750558614730835,0.5081462860107422,0.7307174801826477,1.848436713218689,9.721430778503418,-1.2110192775726318
0_20251106_211809,1762435055959,0,0.36095675826072693,0.47810375690460205,0.552528440952301,0.5795164704322815,0.4175967574119568,3.1334619522094727,0.1955687701702118,1.8750584125518799,10.17690658569336,-0.1427338719367981,-0.8988149166107178,0.18225912749767303,0.011846957728266716,21.222654342651367,-23.20185089111328,13.274059295654297,0.021297335624694824,0.3643808364868164,0.854628324508667,1.853761076927185,9.812525749206543,-0.9973621964454651
0_20251106_211809,1762435055976,0,0.363564133644104,0.4737156331539154,0.5483744144439697,0.5854059457778931,0.4321935176849365,3.1486799716949463,0.21458008885383606,1.772112250328064,10.07156753540039,0.2139868289232254,-0.8939279317855835,0.16271145641803741,0.041168466210365295,20.938995361328125,-23.76659393310547,12.806110382080078,-0.06531906127929688,0.20723342895507812,0.9690791964530945,1.8374313116073608,9.864334106445312,-0.7550923824310303
0_20251106_211809,1762435055995,0,0.36613017320632935,0.4695754647254944,0.543964684009552,0.5912275314331055,0.4479067325592041,3.1655707359313965,0.23813378810882568,1.9157581329345703,10.13141918182373,0.4725494980812073,-0.8487240076065063,0.16576577723026276,0.097368024289608,20.65131187438965,-24.181846618652344,12.381385803222656,0.06266140937805176,0.2136678695678711,0.9821135401725769,1.8530967235565186,9.91775131225586,-0.5095640420913696
0_20251106_211809,1762435056015,0,0.368109792470932,0.46575868129730225,0.5395517349243164,0.5970326662063599,0.4479067325592041,3.1655707359313965,0.23813378810882568,1.9157581329345703,10.13141918182373,0.4725494980812073,-0.7955787181854248,0.19020035862922668,0.14196112751960754,20.367746353149414,-24.53350830078125,11.876884460449219,0.06266140937805176,0.2136678695678711,0.9821135401725769,1.8530967235565186,9.91775131225586,-0.5095640420913696
0_20251106_211809,1762435056034,0,0.3694952726364136,0.46225133538246155,0.535214900970459,0.6027785539627075,0.46511712670326233,3.185157537460327,0.26451992988586426,2.0653891563415527,10.470184326171875,-0.01584664359688759,-0.7815288305282593,0.09857065975666046,0.09187024086713791,20.046733856201172,-24.888771057128906,11.492557525634766,0.16983389854431152,0.44194602966308594,0.3949739336967468,1.8955552577972412,10.028238296508789,-0.4108205735683441
0_20251106_211809,1762435056053,0,0.37146511673927307,0.4591222107410431,0.5309064984321594,0.6077489256858826,0.4949888288974762,3.2191848754882812,0.3107103407382965,2.1958675384521484,10.22838020324707,0.6233776807785034,-0.7674790024757385,0.03198640048503876,-0.0022029299288988113,19.758132934570312,-25.328468322753906,10.999725341796875,0.17955899238586426,0.08116531372070312,0.7576508522033691,2.016308546066284,10.147214889526367,-0.13427315652370453
0_20251106_211809,1762435056072,0,0.3746183514595032,0.4563402533531189,0.5264971852302551,0.6117314696311951,0.5105975866317749,3.236478567123413,0.33867764472961426,2.015113353729248,10.052413940429688,0.8651816844940186,-0.7534290552139282,0.10834449529647827,-0.06084594130516052,19.53508949279785,-25.688316345214844,10.456863403320312,-0.0009560585021972656,-0.07584095001220703,0.7995638847351074,2.0160694122314453,10.128254890441895,0.06561779230833054
0_20251106_211809,1762435056092,0,0.3772754967212677,0.4524277150630951,0.5229212045669556,0.6160566210746765,0.5248880386352539,3.253593921661377,0.36672747135162354,1.8391469717025757,10.354069709777832,0.5527517795562744,-0.7961896061897278,0.21402409672737122,-0.05473729595541954,19.352535247802734,-25.970840454101562,9.957603454589844,-0.14153802394866943,0.18065166473388672,0.38970720767974854,1.9806849956512451,10.173418045043945,0.16304458677768707
0_20251106_211809,1762435056110,0,0.37963607907295227,0.4477843642234802,0.5193588733673096,0.6209927201271057,0.5369641780853271,3.2691264152526855,0.3920676112174988,1.9229403734207153,10.538415908813477,0.7143534421920776,-0.8737694621086121,0.20669370889663696,-0.04618518799543381,19.219532012939453,-26.23749542236328,9.447052001953125,-0.0461956262588501,0.29199790954589844,0.4410470724105835,1.9691359996795654,10.246417999267578,0.27330636978149414
0_20251106_211809,1762435056130,0,0.3822668492794037,0.442950040102005,0.5153310894966125,0.6261798739433289,0.5494434237480164,3.2868897914886475,0.42144089937210083,1.881043553352356,10.696426391601562,1.1369118690490723,-0.8829324245452881,0.1168965995311737,-0.05901334434747696,18.993377685546875,-26.42340850830078,9.015525817871094,-0.07047390937805176,0.36000633239746094,0.6908844113349915,1.9515174627304077,10.336420059204102,0.4460274577140808
0_20251106_211809,1762435056150,0,0.38545459508895874,0.4385777413845062,0.5108988881111145,0.6309173107147217,0.5606040954589844,3.3050413131713867,0.4528068006038666,1.7230331897735596,10.756278991699219,1.5846083164215088,-0.8829324245452881,0.1168965995311737,-0.05901334434747696,18.88997459411621,-26.60016632080078,8.467254638671875,-0.18278741836547852,0.33588695526123047,0.9108647108078003,1.905820608139038,10.420392036437988,0.6737436056137085
0_20251106_211809,1762435056169,0,0.3886277377605438,0.4348982572555542,0.5067591071128845,0.6348442435264587,0.5700897574424744,3.322518825531006,0.484332799911499,1.6919097900390625,10.819723129272461,1.8467621803283691,-0.7882484197616577,0.02709948644042015,-0.06817632168531418,18.746192932128906,-26.842498779296875,7.9567413330078125,-0.1711287498474121,0.31946468353271484,0.9384148716926575,1.8630385398864746,10.500258445739746,0.9083473086357117
0_20251106_211809,1762435056186,0,0.3912700414657593,0.4321540296077728,0.5029159188270569,0.6381427645683289,0.5700897574424744,3.322518825531006,0.484332799911499,1.6919097900390625,10.819723129272461,1.8467621803283691,-0.5897173285484314,-0.040095631033182144,0.07354430109262466,18.65548324584961,-27.006179809570312,7.436260223388672,-0.1711287498474121,0.31946468353271484,0.9384148716926575,1.8630385398864746,10.500258445739746,0.9083473086357117
0_20251106_211809,1762435056207,0,0.39320117235183716,0.4302593767642975,0.4990028440952301,0.6413001418113708,0.5790224075317383,3.3405439853668213,0.5171363353729248,1.8343586921691895,11.0184326171875,1.9485113620758057,-0.5897173285484314,-0.040095631033182144,0.07354430109262466,18.597919464111328,-27.21851348876953,6.997291564941406,-0.022943854331970215,0.4145393371582031,0.8321312665939331,1.8573025465011597,10.603893280029297,1.1163800954818726
0_20251106_211809,1762435056226,0,0.3947003185749054,0.4287489056587219,0.494981974363327,0.6444989442825317,0.5963402390480042,3.380187749862671,0.586533784866333,2.011522054672241,11.517602920532227,2.3579025268554688,-0.5665044784545898,-0.05353465676307678,0.12546779215335846,18.52172088623047,-27.33184051513672,6.545936584472656,0.11210739612579346,0.6098642349243164,0.8259849548339844,1.8994146585464478,10.90773868560791,1.5319175720214844
0_20251106_211809,1762435056245,0,0.3961181640625,0.42712074518203735,0.4912596046924591,0.6475510001182556,0.6043080687522888,3.400510549545288,0.620733916759491,1.9887781143188477,11.734268188476562,2.573371171951294,-0.539015531539917,-0.03520871698856354,0.10469839721918106,18.482179641723633,-27.442649841308594,6.082536697387695,0.07149076461791992,0.6612234115600586,0.8331629037857056,1.9172873497009277,11.073044776916504,1.7402082681655884
0_20251106_211809,1762435056263,0,0.39796459674835205,0.42541801929473877,0.487993985414505,0.6500042676925659,0.6122215390205383,3.42240834236145,0.658198356628418,1.88942289352417,11.626533508300781,2.8953776359558105,-0.49503329396247864,-0.04192822426557541,0.027729440480470657,18.355022430419922,-27.596961975097656,5.641944885253906,-0.02229166030883789,0.4427909851074219,0.9241354465484619,1.9117145538330078,11.18374252319336,1.9712421894073486
0_20251106_211809,1762435056283,0,0.4001953899860382,0.4237445294857025,0.48531419038772583,0.6517317891120911,0.6195796132087708,3.4453392028808594,0.6987960338592529,1.7290184497833252,11.523587226867676,3.0019149780273438,-0.3484257757663727,-0.04498255252838135,-0.08711312711238861,18.363014221191406,-27.72943878173828,5.152946472167969,-0.14615678787231445,0.27187633514404297,0.8245382308959961,1.8751752376556396,11.251710891723633,2.1773767471313477
0_20251106_211809,1762435056301,0,0.40212389826774597,0.4219542443752289,0.4834132194519043,0.6531176567077637,0.6256169676780701,3.4653847217559814,0.7352043390274048,1.7721121311187744,11.430217742919922,2.8666481971740723,-0.2506874203681946,-0.007719803135842085,-0.08711312711238861,18.33516502380371,-27.840133666992188,4.757617950439453,-0.08245038986206055,0.1428060531616211,0.5514171123504639,1.854562520980835,11.2874116897583,2.3152310848236084
0_20251106_211809,1762435056320,0,0.40354928374290466,0.4203118681907654,0.4822354018688202,0.6541673541069031,0.6315532922744751,3.485250473022461,0.7730361223220825,1.811614751815796,11.201581001281738,2.7972195148468018,-0.2506874203681946,-0.007719803135842085,-0.08711312711238861,18.380346298217773,-27.934585571289062,4.473627090454102,-0.03435826301574707,-0.06866455078125,0.3855907917022705,1.845973014831543,11.270245552062988,2.4116287231445312
0_20251106_211809,1762435056340,0,0.40480098128318787,0.41906192898750305,0.4816528260707855,0.6546249389648438,0.6369448304176331,3.504467248916626,0.8118690848350525,1.6667717695236206,11.056737899780273,2.7409582138061523,-0.09064085781574249,-0.0022220206446945667,-0.14270183444023132,18.404666900634766,-27.979454040527344,4.095096588134766,-0.14336097240447998,-0.1708059310913086,0.26346349716186523,1.8101327419281006,11.227543830871582,2.477494716644287
0_20251106_211809,1762435056360,0,0.40587809681892395,0.4178125858306885,0.48170793056488037,0.6547160148620605,0.64133620262146,3.5216760635375977,0.8491137027740479,1.5698107481002808,10.88316535949707,2.5937211513519287,-0.052156392484903336,0.029542945325374603,-0.17263419926166534,18.404666900634766,-27.979454040527344,4.095096588134766,-0.19225752353668213,-0.27550315856933594,0.09298110008239746,1.762068271636963,11.158668518066406,2.5007400512695312
0_20251106_211809,1762435056379,0,0.4069398045539856,0.41643446683883667,0.4822027087211609,0.6545707583427429,0.6443344354629517,3.5350215435028076,0.8808655142784119,1.454893946647644,10.603055953979492,2.463242530822754,-0.019169695675373077,0.052144937217235565,-0.21172954142093658,18.411537170410156,-27.92369842529297,3.5419845581054688,-0.24573945999145508,-0.4444904327392578,-0.029997825622558594,1.7006334066390991,11.04754638671875,2.4932403564453125
0_20251106_211809,1762435056398,0,0.4079771339893341,0.41485482454299927,0.48318052291870117,0.6542069315910339,0.6443344354629517,3.5350215435028076,0.8808655142784119,1.454893946647644,10.603055953979492,2.463242530822754,0.01748218759894371,0.048479750752449036,-0.2367749959230423,18.411537170410156,-27.92369842529297,3.5419845581054688,-0.24573945999145508,-0.4444904327392578,-0.029997825622558594,1.7006334066390991,11.04754638671875,2.4932403564453125
0_20251106_211809,1762435056416,0,0.40910783410072327,0.4133809804916382,0.4844380021095276,0.65350341796875,0.6475372314453125,3.5548758506774902,0.9417498707771301,1.2585780620574951,9.971014022827148,2.2944588661193848,0.048636287450790405,0.03809504956007004,-0.2471596896648407,18.449378967285156,-27.91956329345703,3.3677444458007812,-0.303600549697876,-0.7445240020751953,-0.12970995903015137,1.562178611755371,10.715538024902344,2.424168825149536
0_20251106_211809,1762435056436,0,0.410182386636734,0.41203388571739197,0.4859173893928528,0.6525816321372986,0.6474642157554626,3.560392141342163,0.9701629281044006,1.19752836227417,9.779485702514648,2.1256747245788574,0.06268617510795593,0.04420369490981102,-0.2270011603832245,18.58844757080078,-27.83440399169922,3.266592025756836,-0.2917201519012451,-0.7488422393798828,-0.23879528045654297,1.489248514175415,10.528327941894531,2.3644700050354004
0_20251106_211809,1762435056454,0,0.41102996468544006,0.41076284646987915,0.48743677139282227,0.6517159342765808,0.6463090777397156,3.5635507106781006,0.9935969114303589,1.0455031394958496,9.895600318908691,2.0155460834503174,0.05046888440847397,0.022823432460427284,-0.22211423516273499,18.715438842773438,-27.73828887939453,3.2463111877441406,-0.35499632358551025,-0.5061826705932617,-0.27913928031921387,1.4004994630813599,10.401782989501953,2.2946853637695312
0_20251106_211809,1762435056474,0,0.4119875431060791,0.409618079662323,0.48878657817840576,0.6508201956748962,0.6437013149261475,3.564880132675171,1.018026351928711,0.9437539577484131,9.742378234863281,2.193906307220459,0.05046888440847397,0.022823432460427284,-0.22211423516273499,18.81686019897461,-27.656997680664062,3.292367935180664,-0.3653963804244995,-0.5275239944458008,-0.08062314987182617,1.3091503381729126,10.269902229309082,2.274529457092285
0_20251106_211809,1762435056494,0,0.41298002004623413,0.40847644209861755,0.48998212814331055,0.6500092148780823,0.6437013149261475,3.564880132675171,1.018026351928711,0.9437539577484131,9.742378234863281,2.193906307220459,0.04436023533344269,0.05581012740731239,-0.19218187034130096,18.874061584472656,-27.503135681152344,3.297496795654297,-0.3653963804244995,-0.5275239944458008,-0.08062314987182617,1.3091503381729126,10.269902229309082,2.274529457092285
0_20251106_211809,1762435056512,0,0.413751482963562,0.40728050470352173,0.49124428629875183,0.6493160724639893,0.6362581253051758,3.562767744064331,1.061400055885315,0.9198130369186401,9.675342559814453,2.114901304244995,0.04436023533344269,0.05581012740731239,-0.19218187034130096,18.942153930664062,-27.361846923828125,3.3839492797851562,-0.2535809278488159,-0.3837747573852539,-0.14563894271850586,1.173393964767456,10.059117317199707,2.260540246963501
0_20251106_211809,1762435056531,0,0.4138867259025574,0.4059569835662842,0.4928751587867737,0.6488226056098938,0.6319388747215271,3.559772253036499,1.0792087316513062,0.9018572568893433,9.461071968078613,1.882673740386963,0.11216622591018677,0.09612719714641571,-0.1646929681301117,19.082950592041016,-27.227943420410156,3.4325332641601562,-0.21722936630249023,-0.4784364700317383,-0.3022933006286621,1.1190866231918335,9.939508438110352,2.184967041015625
0_20251106_211809,1762435056551,0,0.41388869285583496,0.4048156142234802,0.4946866035461426,0.6481555700302124,0.6264208555221558,3.555563449859619,1.0966730117797852,0.803699254989624,9.595141410827637,1.746209979057312,0.11216622591018677,0.09612719714641571,-0.1646929681301117,19.248939514160156,-27.068145751953125,3.563722610473633,-0.2523099184036255,-0.2754936218261719,-0.3510056734085083,1.0560091733932495,9.870635032653809,2.0972156524658203
0_20251106_211809,1762435056571,0,0.4140251576900482,0.40380945801734924,0.4962965250015259,0.6474649310112,0.6200551390647888,3.5509023666381836,1.1125208139419556,0.686388373374939,9.652599334716797,1.8527474403381348,0.03641899302601814,0.09857065975666046,-0.1494213342666626,19.37676239013672,-26.936111450195312,3.7199459075927734,-0.2956966161727905,-0.17442893981933594,-0.19557452201843262,0.9820849895477295,9.827028274536133,2.0483219623565674
0_20251106_211809,1762435056589,0,0.4142705798149109,0.40251827239990234,0.49758726358413696,0.6471211910247803,0.6200551390647888,3.5509023666381836,1.1125208139419556,0.686388373374939,9.652599334716797,1.8527474403381348,0.004043162800371647,0.15660279989242554,-0.14758874475955963,19.46761703491211,-26.818618774414062,3.8338851928710938,-0.2956966161727905,-0.17442893981933594,-0.19557452201843262,0.9820849895477295,9.827028274536133,2.0483219623565674
0_20251106_211809,1762435056608,0,0.41426873207092285,0.400642454624176,0.49895864725112915,0.6472304463386536,0.6070979833602905,3.5420167446136475,1.1400141716003418,0.7462408542633057,9.738786697387695,1.9904080629348755,0.004043162800371647,0.15660279989242554,-0.14758874475955963,19.48383331298828,-26.742752075195312,3.8629913330078125,-0.15266400575637817,-0.05647468566894531,-0.03725636005401611,0.8989048600196838,9.79526138305664,2.0276644229888916
0_20251106_211809,1762435056626,0,0.41416317224502563,0.39830613136291504,0.500691831111908,0.6474015712738037,0.6005308032035828,3.5375943183898926,1.1519346237182617,0.6337181925773621,9.615490913391113,2.0035758018493652,0.013206131756305695,0.21402409672737122,-0.1793537139892578,19.575790405273438,-26.612159729003906,3.9231300354003906,-0.21214932203292847,-0.14381694793701172,-0.019270896911621094,0.8458675146102905,9.759307861328125,2.0228466987609863
0_20251106_211809,1762435056647,0,0.41409972310066223,0.39539989829063416,0.5027630925178528,0.6476184129714966,0.5930743217468262,3.5325582027435303,1.1637269258499146,0.5283778309822083,9.540077209472656,1.9640729427337646,-0.049102067947387695,0.3227579891681671,-0.22944462299346924,19.68174934387207,-26.443504333496094,4.02509880065918,-0.2539917826652527,-0.175384521484375,-0.047019004821777344,0.7823696136474609,9.715461730957031,2.011091947555542
0_20251106_211809,1762435056664,0,0.4140680730342865,0.3919360637664795,0.5046797394752502,0.6482531428337097,0.5851492881774902,3.527404308319092,1.1750667095184326,0.47570765018463135,9.58077621459961,2.0610342025756836,-0.09125173091888428,0.3478034436702728,-0.2208925187587738,19.821645736694336,-26.322425842285156,4.10045051574707,-0.24532955884933472,-0.10774803161621094,0.03995370864868164,0.7210372090339661,9.68852424621582,2.021080493927002
0_20251106_211809,1762435056684,0,0.41398414969444275,0.3881584405899048,0.5064243674278259,0.6492183804512024,0.5764638781547546,3.52238130569458,1.185876488685608,0.47091948986053467,9.73160457611084,1.8467621803283691,-0.07903443276882172,0.38262274861335754,-0.19829052686691284,19.86315155029297,-26.22052764892578,4.198646545410156,-0.20009422302246094,0.03446388244628906,-0.13945460319519043,0.6710137128829956,9.69714069366455,1.9862167835235596
0_20251106_211809,1762435056702,0,0.41358786821365356,0.3843398988246918,0.5082529187202454,0.6503129005432129,0.5686100125312805,3.518657922744751,1.1940828561782837,0.49725455045700073,9.929117202758789,1.5654555559158325,-0.055821578949689865,0.3997269570827484,-0.17141246795654297,19.917659759521484,-26.093528747558594,4.378959655761719,-0.1390073299407959,0.18558120727539062,-0.33660900592803955,0.6362618803977966,9.743535995483398,1.902064561843872
0_20251106_211809,1762435056722,0,0.4128379821777344,0.3806759715080261,0.510211169719696,0.6514101028442383,0.5601301193237305,3.5156121253967285,1.2016053199768066,0.5738657116889954,10.03445816040039,1.5271499156951904,-0.07292579114437103,0.368572860956192,-0.14270183444023132,19.99873924255371,-25.938751220703125,4.4526519775390625,-0.049916982650756836,0.23273754119873047,-0.2999316453933716,0.6237826943397522,9.80172061920166,1.827081561088562
0_20251106_211809,1762435056741,0,0.41203299164772034,0.3772808909416199,0.5118991732597351,0.6525696516036987,0.5526422262191772,3.5135576725006104,1.2079229354858398,0.6839942932128906,10.054807662963867,1.6552343368530273,-0.07292579114437103,0.368572860956192,-0.14270183444023132,20.06281089782715,-25.860923767089844,4.605367660522461,0.04816931486129761,0.2024698257446289,-0.13747775554656982,0.635824978351593,9.852337837219238,1.7927120923995972
0_20251106_211809,1762435056760,0,0.41140761971473694,0.3747271001338959,0.5129637718200684,0.6535989046096802,0.5526422262191772,3.5135576725006104,1.2079229354858398,0.6839942932128906,10.054807662963867,1.6552343368530273,-0.08025616407394409,0.2836626470088959,-0.09077831357717514,20.082565307617188,-25.710655212402344,4.730670928955078,0.04816931486129761,0.2024698257446289,-0.13747775554656982,0.635824978351593,9.852337837219238,1.7927120923995972
0_20251106_211809,1762435056779,0,0.4106697142124176,0.3730987012386322,0.513856828212738,0.6542927026748657,0.539843738079071,3.509671688079834,1.219947099685669,0.8025021553039551,9.802230834960938,1.9030234813690186,-0.02772180363535881,0.19081123173236847,-0.04740691930055618,20.12569236755371,-25.571762084960938,4.897241592407227,0.11165308952331543,-0.04126167297363281,0.08687925338745117,0.6908490657806396,9.84349250793457,1.8161442279815674
0_20251106_211809,1762435056800,0,0.4099346697330475,0.37246227264404297,0.5145390033721924,0.6545800566673279,0.5340484380722046,3.5076963901519775,1.2266310453414917,0.8491871356964111,9.86806869506836,1.9329497814178467,0.019314780831336975,0.06314050406217575,0.0460553839802742,20.165279388427734,-25.50727081298828,4.967613220214844,0.1266704797744751,0.01966094970703125,0.0934443473815918,0.722516655921936,9.848407745361328,1.8395054340362549
0_20251106_211809,1762435056820,0,0.40909379720687866,0.3722741901874542,0.5148186683654785,0.6549930572509766,0.5294339656829834,3.506394863128662,1.232685923576355,0.9293893575668335,10.008123397827148,1.841973900794983,-0.0014546196907758713,0.058253586292266846,0.06438132375478745,20.16519546508789,-25.49578857421875,5.076007843017578,0.16549813747406006,0.12777233123779297,0.001974821090698242,0.7638912200927734,9.880351066589355,1.8399990797042847
0_20251106_211809,1762435056836,0,0.4083004891872406,0.37218177318573,0.514839231967926,0.6555241942405701,0.5263234972953796,3.505589008331299,1.2372262477874756,0.9676949977874756,9.974605560302734,1.8084564208984375,-0.010006725788116455,0.0655839592218399,0.04544451832771301,20.16519546508789,-25.49578857421875,5.076007843017578,0.16304302215576172,0.07540321350097656,-0.025234103202819824,0.8046519756317139,9.899202346801758,1.8336905241012573
0_20251106_211809,1762435056856,0,0.4075169265270233,0.3723544776439667,0.5147939324378967,0.6559491157531738,0.5263234972953796,3.505589008331299,1.2372262477874756,0.9676949977874756,9.974605560302734,1.8084564208984375,-0.0075632669031620026,0.07657952606678009,0.008181770332157612,20.190593719482422,-25.45801544189453,5.226459503173828,0.16304302215576172,0.07540321350097656,-0.025234103202819824,0.8046519756317139,9.899202346801758,1.8336905241012573
0_20251106_211809,1762435056875,0,0.4068361818790436,0.37231987714767456,0.5149526596069336,0.6562667489051819,0.5232282876968384,3.5050134658813477,1.243143916130066,1.0383208990097046,10.027276039123535,1.9102058410644531,-0.0014546196907758713,0.06191878020763397,-0.036411352455616,20.13118553161621,-25.425125122070312,5.305896759033203,0.1869351863861084,0.10245895385742188,0.06121230125427246,0.8513857126235962,9.924817085266113,1.8489935398101807
0_20251106_211809,1762435056894,0,0.40636274218559265,0.3720910847187042,0.5151684284210205,0.656520426273346,0.519400417804718,3.5053038597106934,1.251410961151123,0.9497392177581787,10.045231819152832,1.6037611961364746,0.02420169860124588,0.03442986309528351,-0.11704549938440323,20.031497955322266,-25.457672119140625,5.409576416015625,0.048390090465545654,0.06384944915771484,-0.17533540725708008,0.9013491272926331,9.981382369995117,1.7790966033935547
0_20251106_211809,1762435056913,0,0.40649235248565674,0.3720308244228363,0.5158306360244751,0.655954122543335,0.5170589089393616,3.505678653717041,1.2544435262680054,0.7007529735565186,10.029669761657715,1.5151793956756592,0.010151810944080353,0.02037997357547283,-0.19462533295154572,19.937335968017578,-25.401512145996094,5.4340057373046875,-0.1604769229888916,0.03863048553466797,-0.21113371849060059,0.8612298965454102,9.991039276123047,1.7263131141662598
0_20251106_211809,1762435056933,0,0.4075177013874054,0.37184926867485046,0.5165953636169434,0.6548179984092712,0.5134486556053162,3.506502628326416,1.257650375366211,0.5176043510437012,10.119449615478516,1.7330424785614014,-0.04238255321979523,0.008162680082023144,-0.25937697291374207,19.960113525390625,-25.4136962890625,5.556369781494141,-0.2749004364013672,0.10272789001464844,0.005383491516113281,0.7925047874450684,10.016721725463867,1.727658987045288
0_20251106_211809,1762435056952,0,0.40910395979881287,0.37087830901145935,0.5175796151161194,0.6536012291908264,0.5090428590774536,3.5076963901519775,1.2611440420150757,0.3176971673965454,10.193665504455566,1.9963934421539307,-0.06987147033214569,0.03687332198023796,-0.3455089032649994,19.949337005615234,-25.389373779296875,5.556407928466797,-0.37984609603881836,0.1415548324584961,0.2149876356124878,0.6975432634353638,10.05211067199707,1.7814058065414429
0_20251106_211809,1762435056971,0,0.4111851155757904,0.3687426447868347,0.5188124775886536,0.6525253057479858,0.5090428590774536,3.5076963901519775,1.2611440420150757,0.3176971673965454,10.193665504455566,1.9963934421539307,-0.06987147033214569,0.03687332198023796,-0.3455089032649994,19.938980102539062,-25.341285705566406,5.692136764526367,-0.37984609603881836,0.1415548324584961,0.2149876356124878,0.6975432634353638,10.05211067199707,1.7814058065414429
0_20251106_211809,1762435056990,0,0.4135840833187103,0.3652602434158325,0.5206822156906128,0.6514776945114136,0.49565884470939636,3.5096349716186523,1.2686007022857666,-0.16950194537639618,9.809412002563477,1.8910529613494873,-0.06193022429943085,0.17065268754959106,-0.531211793422699,20.017242431640625,-25.236740112304688,5.764772415161133,-0.5980027318000793,-0.20416736602783203,0.06576907634735107,0.428500771522522,10.013579368591309,1.8252838850021362
0_20251106_211809,1762435057010,0,0.4161377251148224,0.3608315587043762,0.5232399106025696,0.6502691507339478,0.4862426519393921,3.508924961090088,1.2728066444396973,-0.38616788387298584,9.552047729492188,2.0622310638427734,-0.1156863123178482,0.2207435965538025,-0.540374755859375,20.108381271362305,-25.130455017089844,5.743284225463867,-0.6517349481582642,-0.36922454833984375,0.18955779075622559,0.26556703448295593,9.921272277832031,1.8726732730865479
0_20251106_211809,1762435057028,0,0.4188278615474701,0.3556804955005646,0.5257457494735718,0.6493581533432007,0.4750231206417084,3.5070173740386963,1.277726411819458,-0.5633311867713928,9.471845626831055,2.209468364715576,-0.1156863123178482,0.2207435965538025,-0.540374755859375,20.326919555664062,-24.91590118408203,5.742328643798828,-0.6631186008453369,-0.3595409393310547,0.2694361209869385,0.0997874066233635,9.83138656616211,1.9400322437286377
0_20251106_211809,1762435057047,0,0.4212374985218048,0.34992527961730957,0.5277600884437561,0.6492923498153687,0.463154137134552,3.504241466522217,1.2832214832305908,-0.6195924282073975,9.40121841430664,2.3734641075134277,-0.1920444220304489,0.28060832619667053,-0.39804327487945557,20.54526138305664,-24.701622009277344,5.768405914306641,-0.5755038857460022,-0.3441343307495117,0.34674549102783203,-0.04408855736255646,9.745352745056152,2.0267186164855957
0_20251106_211809,1762435057066,0,0.42300543189048767,0.3441322147846222,0.529458224773407,0.649856448173523,0.4489307999610901,3.500643491744995,1.290239691734314,-0.6016367673873901,9.525712013244629,2.42733097076416,-0.1920444220304489,0.28060832619667053,-0.39804327487945557,20.80055809020996,-24.484420776367188,5.741889953613281,-0.4460385739803314,-0.17571258544921875,0.32048988342285156,-0.15559819340705872,9.701424598693848,2.1068410873413086
0_20251106_211809,1762435057084,0,0.42380499839782715,0.3390112817287445,0.5308793783187866,0.6508669257164001,0.4358336627483368,3.4972877502441406,1.2969763278961182,-0.5357990264892578,9.587958335876465,2.4057841300964355,-0.14561869204044342,0.2677801549434662,-0.27464860677719116,21.032791137695312,-24.24382781982422,5.728435516357422,-0.3041606545448303,-0.0907735824584961,0.23915457725524902,-0.2316383570432663,9.678731918334961,2.1666295528411865
0_20251106_211809,1762435057104,0,0.4238601326942444,0.33644402027130127,0.5318146347999573,0.6513994336128235,0.42113518714904785,3.493535280227661,1.3044503927230835,-0.5190403461456299,9.609505653381348,2.2860794067382812,0.015038728713989258,0.12850302457809448,-0.03152443468570709,21.239456176757812,-24.018051147460938,5.781318664550781,-0.22992157936096191,-0.055380821228027344,0.09555983543395996,-0.28911876678466797,9.664886474609375,2.1905195713043213
0_20251106_211809,1762435057123,0,0.423260897397995,0.3352961540222168,0.5326035022735596,0.651736319065094,0.40822291374206543,3.48996639251709,1.3107045888900757,-0.4292616546154022,9.518529891967773,2.135251045227051,0.08223384618759155,0.09307287633419037,0.07232256978750229,21.38135528564453,-23.871047973632812,5.776100158691406,-0.1121143102645874,-0.11708545684814453,-0.044214725494384766,-0.3171473443508148,9.635615348815918,2.1794657707214355
0_20251106_211809,1762435057141,0,0.42198631167411804,0.3351951837539673,0.5333413481712341,0.6520113348960876,0.395502507686615,3.486299753189087,1.3159977197647095,-0.23414258658885956,9.603520393371582,1.8228211402893066,0.08528818190097809,0.08268817514181137,0.1798347383737564,21.473705291748047,-23.739913940429688,5.782173156738281,0.06640379130840302,-0.02567577362060547,-0.28531575202941895,-0.3005463778972626,9.629196166992188,2.1081368923187256
0_20251106_211809,1762435057161,0,0.42001432180404663,0.33569735288619995,0.533749520778656,0.6526919007301331,0.384319543838501,3.4832944869995117,1.319757342338562,0.028011217713356018,9.803427696228027,1.6456577777862549,0.05352320894598961,0.04114937409758568,0.23969948291778564,21.575422286987305,-23.658218383789062,5.787679672241211,0.26284608244895935,0.13938522338867188,-0.3699831962585449,-0.23483486473560333,9.664042472839355,2.0156409740448
0_20251106_211809,1762435057180,0,0.4180629551410675,0.3367987871170044,0.5335673093795776,0.653525710105896,0.37446328997612,3.480985641479492,1.3224613666534424,0.2015833705663681,9.893205642700195,1.6684017181396484,0.041916776448488235,0.006330085452646017,0.23359084129333496,21.525875091552734,-23.674087524414062,5.798969268798828,0.3491345942020416,0.18333053588867188,-0.27779150009155273,-0.14755122363567352,9.709875106811523,1.9461932182312012
0_20251106_211809,1762435057199,0,0.4164264500141144,0.33818596601486206,0.5331441164016724,0.6541992425918579,0.36692002415657043,3.4797234535217285,1.3242676258087158,0.34522929787635803,10.009319305419922,1.7150866985321045,0.03825158625841141,-0.005276344250887632,0.18227820098400116,21.50110626220703,-23.67621612548828,5.852052688598633,0.3942244052886963,0.23955535888671875,-0.18488526344299316,-0.04899512231349945,9.769763946533203,1.8999719619750977
0_20251106_211809,1762435057218,0,0.4150705933570862,0.3393149673938751,0.5328460931777954,0.654718816280365,0.36083880066871643,3.479382038116455,1.325660228729248,0.3464263677597046,10.082340240478516,1.7821214199066162,0.013816997408866882,-0.007108938414603472,0.097368024289608,21.50110626220703,-23.67621612548828,5.852052688598633,0.3163371980190277,0.25006103515625,-0.09428048133850098,0.03008916601538658,9.832279205322266,1.8764019012451172
0_20251106_211809,1762435057239,0,0.4142630100250244,0.3398970663547516,0.532674252986908,0.6550681591033936,0.35546815395355225,3.479830026626587,1.3276541233062744,0.26382994651794434,10.09191608428955,2.0742015838623047,-0.039939094334840775,0.008773544803261757,0.012457823380827904,21.25438117980957,-23.730987548828125,5.963098526000977,0.1869926154613495,0.20770931243896484,0.15823984146118164,0.07683732360601425,9.884206771850586,1.915961742401123
0_20251106_211809,1762435057257,0,0.41416794061660767,0.3397974371910095,0.5324539542198181,0.6553589701652527,0.35082873702049255,3.4808928966522217,1.3304986953735352,0.1525043398141861,10.124237060546875,2.2968528270721436,-0.039939094334840775,0.008773544803261757,0.012457823380827904,21.25438117980957,-23.730987548828125,5.963098526000977,0.060533612966537476,0.19202423095703125,0.3047128915786743,0.09197072684764862,9.932212829589844,1.9921399354934692
