session_id,timestamp,label,quaternion_w,quaternion_x,quaternion_y,quaternion_z,position_x,position_y,position_z,accelerometer_x,accelerometer_y,accelerometer_z,gyroscope_x,gyroscope_y,gyroscope_z,magnetometer_x,magnetometer_y,magnetometer_z,linear_acceleration_x,linear_acceleration_y,linear_acceleration_z,gravity_x,gravity_y,gravity_z
3_20251106_150609,1762412732108,3,0.21772053837776184,0.3571172058582306,0.7377827763557434,0.5298506021499634,1.0476162433624268,2.042607545852661,-2.2142748832702637,0.5726686716079712,9.316228866577148,-3.4082846641540527,0.05988764762878418,0.027122395113110542,0.062201302498579025,19.520498275756836,-16.14250946044922,25.13776397705078,0.05296981334686279,-0.015176773071289062,-0.030853986740112305,0.5196988582611084,9.331405639648438,-3.3774306774139404
3_20251106_150609,1762412732128,3,0.21698053181171417,0.3568727970123291,0.7380785942077637,0.5299068093299866,1.0483691692352295,2.042846918106079,-2.2161576747894287,0.6576591730117798,9.411992073059082,-3.405890464782715,0.05988764762878418,0.027122395113110542,0.062201302498579025,19.470542907714844,-16.1705322265625,25.10824203491211,0.11036825180053711,0.0644693374633789,-0.02276778221130371,0.5472909212112427,9.347522735595703,-3.383122682571411
3_20251106_150609,1762412732148,3,0.21629002690315247,0.35736963152885437,0.7381997108459473,0.5296854972839355,1.0496569871902466,2.043443441390991,-2.2180113792419434,0.7689847946166992,9.486209869384766,-3.4394075870513916,0.07332667708396912,0.019181152805685997,0.08480329811573029,19.492094039916992,-16.21916961669922,25.108165740966797,0.1773551106452942,0.11094951629638672,-0.045027971267700195,0.591629683971405,9.375260353088379,-3.3943796157836914
3_20251106_150609,1762412732165,3,0.21546676754951477,0.35795095562934875,0.7382889986038208,0.5295040607452393,1.051426649093628,2.0443360805511475,-2.2198140621185303,0.8396106958389282,9.519726753234863,-3.448984146118164,0.07760272920131683,0.025900663807988167,0.06403389573097229,19.418682098388672,-16.224342346191406,25.145771026611328,0.1983848214149475,0.11557292938232422,-0.043683528900146484,0.6412258744239807,9.404153823852539,-3.4053006172180176
3_20251106_150609,1762412732185,3,0.2146569788455963,0.35863080620765686,0.7383159399032593,0.5293353199958801,1.051426649093628,2.0443360805511475,-2.2198140621185303,0.8396106958389282,9.519726753234863,-3.448984146118164,0.07760272920131683,0.025900663807988167,0.06403389573097229,19.319486618041992,-16.25621795654297,25.181869506835938,0.1983848214149475,0.11557292938232422,-0.043683528900146484,0.6412258744239807,9.404153823852539,-3.4053006172180176
3_20251106_150609,1762412732205,3,0.21376211941242218,0.3591097593307495,0.738412618637085,0.5292378664016724,1.0567551851272583,2.0472185611724854,-2.2239224910736084,0.8527781963348389,9.513741493225098,-3.496866226196289,0.0641637071967125,0.04972438886761665,0.039599306881427765,19.271446228027344,-16.246841430664062,25.180171966552734,0.13864946365356445,0.06726264953613281,-0.06894445419311523,0.7141287326812744,9.446478843688965,-3.427921772003174
3_20251106_150609,1762412732222,3,0.21278329193592072,0.3592035472393036,0.7385533452033997,0.5293722748756409,1.059431791305542,2.0486018657684326,-2.225790500640869,0.8827044367790222,9.513742446899414,-3.495668888092041,0.04889208823442459,0.05155698210000992,0.030436336994171143,19.308610916137695,-16.232040405273438,25.195423126220703,0.1348605751991272,0.053811073303222656,-0.05419778823852539,0.747843861579895,9.459931373596191,-3.4414710998535156
3_20251106_150609,1762412732241,3,0.2119021713733673,0.35931870341300964,0.7386694550514221,0.5294855237007141,1.0626929998397827,2.0503792762756348,-2.227646589279175,0.9006601572036743,9.572397232055664,-3.3951168060302734,0.05500073730945587,0.02162461169064045,0.029214605689048767,19.306793212890625,-16.269309997558594,25.154083251953125,0.12225300073623657,0.08997249603271484,0.03708338737487793,0.7784071564674377,9.48242473602295,-3.4322001934051514
3_20251106_150609,1762412732261,3,0.21118614077568054,0.359686017036438,0.7387174367904663,0.529455304145813,1.066300392150879,2.0522847175598145,-2.2290661334991455,0.8922808766365051,9.524515151977539,-3.2885794639587402,0.08615483343601227,0.0039095343090593815,0.0133321238681674,19.269840240478516,-16.272232055664062,25.206676483154297,0.09109896421432495,0.033672332763671875,0.11489653587341309,0.8011819124221802,9.490842819213867,-3.4034759998321533
3_20251106_150609,1762412732279,3,0.21063069999217987,0.36005735397338867,0.7387920618057251,0.5293200016021729,1.0695648193359375,2.053884744644165,-2.2301530838012695,0.874325156211853,9.479026794433594,-3.352023124694824,0.11914151906967163,0.012461640872061253,0.00844520516693592,19.257455825805664,-16.273300170898438,25.233219146728516,0.05851459503173828,-0.00945281982421875,0.04116249084472656,0.8158105611801147,9.488479614257812,-3.393185615539551
3_20251106_150609,1762412732299,3,0.21001116931438446,0.3602430820465088,0.7390509843826294,0.5290783643722534,1.072992205619812,2.055525541305542,-2.23152756690979,0.8719310164451599,9.50177001953125,-3.496866226196289,0.13930004835128784,0.0014660756569355726,0.010277800261974335,19.210430145263672,-16.239341735839844,25.286113739013672,0.04489636421203613,0.010632514953613281,-0.08294439315795898,0.8270346522331238,9.491137504577637,-3.41392183303833
3_20251106_150609,1762412732318,3,0.20929791033267975,0.3603839576244354,0.7394497990608215,0.5287076830863953,1.076465129852295,2.057245969772339,-2.233212471008301,0.8420047760009766,9.517333030700684,-3.516018867492676,0.13930004835128784,0.0014660756569355726,0.010277800261974335,19.155250549316406,-16.13111114501953,25.36713409423828,0.011976122856140137,0.020956039428710938,-0.08167767524719238,0.8300286531448364,9.496376991271973,-3.4343411922454834
3_20251106_150609,1762412732338,3,0.2087022364139557,0.3608023524284363,0.7399284839630127,0.527987539768219,1.079949975013733,2.0590388774871826,-2.235257863998413,0.8910837769508362,9.548456192016602,-3.580659866333008,0.141132652759552,-0.015027271583676338,0.007834341377019882,19.130582809448242,-16.133102416992188,25.40670394897461,0.048844099044799805,0.041663169860839844,-0.11705493927001953,0.8422396779060364,9.506793022155762,-3.4636049270629883
3_20251106_150609,1762412732357,3,0.2082260400056839,0.3612881302833557,0.7404133081436157,0.5271630883216858,1.079949975013733,2.0590388774871826,-2.235257863998413,0.8910837769508362,9.548456192016602,-3.580659866333008,0.141132652759552,-0.015027271583676338,0.007834341377019882,19.130582809448242,-16.133102416992188,25.40670394897461,0.048844099044799805,0.041663169860839844,-0.11705493927001953,0.8422396779060364,9.506793022155762,-3.4636049270629883
3_20251106_150609,1762412732376,3,0.20767559111118317,0.3616514205932617,0.74094158411026,0.5263882875442505,1.0873855352401733,2.063432455062866,-2.239753246307373,1.1316907405853271,9.76991081237793,-3.5866448879241943,0.16556724905967712,-0.06267471611499786,0.033490657806396484,19.07138442993164,-16.08832550048828,25.553985595703125,0.20574218034744263,0.1871652603149414,-0.07587265968322754,0.9259485602378845,9.582745552062988,-3.510772228240967
3_20251106_150609,1762412732396,3,0.20722511410713196,0.36245375871658325,0.7413470149040222,0.5254423022270203,1.0931425094604492,2.067274570465088,-2.242764472961426,1.3711005449295044,9.942285537719727,-3.665649890899658,0.21138209104537964,-0.0919962227344513,0.109848752617836,19.07138442993164,-16.08832550048828,25.553985595703125,0.35612165927886963,0.2876319885253906,-0.1239020824432373,1.0149788856506348,9.654653549194336,-3.541747808456421
3_20251106_150609,1762412732414,3,0.20654119551181793,0.36374321579933167,0.7416254281997681,0.5244266390800476,1.0931425094604492,2.067274570465088,-2.242764472961426,1.3711005449295044,9.942285537719727,-3.665649890899658,0.2852967381477356,-0.20134100317955017,0.30715805292129517,19.09778594970703,-16.03759002685547,25.664154052734375,0.35612165927886963,0.2876319885253906,-0.1239020824432373,1.0149788856506348,9.654653549194336,-3.541747808456421
3_20251106_150609,1762412732433,3,0.2053079456090927,0.36648112535476685,0.7414767742156982,0.5232135653495789,1.1109340190887451,2.0784034729003906,-2.2510006427764893,2.787209987640381,10.521656036376953,-4.071450233459473,0.4025827944278717,-0.5055516958236694,0.5472278594970703,19.164958953857422,-15.920738220214844,25.682498931884766,1.2813212871551514,0.6014232635498047,-0.3554809093475342,1.5058887004852295,9.920232772827148,-3.7159693241119385
3_20251106_150609,1762412732452,3,0.20371881127357483,0.372496634721756,0.7403672933578491,0.5211537480354309,1.1109340190887451,2.0784034729003906,-2.2510006427764893,2.787209987640381,10.521656036376953,-4.071450233459473,0.535751223564148,-0.8360295295715332,0.6290837526321411,19.2020263671875,-15.90606689453125,25.711265563964844,1.2813212871551514,0.6014232635498047,-0.3554809093475342,1.5058887004852295,9.920232772827148,-3.7159693241119385
3_20251106_150609,1762412732471,3,0.20277684926986694,0.3825889527797699,0.7381138801574707,0.517392635345459,1.149954080581665,2.0996696949005127,-2.2585673332214355,4.435546875,11.494857788085938,-3.201195001602173,0.6298243999481201,-0.9307135343551636,0.4183354675769806,19.24925994873047,-15.928138732910156,25.726215362548828,1.9943032264709473,1.0993108749389648,0.41391921043395996,2.4412436485290527,10.395546913146973,-3.615114212036133
3_20251106_150609,1762412732490,3,0.20407676696777344,0.3926072120666504,0.7368229627609253,0.5111792683601379,1.175412654876709,2.1132888793945312,-2.2596311569213867,4.564828872680664,11.440991401672363,-2.9665732383728027,0.6927434206008911,-0.7077479362487793,-0.0752432644367218,19.450376510620117,-16.027244567871094,25.691627502441406,1.6988682746887207,0.8363552093505859,0.5188329219818115,2.8659605979919434,10.604636192321777,-3.4854061603546143
3_20251106_150609,1762412732510,3,0.20624545216560364,0.3997684717178345,0.7372025847434998,0.5041630268096924,1.175412654876709,2.1132888793945312,-2.2596311569213867,4.564828872680664,11.440991401672363,-2.9665732383728027,0.7129019498825073,-0.36138758063316345,-0.643347442150116,19.635677337646484,-15.977119445800781,25.645709991455078,1.6988682746887207,0.8363552093505859,0.5188329219818115,2.8659605979919434,10.604636192321777,-3.4854061603546143
3_20251106_150609,1762412732527,3,0.20864461362361908,0.4015338718891144,0.7403849363327026,0.4970594346523285,1.2334665060043335,2.1412415504455566,-2.261211395263672,3.226527214050293,10.236759185791016,-3.7410643100738525,0.6603676080703735,-0.07672461122274399,-1.0819482803344727,19.822277069091797,-15.913627624511719,25.518959045410156,0.09688448905944824,-0.34116554260253906,-0.22912359237670898,3.1296427249908447,10.577924728393555,-3.5119407176971436
3_20251106_150609,1762412732547,3,0.2112216204404831,0.39798372983932495,0.7461179494857788,0.4902064800262451,1.2592589855194092,2.15083909034729,-2.2643158435821533,2.3071932792663574,9.467056274414062,-4.155243396759033,0.5760682821273804,0.03445276990532875,-1.2774250507354736,19.999013900756836,-15.801376342773438,25.46035385131836,-0.6579596996307373,-0.8886947631835938,-0.5146422386169434,2.9651529788970947,10.355751037597656,-3.64060115814209
3_20251106_150609,1762412732566,3,0.21412281692028046,0.3908967077732086,0.7531328797340393,0.4838823080062866,1.2780377864837646,2.1553328037261963,-2.2683730125427246,1.635648488998413,8.848182678222656,-4.210307598114014,0.5400272607803345,-0.05900953337550163,-1.2377188205718994,20.30838394165039,-15.4925537109375,25.383583068847656,-1.0636036396026611,-1.2060546875,-0.4557650089263916,2.699252128601074,10.054237365722656,-3.754542589187622
3_20251106_150609,1762412732586,3,0.2176639288663864,0.3831540644168854,0.7600640058517456,0.4776171147823334,1.2780377864837646,2.1553328037261963,-2.2683730125427246,1.635648488998413,8.848182678222656,-4.210307598114014,0.5687379240989685,-0.25876230001449585,-1.0947763919830322,20.67880630493164,-15.156402587890625,25.48550033569336,-1.0636036396026611,-1.2060546875,-0.4557650089263916,2.699252128601074,10.054237365722656,-3.754542589187622
3_20251106_150609,1762412732605,3,0.22185799479484558,0.3767548203468323,0.7662586569786072,0.4708317220211029,1.3022598028182983,2.1498498916625977,-2.2802505493164062,0.6911765336990356,8.061720848083496,-3.9888534545898438,0.6188287734985352,-0.4725649654865265,-0.9115170836448669,21.108633041381836,-14.64019775390625,25.484947204589844,-1.352394461631775,-1.3343925476074219,-0.11299419403076172,2.0435709953308105,9.396113395690918,-3.875859260559082
3_20251106_150609,1762412732624,3,0.2268211394548416,0.37258318066596985,0.7715352177619934,0.4631062150001526,1.306139588356018,2.1406612396240234,-2.285802125930786,0.4350079894065857,7.755275726318359,-3.9325921535491943,0.6707522869110107,-0.6142855882644653,-0.7190946936607361,21.614099502563477,-14.06939697265625,25.528942108154297,-1.2868504524230957,-1.3126707077026367,-0.045386314392089844,1.7218583822250366,9.067946434020996,-3.8872058391571045
3_20251106_150609,1762412732644,3,0.23210151493549347,0.3706810176372528,0.7758474349975586,0.4547364115715027,1.3056342601776123,2.126779794692993,-2.2921903133392334,0.2793915867805481,7.524245262145996,-4.162425518035889,0.6707522869110107,-0.6142855882644653,-0.7190946936607361,22.132253646850586,-13.272567749023438,25.577686309814453,-1.1539733409881592,-1.2349615097045898,-0.22017574310302734,1.433364987373352,8.759206771850586,-3.9422497749328613
3_20251106_150609,1762412732661,3,0.2373446524143219,0.3707495629787445,0.7793819904327393,0.44584301114082336,1.3056342601776123,2.126779794692993,-2.2921903133392334,0.2793915867805481,7.524245262145996,-4.162425518035889,0.7715449929237366,-0.8855095505714417,-0.4197709560394287,22.734891891479492,-12.494491577148438,25.548236846923828,-1.1539733409881592,-1.2349615097045898,-0.22017574310302734,1.433364987373352,8.759206771850586,-3.9422497749328613
3_20251106_150609,1762412732681,3,0.24273118376731873,0.3725090026855469,0.7822660803794861,0.4363236725330353,1.2948983907699585,2.0917670726776123,-2.306628704071045,-0.01149141788482666,7.001134872436523,-4.563437461853027,0.7794862985610962,-1.0052390098571777,-0.2768286168575287,23.322736740112305,-11.75555419921875,25.585086822509766,-0.9419456720352173,-1.1732397079467773,-0.430694580078125,0.9304542541503906,8.1743745803833,-4.132742881774902
3_20251106_150609,1762412732700,3,0.24839970469474792,0.3757452666759491,0.7844311594963074,0.426357626914978,1.2948983907699585,2.0917670726776123,-2.306628704071045,-0.01149141788482666,7.001134872436523,-4.563437461853027,0.7739884853363037,-1.1524574756622314,-0.11189514398574829,23.97402000427246,-10.974433898925781,25.571117401123047,-0.9419456720352173,-1.1732397079467773,-0.430694580078125,0.9304542541503906,8.1743745803833,-4.132742881774902
3_20251106_150609,1762412732719,3,0.2543594539165497,0.3807480037212372,0.7855541110038757,0.4162174165248871,1.276442289352417,2.0436654090881348,-2.3279621601104736,0.3679732084274292,6.462461948394775,-5.104503631591797,0.7629928588867188,-1.3742012977600098,-0.012324195355176926,24.714506149291992,-10.360603332519531,25.341114044189453,-0.32589590549468994,-1.1335468292236328,-0.6485495567321777,0.6938691139221191,7.596008777618408,-4.455954074859619
3_20251106_150609,1762412732738,3,0.2610584795475006,0.3875146806240082,0.7855625152587891,0.40567517280578613,1.2661868333816528,2.0161893367767334,-2.340604543685913,0.25664764642715454,6.354727745056152,-5.08535099029541,0.719010591506958,-1.5489085912704468,-0.05386299639940262,25.477632522583008,-9.793930053710938,24.962356567382812,-0.3497772216796875,-0.9930248260498047,-0.5035176277160645,0.606424868106842,7.347752571105957,-4.581833362579346
3_20251106_150609,1762412732758,3,0.26922163367271423,0.3952646255493164,0.7846629619598389,0.39444854855537415,1.254666805267334,1.9868799448013306,-2.353914260864258,-0.04141765087842941,6.1787614822387695,-5.055424690246582,0.6072223782539368,-1.5580716133117676,-0.16137519478797913,26.26311492919922,-9.263198852539062,24.570274353027344,-0.5182740092277527,-0.9351925849914551,-0.3788728713989258,0.47685638070106506,7.113954067230225,-4.676551818847656
3_20251106_150609,1762412732777,3,0.27867719531059265,0.4026491940021515,0.7832614779472351,0.38303276896476746,1.2404358386993408,1.9542217254638672,-2.3681392669677734,-0.41489705443382263,6.012372016906738,-4.977616310119629,0.4386238157749176,-1.4456723928451538,-0.3012631833553314,27.026735305786133,-8.695846557617188,24.12393569946289,-0.7134027481079102,-0.8812656402587891,-0.24085140228271484,0.2985056936740875,6.893637657165527,-4.736764907836914
3_20251106_150609,1762412732796,3,0.2886238396167755,0.40836936235427856,0.7817652225494385,0.3725236654281616,1.2243804931640625,1.92170250415802,-2.3814969062805176,-0.8721699118614197,5.783735275268555,-4.926143169403076,0.27735549211502075,-1.2538609504699707,-0.4625314772129059,27.026735305786133,-8.695846557617188,24.12393569946289,-0.9365404844284058,-0.8879218101501465,-0.1515026092529297,0.06437058746814728,6.671657085418701,-4.7746405601501465
3_20251106_150609,1762412732815,3,0.2985459268093109,0.411743700504303,0.7805729508399963,0.36337774991989136,1.2050082683563232,1.8874338865280151,-2.3947534561157227,-1.4371771812438965,5.441379547119141,-4.981207370758057,0.14846304059028625,-1.0589951276779175,-0.6030303835868835,27.896663665771484,-8.218704223632812,23.36902618408203,-1.2012382745742798,-0.9842219352722168,-0.1652536392211914,-0.2359389364719391,6.425601482391357,-4.815953731536865
3_20251106_150609,1762412732834,3,0.30805471539497375,0.4126654267311096,0.7799819111824036,0.3555808663368225,1.181755542755127,1.8509304523468018,-2.4076297283172607,-2.0033814907073975,4.9865007400512695,-4.918961048126221,0.14846304059028625,-1.0589951276779175,-0.6030303835868835,28.68250274658203,-7.7222747802734375,22.63824462890625,-1.4139540195465088,-1.1512808799743652,-0.08240604400634766,-0.5894274115562439,6.137781620025635,-4.836555004119873
3_20251106_150609,1762412732854,3,0.3171026408672333,0.41200706362724304,0.7797366976737976,0.34886500239372253,1.1526541709899902,1.8104212284088135,-2.42191743850708,-2.513324499130249,4.820110321044922,-5.3008198738098145,-0.075113445520401,-0.6790372133255005,-0.5676002502441406,29.546478271484375,-7.144660949707031,21.80385971069336,-1.539117693901062,-1.0541372299194336,-0.3714118003845215,-0.974206805229187,5.8742475509643555,-4.929408073425293
3_20251106_150609,1762412732872,3,0.3249436914920807,0.41031646728515625,0.7796634435653687,0.3437687158584595,1.123295783996582,1.7729130983352661,-2.4360294342041016,-2.7922370433807373,4.707587718963623,-5.699437141418457,-0.13986511528491974,-0.6875894069671631,-0.40266674757003784,30.345800399780273,-6.634071350097656,20.992733001708984,-1.4544241428375244,-0.9333276748657227,-0.616023063659668,-1.337812900543213,5.640915393829346,-5.083414077758789
3_20251106_150609,1762412732892,3,0.33205243945121765,0.4089411795139313,0.7790690064430237,0.3399408757686615,1.089385986328125,1.7324609756469727,-2.4521729946136475,-2.967006206512451,4.605838775634766,-5.809565544128418,-0.177127867937088,-0.8286991119384766,-0.20230311155319214,31.02447509765625,-6.1065826416015625,20.204265594482422,-1.3033546209335327,-0.828061580657959,-0.5809211730957031,-1.6636515855789185,5.433900356292725,-5.228644371032715
3_20251106_150609,1762412732910,3,0.3393450379371643,0.40905043482780457,0.7773292064666748,0.33657389879226685,1.053369164466858,1.6913785934448242,-2.4686105251312256,-3.049602508544922,4.466980934143066,-5.630008697509766,-0.208892822265625,-1.0150128602981567,-0.003161223605275154,31.607465744018555,-5.5597991943359375,19.35833740234375,-1.1087608337402344,-0.7735357284545898,-0.3210911750793457,-1.9408416748046875,5.240516662597656,-5.30891752243042
3_20251106_150609,1762412732929,3,0.34737876057624817,0.4112063944339752,0.7740465402603149,0.33330056071281433,1.0160914659500122,1.6500605344772339,-2.484128475189209,-3.0567848682403564,4.40593147277832,-5.273287773132324,-0.2143906056880951,-1.1909419298171997,0.16238310933113098,32.17414093017578,-5.089012145996094,18.49681854248047,-0.8927545547485352,-0.667668342590332,0.028503894805908203,-2.1640303134918213,5.073599815368652,-5.301791667938232
3_20251106_150609,1762412732948,3,0.35627204179763794,0.4152270257472992,0.7692669630050659,0.3299773335456848,0.9777783751487732,1.609065294265747,-2.4973011016845703,-3.220780849456787,4.438251495361328,-4.729826927185059,-0.2040059119462967,-1.2355350255966187,0.2747822403907776,32.725502014160156,-4.681266784667969,17.579423904418945,-0.845400333404541,-0.5082788467407227,0.45757198333740234,-2.375380516052246,4.946530342102051,-5.187398910522461
3_20251106_150609,1762412732968,3,0.3656606674194336,0.420664519071579,0.7633766531944275,0.3264808654785156,0.9360000491142273,1.5684571266174316,-2.5095267295837402,-3.5152549743652344,5.073884963989258,-4.875866889953613,-0.1875125616788864,-1.0418909788131714,0.3761857748031616,33.1319580078125,-4.459403991699219,16.788101196289062,-0.9118995666503906,0.1018838882446289,0.24922561645507812,-2.6033554077148438,4.972001075744629,-5.125092506408691
3_20251106_150609,1762412732987,3,0.37395259737968445,0.42640846967697144,0.7573237419128418,0.32372215390205383,0.8958457708358765,1.5325180292129517,-2.520343065261841,-3.4961018562316895,5.230698585510254,-5.0458478927612305,-0.1575801968574524,-0.9924108982086182,0.38595959544181824,33.52259063720703,-4.312873840332031,15.913606643676758,-0.7141971588134766,0.20695829391479492,0.06339597702026367,-2.781904697418213,5.023740291595459,-5.109243869781494
3_20251106_150609,1762412733005,3,0.3809669315814972,0.4323118031024933,0.7514340281486511,0.321430504322052,0.857957124710083,1.4977997541427612,-2.5290815830230713,-3.4925107955932617,4.05998420715332,-4.704689025878906,-0.16368883848190308,-0.8958942890167236,0.41039422154426575,33.856727600097656,-4.307647705078125,15.034246444702148,-0.5684850215911865,-0.7710051536560059,0.32364368438720703,-2.924025774002075,4.830989360809326,-5.028332710266113
3_20251106_150609,1762412733025,3,0.38757988810539246,0.4379562437534332,0.7456724047660828,0.3192942142486572,0.857957124710083,1.4977997541427612,-2.5290815830230713,-3.4925107955932617,4.05998420715332,-4.704689025878906,0.031177008524537086,-0.980193555355072,0.5673863887786865,34.16839599609375,-4.278221130371094,14.08685302734375,-0.5684850215911865,-0.7710051536560059,0.32364368438720703,-2.924025774002075,4.830989360809326,-5.028332710266113
3_20251106_150609,1762412733045,3,0.3929993212223053,0.4444030821323395,0.7399307489395142,0.31711187958717346,0.811260998249054,1.4574875831604004,-2.5382003784179688,-3.658900737762451,4.830883979797363,-4.748980522155762,0.028122683987021446,-1.1353532075881958,0.6614596247673035,34.41863250732422,-4.477996826171875,13.132745742797852,-0.587899923324585,-8.440017700195312e-05,0.2234821319580078,-3.071000814437866,4.830968379974365,-4.9724626541137695
3_20251106_150609,1762412733064,3,0.3987415134906769,0.45283907651901245,0.7332863211631775,0.31342166662216187,0.7300146222114563,1.3990521430969238,-2.5476152896881104,-4.330445289611816,5.460532188415527,-3.9290008544921875,-0.07328085601329803,-1.1176382303237915,0.7866868376731873,34.62405014038086,-4.830574035644531,12.146966934204102,-0.8307514190673828,0.40521907806396484,0.7547693252563477,-3.4996938705444336,5.0553131103515625,-4.683770179748535
3_20251106_150609,1762412733082,3,0.4050615131855011,0.46172717213630676,0.725460410118103,0.3105485737323761,0.6901864409446716,1.3744183778762817,-2.547708511352539,-4.331642150878906,5.464122772216797,-3.4717278480529785,-0.07694604247808456,-1.0235649347305298,0.8929772973060608,34.89039611816406,-5.179176330566406,11.163640975952148,-0.6655588150024414,0.32704782485961914,0.9696340560913086,-3.666083335876465,5.137074947357178,-4.441361904144287
3_20251106_150609,1762412733101,3,0.4108787477016449,0.4709080755710602,0.7169980406761169,0.3087686002254486,0.6478763818740845,1.3519041538238525,-2.544675350189209,-4.530352592468262,5.934563636779785,-3.3017468452453613,-0.042737625539302826,-0.9123876094818115,0.9852178692817688,35.02099609375,-5.562034606933594,10.214941024780273,-0.6914153099060059,0.6379909515380859,0.9116921424865723,-3.838937282562256,5.296572685241699,-4.213438987731934
3_20251106_150609,1762412733121,3,0.4151952564716339,0.4796992242336273,0.7089459300041199,0.3080539107322693,0.604839026927948,1.3340888023376465,-2.5399787425994873,-4.875102996826172,6.598925590515137,-3.5519304275512695,-0.042737625539302826,-0.9123876094818115,0.9852178692817688,35.12187576293945,-6.046531677246094,9.222599029541016,-0.8289327621459961,1.041882038116455,0.5292067527770996,-4.046170234680176,5.557043552398682,-4.081137180328369
3_20251106_150609,1762412733139,3,0.4188239872455597,0.48921218514442444,0.7004097104072571,0.307707816362381,0.5635248422622681,1.321286678314209,-2.534348487854004,-5.094162940979004,6.86945915222168,-3.511230945587158,-0.06533961743116379,-0.8684053421020508,1.0585217475891113,35.195167541503906,-6.5833892822265625,8.282285690307617,-0.8383941650390625,1.0499324798583984,0.45592498779296875,-4.255768775939941,5.819526672363281,-3.967155933380127
3_20251106_150609,1762412733158,3,0.42246294021606445,0.49861085414886475,0.6914090514183044,0.30800288915634155,0.5173557996749878,1.3126935958862305,-2.526055097579956,-5.097754001617432,7.438057899475098,-3.1940126419067383,-0.16429969668388367,-0.8525228500366211,1.0890649557113647,35.202301025390625,-7.2125244140625,7.37822151184082,-0.6735882759094238,1.2948246002197266,0.6185147762298584,-4.424165725708008,6.143233299255371,-3.8125274181365967
3_20251106_150609,1762412733177,3,0.42636099457740784,0.5073205232620239,0.6819731593132019,0.3094426095485687,0.47390255331993103,1.3100345134735107,-2.5170540809631348,-5.075010299682617,8.00067138671875,-3.25985050201416,-0.6499372124671936,-0.3900982439517975,0.9681136608123779,35.203895568847656,-7.941978454589844,6.458530426025391,-0.5206756591796875,1.4859504699707031,0.4421415328979492,-4.55433464050293,6.514720916748047,-3.7019920349121094
3_20251106_150609,1762412733196,3,0.4300191402435303,0.5136697292327881,0.6730178594589233,0.31348663568496704,0.43105220794677734,1.3127117156982422,-2.5062718391418457,-5.126483917236328,8.411258697509766,-2.8887650966644287,-0.9309349656105042,-0.16591085493564606,0.8538819551467896,35.171058654785156,-8.624526977539062,5.633037567138672,-0.4577198028564453,1.5172300338745117,0.6505815982818604,-4.668764114379883,6.894028663635254,-3.539346694946289
3_20251106_150609,1762412733216,3,0.4336071312427521,0.5171292424201965,0.664821207523346,0.3202732503414154,0.38680678606033325,1.3204416036605835,-2.491353988647461,-5.12768030166626,8.55610179901123,-2.178914785385132,-1.143515944480896,-0.0064751640893518925,0.8117323517799377,35.10157775878906,-9.297981262207031,4.914466857910156,-0.36713314056396484,1.3296585083007812,1.0883455276489258,-4.760547161102295,7.226443290710449,-3.2672603130340576
3_20251106_150609,1762412733235,3,0.43752577900886536,0.5183336138725281,0.6568938493728638,0.32922929525375366,0.38680678606033325,1.3204416036605835,-2.491353988647461,-5.12768030166626,8.55610179901123,-2.178914785385132,-1.2186522483825684,0.052167847752571106,0.8312799334526062,35.10157775878906,-9.297981262207031,4.914466857910156,-0.36713314056396484,1.3296585083007812,1.0883455276489258,-4.760547161102295,7.226443290710449,-3.2672603130340576
3_20251106_150609,1762412733255,3,0.4412860572338104,0.5179824829101562,0.6491896510124207,0.33987292647361755,0.3049503266811371,1.34698486328125,-2.451307773590088,-4.949319839477539,9.048089027404785,-1.1961374282836914,-1.2046023607254028,0.033231038600206375,0.850216805934906,34.90420150756836,-10.080375671386719,4.242944717407227,-0.1091313362121582,1.225801944732666,1.4306676387786865,-4.840188503265381,7.822287082672119,-2.626805067062378
3_20251106_150609,1762412733274,3,0.44501981139183044,0.5175783634185791,0.641128420829773,0.3507482707500458,0.3049503266811371,1.34698486328125,-2.451307773590088,-4.949319839477539,9.048089027404785,-1.1961374282836914,-1.1539006233215332,0.1554039865732193,0.8337234258651733,34.74349594116211,-10.848640441894531,3.654254913330078,-0.1091313362121582,1.225801944732666,1.4306676387786865,-4.840188503265381,7.822287082672119,-2.626805067062378
3_20251106_150609,1762412733293,3,0.4485047161579132,0.5174063444137573,0.6329315900802612,0.36129194498062134,0.23376625776290894,1.38807213306427,-2.398177146911621,-4.80687141418457,10.26788330078125,-0.5712775588035583,-1.1282442808151245,0.4327365458011627,0.7946280837059021,34.51301574707031,-11.547538757324219,3.185853958129883,0.049285888671875,1.672821044921875,1.3400533199310303,-4.856157302856445,8.595062255859375,-1.9113308191299438
3_20251106_150609,1762412733312,3,0.45054036378860474,0.5162042379379272,0.6258750557899475,0.3725949227809906,0.20107577741146088,1.4157686233520508,-2.3673737049102783,-4.493244171142578,10.603055953979492,-0.6574651598930359,-1.1099183559417725,0.7571057081222534,0.7323198914527893,34.33099365234375,-12.2320556640625,2.8548412322998047,0.2903304100036621,1.6063947677612305,1.0030925273895264,-4.78357458114624,8.996661186218262,-1.6605576276779175
3_20251106_150609,1762412733331,3,0.45078355073928833,0.5134888291358948,0.6203357577323914,0.3851063847541809,0.17138782143592834,1.4469375610351562,-2.33595609664917,-4.284957408905029,10.76705265045166,-0.8753281235694885,-1.0573838949203491,0.9244826436042786,0.6779529452323914,34.15058898925781,-12.879570007324219,2.5922012329101562,0.3988938331604004,1.4163131713867188,0.6281836628913879,-4.68385124206543,9.350739479064941,-1.5035117864608765
3_20251106_150609,1762412733350,3,0.4493241310119629,0.5094331502914429,0.6163033843040466,0.39844173192977905,0.17138782143592834,1.4469375610351562,-2.33595609664917,-4.284957408905029,10.76705265045166,-0.8753281235694885,-1.0213428735733032,0.9916777610778809,0.6920028328895569,33.92247009277344,-13.494071960449219,2.477069854736328,0.3988938331604004,1.4163131713867188,0.6281836628913879,-4.68385124206543,9.350739479064941,-1.5035117864608765
3_20251106_150609,1762412733369,3,0.4471081793308258,0.5050447583198547,0.6128574013710022,0.4116186499595642,0.1421421766281128,1.4846645593643188,-2.3002805709838867,-4.108991622924805,10.842466354370117,-0.7017558813095093,-1.0072931051254272,1.141339659690857,0.8569362759590149,33.596580505371094,-14.103721618652344,2.4934425354003906,0.4598875045776367,1.1933813095092773,0.6414047479629517,-4.568879127502441,9.64908504486084,-1.343160629272461
3_20251106_150609,1762412733388,3,0.44370636343955994,0.5007070899009705,0.6094450950622559,0.42543360590934753,0.11840812861919403,1.522728443145752,-2.2654013633728027,-3.6720685958862305,10.941822052001953,-0.4874841570854187,-0.9572021961212158,1.3044404983520508,1.1122777462005615,33.32842254638672,-14.748550415039062,2.660154342651367,0.7174487113952637,1.034189224243164,0.6845412850379944,-4.389517307281494,9.907632827758789,-1.172025442123413
3_20251106_150609,1762412733407,3,0.4381076395511627,0.4968583583831787,0.6056855916976929,0.4408383071422577,0.09241010248661041,1.5960478782653809,-2.2034201622009277,-1.616734504699707,11.734268188476562,-0.7927317023277283,-0.8918396234512329,1.4027897119522095,1.341352105140686,33.06279754638672,-15.331947326660156,2.963348388671875,1.9580645561218262,1.2627038955688477,0.2029101848602295,-3.574799060821533,10.471564292907715,-0.9956418871879578
3_20251106_150609,1762412733427,3,0.4301154315471649,0.49409061670303345,0.6013216972351074,0.4574793875217438,0.09150239825248718,1.6420477628707886,-2.1703073978424072,-0.5501636266708374,12.529108047485352,-0.6838001608848572,-0.8918396234512329,1.4027897119522095,1.341352105140686,32.72154235839844,-15.958320617675781,3.316873550415039,2.419708251953125,1.6460351943969727,0.24947339296340942,-2.969871997833252,10.883072853088379,-0.9332735538482666
3_20251106_150609,1762412733446,3,0.420545756816864,0.4920123517513275,0.5963723063468933,0.47476857900619507,0.09918078035116196,1.6895697116851807,-2.1372263431549072,0.127366304397583,13.072568893432617,0.2319425791501999,-0.8961156606674194,1.4302786588668823,1.3981624841690063,32.29090118408203,-16.630615234375,3.9364986419677734,2.477790594100952,1.7515974044799805,0.932172954082489,-2.350424289703369,11.320971488952637,-0.7002303600311279
3_20251106_150609,1762412733464,3,0.4112679362297058,0.4894983172416687,0.5911807417869568,0.49168628454208374,0.11246971040964127,1.7375752925872803,-2.1030149459838867,0.23988895118236542,13.447246551513672,1.1021974086761475,-0.7678340673446655,1.382020354270935,0.8276147842407227,31.75481414794922,-17.447662353515625,4.576330184936523,2.0722506046295166,1.7010202407836914,1.4419422149658203,-1.8323616981506348,11.74622631072998,-0.33974483609199524
3_20251106_150609,1762412733485,3,0.4030737280845642,0.48543909192085266,0.587268054485321,0.5069483518600464,0.13329708576202393,1.7966831922531128,-2.0603928565979004,-0.012688472867012024,13.507098197937012,1.063891887664795,-0.5607509613037109,1.5750535726547241,0.41650286316871643,31.175228118896484,-18.16797637939453,5.270376205444336,1.4557385444641113,1.4086971282958984,1.122909426689148,-1.468427062034607,12.098401069641113,-0.05901750922203064
3_20251106_150609,1762412733504,3,0.39533594250679016,0.47887951135635376,0.5864132642745972,0.520099401473999,0.1534697413444519,1.8467735052108765,-2.0250113010406494,-0.16351668536663055,12.894208908081055,0.21518388390541077,-0.5607509613037109,1.5750535726547241,0.41650286316871643,30.616193771362305,-18.94989013671875,6.004631042480469,1.0439282655715942,0.6366462707519531,0.21936112642288208,-1.2074449062347412,12.257562637329102,-0.0041772350668907166
3_20251106_150609,1762412733522,3,0.3868217170238495,0.46967029571533203,0.5888731479644775,0.5319842100143433,0.1534697413444519,1.8467735052108765,-2.0250113010406494,-0.16351668536663055,12.894208908081055,0.21518388390541077,-0.2760879397392273,1.8248971700668335,0.29799509048461914,30.000694274902344,-19.625320434570312,6.99561882019043,1.0439282655715942,0.6366462707519531,0.21936112642288208,-1.2074449062347412,12.257562637329102,-0.0041772350668907166
3_20251106_150609,1762412733541,3,0.376804918050766,0.45968177914619446,0.5928928256034851,0.5433127880096436,0.20186954736709595,1.9427143335342407,-1.9602468013763428,0.03758759796619415,11.724691390991211,-0.6047949194908142,-0.21072542667388916,1.5487864017486572,0.4922500550746918,29.329496383666992,-20.216415405273438,7.945453643798828,0.8146328926086426,-0.4006032943725586,-0.3861190676689148,-0.7770453095436096,12.12529468536377,-0.21867583692073822
3_20251106_150609,1762412733559,3,0.366178035736084,0.4517325162887573,0.5960222482681274,0.5537227392196655,0.20186954736709595,1.9427143335342407,-1.9602468013763428,0.03758759796619415,11.724691390991211,-0.6047949194908142,-0.1624671220779419,1.33315110206604,0.5863232016563416,28.634023666381836,-20.80896759033203,8.880790710449219,0.8146328926086426,-0.4006032943725586,-0.3861190676689148,-0.7770453095436096,12.12529468536377,-0.21867583692073822
3_20251106_150609,1762412733579,3,0.35626229643821716,0.44661691784858704,0.5974714756011963,0.5627062320709229,0.22938232123851776,1.9876761436462402,-1.9289535284042358,0.057937443256378174,11.791727066040039,-0.06731976568698883,-0.10138063132762909,1.3844637870788574,0.6211424469947815,27.978029251098633,-21.348770141601562,9.805139541625977,0.6679862141609192,-0.26685428619384766,0.12108486890792847,-0.610048770904541,12.058581352233887,-0.1884046345949173
3_20251106_150609,1762412733598,3,0.34618619084358215,0.4421762228012085,0.5986320972442627,0.5712047815322876,0.2855439782142639,2.0602104663848877,-1.872473120689392,1.0478973388671875,11.180034637451172,0.2953861951828003,-0.08733074367046356,1.490754246711731,0.6498531699180603,27.215166091918945,-21.85710906982422,10.63125228881836,1.1593393087387085,-0.6160888671875,0.3337586522102356,-0.11144201457500458,11.796123504638672,-0.0383724607527256
3_20251106_150609,1762412733618,3,0.33510205149650574,0.43738988041877747,0.6000875234603882,0.5799065828323364,0.2855439782142639,2.0602104663848877,-1.872473120689392,1.0478973388671875,11.180034637451172,0.2953861951828003,-0.08733074367046356,1.490754246711731,0.6498531699180603,27.215166091918945,-21.85710906982422,10.63125228881836,1.1593393087387085,-0.6160888671875,0.3337586522102356,-0.11144201457500458,11.796123504638672,-0.0383724607527256
3_20251106_150609,1762412733637,3,0.32414349913597107,0.4327634274959564,0.6009905338287354,0.5886061191558838,0.3555943965911865,2.1215980052948,-1.8127083778381348,1.605722188949585,10.971747398376465,0.4641701579093933,-0.10932187736034393,1.6660724878311157,0.5124086141586304,26.54427146911621,-22.223243713378906,11.612380981445312,1.1259905099868774,-0.5569047927856445,0.29538795351982117,0.4797316789627075,11.52865219116211,0.16878220438957214
3_20251106_150609,1762412733656,3,0.3132191300392151,0.4270035922527313,0.6022392511367798,0.5973856449127197,0.393404096364975,2.1452043056488037,-1.7857847213745117,2.0713744163513184,10.407938003540039,-0.005073189735412598,-0.059841834008693695,1.739376187324524,0.5875449776649475,33.137088775634766,-26.09356689453125,11.145689010620117,1.2733142375946045,-0.8965721130371094,-0.1390843242406845,0.7980601787567139,11.304510116577148,0.1340111345052719
3_20251106_150609,1762412733675,3,0.301394522190094,0.4203249216079712,0.6040361523628235,0.6063238978385925,0.43488913774490356,2.1642277240753174,-1.761616826057434,2.8267126083374023,10.064384460449219,-0.3797496557235718,-0.0494571328163147,1.6422487497329712,0.8025693297386169,32.32509231567383,-26.381065368652344,12.095746994018555,1.6229219436645508,-0.992100715637207,-0.4110086262226105,1.2037906646728516,11.056485176086426,0.03125897794961929
3_20251106_150609,1762412733695,3,0.28842127323150635,0.4147580862045288,0.6052291393280029,0.615212619304657,0.4835895299911499,2.180682897567749,-1.7384836673736572,3.5772628784179688,10.21162223815918,-0.3091237545013428,-0.0494571328163147,1.6422487497329712,0.8025693297386169,31.508941650390625,-26.766998291015625,12.840950012207031,1.898777723312378,-0.6758899688720703,-0.2723062038421631,1.6784851551055908,10.88751220703125,-0.03681756556034088
3_20251106_150609,1762412733714,3,0.2752521336078644,0.41159555315971375,0.6046675443649292,0.6238609552383423,0.4835895299911499,2.180682897567749,-1.7384836673736572,3.5772628784179688,10.21162223815918,-0.3091237545013428,-0.1368107944726944,1.2238062620162964,1.063408613204956,30.618080139160156,-27.171463012695312,13.704591751098633,1.898777723312378,-0.6758899688720703,-0.2723062038421631,1.6784851551055908,10.88751220703125,-0.03681756556034088
3_20251106_150609,1762412733732,3,0.2619085907936096,0.40972939133644104,0.6029287576675415,0.6324576139450073,0.5888519883155823,2.2073512077331543,-1.6971267461776733,5.363260746002197,10.859224319458008,0.38875603675842285,-0.07083740085363388,1.1816567182540894,0.9711679816246033,22.344663619995117,-24.02918243408203,15.985172271728516,2.521629810333252,0.024031639099121094,0.318142294883728,2.8416309356689453,10.835192680358887,0.07061375677585602
3_20251106_150609,1762412733751,3,0.24884355068206787,0.408213347196579,0.6009297966957092,0.64056396484375,0.5888519883155823,2.2073512077331543,-1.6971267461776733,5.363260746002197,10.859224319458008,0.38875603675842285,-0.07083740085363388,1.1816567182540894,0.9711679816246033,21.230730056762695,-24.511001586914062,16.865699768066406,2.521629810333252,0.024031639099121094,0.318142294883728,2.8416309356689453,10.835192680358887,0.07061375677585602
3_20251106_150609,1762412733770,3,0.23638145625591278,0.4060347378253937,0.5999944806098938,0.6475077271461487,0.7161517143249512,2.232020616531372,-1.6581460237503052,6.522004127502441,10.86760425567627,0.01886778324842453,0.18389318883419037,1.0521533489227295,0.3914574086666107,20.23260498046875,-24.884536743164062,17.685171127319336,2.4153871536254883,0.010399818420410156,-0.06855008751153946,4.106616973876953,10.85720443725586,0.08741787075996399
3_20251106_150609,1762412733789,3,0.22549384832382202,0.40289953351020813,0.6007232069969177,0.652653157711029,0.7911859154701233,2.2434449195861816,-1.6404374837875366,6.531580448150635,10.557567596435547,-0.45157259702682495,0.22787544131278992,0.9715192317962646,0.08724674582481384,19.178258895874023,-25.197647094726562,18.34131622314453,1.9399709701538086,-0.23970890045166016,-0.43119239807128906,4.591609477996826,10.797276496887207,-0.020380213856697083
3_20251106_150609,1762412733808,3,0.21683090925216675,0.3986978828907013,0.6029744148254395,0.6560840010643005,0.864285945892334,2.2522242069244385,-1.6260555982589722,6.553127288818359,10.239153861999512,-0.60359787940979,0.17595194280147552,0.8371289968490601,-0.08990401029586792,18.216777801513672,-25.580284118652344,19.053863525390625,1.5692143440246582,-0.44649791717529297,-0.46657413244247437,4.983912944793701,10.685651779174805,-0.13702373206615448
3_20251106_150609,1762412733828,3,0.21030299365520477,0.3937642276287079,0.6058710813522339,0.658515453338623,0.9420653581619263,2.2592930793762207,-1.6123424768447876,6.523200988769531,10.123039245605469,-0.3570057451725006,0.09592866897583008,0.6575347185134888,-0.14671443402767181,17.37100601196289,-25.854774475097656,19.7188720703125,1.2314305305480957,-0.4500904083251953,-0.17598561942577362,5.2917704582214355,10.573129653930664,-0.181020125746727
3_20251106_150609,1762412733846,3,0.20568762719631195,0.3891142010688782,0.6083183288574219,0.6604782938957214,1.010971188545227,2.2643790245056152,-1.6002522706985474,6.2682294845581055,10.184089660644531,-0.03260533884167671,0.09592866897583008,0.6575347185134888,-0.14671443402767181,16.603466033935547,-26.047943115234375,20.266761779785156,0.7811670303344727,-0.3112316131591797,0.11873182654380798,5.487062454223633,10.495321273803711,-0.1513371616601944
3_20251106_150609,1762412733866,3,0.2024701088666916,0.3853684961795807,0.6102495193481445,0.6618855595588684,1.0849189758300781,2.268721342086792,-1.5868420600891113,5.886370658874512,10.157754898071289,0.06196155399084091,0.21016035974025726,0.3661523163318634,-0.21574215590953827,15.975093841552734,-26.15582275390625,20.699981689453125,0.3194465637207031,-0.2700538635253906,0.17063897848129272,5.566924095153809,10.42780876159668,-0.10867741703987122
3_20251106_150609,1762412733886,3,0.20004716515541077,0.38236814737319946,0.6124390363693237,0.6623399257659912,1.1550015211105347,2.2718145847320557,-1.573994755744934,5.51169490814209,10.088324546813965,-0.07330501824617386,0.30362269282341003,0.2787986695766449,-0.24200934171676636,15.436041831970215,-26.194679260253906,21.07037353515625,-0.04418325424194336,-0.2715873718261719,0.028297923505306244,5.555878162384033,10.359911918640137,-0.1016029417514801
3_20251106_150609,1762412733905,3,0.19803647696971893,0.3797762095928192,0.6152415871620178,0.6618378758430481,1.2170920372009277,2.273404598236084,-1.5627166032791138,5.133426666259766,9.92193603515625,-0.2169509381055832,0.34027454257011414,0.21893392503261566,-0.2352898120880127,15.13446044921875,-26.117584228515625,21.41164779663086,-0.33796119689941406,-0.35038089752197266,-0.09227839857339859,5.47138786315918,10.272316932678223,-0.1246725395321846
3_20251106_150609,1762412733923,3,0.19633238017559052,0.3776727020740509,0.6183858513832092,0.6606177687644958,1.2712246179580688,2.2735424041748047,-1.552964448928833,4.761144161224365,9.747166633605957,-0.2863798141479492,0.3531027138233185,0.1651778221130371,-0.18947497010231018,14.922212600708008,-25.959854125976562,21.784969329833984,-0.5681948661804199,-0.4201202392578125,-0.12936583161354065,5.329339027404785,10.16728687286377,-0.15701398253440857
3_20251106_150609,1762412733941,3,0.19475913047790527,0.3760528564453125,0.6214974522590637,0.659085750579834,1.3205292224884033,2.2726387977600098,-1.544413447380066,4.467867374420166,9.74716567993164,-0.4467844069004059,0.3531027138233185,0.1651778221130371,-0.18947497010231018,14.807439804077148,-25.807388305664062,22.067337036132812,-0.6891770362854004,-0.33609771728515625,-0.2318163514137268,5.157044410705566,10.083263397216797,-0.21496805548667908
3_20251106_150609,1762412733962,3,0.19309240579605103,0.3750883936882019,0.6243150234222412,0.6574608087539673,1.3698883056640625,2.2707433700561523,-1.536161184310913,4.2739458084106445,9.7735013961792,-0.4695283770561218,0.3323333263397217,-0.07550287991762161,0.01821904070675373,14.699814796447754,-25.529212951660156,22.338829040527344,-0.7064790725708008,-0.24781036376953125,-0.20364826917648315,4.980424880981445,10.02131175994873,-0.26588010787963867
3_20251106_150609,1762412733980,3,0.19189323484897614,0.37574973702430725,0.6262983083724976,0.6555452346801758,1.410132646560669,2.268394708633423,-1.5291707515716553,4.18536376953125,9.725619316101074,-0.29236504435539246,0.35371360182762146,-0.2465450018644333,0.15444187819957733,14.600641250610352,-25.324913024902344,22.541645050048828,-0.6360487937927246,-0.23655414581298828,-0.021187931299209595,4.821412563323975,9.962173461914062,-0.27117711305618286
3_20251106_150609,1762412733999,3,0.19074535369873047,0.3780341148376465,0.6276758313179016,0.6532453298568726,1.4489012956619263,2.2656991481781006,-1.5216606855392456,4.24282169342041,9.838142395019531,-0.08886668086051941,0.3921980559825897,-0.3436724841594696,0.27661481499671936,14.599153518676758,-25.113990783691406,22.721351623535156,-0.4628725051879883,-0.09922504425048828,0.145848348736763,4.705694198608398,9.93736743927002,-0.2347150295972824
3_20251106_150609,1762412734018,3,0.1893460750579834,0.38188230991363525,0.6285824179649353,0.650536835193634,1.4864774942398071,2.2631640434265137,-1.5136672258377075,4.313447952270508,9.990167617797852,-0.07569911330938339,0.440456360578537,-0.4102567732334137,0.3322035074234009,14.606524467468262,-24.96479034423828,22.873199462890625,-0.3137969970703125,0.042240142822265625,0.1272127330303192,4.62724494934082,9.947927474975586,-0.202911838889122
3_20251106_150609,1762412734037,3,0.18769963085651398,0.3867555558681488,0.629216730594635,0.6475147008895874,1.4864774942398071,2.2631640434265137,-1.5136672258377075,4.313447952270508,9.990167617797852,-0.07569911330938339,0.440456360578537,-0.4102567732334137,0.3322035074234009,14.662428855895996,-24.824295043945312,22.959163665771484,-0.3137969970703125,0.042240142822265625,0.1272127330303192,4.62724494934082,9.947927474975586,-0.202911838889122
3_20251106_150609,1762412734056,3,0.18608812987804413,0.3921836018562317,0.6299664378166199,0.6439763307571411,1.5509930849075317,2.2599925994873047,-1.499946117401123,4.374497413635254,10.11585807800293,-0.3821437358856201,0.49421247839927673,-0.47012150287628174,0.3212079703807831,14.698586463928223,-24.60950469970703,22.99166488647461,-0.17152643203735352,0.10670948028564453,-0.1482257843017578,4.546023845672607,10.009148597717285,-0.2339179515838623
3_20251106_150609,1762412734076,3,0.1849154531955719,0.39784348011016846,0.6309676766395569,0.6398488879203796,1.580869197845459,2.259047031402588,-1.494147539138794,4.133890151977539,10.144586563110352,-0.4396021366119385,0.5308642983436584,-0.547090470790863,0.2686735987663269,14.698586463928223,-24.60950469970703,22.99166488647461,-0.32970714569091797,0.10834980010986328,-0.16454735398292542,4.463597297668457,10.036236763000488,-0.27505478262901306
3_20251106_150609,1762412734094,3,0.1846553236246109,0.40376198291778564,0.632146418094635,0.6350350975990295,1.6046522855758667,2.258470058441162,-1.4893383979797363,3.748440742492676,10.13022232055664,-0.33545881509780884,0.49482330679893494,-0.6833133697509766,0.13183988630771637,14.799895286560059,-24.539962768554688,22.95635986328125,-0.5721249580383301,0.07518768310546875,-0.048323243856430054,4.320565700531006,10.055034637451172,-0.2871355712413788
3_20251106_150609,1762412734114,3,0.18538159132003784,0.40957993268966675,0.6333431601524353,0.6298844218254089,1.627187728881836,2.2572524547576904,-1.484663724899292,3.475513458251953,9.854900360107422,-0.41925230622291565,0.48932555317878723,-0.6802589893341064,0.11717912554740906,14.878156661987305,-24.43541717529297,23.028995513916016,-0.6760416030883789,-0.16010761260986328,-0.10569337010383606,4.151555061340332,10.015007972717285,-0.3135589361190796
3_20251106_150609,1762412734133,3,0.1866605132818222,0.41507723927497864,0.6344187259674072,0.6248052716255188,1.6453263759613037,2.255129814147949,-1.4814902544021606,3.349823474884033,9.641825675964355,-0.6945736408233643,0.5620183944702148,-0.6918654441833496,0.15016582608222961,15.005754470825195,-24.326881408691406,23.02249526977539,-0.6413850784301758,-0.29854583740234375,-0.3048117756843567,3.991208553314209,9.9403715133667,-0.38976186513900757
3_20251106_150609,1762412734152,3,0.18766403198242188,0.4205424189567566,0.6357053518295288,0.6195200085639954,1.6608508825302124,2.2515552043914795,-1.4807403087615967,3.36897611618042,9.372489929199219,-1.2152900695800781,0.6640328168869019,-0.7663909196853638,0.1868177056312561,15.228726387023926,-24.249664306640625,23.019126892089844,-0.4977860450744629,-0.45430564880371094,-0.6604225635528564,3.866762161254883,9.82679557800293,-0.5548675060272217
3_20251106_150609,1762412734170,3,0.18824070692062378,0.4265197813510895,0.6373035907745361,0.6135882139205933,1.673653244972229,2.2461936473846436,-1.4829885959625244,3.3917200565338135,8.955917358398438,-1.7419919967651367,0.8057534694671631,-0.9270483255386353,0.2020893096923828,15.43165397644043,-24.098556518554688,23.002845764160156,-0.3800337314605713,-0.6967020034790039,-0.9496996402740479,3.7717537879943848,9.652619361877441,-0.7922923564910889
3_20251106_150609,1762412734190,3,0.1889866143465042,0.4337102174758911,0.6392190456390381,0.6062825918197632,1.6857422590255737,2.237269878387451,-1.4898754358291626,3.303138256072998,8.578845977783203,-2.2770729064941406,0.8057534694671631,-0.9270483255386353,0.2020893096923828,15.745962142944336,-23.91478729248047,22.950958251953125,-0.3748924732208252,-0.8590183258056641,-1.1878244876861572,3.6780307292938232,9.437864303588867,-1.0892484188079834
3_20251106_150609,1762412734209,3,0.19021520018577576,0.4422120451927185,0.6414387822151184,0.5973466038703918,1.6952922344207764,2.2259628772735596,-1.5008310079574585,3.1822361946105957,8.252052307128906,-2.816941976547241,0.8558443188667297,-1.2074352502822876,0.20575450360774994,16.011428833007812,-23.734329223632812,22.910625457763672,-0.3966355323791504,-0.9486494064331055,-1.382154941558838,3.578871726989746,9.200701713562012,-1.4347870349884033
3_20251106_150609,1762412734228,3,0.1922122985124588,0.45162642002105713,0.6433525681495667,0.5875248908996582,1.7027839422225952,2.211925506591797,-1.516150712966919,3.002678871154785,7.999473571777344,-3.2251360416412354,0.7910926938056946,-1.3027302026748657,0.18376338481903076,16.407922744750977,-23.595626831054688,22.901660919189453,-0.4609541893005371,-0.9609823226928711,-1.4322792291641235,3.4636330604553223,8.960455894470215,-1.7928568124771118
3_20251106_150609,1762412734247,3,0.19510571658611298,0.46145814657211304,0.6447315216064453,0.5773313045501709,1.7079861164093018,2.195375442504883,-1.5351759195327759,2.7656631469726562,7.788792610168457,-3.422649383544922,0.6890782713890076,-1.368092656135559,0.15932878851890564,16.832313537597656,-23.392555236816406,22.895000457763672,-0.5583758354187012,-0.9373311996459961,-1.3038339614868164,3.3240389823913574,8.726123809814453,-2.1188154220581055
3_20251106_150609,1762412734267,3,0.19901376962661743,0.4713974893093109,0.6455050110816956,0.567010760307312,1.7108358144760132,2.175499200820923,-1.5582630634307861,2.550194263458252,7.631979942321777,-3.4549694061279297,0.5626292824745178,-1.4096314907073975,0.14222458004951477,17.245407104492188,-23.189064025878906,22.76620101928711,-0.6190757751464844,-0.8753156661987305,-1.0689232349395752,3.1692700386047363,8.507295608520508,-2.3860461711883545
3_20251106_150609,1762412734287,3,0.20384660363197327,0.481210321187973,0.645474374294281,0.5569972991943359,1.7112679481506348,2.153693675994873,-1.5833871364593506,2.420912981033325,7.5457916259765625,-3.435816526412964,0.469167023897171,-1.4377312660217285,0.09763145446777344,17.7047119140625,-23.04383087158203,22.502880096435547,-0.5986857414245605,-0.7692031860351562,-0.8398163318634033,3.0195987224578857,8.314994812011719,-2.5960001945495605
3_20251106_150609,1762412734305,3,0.20953747630119324,0.4906594455242157,0.6447885632514954,0.5473527312278748,1.709959864616394,2.1332767009735107,-1.6069155931472778,2.3383166790008545,7.5948710441589355,-3.4274373054504395,0.42579564452171326,-1.476826548576355,0.020662501454353333,18.204898834228516,-22.82073974609375,22.22909927368164,-0.5450255870819092,-0.5760989189147949,-0.6651496887207031,2.8833422660827637,8.17096996307373,-2.7622876167297363
3_20251106_150609,1762412734325,3,0.2160428762435913,0.499679833650589,0.6437599658966064,0.5377904772758484,1.709959864616394,2.1332767009735107,-1.6069155931472778,2.3383166790008545,7.5948710441589355,-3.4274373054504395,0.48810380697250366,-1.5880039930343628,-0.10212130844593048,18.810224533081055,-22.6778564453125,21.903820037841797,-0.5450255870819092,-0.5760989189147949,-0.6651496887207031,2.8833422660827637,8.17096996307373,-2.7622876167297363
3_20251106_150609,1762412734345,3,0.2234857678413391,0.508328914642334,0.6429315209388733,0.5275366306304932,1.7001988887786865,2.0857112407684326,-1.659447193145752,1.7721121311187744,7.379402160644531,-3.1892242431640625,0.48810380697250366,-1.5880039930343628,-0.10212130844593048,19.392276763916016,-22.523468017578125,21.523757934570312,-0.7759237289428711,-0.5399293899536133,-0.2607903480529785,2.5480358600616455,7.9193315505981445,-2.928433895111084
3_20251106_150609,1762412734363,3,0.23170681297779083,0.5169071555137634,0.642853319644928,0.5156148076057434,1.6920112371444702,2.0629994869232178,-1.6835370063781738,1.3950417041778564,7.095701694488525,-3.6608619689941406,0.6359330415725708,-1.6814662218093872,-0.22307252883911133,20.03757095336914,-22.327163696289062,21.11990737915039,-0.9223954677581787,-0.6589040756225586,-0.585942268371582,2.317437171936035,7.754605770111084,-3.0749197006225586
3_20251106_150609,1762412734382,3,0.23992006480693817,0.5251635313034058,0.6436528563499451,0.5023471713066101,1.6920112371444702,2.0629994869232178,-1.6835370063781738,1.3950417041778564,7.095701694488525,-3.6608619689941406,0.65670245885849,-1.5586824417114258,-0.30920442938804626,20.71063804626465,-22.08985137939453,20.542118072509766,-0.9223954677581787,-0.6589040756225586,-0.585942268371582,2.317437171936035,7.754605770111084,-3.0749197006225586
3_20251106_150609,1762412734400,3,0.24771089851856232,0.5326474905014038,0.6447691321372986,0.4890795052051544,1.6667015552520752,2.014098882675171,-1.738574504852295,0.748634934425354,6.931705474853516,-4.599349021911621,0.45756056904792786,-1.409631371498108,-0.35074323415756226,21.35016441345215,-21.804420471191406,19.93688201904297,-1.0574697256088257,-0.5392971038818359,-1.038264513015747,1.8061046600341797,7.471002578735352,-3.561084508895874
3_20251106_150609,1762412734420,3,0.2555367648601532,0.5390161871910095,0.645480751991272,0.4769875109195709,1.6478606462478638,1.9863778352737427,-1.7716983556747437,0.3560027480125427,6.685113906860352,-4.83756160736084,0.20160827040672302,-1.2092677354812622,-0.37090179324150085,22.11104393005371,-21.523338317871094,19.309253692626953,-1.160081386566162,-0.6287112236022949,-1.021181583404541,1.5160841941833496,7.3138251304626465,-3.816380023956299
3_20251106_150609,1762412734438,3,0.2637298107147217,0.5437889099121094,0.6455727219581604,0.4668790400028229,1.628320336341858,1.9608098268508911,-1.8028461933135986,0.12257811427116394,6.5558319091796875,-4.964448928833008,-0.08794160932302475,-1.0223432779312134,-0.32630863785743713,22.796396255493164,-21.28509521484375,18.71843719482422,-1.1148048639297485,-0.6063947677612305,-0.9184551239013672,1.2373830080032349,7.162226676940918,-4.045993804931641
3_20251106_150609,1762412734458,3,0.27196088433265686,0.5469509959220886,0.644845724105835,0.459408164024353,1.603839635848999,1.9318650960922241,-1.8374358415603638,-0.03064422309398651,6.518723487854004,-4.6089253425598145,-0.36649590730667114,-0.916663646697998,-0.2194073349237442,23.460168838500977,-21.021438598632812,17.937942504882812,-1.014421820640564,-0.5148029327392578,-0.4503450393676758,0.9837775826454163,7.033526420593262,-4.158580303192139
3_20251106_150609,1762412734477,3,0.2804833650588989,0.549140989780426,0.6427529454231262,0.45457878708839417,1.5789527893066406,1.9042184352874756,-1.868558406829834,-0.034235358238220215,6.478023529052734,-4.124119758605957,-0.5576966404914856,-0.869627058506012,-0.04775434732437134,24.073280334472656,-20.798362731933594,17.127660751342773,-0.8144103288650513,-0.44440221786499023,0.027568340301513672,0.780174970626831,6.922425746917725,-4.151688098907471
3_20251106_150609,1762412734496,3,0.2892129123210907,0.551195502281189,0.6389897465705872,0.4519197940826416,1.5536309480667114,1.8771847486495972,-1.8971788883209229,0.16806599497795105,6.642019748687744,-3.8069019317626953,-0.6291677951812744,-0.8910073041915894,0.1465006321668625,24.61236000061035,-20.6044921875,16.246326446533203,-0.4896871745586395,-0.22432470321655273,0.27582883834838867,0.6577531695365906,6.866344451904297,-4.082730770111084
3_20251106_150609,1762412734514,3,0.29777878522872925,0.553909182548523,0.6335691213607788,0.4506691098213196,1.5302278995513916,1.853183388710022,-1.9219987392425537,0.40867292881011963,6.999937534332275,-3.701561689376831,-0.5992354154586792,-1.0162345170974731,0.29677334427833557,24.61236000061035,-20.6044921875,16.246326446533203,-0.19926422834396362,0.10687398910522461,0.3049352169036865,0.6079371571540833,6.893063545227051,-4.006496906280518
3_20251106_150609,1762412734534,3,0.3060510754585266,0.5579869151115417,0.6267447471618652,0.4496380388736725,1.5053410530090332,1.8288977146148682,-1.9463752508163452,0.5475306510925293,7.238150119781494,-3.407087564468384,-0.5992354154586792,-1.0162345170974731,0.29677334427833557,25.147506713867188,-20.485557556152344,15.322860717773438,-0.048325181007385254,0.27606916427612305,0.47952747344970703,0.5958558320999146,6.962080955505371,-3.886615037918091
3_20251106_150609,1762412734554,3,0.31443628668785095,0.563227653503418,0.6191489100456238,0.4478382170200348,1.4818209409713745,1.8065673112869263,-1.9677186012268066,0.6361122727394104,7.205830097198486,-3.2897768020629883,-0.5234881639480591,-1.0706015825271606,0.23629775643348694,25.56340789794922,-20.549163818359375,14.350736618041992,0.032205164432525635,0.19499921798706055,0.47747063636779785,0.6039071083068848,7.010830879211426,-3.767247438430786
3_20251106_150609,1762412734572,3,0.32286134362220764,0.5683546662330627,0.6117218732833862,0.44556692242622375,1.4618996381759644,1.7878901958465576,-1.9851598739624023,0.6804031133651733,7.179494857788086,-3.4394078254699707,-0.5240991115570068,-0.9856913089752197,0.09640972316265106,26.035602569580078,-20.69629669189453,13.338668823242188,0.06119680404663086,0.13493108749389648,0.2622716426849365,0.6192063093185425,7.0445637702941895,-3.7016794681549072
3_20251106_150609,1762412734591,3,0.33130139112472534,0.5726035237312317,0.604945957660675,0.4431760311126709,1.4618996381759644,1.7878901958465576,-1.9851598739624023,0.6804031133651733,7.179494857788086,-3.4394078254699707,-0.6047332286834717,-0.9197179675102234,-0.07279980182647705,26.373031616210938,-20.8763427734375,12.226062774658203,0.06119680404663086,0.13493108749389648,0.2622716426849365,0.6192063093185425,7.0445637702941895,-3.7016794681549072
3_20251106_150609,1762412734610,3,0.34007617831230164,0.575433075428009,0.5990827679634094,0.44082289934158325,1.422092318534851,1.754036784172058,-2.0172228813171387,0.42902275919914246,7.488333702087402,-3.2993528842926025,-0.7623363137245178,-0.8891746997833252,-0.20596832036972046,26.74531364440918,-21.07952117919922,11.154949188232422,-0.14182791113853455,0.3045063018798828,0.2877504825592041,0.570850670337677,7.1838274002075195,-3.5871033668518066
3_20251106_150609,1762412734629,3,0.3499305248260498,0.5767673254013062,0.5935688614845276,0.4388212561607361,1.422092318534851,1.754036784172058,-2.0172228813171387,0.42902275919914246,7.488333702087402,-3.2993528842926025,-0.8863418102264404,-0.9343787431716919,-0.292711079120636,27.053634643554688,-21.348785400390625,10.012483596801758,-0.14182791113853455,0.3045063018798828,0.2877504825592041,0.570850670337677,7.1838274002075195,-3.5871033668518066
3_20251106_150609,1762412734648,3,0.3610226809978485,0.5768409371376038,0.5879552364349365,0.4372937083244324,1.4017726182937622,1.7393746376037598,-2.0306100845336914,0.3392440676689148,7.603250503540039,-3.02522873878479,-0.8991700410842896,-1.0321170091629028,-0.3751778304576874,27.32923126220703,-21.545623779296875,8.9241943359375,-0.1852852702140808,0.335538387298584,0.44949984550476074,0.5245293378829956,7.267712116241455,-3.474728584289551
3_20251106_150609,1762412734667,3,0.3733840584754944,0.5766114592552185,0.5819387435913086,0.43525946140289307,1.3820915222167969,1.7276374101638794,-2.0400500297546387,0.03519350290298462,7.8127336502075195,-2.5116944313049316,-0.8130381107330322,-1.0706015825271606,-0.43809691071510315,27.6691837310791,-21.67584228515625,7.853193283081055,-0.39146867394447327,0.4360170364379883,0.7704274654388428,0.4266621768474579,7.376716613769531,-3.2821218967437744
3_20251106_150609,1762412734687,3,0.3862050771713257,0.5761613845825195,0.5762228965759277,0.43226248025894165,1.3373674154281616,1.7099065780639648,-2.048621892929077,-0.9272342324256897,8.011444091796875,-2.114274024963379,-0.7189649343490601,-1.0137910842895508,-0.4154948890209198,27.958179473876953,-21.8470458984375,6.79295539855957,-0.9339115619659424,0.42882585525512695,0.7524023056030273,0.0066773295402526855,7.582618236541748,-2.8666763305664062
3_20251106_150609,1762412734708,3,0.3984314501285553,0.5756604075431824,0.5711043477058411,0.4286108613014221,1.3090764284133911,1.7041544914245605,-2.048896074295044,-1.1558706760406494,8.333450317382812,-2.0412540435791016,-0.7275170087814331,-0.9020028710365295,-0.33547163009643555,28.284828186035156,-21.789825439453125,5.657352447509766,-0.9300383925437927,0.6006655693054199,0.6603379249572754,-0.2258322685956955,7.732784748077393,-2.701591968536377
3_20251106_150609,1762412734726,3,0.4096972644329071,0.5751737356185913,0.56610107421875,0.4252680838108063,1.2852660417556763,1.7019257545471191,-2.0473251342773438,-1.1606587171554565,8.73206901550293,-1.8904259204864502,-0.7678340673446655,-0.8195361495018005,-0.2762177288532257,28.5402774810791,-21.699966430664062,4.546630859375,-0.7478611469268799,0.7994275093078613,0.648932933807373,-0.41279757022857666,7.932641506195068,-2.5393588542938232
3_20251106_150609,1762412734745,3,0.4203278422355652,0.5744794011116028,0.5607742667198181,0.42288321256637573,1.2852660417556763,1.7019257545471191,-2.0473251342773438,-1.1606587171554565,8.73206901550293,-1.8904259204864502,-0.700639009475708,-0.8531336784362793,-0.21818560361862183,28.770055770874023,-21.62506103515625,3.5157623291015625,-0.7478611469268799,0.7994275093078613,0.648932933807373,-0.41279757022857666,7.932641506195068,-2.5393588542938232
3_20251106_150609,1762412734765,3,0.4305393099784851,0.5738263726234436,0.5552605986595154,0.42076700925827026,1.2546488046646118,1.702049732208252,-2.042905569076538,-1.2109348773956299,8.75002384185791,-1.7707210779190063,-0.6041223406791687,-0.916663646697998,-0.13083195686340332,29.00567054748535,-21.449432373046875,2.459972381591797,-0.6385098695755005,0.6539058685302734,0.6149102449417114,-0.5724250078201294,8.096117973327637,-2.3856313228607178
3_20251106_150609,1762412734783,3,0.44013604521751404,0.5741641521453857,0.5494198203086853,0.41803550720214844,1.1989953517913818,1.7089921236038208,-2.0291993618011475,-1.4491477012634277,9.238420486450195,-1.2512016296386719,-0.598013699054718,-0.9123876094818115,-0.04103483632206917,29.142993927001953,-21.2928466796875,1.4135112762451172,-0.5882995128631592,0.7797212600708008,0.781003475189209,-0.8608481884002686,8.458699226379395,-2.032205104827881
3_20251106_150609,1762412734802,3,0.44917306303977966,0.5752447843551636,0.543153703212738,0.41511571407318115,1.1696983575820923,1.7164031267166138,-2.018109083175659,-1.5892024040222168,9.508953094482422,-0.809490442276001,-0.6536023616790771,-0.8317534327507019,0.05059487000107765,29.3040828704834,-21.1470947265625,0.3542509078979492,-0.5826833248138428,0.8402032852172852,0.9781718254089355,-1.006519079208374,8.668749809265137,-1.7876622676849365
3_20251106_150609,1762412734821,3,0.45793968439102173,0.5764662027359009,0.5361576676368713,0.41293203830718994,1.1404186487197876,1.725597620010376,-2.0042197704315186,-1.5341382026672363,9.453889846801758,-0.5652922987937927,-0.5992354154586792,-0.7450106739997864,0.10679443180561066,29.3551025390625,-21.009033203125,-0.6553583145141602,-0.42209529876708984,0.6281118392944336,0.9778960347175598,-1.1120429039001465,8.825778007507324,-1.5431883335113525
3_20251106_150609,1762412734840,3,0.46542760729789734,0.5767779350280762,0.5298428535461426,0.4122752845287323,1.1115138530731201,1.7350835800170898,-1.9891694784164429,-1.5090000629425049,9.099562644958496,-0.8669487833976746,-0.49477753043174744,-0.7065261602401733,0.1348942071199417,29.386585235595703,-20.7847900390625,-1.6505851745605469,-0.31756579875946045,0.21902751922607422,0.5409917235374451,-1.1914342641830444,8.880535125732422,-1.4079405069351196
3_20251106_150609,1762412734858,3,0.47229713201522827,0.5779289603233337,0.5233345031738281,0.41116243600845337,1.0846880674362183,1.7439038753509521,-1.97451913356781,-1.5209707021713257,8.995418548583984,-0.959121584892273,-0.5289859771728516,-0.6833133101463318,0.17826560139656067,29.29813003540039,-20.744033813476562,-2.599855422973633,-0.2636291980743408,0.09190654754638672,0.35905516147613525,-1.2573415040969849,8.903512001037598,-1.3181767463684082
3_20251106_150609,1762412734878,3,0.4786075949668884,0.5794200897216797,0.5168728828430176,0.4099385142326355,1.0571203231811523,1.7526264190673828,-1.9587148427963257,-1.500620722770691,8.858955383300781,-0.9124366641044617,-0.6670414209365845,-0.610620379447937,0.20453277230262756,29.135149002075195,-20.73316192626953,-3.5525970458984375,-0.19462335109710693,-0.035645484924316406,0.3245921730995178,-1.305997371673584,8.894600868225098,-1.2370288372039795
3_20251106_150609,1762412734897,3,0.485029011964798,0.580421507358551,0.5099728107452393,0.40961626172065735,1.0293139219284058,1.7613097429275513,-1.9410686492919922,-1.3845069408416748,8.881698608398438,-0.631130039691925,-0.7476755380630493,-0.5269320011138916,0.17521128058433533,29.024845123291016,-20.64417266845703,-4.461243629455566,-0.06280767917633057,-0.010321617126464844,0.4847189784049988,-1.3216992616653442,8.892020225524902,-1.1158490180969238
3_20251106_150609,1762412734918,3,0.49182388186454773,0.5807266235351562,0.5027080178260803,0.4100615978240967,1.0018961429595947,1.7704061269760132,-1.921613335609436,-1.2264965772628784,9.021754264831543,-0.5628981590270996,-0.7800514101982117,-0.35283544659614563,0.06708821654319763,28.849084854125977,-20.634902954101562,-5.333377838134766,0.07616221904754639,0.10378742218017578,0.44236063957214355,-1.3026587963104248,8.917966842651367,-1.0052587985992432
3_20251106_150609,1762412734936,3,0.4984959065914154,0.5799176692962646,0.4961949586868286,0.41108137369155884,0.9802352786064148,1.778670072555542,-1.9049618244171143,-1.0325745344161987,9.265952110290527,-0.6766179203987122,-0.7800514101982117,-0.35283544659614563,0.06708821654319763,28.849084854125977,-20.634902954101562,-5.333377838134766,0.21606743335723877,0.27838802337646484,0.26291269063949585,-1.2486419677734375,8.987564086914062,-0.939530611038208
3_20251106_150609,1762412734956,3,0.5049257874488831,0.5773329138755798,0.4912452697753906,0.4128131568431854,0.9586865305900574,1.7887706756591797,-1.8852468729019165,-0.8159086108207703,9.44072151184082,-0.23610375821590424,-1.0017952919006348,-0.1475849151611328,-0.20719005167484283,28.72701644897461,-20.52294158935547,-6.10682487487793,0.34618669748306274,0.36252593994140625,0.5627415180206299,-1.162095308303833,9.078195571899414,-0.7988452911376953
3_20251106_150609,1762412734974,3,0.5119869709014893,0.5730262398719788,0.48714858293533325,0.4149656295776367,0.9412474632263184,1.7981609106063843,-1.8652304410934448,-0.7620413899421692,9.38446044921875,0.4845200181007385,-1.0195103883743286,-0.22821906208992004,-0.25361576676368713,28.56830406188965,-20.401885986328125,-6.773348808288574,0.32004314661026,0.2450122833251953,1.026692271232605,-1.0820845365524292,9.139448165893555,-0.5421722531318665
3_20251106_150609,1762412734995,3,0.5201696157455444,0.5680565237998962,0.4826515018939972,0.4168727397918701,0.923190176486969,1.808901309967041,-1.8411009311676025,-0.9667367935180664,9.411993026733398,0.44501736760139465,-1.0195103883743286,-0.22821906208992004,-0.25361576676368713,28.434965133666992,-20.266281127929688,-7.4791765213012695,0.09227824211120605,0.21803569793701172,0.7897517085075378,-1.0590150356292725,9.193957328796387,-0.3447343409061432
3_20251106_150609,1762412735013,3,0.5281927585601807,0.5634698867797852,0.47832441329956055,0.41799506545066833,0.9066802859306335,1.8200335502624512,-1.8172656297683716,-1.1367177963256836,9.718437194824219,0.4055147171020508,-0.7953230142593384,-0.29969021677970886,-0.2908785045146942,28.289142608642578,-20.131874084472656,-8.144946098327637,-0.06216228008270264,0.4195842742919922,0.6001992225646973,-1.074555516242981,9.298852920532227,-0.19468453526496887
3_20251106_150609,1762412735031,3,0.535696268081665,0.5596559643745422,0.4743417799472809,0.41810843348503113,0.891046404838562,1.8319905996322632,-1.7936638593673706,-1.389295220375061,10.085931777954102,0.6784420013427734,-0.8900070190429688,-0.2404363602399826,-0.33119556307792664,28.114826202392578,-19.849700927734375,-8.75495433807373,-0.2517918348312378,0.6296634674072266,0.6985012292861938,-1.1375033855438232,9.456268310546875,-0.020059242844581604
3_20251106_150609,1762412735050,3,0.5432935357093811,0.5553995370864868,0.4706164598464966,0.4181908965110779,0.874228298664093,1.846204400062561,-1.7664052248001099,-1.5532909631729126,10.266685485839844,1.2889370918273926,-0.8900070190429688,-0.2404363602399826,-0.33119556307792664,28.018362045288086,-19.475135803222656,-9.333139419555664,-0.3326300382614136,0.6483335494995117,1.0471971035003662,-1.220660924911499,9.618351936340332,0.24174001812934875
3_20251106_150609,1762412735070,3,0.5514233112335205,0.5501918196678162,0.4667470455169678,0.4187702536582947,0.8560205698013306,1.8623963594436646,-1.7344746589660645,-1.6777842044830322,10.269079208374023,1.7785303592681885,-0.9889671802520752,-0.20256274938583374,-0.34524545073509216,27.885339736938477,-19.102951049804688,-9.912796974182129,-0.36569857597351074,0.5205821990966797,1.2294323444366455,-1.3120856285095215,9.748497009277344,0.5490980744361877
3_20251106_150609,1762412735089,3,0.5596525073051453,0.5445746183395386,0.4627668857574463,0.41961219906806946,0.8393166661262512,1.8772099018096924,-1.7048335075378418,-1.7735480070114136,10.142191886901855,1.4996178150177002,-0.8331966400146484,-0.11337649077177048,-0.2933219373226166,27.76742172241211,-18.679611206054688,-10.504424095153809,-0.36916983127593994,0.3149557113647461,0.76041579246521,-1.4043781757354736,9.82723617553711,0.7392020225524902
3_20251106_150609,1762412735108,3,0.5670740604400635,0.5392703413963318,0.4591948688030243,0.42042192816734314,0.8203113675117493,1.892704963684082,-1.6734719276428223,-1.8561445474624634,9.780683517456055,0.763432502746582,-0.7849383354187012,0.0057421294040977955,-0.23834413290023804,27.685976028442383,-18.242408752441406,-10.986185073852539,-0.3614131212234497,-0.03724193572998047,0.019384384155273438,-1.4947314262390137,9.817925453186035,0.7440481185913086
3_20251106_150609,1762412735127,3,0.5732840895652771,0.5341680645942688,0.4564678370952606,0.4214818477630615,0.8031159043312073,1.9059205055236816,-1.6476505994796753,-1.878888487815857,9.804624557495117,0.3408740758895874,-0.7849383354187012,0.0057421294040977955,-0.23834413290023804,27.590835571289062,-17.831253051757812,-11.455449104309082,-0.30732572078704834,-0.010641098022460938,-0.32253921031951904,-1.5715627670288086,9.815265655517578,0.6634132862091064
3_20251106_150609,1762412735146,3,0.5788315534591675,0.5289309620857239,0.45359864830970764,0.42359688878059387,0.7843729257583618,1.920805811882019,-1.6198650598526,-1.7663657665252686,10.123039245605469,0.8376495838165283,-1.2186522483825684,0.013683370314538479,0.056092653423547745,27.498414993286133,-17.37000274658203,-11.910140037536621,-0.15584242343902588,0.24621963500976562,0.1393890380859375,-1.6105233430862427,9.876819610595703,0.6982605457305908
3_20251106_150609,1762412735165,3,0.5848203301429749,0.5230986475944519,0.44898733496665955,0.42750829458236694,0.7674567699432373,1.9354407787322998,-1.5923666954040527,-1.610749363899231,10.314567565917969,1.581017255783081,-1.3903051614761353,-0.04190531745553017,0.109848752617836,27.42644691467285,-16.970481872558594,-12.311105728149414,-0.00018084049224853516,0.35019874572753906,0.7062053680419922,-1.6105685234069824,9.96436882019043,0.8748118877410889
3_20251106_150609,1762412735186,3,0.5917602777481079,0.5167416930198669,0.4423670768737793,0.4325611889362335,0.750809371471405,1.9517444372177124,-1.5610984563827515,-1.522167682647705,10.513278007507324,2.114901304244995,-1.4599438905715942,-0.05595520883798599,0.026160283014178276,27.343210220336914,-16.547317504882812,-12.644452095031738,0.07072067260742188,0.43912792205810547,0.9920715093612671,-1.592888355255127,10.074150085449219,1.122829794883728
3_20251106_150609,1762412735204,3,0.5993313789367676,0.5095589756965637,0.435157835483551,0.4379374086856842,0.735387921333313,1.9673250913619995,-1.5292932987213135,-1.7376365661621094,10.389982223510742,2.429725408554077,-1.4611655473709106,0.022235477343201637,-0.10028871893882751,27.24355697631836,-16.200294494628906,-12.979872703552246,-0.11579859256744385,0.25266551971435547,1.0455164909362793,-1.6218379735946655,10.137316703796387,1.3842089176177979
3_20251106_150609,1762412735222,3,0.6074486970901489,0.5014714002609253,0.4283974766731262,0.4427280128002167,0.7207165360450745,1.981468677520752,-1.498203158378601,-1.9435290098190308,10.186483383178711,2.385434627532959,-1.4336766004562378,0.10775654017925262,-0.12044724822044373,27.169784545898438,-15.826431274414062,-13.327300071716309,-0.25735270977020264,0.039333343505859375,0.8009805679321289,-1.6861763000488281,10.147150039672852,1.58445405960083
3_20251106_150609,1762412735241,3,0.6152644157409668,0.4924827814102173,0.42271339893341064,0.4474637508392334,0.7052195072174072,1.9957890510559082,-1.4640015363693237,-1.9722583293914795,10.197257041931152,2.6870908737182617,-1.4336766004562378,0.10775654017925262,-0.12044724822044373,27.07546043395996,-15.390968322753906,-13.714938163757324,-0.2288656234741211,0.0400848388671875,0.882109522819519,-1.7433927059173584,10.157172203063965,1.8049813508987427
3_20251106_150609,1762412735261,3,0.621887743473053,0.48314279317855835,0.4177092909812927,0.45315298438072205,0.6900201439857483,2.0118324756622314,-1.425957441329956,-1.6454638242721558,10.723958969116211,3.0689496994018555,-1.4013007879257202,0.0833219513297081,0.014553854241967201,26.856260299682617,-15.013946533203125,-14.081503868103027,0.07834315299987793,0.4534292221069336,1.0111746788024902,-1.7238069772720337,10.270529747009277,2.0577750205993652
3_20251106_150609,1762412735279,3,0.6282146573066711,0.4754641354084015,0.4109170138835907,0.45872369408607483,0.6781501173973083,2.026848316192627,-1.3921692371368408,-1.540123462677002,11.208763122558594,3.454399585723877,-1.3744226694107056,0.008796452544629574,0.22163698077201843,26.614788055419922,-14.612457275390625,-14.543136596679688,0.14694678783416748,0.7505865097045898,1.1172995567321777,-1.6870702505111694,10.458176612854004,2.337100028991699
3_20251106_150609,1762412735299,3,0.6339740753173828,0.46873733401298523,0.40306559205055237,0.4646507203578949,0.6647772192955017,2.0465128421783447,-1.3492153882980347,-1.7220749855041504,11.40627670288086,4.0445451736450195,-1.3554860353469849,0.0100181819871068,0.14894409477710724,26.355899810791016,-14.300064086914062,-14.966558456420898,-0.028003811836242676,0.7584800720214844,1.3659560680389404,-1.6940711736679077,10.647796630859375,2.678589105606079
3_20251106_150609,1762412735317,3,0.6398422122001648,0.4618381857872009,0.3952779769897461,0.47017309069633484,0.6513898968696594,2.0654444694519043,-1.3061665296554565,-2.1745595932006836,11.079483032226562,4.239663600921631,-1.3066167831420898,0.16395610570907593,-0.038591377437114716,26.124610900878906,-13.923698425292969,-15.34713077545166,-0.38439083099365234,0.3453493118286133,1.2488594055175781,-1.7901687622070312,10.73413372039795,2.9908041954040527
3_20251106_150609,1762412735337,3,0.6458719968795776,0.4538417160511017,0.3889668583869934,0.4749545454978943,0.6356622576713562,2.0833590030670166,-1.2598706483840942,-2.560009479522705,10.399558067321777,4.0589094161987305,-1.2809604406356812,0.3863108456134796,-0.11494946479797363,25.901193618774414,-13.610404968261719,-15.620402336120605,-0.6158726215362549,-0.26766014099121094,0.8544840812683105,-1.9441368579864502,10.667218208312988,3.20442533493042
3_20251106_150609,1762412735355,3,0.6515969038009644,0.4445364773273468,0.38475972414016724,0.4793420135974884,0.6208106279373169,2.09700870513916,-1.2176588773727417,-2.514521598815918,9.990167617797852,4.271984100341797,-1.2748517990112305,0.4748862087726593,0.017608176916837692,25.901193618774414,-13.610404968261719,-15.620402336120605,-0.45630788803100586,-0.5416402816772461,0.8540470600128174,-2.058213710784912,10.531807899475098,3.4179370403289795
3_20251106_150609,1762412735376,3,0.6563921570777893,0.4343560039997101,0.38167640566825867,0.484569251537323,0.6208106279373169,2.09700870513916,-1.2176588773727417,-2.514521598815918,9.990167617797852,4.271984100341797,-1.2748517990112305,0.4748862087726593,0.017608176916837692,25.694190979003906,-13.220970153808594,-15.891599655151367,-0.45630788803100586,-0.5416402816772461,0.8540470600128174,-2.058213710784912,10.531807899475098,3.4179370403289795
3_20251106_150609,1762412735396,3,0.6599658131599426,0.4250207245349884,0.3779381513595581,0.49088215827941895,0.5858592391014099,2.1170032024383545,-1.1182186603546143,-2.3780579566955566,9.364110946655273,4.69693660736084,-1.1679505109786987,0.4559493958950043,0.4898066222667694,25.432918548583984,-12.923423767089844,-16.085508346557617,-0.18880343437194824,-0.7863969802856445,0.8524601459503174,-2.1892545223236084,10.150507926940918,3.8444764614105225
3_20251106_150609,1762412735414,3,0.6620973944664001,0.41703110933303833,0.37324926257133484,0.4983944892883301,0.5716789364814758,2.1217947006225586,-1.0738542079925537,-2.0692193508148193,9.34256362915039,4.920784950256348,-1.1679505109786987,0.4559493958950043,0.4898066222667694,25.189376831054688,-12.737709045410156,-16.240262985229492,0.09602808952331543,-0.6463546752929688,0.8610467910766602,-2.1652474403381348,9.98891830444336,4.0597381591796875
3_20251106_150609,1762412735433,3,0.6630192399024963,0.4093352258205414,0.3684126138687134,0.5070722699165344,0.5583598613739014,2.1245439052581787,-1.0269581079483032,-1.8369916677474976,9.239617347717285,4.937543869018555,-1.1673396825790405,0.7479426860809326,0.5337888598442078,24.956315994262695,-12.57672119140625,-16.354507446289062,0.26260459423065186,-0.5994405746459961,0.702244758605957,-2.0995962619781494,9.839057922363281,4.235299110412598
3_20251106_150609,1762412735453,3,0.663178563117981,0.4008803963661194,0.36447498202323914,0.5163788199424744,0.5583598613739014,2.1245439052581787,-1.0269581079483032,-1.8369916677474976,9.239617347717285,4.937543869018555,-1.216208815574646,0.8493462800979614,0.48675230145454407,24.768882751464844,-12.463180541992188,-16.427295684814453,0.26260459423065186,-0.5994405746459961,0.702244758605957,-2.0995962619781494,9.839057922363281,4.235299110412598
3_20251106_150609,1762412735471,3,0.6631560921669006,0.3912251889705658,0.3614563047885895,0.5258480906486511,0.5364267826080322,2.1251180171966553,-0.9316117763519287,-1.6275080442428589,9.366504669189453,5.673728942871094,-1.2363673448562622,0.8676722049713135,0.535010576248169,24.615299224853516,-12.3857421875,-16.41830825805664,0.32607734203338623,-0.27619457244873047,1.002760887145996,-1.9535853862762451,9.642699241638184,4.670968055725098
3_20251106_150609,1762412735490,3,0.6629504561424255,0.38097327947616577,0.35850322246551514,0.535566508769989,0.5289731621742249,2.124331474304199,-0.8851971626281738,-1.2923341989517212,9.396430969238281,5.952641487121582,-1.2363673448562622,0.8676722049713135,0.535010576248169,24.484085083007812,-12.3326416015625,-16.327770233154297,0.529000997543335,-0.19701480865478516,1.0253386497497559,-1.8213351964950562,9.593445777893066,4.927302837371826
3_20251106_150609,1762412735509,3,0.6621388792991638,0.37099897861480713,0.35530149936676025,0.5456122159957886,0.5237798690795898,2.123164176940918,-0.8327521681785583,-0.9415987730026245,9.48261833190918,6.062769889831543,-1.1233574151992798,0.827355146408081,0.6303054690361023,24.3595027923584,-12.390678405761719,-16.347246170043945,0.7037891149520874,-0.08866214752197266,0.9083738327026367,-1.645387887954712,9.571280479431152,5.154396057128906
3_20251106_150609,1762412735527,3,0.6605883836746216,0.3616487979888916,0.3520874083042145,0.555758535861969,0.5218536853790283,2.1221866607666016,-0.7849527597427368,-0.6243807077407837,9.57957935333252,6.3560471534729,-1.1233574151992798,0.827355146408081,0.6303054690361023,24.19193458557129,-12.552635192871094,-16.262174606323242,0.8168057203292847,0.0066394805908203125,0.9613208770751953,-1.4411864280700684,9.5729398727417,5.394726276397705
3_20251106_150609,1762412735547,3,0.6590479612350464,0.35238924622535706,0.348984032869339,0.5654093623161316,0.5223145484924316,2.120680093765259,-0.7326089143753052,-0.6207895278930664,9.416780471801758,6.016084671020508,-1.0738773345947266,0.9287586808204651,0.3719097077846527,24.06081199645996,-12.723953247070312,-16.256994247436523,0.6563175916671753,-0.12492752075195312,0.4970865249633789,-1.2771071195602417,9.541707992553711,5.518998146057129
3_20251106_150609,1762412735567,3,0.6576804518699646,0.3424099385738373,0.34693974256515503,0.5743210315704346,0.5239797234535217,2.1176609992980957,-0.6812765002250671,-0.8733670115470886,9.019359588623047,6.047207832336426,-1.1233574151992798,0.9397542476654053,0.263786643743515,23.990633010864258,-12.879692077636719,-16.154483795166016,0.32299214601516724,-0.4178791046142578,0.42256736755371094,-1.1963591575622559,9.437238693237305,5.624640464782715
3_20251106_150609,1762412735587,3,0.6570230722427368,0.33178943395614624,0.34540829062461853,0.5821765661239624,0.5257330536842346,2.1129837036132812,-0.6356098651885986,-1.0625007152557373,8.586029052734375,6.346470832824707,-1.1502354145050049,0.9409759640693665,0.2491258978843689,23.93204689025879,-13.035438537597656,-15.970385551452637,0.10708677768707275,-0.6809673309326172,0.5774641036987305,-1.16958749294281,9.266996383666992,5.769006729125977
3_20251106_150609,1762412735605,3,0.6566652059555054,0.32050076127052307,0.3438282310962677,0.5897899866104126,0.5257330536842346,2.1129837036132812,-0.6356098651885986,-1.0625007152557373,8.586029052734375,6.346470832824707,-1.1526788473129272,0.936089038848877,0.2949407696723938,23.851993560791016,-13.154029846191406,-15.894606590270996,0.10708677768707275,-0.6809673309326172,0.5774641036987305,-1.16958749294281,9.266996383666992,5.769006729125977
3_20251106_150609,1762412735624,3,0.6560294032096863,0.3092004358768463,0.34217044711112976,0.597444474697113,0.5291734337806702,2.0951626300811768,-0.5377075672149658,-1.0469391345977783,8.224519729614258,6.782196521759033,-1.306005835533142,0.9983972311019897,0.33892303705215454,23.77083969116211,-13.285713195800781,-15.765026092529297,0.10779881477355957,-0.6692914962768555,0.710113525390625,-1.154737949371338,8.893811225891113,6.072082996368408
3_20251106_150609,1762412735643,3,0.6552013754844666,0.2974261939525604,0.33999118208885193,0.6055202484130859,0.5327633023262024,2.0850417613983154,-0.48864614963531494,-0.4759465754032135,8.534555435180664,7.480076313018799,-1.4501699209213257,1.0820857286453247,0.32731661200523376,23.628137588500977,-13.445404052734375,-15.74655532836914,0.5430331230163574,-0.28740406036376953,1.1263947486877441,-1.0189796686172485,8.821959495544434,6.353681564331055
3_20251106_150609,1762412735661,3,0.6542598009109497,0.28396716713905334,0.33717936277389526,0.6145053505897522,0.5384868383407593,2.0758914947509766,-0.4418056607246399,-0.006703227758407593,8.80508804321289,7.444165229797363,-1.439785361289978,1.1535569429397583,0.2692844569683075,23.60005760192871,-13.498435974121094,-15.626945495605469,0.8098211288452148,-0.013497352600097656,0.8723869323730469,-0.8165243864059448,8.818585395812988,6.571778297424316
3_20251106_150609,1762412735680,3,0.6531872153282166,0.2693862020969391,0.334513783454895,0.6236009001731873,0.545817494392395,2.066373348236084,-0.39366987347602844,-0.23653671145439148,8.69376277923584,6.996468544006348,-1.439785361289978,1.1535569429397583,0.2692844569683075,23.6470947265625,-13.520774841308594,-15.584962844848633,0.46399012207984924,-0.09985828399658203,0.339752197265625,-0.7005268335342407,8.793621063232422,6.656716346740723
3_20251106_150609,1762412735700,3,0.6513702869415283,0.2548579275608063,0.33235132694244385,0.6326979994773865,0.5531249046325684,2.056849956512451,-0.3445048928260803,-0.7081742286682129,8.79192066192627,6.9952712059021,-1.3512098789215088,1.0851401090621948,0.3303709328174591,23.671974182128906,-13.50689697265625,-15.556685447692871,-0.0061179399490356445,-0.0013599395751953125,0.2708439826965332,-0.7020562887191772,8.793280601501465,6.724427223205566
3_20251106_150609,1762412735718,3,0.6491228938102722,0.24273203313350677,0.3292931616306305,0.641316294670105,0.5579605102539062,2.0487306118011475,-0.3005314767360687,-1.2755755186080933,8.802694320678711,7.511199474334717,-1.1563440561294556,0.8566766381263733,0.6309162974357605,23.663312911987305,-13.444908142089844,-15.555856704711914,-0.45881539583206177,0.007531166076660156,0.629417896270752,-0.8167601227760315,8.79516315460205,6.881781578063965
3_20251106_150609,1762412735738,3,0.6459011435508728,0.23252418637275696,0.32567137479782104,0.6501402854919434,0.559821367263794,2.0397064685821533,-0.25074970722198486,-1.8836766481399536,8.645880699157715,7.9888224601745605,-1.1038097143173218,0.9880125522613525,0.573495090007782,23.725034713745117,-13.439857482910156,-15.661534309387207,-0.8535332679748535,-0.11942577362060547,0.8856325149536133,-1.0301433801651,8.76530647277832,7.103189945220947
3_20251106_150609,1762412735757,3,0.6423332691192627,0.22250996530056,0.3227064609527588,0.6586029529571533,0.559821367263794,2.0397064685821533,-0.25074970722198486,-1.8836766481399536,8.645880699157715,7.9888224601745605,-1.1038097143173218,0.9880125522613525,0.573495090007782,23.810041427612305,-13.434700012207031,-15.617552757263184,-0.8535332679748535,-0.11942577362060547,0.8856325149536133,-1.0301433801651,8.76530647277832,7.103189945220947
3_20251106_150609,1762412735778,3,0.6384760737419128,0.21070612967014313,0.32135099172592163,0.6668468713760376,0.5547066926956177,2.0220541954040527,-0.1524178385734558,-2.0345048904418945,8.504629135131836,8.580164909362793,-0.9407087564468384,1.4412741661071777,0.7066635489463806,23.921323776245117,-13.402168273925781,-15.639642715454102,-0.6194250583648682,-0.17411136627197266,0.9649910926818848,-1.4150798320770264,8.678740501403809,7.615173816680908
3_20251106_150609,1762412735796,3,0.6332487463951111,0.1975565254688263,0.3218015134334564,0.6755821108818054,0.5499162673950195,2.0134105682373047,-0.10068119317293167,-1.815444827079773,8.760797500610352,8.340755462646484,-0.9407087564468384,1.4412741661071777,0.7066635489463806,23.921323776245117,-13.402168273925781,-15.639642715454102,-0.32029199600219727,0.06564521789550781,0.5804653167724609,-1.4951528310775757,8.695152282714844,7.760290145874023
3_20251106_150609,1762412735815,3,0.6252425909042358,0.18656450510025024,0.3234752118587494,0.6852949261665344,0.5458406209945679,2.0072872638702393,-0.05173617601394653,-1.40485680103302,9.306652069091797,8.581361770629883,-0.5008862018585205,1.2360236644744873,1.2680482864379883,24.063833236694336,-13.4556884765625,-15.608044624328613,0.07223689556121826,0.4891996383666992,0.6568570137023926,-1.4770936965942383,8.817452430725098,7.92450475692749
3_20251106_150609,1762412735835,3,0.6150331497192383,0.1788545697927475,0.32508087158203125,0.6957497596740723,0.5425959825515747,2.0038082599639893,0.0003447011113166809,-1.2037526369094849,9.687313079833984,8.956038475036621,-0.5008862018585205,1.2360236644744873,1.2680482864379883,24.211803436279297,-13.610359191894531,-15.429388999938965,0.21867287158966064,0.6958885192871094,0.8252267837524414,-1.4224255084991455,8.991424560546875,8.13081169128418
3_20251106_150609,1762412735853,3,0.6041551828384399,0.17258743941783905,0.32730117440223694,0.7057507038116455,0.5399740934371948,2.0023114681243896,0.04668186604976654,-1.3605661392211914,9.59154987335205,8.865062713623047,-0.20156246423721313,1.376522421836853,0.7408719658851624,24.54901885986328,-14.9833984375,-14.355830192565918,0.04948747158050537,0.4801006317138672,0.5874004364013672,-1.4100536108016968,9.111449241638184,8.27766227722168
3_20251106_150609,1762412735872,3,0.5945760607719421,0.16592933237552643,0.331377238035202,0.7135376334190369,0.5365545749664307,2.000971794128418,0.09488742053508759,-1.698133945465088,9.170188903808594,8.911746978759766,-0.12948042154312134,1.5048041343688965,0.4329961836338043,24.701644897460938,-15.251907348632812,-14.016863822937012,-0.23046422004699707,0.04699230194091797,0.507267951965332,-1.4676697254180908,9.123196601867676,8.404479026794434
3_20251106_150609,1762412735891,3,0.5867586135864258,0.15739747881889343,0.3375135660171509,0.7190444469451904,0.5315702557563782,1.9988722801208496,0.14206130802631378,-2.100342273712158,8.821846008300781,8.906959533691406,-0.0005879588425159454,1.53840172290802,0.3731314539909363,24.859420776367188,-15.633575439453125,-13.585168838500977,-0.5061380863189697,-0.24108028411865234,0.40198421478271484,-1.5942041873931885,9.062926292419434,8.504975318908691
3_20251106_150609,1762412735910,3,0.5797210931777954,0.14817678928375244,0.3449000418186188,0.7231950163841248,0.5250129699707031,1.995493769645691,0.18760497868061066,-2.2583532333374023,8.558496475219727,8.770496368408203,0.1820605844259262,1.5762752294540405,0.5026347637176514,25.08942413330078,-16.011695861816406,-13.028885841369629,-0.531319260597229,-0.40354347229003906,0.2124166488647461,-1.7270339727401733,8.962039947509766,8.558079719543457
3_20251106_150609,1762412735930,3,0.5718075633049011,0.13966937363147736,0.35337984561920166,0.7270841002464294,0.5250129699707031,1.995493769645691,0.18760497868061066,-2.2583532333374023,8.558496475219727,8.770496368408203,0.3610439598560333,1.6385835409164429,0.7115504741668701,25.328102111816406,-16.44019317626953,-12.37855339050293,-0.531319260597229,-0.40354347229003906,0.2124166488647461,-1.7270339727401733,8.962039947509766,8.558079719543457
3_20251106_150609,1762412735948,3,0.5620191097259521,0.13226427137851715,0.36312997341156006,0.7312846779823303,0.5171664953231812,1.9894872903823853,0.23715899884700775,-1.899238109588623,8.339436531066895,8.410183906555176,0.5021536946296692,1.6281987428665161,0.8599905967712402,25.625720977783203,-16.8790283203125,-11.550320625305176,-0.13776326179504395,-0.49808216094970703,-0.118316650390625,-1.761474847793579,8.837518692016602,8.5285005569458
3_20251106_150609,1762412735968,3,0.5503585934638977,0.1261947602033615,0.3737991750240326,0.7358359098434448,0.5120843648910522,1.9836333990097046,0.2740287482738495,-1.3485956192016602,8.356195449829102,7.859540939331055,0.5540771484375,1.5946012735366821,0.8489950299263,25.922142028808594,-17.331092834472656,-10.65477180480957,0.330303430557251,-0.3850584030151367,-0.5351676940917969,-1.6788990497589111,8.741253852844238,8.394708633422852
3_20251106_150609,1762412735988,3,0.53800368309021,0.12118943780660629,0.3847157061100006,0.7401749491691589,0.5091832280158997,1.9763164520263672,0.310526579618454,-0.8685787320137024,8.366968154907227,7.598584175109863,0.5540771484375,1.5946012735366821,0.8489950299263,26.166305541992188,-17.837501525878906,-9.667625427246094,0.648256242275238,-0.29942893981933594,-0.6368989944458008,-1.5168349742889404,8.666397094726562,8.235483169555664
3_20251106_150609,1762412736006,3,0.526141881942749,0.11637945473194122,0.3956890404224396,0.7436805367469788,0.5104160308837891,1.9611701965332031,0.36445510387420654,-0.6662774682044983,7.897724628448486,7.265804767608643,0.5950050950050354,1.5726101398468018,0.7017766833305359,26.37926483154297,-18.234634399414062,-8.544412612915039,0.5324819684028625,-0.5515151023864746,-0.6510472297668457,-1.1987594366073608,8.449239730834961,7.916851997375488
3_20251106_150609,1762412736025,3,0.5152990221977234,0.11121174693107605,0.4068971872329712,0.7460117340087891,0.5104160308837891,1.9611701965332031,0.36445510387420654,-0.6662774682044983,7.897724628448486,7.265804767608643,0.6316570043563843,1.5310713052749634,0.4238332211971283,26.601001739501953,-18.6820068359375,-7.340667724609375,0.5324819684028625,-0.5515151023864746,-0.6510472297668457,-1.1987594366073608,8.449239730834961,7.916851997375488
3_20251106_150609,1762412736045,3,0.5055255889892578,0.10569844394922256,0.41814693808555603,0.7472783327102661,0.516293466091156,1.9338244199752808,0.408150851726532,-0.8889286518096924,6.967617034912109,6.515254497528076,0.6218831539154053,1.4785369634628296,0.46170684695243835,26.824848175048828,-19.091705322265625,-6.1361308097839355,0.18967294692993164,-1.016230583190918,-0.9517993927001953,-1.078601598739624,7.983847618103027,7.4670538902282715
3_20251106_150609,1762412736063,3,0.49585020542144775,0.10017204284667969,0.42903807759284973,0.748347818851471,0.5197857022285461,1.9178051948547363,0.4210691750049591,-0.7788000106811523,6.77130126953125,5.9765825271606445,0.6249374747276306,1.4143961668014526,0.544784426689148,26.935230255126953,-19.54851531982422,-4.707022666931152,0.23984122276306152,-0.9700374603271484,-1.1923770904541016,-1.0186412334442139,7.741338729858398,7.168959617614746
3_20251106_150609,1762412736082,3,0.48576217889785767,0.09523054957389832,0.4394782483577728,0.749549925327301,0.5242543816566467,1.89892578125,0.4300130009651184,-0.6662774682044983,6.7150397300720215,5.70724630355835,0.5925616025924683,1.2916122674942017,0.5899884104728699,26.972999572753906,-19.997802734375,-3.253561019897461,0.28189098834991455,-0.8210391998291016,-1.1693711280822754,-0.9481684565544128,7.536078929901123,6.876617431640625
3_20251106_150609,1762412736101,3,0.4752291440963745,0.09106497466564178,0.44929423928260803,0.7509987354278564,0.5290529727935791,1.878957748413086,0.43497294187545776,-0.7464797496795654,6.7952423095703125,5.587541103363037,0.5217013359069824,1.1523351669311523,0.572273313999176,26.951942443847656,-20.425003051757812,-1.896636962890625,0.16135096549987793,-0.5926694869995117,-1.0312609672546387,-0.9078307151794434,7.387911796569824,6.618802070617676
3_20251106_150609,1762412736120,3,0.46521544456481934,0.08774800598621368,0.45796287059783936,0.752426028251648,0.5335550904273987,1.8587003946304321,0.4364679753780365,-0.9284312725067139,6.9185380935668945,5.4462890625,0.43740203976631165,1.0643706321716309,0.48247626423835754,26.883960723876953,-20.818115234375,-0.5003347396850586,-0.016480445861816406,-0.37549877166748047,-0.9380102157592773,-0.9119508266448975,7.294036865234375,6.384299278259277
3_20251106_150609,1762412736139,3,0.456145316362381,0.08476953953504562,0.46549805998802185,0.7536956667900085,0.5335550904273987,1.8587003946304321,0.4364679753780365,-0.9284312725067139,6.9185380935668945,5.4462890625,0.33355504274368286,1.0753661394119263,0.3352578580379486,26.75140380859375,-21.07678985595703,0.7877979278564453,-0.016480445861816406,-0.37549877166748047,-0.9380102157592773,-0.9119508266448975,7.294036865234375,6.384299278259277
3_20251106_150609,1762412736158,3,0.4482216536998749,0.08111654967069626,0.472240149974823,0.7546566724777222,0.5403282046318054,1.8174328804016113,0.4302580952644348,-1.2205113172531128,6.710251808166504,5.079992294311523,0.21016037464141846,1.1541677713394165,0.16910263895988464,26.578964233398438,-21.400360107421875,2.046107292175293,-0.22027051448822021,-0.3983287811279297,-0.8650178909301758,-1.0002408027648926,7.108580589294434,5.945010185241699
3_20251106_150609,1762412736178,3,0.4411284625530243,0.0758172795176506,0.47848212718963623,0.7554550170898438,0.5418977737426758,1.7953640222549438,0.42239031195640564,-1.4407683610916138,6.671946048736572,4.8429765701293945,0.035453058779239655,1.2555712461471558,0.004780018702149391,26.389301300048828,-21.599815368652344,3.2925586700439453,-0.3524221181869507,-0.3493075370788574,-0.881627082824707,-1.088346242904663,7.02125358581543,5.724603652954102
3_20251106_150609,1762412736196,3,0.4348134696483612,0.0683164969086647,0.48418357968330383,0.7561986446380615,0.5422923564910889,1.7755407094955444,0.4141261577606201,-1.4730887413024902,6.633640289306641,5.100341796875,-0.11359792947769165,1.2146433591842651,-0.06241510435938835,26.191566467285156,-21.736473083496094,4.458742141723633,-0.3077939748764038,-0.3100905418395996,-0.49940919876098633,-1.1652947664260864,6.94373083114624,5.599750995635986
3_20251106_150609,1762412736216,3,0.42922917008399963,0.059014350175857544,0.4887884855270386,0.7572090029716492,0.5418422818183899,1.753440499305725,0.40377551317214966,-1.4503446817398071,6.5570292472839355,5.0644307136535645,-0.05800923705101013,1.0081710815429688,0.032879795879125595,26.191566467285156,-21.736473083496094,4.458742141723633,-0.22803986072540283,-0.30936098098754883,-0.4282560348510742,-1.2223048210144043,6.866390228271484,5.492686748504639
3_20251106_150609,1762412736235,3,0.42408496141433716,0.050449881702661514,0.4923994839191437,0.7583861351013184,0.5404626727104187,1.7340189218521118,0.3928159475326538,-1.6263110637664795,6.652792930603027,4.635887145996094,0.07638099789619446,0.7015169858932495,0.20331105589866638,26.02190399169922,-21.831710815429688,5.410438537597656,-0.32320499420166016,-0.17087745666503906,-0.6854395866394043,-1.3031060695648193,6.823670387268066,5.321326732635498
3_20251106_150609,1762412736255,3,0.4191246032714844,0.045109257102012634,0.4956740736961365,0.7593463659286499,0.5371522307395935,1.7129677534103394,0.37792643904685974,-1.8345977067947388,6.96522331237793,4.50301456451416,0.07210494577884674,0.41563233733177185,0.3468642830848694,25.913352966308594,-21.934326171875,6.24267578125,-0.42519330978393555,0.11324262619018555,-0.6546497344970703,-1.4094043970108032,6.851980686187744,5.1576642990112305
3_20251106_150609,1762412736273,3,0.4143230617046356,0.043102867901325226,0.49821731448173523,0.760432779788971,0.5371522307395935,1.7129677534103394,0.37792643904685974,-1.8345977067947388,6.96522331237793,4.50301456451416,-0.01891389861702919,0.2525314688682556,0.37007713317871094,25.745986938476562,-22.00323486328125,7.073253631591797,-0.42519330978393555,0.11324262619018555,-0.6546497344970703,-1.4094043970108032,6.851980686187744,5.1576642990112305
3_20251106_150609,1762412736293,3,0.4099808931350708,0.04294287785887718,0.4993788003921509,0.7620317339897156,0.5264337062835693,1.6815528869628906,0.3510933518409729,-2.26194429397583,7.56015682220459,5.1242828369140625,-0.06045269966125488,0.21099267899990082,0.27600395679473877,25.557239532470703,-22.046463012695312,7.687116622924805,-0.5868039131164551,0.4990081787109375,0.028049945831298828,-1.675140380859375,7.061148643493652,5.096232891082764
3_20251106_150609,1762412736311,3,0.4064696729183197,0.042979151010513306,0.49963340163230896,0.7637418508529663,0.5188870429992676,1.6701604127883911,0.33925679326057434,-2.4582602977752686,7.701408386230469,5.04288387298584,-0.04090502858161926,0.23664900660514832,0.15810705721378326,25.406051635742188,-22.07434844970703,8.262166976928711,-0.6264959573745728,0.5122079849243164,-0.0426793098449707,-1.8317643404006958,7.189200401306152,5.0855631828308105
3_20251106_150609,1762412736330,3,0.40372946858406067,0.0423109196126461,0.499870240688324,0.7650765180587769,0.5091539025306702,1.6598920822143555,0.3263145387172699,-2.621058940887451,7.6104326248168945,4.69454288482666,-0.008529199287295341,0.20366230607032776,0.08358156681060791,25.314865112304688,-22.134315490722656,8.676681518554688,-0.6314356327056885,0.33698558807373047,-0.31281614303588867,-1.9896233081817627,7.273447036743164,5.007359027862549
3_20251106_150609,1762412736350,3,0.4016675055027008,0.04117051884531975,0.5004433393478394,0.7658489942550659,0.496864378452301,1.650084137916565,0.31233400106430054,-2.83054256439209,7.42488956451416,4.665813446044922,-0.024411682039499283,0.12852594256401062,0.089079350233078,25.20745086669922,-22.281761169433594,8.967212677001953,-0.6727354526519775,0.1211543083190918,-0.2732367515563965,-2.1578071117401123,7.303735256195068,4.939050197601318
3_20251106_150609,1762412736369,3,0.40021151304244995,0.040424644947052,0.500910222530365,0.7663455605506897,0.48363178968429565,1.6414761543273926,0.2986220717430115,-2.938277006149292,7.392569541931152,4.540122985839844,-0.06595048308372498,0.10286962240934372,0.12634210288524628,25.099834442138672,-22.429473876953125,9.28477668762207,-0.6243758201599121,0.07106733322143555,-0.31914186477661133,-2.31390118598938,7.321502208709717,4.859264850616455
3_20251106_150609,1762412736387,3,0.3987419009208679,0.03996310010552406,0.5009278059005737,0.7671239972114563,0.47028225660324097,1.6342164278030396,0.28556621074676514,-2.8987746238708496,7.51945686340332,4.568852424621582,-0.1160413920879364,0.08087849617004395,0.1403919756412506,24.944564819335938,-22.578887939453125,9.451700210571289,-0.4678988456726074,0.15836334228515625,-0.2323298454284668,-2.430875778198242,7.361093521118164,4.801182270050049
3_20251106_150609,1762412736408,3,0.397147536277771,0.03953266143798828,0.500591516494751,0.7681921124458313,0.453850120306015,1.6276477575302124,0.2706422507762909,-2.919124126434326,7.8019609451293945,4.665813446044922,-0.1160413920879364,0.08087849617004395,0.1403919756412506,24.80449676513672,-22.677001953125,9.593135833740234,-0.39059877395629883,0.3526935577392578,-0.10829496383666992,-2.5285253524780273,7.449267387390137,4.774108409881592
3_20251106_150609,1762412736427,3,0.3956921696662903,0.03906380757689476,0.4996955394744873,0.7695493102073669,0.43813902139663696,1.6238595247268677,0.25795772671699524,-3.1070609092712402,8.126361846923828,4.8262176513671875,-0.18140392005443573,0.05094611644744873,0.12817469239234924,24.615867614746094,-22.789642333984375,9.610700607299805,-0.4628286361694336,0.5416755676269531,0.0416874885559082,-2.6442322731018066,7.584686279296875,4.784530162811279
3_20251106_150609,1762412736446,3,0.39467281103134155,0.03866226226091385,0.49833202362060547,0.7709758877754211,0.42148059606552124,1.622078537940979,0.24655713140964508,-3.2758450508117676,8.247262954711914,5.021337509155273,-0.17346268892288208,-0.0009773832280188799,0.06159043684601784,24.536026000976562,-22.896347045898438,9.754325866699219,-0.5052902698516846,0.5300617218017578,0.18944597244262695,-2.770554780960083,7.717201232910156,4.8318915367126465
3_20251106_150609,1762412736465,3,0.39402639865875244,0.03837001696228981,0.4969129264354706,0.7722360491752625,0.42148059606552124,1.622078537940979,0.24655713140964508,-3.2758450508117676,8.247262954711914,5.021337509155273,-0.1111544668674469,0.03750709071755409,0.04204276576638222,24.492321014404297,-23.024436950683594,9.763731002807617,-0.5052902698516846,0.5300617218017578,0.18944597244262695,-2.770554780960083,7.717201232910156,4.8318915367126465
3_20251106_150609,1762412736484,3,0.39344581961631775,0.03787149488925934,0.4959309995174408,0.7731872797012329,0.3862905502319336,1.6216731071472168,0.22592322528362274,-3.2734508514404297,8.066508293151855,4.744818210601807,-0.1111544668674469,0.03750709071755409,0.04204276576638222,24.40521240234375,-23.055648803710938,9.813835144042969,-0.30748891830444336,0.21608734130859375,-0.09230852127075195,-2.9659619331359863,7.850420951843262,4.837126731872559
3_20251106_150609,1762412736502,3,0.39262688159942627,0.037191081792116165,0.4955368936061859,0.7738889455795288,0.3702206611633301,1.6226305961608887,0.2165684849023819,-3.0376319885253906,8.173046112060547,4.766365051269531,-0.10015890747308731,0.07415898144245148,0.10374011099338531,24.308528900146484,-23.04930877685547,9.796659469604492,-0.05733609199523926,0.2581000328063965,-0.056609153747558594,-2.9802958965301514,7.91494607925415,4.82297420501709
3_20251106_150609,1762412736522,3,0.39141643047332764,0.03643376752734184,0.495229572057724,0.7747344374656677,0.35376784205436707,1.6254230737686157,0.2075044810771942,-2.812586784362793,8.50103759765625,5.089569091796875,-0.07572431862354279,-0.032742347568273544,0.10068577527999878,24.232479095458984,-23.116050720214844,9.711299896240234,0.13416743278503418,0.4688730239868164,0.21327590942382812,-2.946754217147827,8.032164573669434,4.876293182373047
3_20251106_150609,1762412736541,3,0.39049917459487915,0.03648412972688675,0.49467307329177856,0.7755500078201294,0.3392084538936615,1.6298799514770508,0.2003592997789383,-2.8413162231445312,8.738054275512695,5.253564357757568,-0.01891389861702919,-0.15674787759780884,0.010888664051890373,24.209518432617188,-23.092529296875,9.710845947265625,0.0843505859375,0.5647115707397461,0.3018169403076172,-2.9256668090820312,8.17334270477295,4.951747417449951
3_20251106_150609,1762412736559,3,0.39038076996803284,0.03742656111717224,0.49397507309913635,0.7760095000267029,0.32564064860343933,1.6349132061004639,0.1944478154182434,-3.114243507385254,8.588422775268555,5.162588596343994,0.004909824579954147,-0.20867139101028442,-0.13999491930007935,24.13437271118164,-23.146446228027344,9.598716735839844,-0.15086126327514648,0.3320636749267578,0.16867303848266602,-2.9633822441101074,8.256359100341797,4.993915557861328
3_20251106_150609,1762412736579,3,0.3916417360305786,0.03874059021472931,0.49328938126564026,0.7757457494735718,0.30977603793144226,1.6406205892562866,0.18793101608753204,-3.470963954925537,8.38612174987793,4.902829170227051,-0.030520329251885414,-0.15002837777137756,-0.27805033326148987,24.170421600341797,-23.156349182128906,9.572891235351562,-0.4060654640197754,0.10381031036376953,-0.07286930084228516,-3.0648984909057617,8.28231143951416,4.975698471069336
3_20251106_150609,1762412736599,3,0.394013375043869,0.03920364007353783,0.4926372766494751,0.7749355435371399,0.29352638125419617,1.6452910900115967,0.18146871030330658,-3.769029378890991,8.107208251953125,4.763971328735352,-0.05128972977399826,-0.09749400615692139,-0.3489106595516205,24.196487426757812,-23.140853881835938,9.438972473144531,-0.5633046627044678,-0.14008235931396484,-0.16938161849975586,-3.2057247161865234,8.24729061126709,4.933352947235107
3_20251106_150609,1762412736618,3,0.39680105447769165,0.03830592706799507,0.4920388460159302,0.7739375829696655,0.2748473882675171,1.6484912633895874,0.1746843457221985,-4.004848003387451,7.763654708862305,4.827414512634277,-0.007307469844818115,-0.09932659566402435,-0.29454368352890015,24.201000213623047,-23.07672119140625,9.305130004882812,-0.639298677444458,-0.38690853118896484,-0.08475065231323242,-3.365549325942993,8.15056324005127,4.91216516494751
3_20251106_150609,1762412736638,3,0.3996080160140991,0.03717334568500519,0.4916566014289856,0.7727906107902527,0.2748473882675171,1.6484912633895874,0.1746843457221985,-4.004848003387451,7.763654708862305,4.827414512634277,0.05622246861457825,-0.0968831405043602,-0.13938406109809875,24.201000213623047,-23.07672119140625,9.305130004882812,-0.639298677444458,-0.38690853118896484,-0.08475065231323242,-3.365549325942993,8.15056324005127,4.91216516494751
3_20251106_150609,1762412736656,3,0.4015391170978546,0.03675900027155876,0.49164971709251404,0.7718132138252258,0.23756703734397888,1.6503294706344604,0.1617264449596405,-3.962951421737671,7.739713668823242,4.771153450012207,0.06233111023902893,-0.05106829106807709,0.02493855357170105,24.256893157958984,-22.947837829589844,9.296215057373047,-0.3591625690460205,-0.24359989166259766,-0.08258628845214844,-3.6037888526916504,7.98331356048584,4.8537397384643555
3_20251106_150609,1762412736674,3,0.4021299481391907,0.037052761763334274,0.49196019768714905,0.771293580532074,0.21914881467819214,1.650403618812561,0.1553519368171692,-3.6720683574676514,7.834280967712402,4.815444469451904,0.06233111023902893,-0.05106829106807709,0.02493855357170105,24.394153594970703,-22.888336181640625,9.248600006103516,-0.05462360382080078,-0.11922645568847656,-0.030636310577392578,-3.6174447536468506,7.953507423400879,4.846080780029297
3_20251106_150609,1762412736695,3,0.4014529883861542,0.037621889263391495,0.4923330247402191,0.7713807821273804,0.21914881467819214,1.650403618812561,0.1553519368171692,-3.6720683574676514,7.834280967712402,4.815444469451904,0.07088321447372437,0.0020769403781741858,0.16543743014335632,24.473106384277344,-22.78284454345703,9.226621627807617,-0.05462360382080078,-0.11922645568847656,-0.030636310577392578,-3.6174447536468506,7.953507423400879,4.846080780029297
3_20251106_150609,1762412736715,3,0.4002130925655365,0.03851797431707382,0.4928099513053894,0.771676242351532,0.18411898612976074,1.6506139039993286,0.1406458020210266,-3.3512589931488037,8.053340911865234,4.541319847106934,0.047670356929302216,0.00818558782339096,0.13122901320457458,24.48841094970703,-22.731414794921875,9.187618255615234,0.18242549896240234,0.08438730239868164,-0.2149658203125,-3.533684492111206,7.968953609466553,4.756285667419434
3_20251106_150609,1762412736732,3,0.39895138144493103,0.03934336453676224,0.4933379292488098,0.7719504833221436,0.18411898612976074,1.6506139039993286,0.1406458020210266,-3.3512589931488037,8.053340911865234,4.541319847106934,-0.009750928729772568,0.019181152805685997,0.089079350233078,24.54300308227539,-22.61589813232422,9.259536743164062,0.18242549896240234,0.08438730239868164,-0.2149658203125,-3.533684492111206,7.968953609466553,4.756285667419434
3_20251106_150609,1762412736751,3,0.39795875549316406,0.039771292358636856,0.4935903549194336,0.7722795009613037,0.1706123948097229,1.6513166427612305,0.1338661015033722,-3.379988193511963,8.162273406982422,4.568852424621582,-0.026855140924453735,0.024068070575594902,0.07930551469326019,24.58087158203125,-22.588531494140625,9.27505111694336,0.12295722961425781,0.15465545654296875,-0.1499466896057129,-3.5029454231262207,8.007617950439453,4.718799114227295
3_20251106_150609,1762412736769,3,0.39715084433555603,0.03981587663292885,0.4935932457447052,0.7726911306381226,0.14594505727291107,1.6536567211151123,0.12043904513120651,-3.4637818336486816,8.141922950744629,4.643069267272949,-0.008529199287295341,0.027122395113110542,0.10251837968826294,24.621051788330078,-22.523231506347656,9.264326095581055,0.02008533477783203,0.08250808715820312,-0.038507938385009766,-3.4838671684265137,8.059414863586426,4.681577205657959
3_20251106_150609,1762412736789,3,0.39628058671951294,0.039959944784641266,0.49363645911216736,0.7731028199195862,0.14594505727291107,1.6536567211151123,0.12043904513120651,-3.4637818336486816,8.141922950744629,4.643069267272949,0.0012446362525224686,0.06743946671485901,0.11290307343006134,24.610076904296875,-22.499183654785156,9.291397094726562,0.02008533477783203,0.08250808715820312,-0.038507938385009766,-3.4838671684265137,8.059414863586426,4.681577205657959
3_20251106_150609,1762412736808,3,0.3952443301677704,0.040174439549446106,0.4938601851463318,0.773479163646698,0.12175039947032928,1.6564613580703735,0.1064097061753273,-3.503284454345703,8.047355651855469,4.610749244689941,-0.029909463599324226,0.11630864441394806,0.09885318577289581,24.591449737548828,-22.613128662109375,9.302047729492188,-0.013193130493164062,-0.017293930053710938,-0.03996753692626953,-3.490091323852539,8.06464958190918,4.650716781616211
3_20251106_150609,1762412736827,3,0.3939770758152008,0.039896950125694275,0.49421775341033936,0.7739115953445435,0.11077769845724106,1.657379388809204,0.10012078285217285,-3.517648935317993,7.950394630432129,4.681374549865723,-0.05862010270357132,0.14929534494876862,0.10129664838314056,24.55298614501953,-22.64129638671875,9.367630004882812,-0.022046327590942383,-0.09140396118164062,0.024526119232177734,-3.495602607727051,8.04179859161377,4.656848430633545
3_20251106_150609,1762412736846,3,0.39256638288497925,0.03903179243206978,0.4951414167881012,0.7740821242332458,0.10044093430042267,1.658355474472046,0.09424972534179688,-3.4637818336486816,8.079675674438477,4.694542407989502,-0.06839394569396973,0.15845832228660583,0.12267690896987915,24.515033721923828,-22.657180786132812,9.460508346557617,0.025456666946411133,0.030302047729492188,0.030155181884765625,-3.4892385005950928,8.049373626708984,4.664387226104736
3_20251106_150609,1762412736866,3,0.3910387456417084,0.03787437453866005,0.4958117604255676,0.7744836211204529,0.0902179479598999,1.6595255136489868,0.08886699378490448,-3.4518113136291504,8.11319351196289,4.825020790100098,-0.06717221438884735,0.15296053886413574,0.14711150527000427,24.499927520751953,-22.708335876464844,9.472478866577148,0.029941797256469727,0.051055908203125,0.12850666046142578,-3.48175311088562,8.062137603759766,4.696514129638672
3_20251106_150609,1762412736886,3,0.3892921805381775,0.0368485189974308,0.49638229608535767,0.7750473618507385,0.08082639425992966,1.660868763923645,0.08444245904684067,-3.376397132873535,8.13833236694336,4.923178672790527,-0.06717221438884735,0.15296053886413574,0.14711150527000427,24.447166442871094,-22.77497100830078,9.536779403686523,0.08428478240966797,0.06095600128173828,0.18133163452148438,-3.460681915283203,8.077376365661621,4.741847038269043
3_20251106_150609,1762412736904,3,0.38731884956359863,0.03617114946246147,0.49697786569595337,0.7756859660148621,0.07318396866321564,1.6621613502502441,0.08080533891916275,-3.303377151489258,8.13593864440918,4.801079750061035,-0.004864010959863663,0.16762128472328186,0.2179718017578125,24.38311767578125,-22.829574584960938,9.573820114135742,0.12584400177001953,0.04685020446777344,0.04738616943359375,-3.4292211532592773,8.089088439941406,4.753693580627441
3_20251106_150609,1762412736923,3,0.38492441177368164,0.03567633777856827,0.49760663509368896,0.7764973044395447,0.06617101281881332,1.663490891456604,0.07712062448263168,-3.192051410675049,8.10122299194336,4.740030288696289,-0.0036422815173864365,0.20305144786834717,0.2332434207201004,24.319889068603516,-22.85987091064453,9.692485809326172,0.18973588943481445,0.009707450866699219,-0.010930538177490234,-3.3817873001098633,8.09151554107666,4.750960826873779
3_20251106_150609,1762412736942,3,0.382310688495636,0.03540552407503128,0.49849241971969604,0.7772324681282043,0.06051204353570938,1.6650958061218262,0.0737740769982338,-3.016085386276245,8.216139793395996,4.807065010070801,-0.029298599809408188,0.22931861877441406,0.24607157707214355,24.25072479248047,-22.99102783203125,9.849590301513672,0.29256153106689453,0.09969902038574219,0.04488325119018555,-3.3086469173431396,8.116440773010254,4.762181758880615
3_20251106_150609,1762412736961,3,0.3795156478881836,0.034963209182024,0.49944186210632324,0.7780123949050903,0.056365642696619034,1.6669893264770508,0.07106612622737885,-2.860468864440918,8.2508544921875,4.933952331542969,-0.029298599809408188,0.22931861877441406,0.24607157707214355,24.125961303710938,-23.0377197265625,9.952024459838867,0.35854244232177734,0.10753059387207031,0.13741636276245117,-3.2190113067626953,8.14332389831543,4.796535968780518
3_20251106_150609,1762412736980,3,0.3766755759716034,0.034821588546037674,0.5002505779266357,0.7788788676261902,0.05354819446802139,1.6689878702163696,0.06860785186290741,-2.810192823410034,8.216139793395996,4.838188171386719,0.04278343915939331,0.13096940517425537,0.24118465185165405,23.947925567626953,-23.16333770751953,10.091461181640625,0.3270547389984131,0.05825233459472656,0.03332185745239258,-3.1372475624084473,8.15788745880127,4.804866313934326
3_20251106_150609,1762412736999,3,0.37399962544441223,0.03546268492937088,0.5009494423866272,0.7796899080276489,0.051788631826639175,1.6710495948791504,0.06618984788656235,-2.8030104637145996,8.217336654663086,4.774744987487793,0.041561707854270935,0.10470221936702728,0.20880883932113647,23.79375457763672,-23.299652099609375,10.204582214355469,0.26738977432250977,0.04755973815917969,-0.024096965789794922,-3.0704002380371094,8.169776916503906,4.798841953277588
3_20251106_150609,1762412737019,3,0.3717496395111084,0.03666454553604126,0.5016700029373169,0.7802468538284302,0.05094018951058388,1.6733615398406982,0.06324735283851624,-2.7706899642944336,8.25205135345459,4.6263108253479,-0.0030314167961478233,0.1291368007659912,0.14772236347198486,23.60333251953125,-23.42633056640625,10.370561599731445,0.23976826667785645,0.06581974029541016,-0.13802480697631836,-3.01045823097229,8.18623161315918,4.764335632324219
3_20251106_150609,1762412737038,3,0.36976349353790283,0.03736972063779831,0.5022430419921875,0.7807883024215698,0.050907835364341736,1.675743579864502,0.06068927422165871,-2.7431581020355225,8.29394817352295,4.799882888793945,-0.04090502858161926,0.11264345794916153,0.0994640588760376,23.513912200927734,-23.4954833984375,10.446907043457031,0.21384024620056152,0.08617305755615234,0.02843761444091797,-2.956998348236084,8.207775115966797,4.771445274353027
3_20251106_150609,1762412737057,3,0.3682476282119751,0.037635426968336105,0.5026926398277283,0.781202495098114,0.05124703422188759,1.678265929222107,0.058760784566402435,-2.8221631050109863,8.302328109741211,4.954301834106445,-0.010361793451011181,0.06927206367254257,0.07991638779640198,23.513912200927734,-23.4954833984375,10.446907043457031,0.10786819458007812,0.07564258575439453,0.1462850570678711,-2.9300312995910645,8.226685523986816,4.808016777038574
3_20251106_150609,1762412737076,3,0.36705461144447327,0.037979211658239365,0.5029470324516296,0.7815834879875183,0.051507238298654556,1.6804295778274536,0.05700164660811424,-2.952641725540161,8.141922950744629,4.834597587585449,0.04278343915939331,0.06927206367254257,0.07136426866054535,23.388935089111328,-23.554061889648438,10.481494903564453,-0.018088340759277344,-0.06781005859375,0.02126455307006836,-2.934553384780884,8.209733009338379,4.813333034515381
