session_id,timestamp,label,quaternion_w,quaternion_x,quaternion_y,quaternion_z,position_x,position_y,position_z,accelerometer_x,accelerometer_y,accelerometer_z,gyroscope_x,gyroscope_y,gyroscope_z,magnetometer_x,magnetometer_y,magnetometer_z,linear_acceleration_x,linear_acceleration_y,linear_acceleration_z,gravity_x,gravity_y,gravity_z
6_20251106_151831,1762413473837,6,0.46860504150390625,0.4687837064266205,0.6369198560714722,0.3936803638935089,0.14947719871997833,1.8311903476715088,-1.8588789701461792,-2.3828461170196533,9.294681549072266,-2.490147590637207,0.0007635811343789101,0.0027336198836565018,-0.029863648116588593,36.24094772338867,-9.2059326171875,6.692964553833008,-0.14247345924377441,-0.02762603759765625,-0.031208038330078125,-2.240372657775879,9.322307586669922,-2.458939552307129
6_20251106_151831,1762413473856,6,0.4688592851161957,0.4685518145561218,0.637118935585022,0.39333149790763855,0.14708571135997772,1.8311997652053833,-1.8590620756149292,-2.354116916656494,9.252784729003906,-2.381216049194336,0.00870482251048088,-0.0033750273287296295,0.006788233295083046,36.24094772338867,-9.2059326171875,6.692964553833008,-0.06302833557128906,-0.051006317138671875,0.0629584789276123,-2.291088581085205,9.303791046142578,-2.4441745281219482
6_20251106_151831,1762413473876,6,0.4689711928367615,0.46829450130462646,0.6373180747032166,0.39318180084228516,0.1458657830953598,1.8309261798858643,-1.8587257862091064,-2.2834911346435547,9.242012023925781,-2.3417134284973145,0.03436113893985748,-0.02597702294588089,0.04405098408460617,36.31345748901367,-9.213584899902344,6.682126998901367,0.006078004837036133,-0.0494232177734375,0.08196878433227539,-2.289569139480591,9.291435241699219,-2.42368221282959
6_20251106_151831,1762413473895,6,0.4689871370792389,0.46838945150375366,0.6373025178909302,0.3930748999118805,0.14497524499893188,1.8306782245635986,-1.8582597970962524,-2.2128653526306152,9.29109001159668,-2.364457368850708,0.058795731514692307,-0.03330739587545395,0.0733724907040596,36.424442291259766,-9.18145751953125,6.700586318969727,0.06136298179626465,-0.0002765655517578125,0.04737973213195801,-2.27422833442688,9.291366577148438,-2.411837100982666
6_20251106_151831,1762413473913,6,0.4688953161239624,0.4688951373100281,0.6370518803596497,0.39298781752586365,0.14497524499893188,1.8306782245635986,-1.8582597970962524,-2.2128653526306152,9.29109001159668,-2.364457368850708,0.062460917979478836,-0.013148861937224865,0.08192459493875504,36.42333984375,-9.194557189941406,6.754386901855469,0.06136298179626465,-0.0002765655517578125,0.04737973213195801,-2.27422833442688,9.291366577148438,-2.411837100982666
6_20251106_151831,1762413473932,6,0.4685460031032562,0.4695734977722168,0.6367740631103516,0.39304471015930176,0.1453210562467575,1.8303263187408447,-1.8579332828521729,-1.8717060089111328,9.277922630310059,-2.518876791000366,0.061850059777498245,-0.0113162687048316,0.06054432690143585,36.31245422363281,-9.226547241210938,6.722412109375,0.28940796852111816,-0.015115737915039062,-0.07712435722351074,-2.161113977432251,9.293038368225098,-2.4417524337768555
6_20251106_151831,1762413473951,6,0.46802887320518494,0.4703073799610138,0.6365483999252319,0.39314892888069153,0.1470154970884323,1.8300963640213013,-1.858289122581482,-1.774744987487793,9.279119491577148,-2.58232045173645,0.061850059777498245,-0.0113162687048316,0.06054432690143585,36.30279541015625,-9.177520751953125,6.763526916503906,0.3090951442718506,-0.011135101318359375,-0.11245441436767578,-2.0838401317596436,9.290254592895508,-2.4698660373687744
6_20251106_151831,1762413473970,6,0.46750953793525696,0.47117486596107483,0.6363235712051392,0.39309215545654297,0.14944370090961456,1.8298671245574951,-1.8589619398117065,-1.7855185270309448,9.28630256652832,-2.5918967723846436,0.04535670578479767,-0.030863938853144646,-0.04085921496152878,36.32475280761719,-9.214004516601562,6.804264068603516,0.23865735530853271,-0.0031614303588867188,-0.09762454032897949,-2.0241758823394775,9.289463996887207,-2.494272232055664
6_20251106_151831,1762413473988,6,0.4670912027359009,0.4719063639640808,0.6362219452857971,0.39287638664245605,0.15189841389656067,1.8295409679412842,-1.85996413230896,-1.9147998094558716,9.240814208984375,-2.6553404331207275,0.005039634183049202,-0.0015424331650137901,-0.10866520553827286,36.298057556152344,-9.265144348144531,6.734645843505859,0.0875009298324585,-0.03892040252685547,-0.12885451316833496,-2.00230073928833,9.27973461151123,-2.5264859199523926
6_20251106_151831,1762413474009,6,0.46693992614746094,0.47213292121887207,0.6363258957862854,0.39261558651924133,0.1539440006017685,1.828849196434021,-1.8615156412124634,-2.181741714477539,9.165399551391602,-2.6888577938079834,-0.01695149578154087,0.00823140237480402,-0.14592796564102173,36.26390838623047,-9.229454040527344,6.693418502807617,-0.1435527801513672,-0.09146785736083984,-0.1298975944519043,-2.038188934326172,9.256867408752441,-2.558960199356079
6_20251106_151831,1762413474027,6,0.4670560956001282,0.4717499613761902,0.6366989612579346,0.3923328220844269,0.15487737953662872,1.8278753757476807,-1.8632985353469849,-2.370875835418701,9.129488945007324,-2.698434352874756,-0.026114467531442642,-0.0033750273287296295,-0.12027163058519363,36.24104690551758,-9.205795288085938,6.679449081420898,-0.26614952087402344,-0.10190296173095703,-0.11157917976379395,-2.1047263145446777,9.231391906738281,-2.586855173110962
6_20251106_151831,1762413474047,6,0.4673822522163391,0.47113490104675293,0.6372465491294861,0.39179399609565735,0.15496526658535004,1.8266135454177856,-1.8651986122131348,-2.3828463554382324,9.13667106628418,-2.6254143714904785,-0.021838413551449776,-0.03697258234024048,-0.04696786403656006,36.17084884643555,-9.160194396972656,6.664045333862305,-0.22249603271484375,-0.07577705383300781,-0.03084731101989746,-2.1603503227233887,9.212448120117188,-2.594567060470581
6_20251106_151831,1762413474066,6,0.46786800026893616,0.4707428514957428,0.6375722289085388,0.3911551237106323,0.15474309027194977,1.8255515098571777,-1.866751790046692,-2.281096935272217,9.219267845153809,-2.5655617713928223,0.0007635811343789101,-0.07301360368728638,0.02144898660480976,36.15010070800781,-9.098861694335938,6.650867462158203,-0.09659719467163086,0.005455970764160156,0.023204326629638672,-2.184499740600586,9.213811874389648,-2.588766098022461
6_20251106_151831,1762413474085,6,0.4683235287666321,0.47088491916656494,0.6375006437301636,0.39055517315864563,0.15474309027194977,1.8255515098571777,-1.866751790046692,-2.281096935272217,9.219267845153809,-2.5655617713928223,0.017867792397737503,-0.08767435699701309,0.04588357359170914,36.21304702758789,-9.057357788085938,6.667627334594727,-0.09659719467163086,0.005455970764160156,0.023204326629638672,-2.184499740600586,9.213811874389648,-2.588766098022461
6_20251106_151831,1762413474105,6,0.468667209148407,0.47150781750679016,0.6370841264724731,0.3900708258152008,0.15454334020614624,1.8243849277496338,-1.8695158958435059,-2.0979485511779785,9.390445709228516,-2.554788112640381,0.010537415742874146,-0.06995928287506104,0.03366628289222717,36.2280387878418,-9.017951965332031,6.5742950439453125,0.06803369522094727,0.1256866455078125,0.017724037170410156,-2.165982246398926,9.264759063720703,-2.572512149810791
6_20251106_151831,1762413474124,6,0.4688829779624939,0.47218605875968933,0.6365832686424255,0.38980868458747864,0.15454334020614624,1.8243849277496338,-1.8695158958435059,-2.0979485511779785,9.390445709228516,-2.554788112640381,-0.003512471914291382,-0.06262890249490738,0.015951205044984818,36.26630401611328,-8.99005126953125,6.535745620727539,0.06803369522094727,0.1256866455078125,0.017724037170410156,-2.165982246398926,9.264759063720703,-2.572512149810791
6_20251106_151831,1762413474142,6,0.4690607488155365,0.47272545099258423,0.6360882520675659,0.3897491693496704,0.15555065870285034,1.8248748779296875,-1.8716177940368652,-2.0033814907073975,9.416780471801758,-2.524862051010132,-0.004734201356768608,-0.08095484226942062,0.003123044967651367,36.293479919433594,-8.949851989746094,6.442903518676758,0.1113426685333252,0.09901714324951172,0.03681659698486328,-2.1147241592407227,9.317763328552246,-2.561678647994995
6_20251106_151831,1762413474162,6,0.4693085551261902,0.47324031591415405,0.6355637311935425,0.38968172669410706,0.1565774828195572,1.8255449533462524,-1.8721762895584106,-2.0045785903930664,9.402416229248047,-2.4207186698913574,0.008093956857919693,-0.10172424465417862,-0.01703548990190029,36.365074157714844,-8.981948852539062,6.363956451416016,0.08811640739440918,0.06772232055664062,0.11276793479919434,-2.0926949977874756,9.334693908691406,-2.5334866046905518
6_20251106_151831,1762413474180,6,0.4696754217147827,0.47380009293556213,0.6350007057189941,0.38947731256484985,0.15742480754852295,1.826266884803772,-1.8724851608276367,-2.105130672454834,9.395233154296875,-2.4650094509124756,0.030085090547800064,-0.09378299862146378,-0.05246564745903015,36.3758544921875,-9.006271362304688,6.363918304443359,-0.009948492050170898,0.048431396484375,0.05478191375732422,-2.095182180404663,9.3468017578125,-2.5197913646698
6_20251106_151831,1762413474199,6,0.4701819121837616,0.4742797315120697,0.6345154047012329,0.38907310366630554,0.1578596532344818,1.8268709182739258,-1.8731175661087036,-2.246382474899292,9.303061485290527,-2.6373846530914307,0.033139411360025406,-0.07484620064496994,-0.06895899027585983,36.461448669433594,-9.00030517578125,6.326803207397461,-0.12096023559570312,-0.034992218017578125,-0.09407448768615723,-2.125422239303589,9.338053703308105,-2.5433101654052734
6_20251106_151831,1762413474219,6,0.4706602394580841,0.4744555354118347,0.6343468427658081,0.38855502009391785,0.1578596532344818,1.8268709182739258,-1.8731175661087036,-2.246382474899292,9.303061485290527,-2.6373846530914307,0.033139411360025406,-0.07484620064496994,-0.06895899027585983,36.54814910888672,-8.981246948242188,6.2358856201171875,-0.12096023559570312,-0.034992218017578125,-0.09407448768615723,-2.125422239303589,9.338053703308105,-2.5433101654052734
6_20251106_151831,1762413474238,6,0.47113141417503357,0.4745291471481323,0.6343344449996948,0.3879137933254242,0.1575843095779419,1.8275002241134644,-1.8757861852645874,-2.2236385345458984,9.298273086547852,-2.660128593444824,0.00870482251048088,-0.1432630568742752,-0.028641920536756516,36.62295913696289,-8.962577819824219,6.10392951965332,-0.05462288856506348,-0.020096778869628906,-0.0609736442565918,-2.169015645980835,9.31836986541748,-2.5991549491882324
6_20251106_151831,1762413474257,6,0.4717889428138733,0.47501569986343384,0.6340687870979309,0.38695228099823,0.1571531891822815,1.8278025388717651,-1.8770222663879395,-2.247579574584961,9.337775230407715,-2.5751380920410156,0.00870482251048088,-0.1432630568742752,-0.028641920536756516,36.68146514892578,-9.008293151855469,6.051259994506836,-0.0628511905670166,0.015523910522460938,0.019213438034057617,-2.1847283840179443,9.322251319885254,-2.5943515300750732
6_20251106_151831,1762413474277,6,0.47267019748687744,0.47575974464416504,0.6335892081260681,0.3857463598251343,0.15628354251384735,1.8281738758087158,-1.8782981634140015,-2.328979015350342,9.34495735168457,-2.6074583530426025,0.014202605932950974,-0.13471095263957977,-0.10500001162290573,36.72022247314453,-8.979721069335938,5.94512939453125,-0.11540055274963379,0.018164634704589844,-0.010485410690307617,-2.213578462600708,9.32679271697998,-2.596972942352295
6_20251106_151831,1762413474296,6,0.47367435693740845,0.4761956036090851,0.6332594752311707,0.38451629877090454,0.15487007796764374,1.8282698392868042,-1.8792190551757812,-2.4426984786987305,9.239617347717285,-2.5128915309906006,0.014202605932950974,-0.13471095263957977,-0.10500001162290573,36.72022247314453,-8.979721069335938,5.94512939453125,-0.18329596519470215,-0.06974029541015625,0.06726503372192383,-2.2594025135040283,9.309357643127441,-2.5801565647125244
6_20251106_151831,1762413474315,6,0.4748280942440033,0.4759485125541687,0.6332469582557678,0.3834182620048523,0.1526302844285965,1.8280054330825806,-1.8793444633483887,-2.5863447189331055,9.179764747619629,-2.3069989681243896,-0.07376191020011902,-0.0974481925368309,-0.1783037781715393,36.821929931640625,-8.909637451171875,5.8557586669921875,-0.2615537643432617,-0.10367488861083984,0.21852612495422363,-2.3247909545898438,9.283439636230469,-2.5255250930786133
6_20251106_151831,1762413474334,6,0.47631731629371643,0.4751824140548706,0.6333034634590149,0.38242673873901367,0.14922983944416046,1.8274041414260864,-1.8782334327697754,-2.7886459827423096,9.155824661254883,-2.0771656036376953,-0.0694858580827713,-0.08156571537256241,-0.19724059104919434,36.84981155395508,-8.856880187988281,5.763181686401367,-0.37108397483825684,-0.10209178924560547,0.3586876392364502,-2.4175620079040527,9.257916450500488,-2.4358532428741455
6_20251106_151831,1762413474354,6,0.47809526324272156,0.4739346504211426,0.6334498524665833,0.38151296973228455,0.14476048946380615,1.8264731168746948,-1.8763178586959839,-2.989750385284424,9.09956169128418,-2.063997983932495,-0.031612247228622437,-0.057131119072437286,-0.194186270236969,36.965606689453125,-8.760215759277344,5.607248306274414,-0.4577507972717285,-0.12668418884277344,0.2974841594696045,-2.5319995880126953,9.226245880126953,-2.3614821434020996
6_20251106_151831,1762413474371,6,0.4799007177352905,0.4722300171852112,0.6338476538658142,0.38069844245910645,0.13858602941036224,1.8253101110458374,-1.8739519119262695,-3.1489577293395996,9.142656326293945,-2.1992645263671875,0.017867792397737503,-0.05835285037755966,-0.15142574906349182,37.00617218017578,-8.705986022949219,5.447580337524414,-0.49356651306152344,-0.06687164306640625,0.1297740936279297,-2.655391216278076,9.209527969360352,-2.329038619995117
6_20251106_151831,1762413474391,6,0.4815455973148346,0.47049784660339355,0.6344643831253052,0.37973752617836,0.13077285885810852,1.8241548538208008,-1.8713734149932861,-3.1944456100463867,9.212085723876953,-2.2591171264648438,0.04413497820496559,-0.07484620064496994,-0.0811762884259224,37.049468994140625,-8.590049743652344,5.397361755371094,-0.4312434196472168,0.0020465850830078125,0.05593729019165039,-2.76320219039917,9.210039138793945,-2.315054416656494
6_20251106_151831,1762413474410,6,0.4829312264919281,0.4693901240825653,0.6349897384643555,0.37846845388412476,0.13077285885810852,1.8241548538208008,-1.8713734149932861,-3.1944456100463867,9.212085723876953,-2.2591171264648438,0.058795731514692307,-0.07118100672960281,-0.018868084996938705,37.106048583984375,-8.460220336914062,5.293832778930664,-0.4312434196472168,0.0020465850830078125,0.05593729019165039,-2.76320219039917,9.210039138793945,-2.315054416656494
6_20251106_151831,1762413474429,6,0.48400118947029114,0.4688105285167694,0.6353293061256409,0.37724819779396057,0.11487799137830734,1.8247594833374023,-1.867234706878662,-2.9179272651672363,9.875250816345215,-2.5440149307250977,0.058795731514692307,-0.07118100672960281,-0.018868084996938705,37.11197280883789,-8.3709716796875,5.160516738891602,-0.06952857971191406,0.5010061264038086,-0.1880965232849121,-2.8483986854553223,9.374244689941406,-2.3559184074401855
6_20251106_151831,1762413474447,6,0.48469802737236023,0.4686865210533142,0.6355000138282776,0.3762187361717224,0.10831229388713837,1.82821786403656,-1.8667304515838623,-2.6438028812408447,10.350479125976562,-2.7666659355163574,0.1052214503288269,-0.05041160807013512,-0.011537708342075348,37.09242248535156,-8.296409606933594,5.080022811889648,0.16367650032043457,0.7809877395629883,-0.3285980224609375,-2.8074793815612793,9.569491386413574,-2.43806791305542
6_20251106_151831,1762413474467,6,0.48491495847702026,0.46897464990615845,0.6356863975524902,0.3752639889717102,0.10266180336475372,1.8353816270828247,-1.8670624494552612,-2.38643741607666,10.7251558303833,-2.7223751544952393,0.09911279380321503,-0.0870634913444519,-0.07934369146823883,37.094635009765625,-8.25860595703125,5.067298889160156,0.3368337154388428,0.9245309829711914,-0.2274458408355713,-2.723271131515503,9.80062484741211,-2.494929313659668
6_20251106_151831,1762413474486,6,0.4849863648414612,0.4695774018764496,0.6357930898666382,0.3742358684539795,0.10266180336475372,1.8353816270828247,-1.8670624494552612,-2.38643741607666,10.7251558303833,-2.7223751544952393,0.08445204794406891,-0.12127191573381424,-0.2094578742980957,37.11174392700195,-8.181526184082031,4.974760055541992,0.3368337154388428,0.9245309829711914,-0.2274458408355713,-2.723271131515503,9.80062484741211,-2.494929313659668
6_20251106_151831,1762413474506,6,0.4853346347808838,0.47003525495529175,0.6358637809753418,0.37308767437934875,0.09624031186103821,1.8563786745071411,-1.8649197816848755,-2.281096935272217,10.646150588989258,-1.7898738384246826,0.08445204794406891,-0.12127191573381424,-0.2094578742980957,37.153831481933594,-8.090431213378906,4.896982192993164,0.2749474048614502,0.5012989044189453,0.5393383502960205,-2.556044340133667,10.144851684570312,-2.329212188720703
6_20251106_151831,1762413474525,6,0.4867764413356781,0.4690600633621216,0.6368107795715332,0.3708145320415497,0.09319552034139633,1.8668105602264404,-1.8603061437606812,-2.782660722732544,10.185285568237305,-1.3361921310424805,0.03497200831770897,0.0015118904411792755,-0.6865432262420654,37.23821258544922,-7.8963623046875,4.809270858764648,-0.18129301071166992,0.03234672546386719,0.7944161891937256,-2.601367712020874,10.152938842773438,-2.130608320236206
6_20251106_151831,1762413474545,6,0.48881733417510986,0.4661065638065338,0.6390562057495117,0.36798015236854553,0.08702680468559265,1.8759287595748901,-1.85287344455719,-3.628974676132202,9.720830917358398,-1.2033196687698364,0.04535670578479767,0.11574359983205795,-0.8777438402175903,37.30607604980469,-7.778572082519531,4.733001708984375,-0.8220856189727783,-0.3456869125366211,0.7418309450149536,-2.806889057159424,10.06651782989502,-1.94515061378479
6_20251106_151831,1762413474564,6,0.4911755323410034,0.46115022897720337,0.6427677869796753,0.36460474133491516,0.08702680468559265,1.8759287595748901,-1.85287344455719,-3.628974676132202,9.720830917358398,-1.2033196687698364,0.09422588348388672,0.20798414945602417,-0.9492150545120239,37.39057159423828,-7.572761535644531,4.726652145385742,-0.8220856189727783,-0.3456869125366211,0.7418309450149536,-2.806889057159424,10.06651782989502,-1.94515061378479
6_20251106_151831,1762413474581,6,0.49322620034217834,0.45499148964881897,0.64771568775177,0.36079782247543335,0.06455463171005249,1.8855977058410645,-1.8362846374511719,-5.015157699584961,9.049285888671875,-1.4750498533248901,0.09422588348388672,0.20798414945602417,-0.9492150545120239,37.556541442871094,-7.211631774902344,4.739927291870117,-1.513077974319458,-0.6977615356445312,0.27136921882629395,-3.502079725265503,9.747047424316406,-1.746419072151184
6_20251106_151831,1762413474601,6,0.49465662240982056,0.4485927224159241,0.6532192826271057,0.3569088578224182,0.04630596935749054,1.8863303661346436,-1.8271377086639404,-5.303646564483643,8.69376277923584,-1.5121583938598633,0.17608174681663513,0.31732892990112305,-0.7054799795150757,37.716270446777344,-6.738822937011719,4.809152603149414,-1.441253423690796,-0.8426275253295898,0.18740856647491455,-3.8623931407928467,9.53639030456543,-1.6995669603347778
6_20251106_151831,1762413474619,6,0.4950712025165558,0.44278696179389954,0.6586435437202454,0.3535999059677124,0.04630596935749054,1.8863303661346436,-1.8271377086639404,-5.303646564483643,8.69376277923584,-1.5121583938598633,0.2597702145576477,0.288618266582489,-0.49412083625793457,37.82966613769531,-6.231117248535156,4.836660385131836,-1.441253423690796,-0.8426275253295898,0.18740856647491455,-3.8623931407928467,9.53639030456543,-1.6995669603347778
6_20251106_151831,1762413474640,6,0.494672030210495,0.4387008845806122,0.6632949113845825,0.3505438268184662,0.00048080645501613617,1.879520297050476,-1.8078721761703491,-5.406593322753906,8.463929176330566,-1.4403353929519653,0.3477347791194916,0.33321142196655273,-0.3029201626777649,37.94158172607422,-5.725433349609375,5.066911697387695,-0.9865646362304688,-0.688481330871582,0.15767252445220947,-4.4200286865234375,9.152410507202148,-1.5980079174041748
6_20251106_151831,1762413474658,6,0.49319329857826233,0.436276376247406,0.6673924922943115,0.3478657603263855,-0.02437606081366539,1.8728904724121094,-1.798750400543213,-5.177956581115723,8.295145034790039,-1.6091194152832031,0.40698865056037903,0.432171493768692,-0.1575343906879425,38.02015686035156,-5.171363830566406,5.242681503295898,-0.6063423156738281,-0.6858119964599609,-0.008889198303222656,-4.5716142654418945,8.98095703125,-1.6002302169799805
6_20251106_151831,1762413474678,6,0.4903945326805115,0.43502354621887207,0.671331524848938,0.3458058536052704,-0.05139665678143501,1.8630849123001099,-1.7900047302246094,-4.846374034881592,8.132347106933594,-1.8485291004180908,0.44119706749916077,0.5213577151298523,-0.06285034120082855,37.98152160644531,-4.73907470703125,5.573858261108398,-0.21980810165405273,-0.6788883209228516,-0.1986391544342041,-4.626565933227539,8.811235427856445,-1.6498899459838867
6_20251106_151831,1762413474696,6,0.486265629529953,0.4342978000640869,0.6754522323608398,0.34452199935913086,-0.07313864678144455,1.853139877319336,-1.7841062545776367,-4.520776271820068,8.015035629272461,-2.146594524383545,0.46257731318473816,0.5769464373588562,0.0037339096888899803,37.98152160644531,-4.73907470703125,5.573858261108398,0.08463144302368164,-0.6369600296020508,-0.39736366271972656,-4.60540771484375,8.651995658874512,-1.7492308616638184
6_20251106_151831,1762413474716,6,0.481228232383728,0.4340784251689911,0.6796223521232605,0.343669593334198,-0.09512527287006378,1.8403056859970093,-1.7795357704162598,-4.288548469543457,7.883359909057617,-2.2938313484191895,0.46318820118904114,0.5977157950401306,0.030001092702150345,37.95648956298828,-4.280876159667969,5.90605354309082,0.25348758697509766,-0.6149082183837891,-0.4356803894042969,-4.542036056518555,8.498268127441406,-1.8581509590148926
6_20251106_151831,1762413474736,6,0.475687712430954,0.43408268690109253,0.6837822198867798,0.34312573075294495,-0.1137998104095459,1.8271211385726929,-1.7770495414733887,-4.11617374420166,7.914483070373535,-2.4554331302642822,0.44241878390312195,0.6453632712364197,0.030611958354711533,37.88856506347656,-3.9264602661132812,6.329278945922852,0.34068965911865234,-0.4670276641845703,-0.47782576084136963,-4.4568634033203125,8.381510734558105,-1.9776073694229126
6_20251106_151831,1762413474755,6,0.46987855434417725,0.43407025933265686,0.6879543662071228,0.342805951833725,-0.1302216500043869,1.81342613697052,-1.776113510131836,-3.976118803024292,7.955183029174805,-2.4973299503326416,0.4082103669643402,0.6917889714241028,-0.012148573994636536,37.7766227722168,-3.7121505737304688,6.70758056640625,0.3845956325531006,-0.3410625457763672,-0.41577792167663574,-4.360714435577393,8.296245574951172,-2.081552028656006
6_20251106_151831,1762413474773,6,0.4638606905937195,0.43363767862319946,0.6922999024391174,0.34280091524124146,-0.14449791610240936,1.798997402191162,-1.776269793510437,-3.8779609203338623,7.779216766357422,-2.462615489959717,0.4082103669643402,0.6917889714241028,-0.012148573994636536,37.68031311035156,-3.6357269287109375,7.219121932983398,0.3862030506134033,-0.4136228561401367,-0.30485081672668457,-4.264163970947266,8.192839622497559,-2.1577646732330322
6_20251106_151831,1762413474792,6,0.4577758312225342,0.4325374662876129,0.6969247460365295,0.34299933910369873,-0.1571025848388672,1.783912181854248,-1.7778754234313965,-3.915069341659546,7.690634727478027,-2.6888577938079834,0.3306305706501007,0.9013156294822693,-0.12271509319543839,37.51170349121094,-3.539764404296875,7.809347152709961,0.27927565574645996,-0.401763916015625,-0.42487454414367676,-4.194344997406006,8.092398643493652,-2.2639832496643066
6_20251106_151831,1762413474811,6,0.4511639475822449,0.4303051829338074,0.7021729946136475,0.3438628315925598,-0.16869834065437317,1.767950177192688,-1.7810262441635132,-4.056321144104004,7.497910499572754,-2.856444835662842,0.3251327574253082,0.9520173668861389,-0.15936696529388428,37.330894470214844,-3.456207275390625,8.304204940795898,0.11041927337646484,-0.47559070587158203,-0.4739692211151123,-4.166740417480469,7.973501205444336,-2.3824756145477295
6_20251106_151831,1762413474829,6,0.44421347975730896,0.4274064600467682,0.7078574895858765,0.34487074613571167,-0.1792192906141281,1.7517058849334717,-1.7853827476501465,-4.201164245605469,7.210618019104004,-3.0000905990600586,0.3269653618335724,0.9941670298576355,-0.12393682450056076,37.09783172607422,-3.427001953125,8.890657424926758,-0.02753925323486328,-0.6103062629699707,-0.4940919876098633,-4.1736249923706055,7.820924282073975,-2.5059986114501953
6_20251106_151831,1762413474849,6,0.43700531125068665,0.4243101179599762,0.7136673927307129,0.3459279537200928,-0.19067774713039398,1.7324963808059692,-1.7925677299499512,-4.289745807647705,7.142386436462402,-3.3568115234375,0.3355174660682678,1.0112712383270264,0.001901315525174141,36.90245056152344,-3.3590927124023438,9.61453628540039,-0.0928964614868164,-0.5428304672241211,-0.6806502342224121,-4.196849346160889,7.685216903686523,-2.676161289215088
6_20251106_151831,1762413474868,6,0.42928844690322876,0.4216970205307007,0.7192201614379883,0.34728291630744934,-0.20087319612503052,1.7138445377349854,-1.8018227815628052,-4.143705368041992,7.205829620361328,-3.685999870300293,0.3355174660682678,1.0112712383270264,0.001901315525174141,36.66497802734375,-4.531494140625,10.182015419006348,0.04251527786254883,-0.38351011276245117,-0.8078708648681641,-4.186220645904541,7.589339733123779,-2.878129005432129
6_20251106_151831,1762413474887,6,0.4209103584289551,0.4200139045715332,0.7241945266723633,0.3492349684238434,-0.20898348093032837,1.6961960792541504,-1.8119707107543945,-3.7534677982330322,7.239347457885742,-3.6165711879730225,0.30375251173973083,0.9428544044494629,0.3366551995277405,36.36153030395508,-4.445350646972656,10.87497615814209,0.34620213508605957,-0.27999353408813477,-0.5907537937164307,-4.099669933319092,7.519340991973877,-3.025817394256592
6_20251106_151831,1762413474906,6,0.41228851675987244,0.41963881254196167,0.7281653881072998,0.3517052233219147,-0.21494893729686737,1.6767487525939941,-1.8245729207992554,-3.2459187507629395,7.250121116638184,-3.6476945877075195,0.2970329821109772,0.9184197783470154,0.433171808719635,36.01742172241211,-4.413566589355469,11.741120338439941,0.6830010414123535,-0.2153759002685547,-0.4975016117095947,-3.928919792175293,7.465497016906738,-3.150192975997925
6_20251106_151831,1762413474927,6,0.40346652269363403,0.42017602920532227,0.7313123941421509,0.3547520935535431,-0.21761935949325562,1.6567044258117676,-1.8394088745117188,-2.9502475261688232,7.27286434173584,-3.826054573059082,0.3416261076927185,0.8463377952575684,0.4600498676300049,35.597068786621094,-4.448799133300781,12.548937797546387,0.78293776512146,-0.15410614013671875,-0.54068922996521,-3.733185291290283,7.426970481872559,-3.285365343093872
6_20251106_151831,1762413474946,6,0.394581139087677,0.4212757647037506,0.7340662479400635,0.3577418327331543,-0.2169882208108902,1.639355182647705,-1.8534832000732422,-2.6665468215942383,7.382993698120117,-3.767399311065674,0.3410152494907379,0.8475595116615295,0.45638465881347656,35.23542785644531,-4.517860412597656,13.371932029724121,0.8533105850219727,-0.035181522369384766,-0.38562726974487305,-3.519857406616211,7.418175220489502,-3.381772041320801
6_20251106_151831,1762413474965,6,0.38586753606796265,0.42280158400535583,0.7365949749946594,0.36024001240730286,-0.21356472373008728,1.6225764751434326,-1.8685063123703003,-2.4905805587768555,7.309972763061523,-3.984065532684326,0.2597702443599701,0.9733976721763611,0.43011748790740967,34.798561096191406,-4.629356384277344,14.191191673278809,0.8234214782714844,-0.0865621566772461,-0.48183488845825195,-3.31400203704834,7.3965349197387695,-3.502230644226074
6_20251106_151831,1762413474983,6,0.37675100564956665,0.4236249625682831,0.7392820119857788,0.363404244184494,-0.20779570937156677,1.6070915460586548,-1.8836055994033813,-2.2224416732788086,7.240544319152832,-4.143272876739502,0.1626427173614502,1.0693035125732422,0.43561527132987976,34.359169006347656,-4.790679931640625,14.968846321105957,0.8732483386993408,-0.12479257583618164,-0.512833833694458,-3.0956900119781494,7.365336894989014,-3.630439043045044
6_20251106_151831,1762413475003,6,0.3671373128890991,0.42359769344329834,0.7420684099197388,0.36757272481918335,-0.1976504921913147,1.5901777744293213,-1.9006842374801636,-1.7615776062011719,7.178297996520996,-4.005612373352051,0.039858922362327576,1.1187834739685059,0.47715407609939575,33.88392639160156,-4.941825866699219,15.745293617248535,1.0672898292541504,-0.14963102340698242,-0.3001387119293213,-2.8288674354553223,7.3279290199279785,-3.7054736614227295
6_20251106_151831,1762413475022,6,0.3573668599128723,0.4231880307197571,0.7444528937339783,0.37281450629234314,-0.18413430452346802,1.5745255947113037,-1.9162380695343018,-1.239664077758789,7.1866774559021,-3.7566256523132324,-0.011453713290393353,1.1255030632019043,0.49303656816482544,33.41281509399414,-5.230712890625,16.55987548828125,1.2713627815246582,-0.11300134658813477,-0.04092144966125488,-2.5110268592834473,7.299678802490234,-3.7157042026519775
6_20251106_151831,1762413475040,6,0.3476080298423767,0.4226170480251312,0.7462816834449768,0.37898164987564087,-0.1693272739648819,1.5607469081878662,-1.9292805194854736,-1.0002541542053223,7.083730697631836,-3.6345267295837402,0.052687082439661026,1.1047337055206299,0.43683701753616333,32.92458724975586,-5.6082916259765625,17.372119903564453,1.2086181640625,-0.1727585792541504,0.0649421215057373,-2.2088723182678223,7.256489276885986,-3.6994688510894775
6_20251106_151831,1762413475059,6,0.3378116190433502,0.42177614569664,0.748155951499939,0.38503357768058777,-0.15015508234500885,1.5447006225585938,-1.9432131052017212,-0.9511751532554626,6.740178108215332,-3.7302908897399902,0.12965603172779083,1.1151182651519775,0.3910221457481384,32.40331268310547,-5.937080383300781,18.089336395263672,1.006157636642456,-0.41304874420166016,-0.024657726287841797,-1.9573328495025635,7.153226852416992,-3.7056331634521484
6_20251106_151831,1762413475077,6,0.3279496431350708,0.42080631852149963,0.7504107356071472,0.3901984393596649,-0.1283402442932129,1.5275943279266357,-1.9574296474456787,-0.6447305679321289,6.474432945251465,-4.063070774078369,0.11988219618797302,1.168263554573059,0.42034363746643066,31.824037551879883,-6.2078704833984375,18.886516571044922,1.0500818490982056,-0.5430350303649902,-0.2859501838684082,-1.6948124170303345,7.017467975616455,-3.777120590209961
6_20251106_151831,1762413475097,6,0.3176766037940979,0.4197597801685333,0.7528438568115234,0.39510682225227356,-0.10234334319829941,1.509193778038025,-1.9737673997879028,-0.31913310289382935,6.591743469238281,-4.474855899810791,0.069180428981781,1.1731505393981934,0.46188247203826904,31.219783782958984,-6.492668151855469,19.66893768310547,1.10054349899292,-0.3405799865722656,-0.5581881999969482,-1.4196765422821045,6.932323455810547,-3.9166676998138428
6_20251106_151831,1762413475118,6,0.30706849694252014,0.41876420378685,0.7549495697021484,0.4004954993724823,-0.07163158059120178,1.489862322807312,-1.991866946220398,0.00646432489156723,6.640822410583496,-4.454505920410156,0.013591742143034935,1.1157292127609253,0.4643259346485138,30.615333557128906,-6.777732849121094,20.478389739990234,1.1409127712249756,-0.2332010269165039,-0.4302706718444824,-1.1344484090805054,6.8740234375,-4.024235248565674
6_20251106_151831,1762413475136,6,0.29658982157707214,0.41779789328575134,0.7566655278205872,0.40612393617630005,-0.07163158059120178,1.489862322807312,-1.991866946220398,0.00646432489156723,6.640822410583496,-4.454505920410156,-0.04566213861107826,1.092516303062439,0.4264523386955261,30.615333557128906,-6.777732849121094,20.478389739990234,1.1409127712249756,-0.2332010269165039,-0.4302706718444824,-1.1344484090805054,6.8740234375,-4.024235248565674
6_20251106_151831,1762413475155,6,0.2867755591869354,0.4167407751083374,0.7579320669174194,0.41185668110847473,-0.010206576436758041,1.4564800262451172,-2.0214765071868896,0.5966097116470337,6.681522369384766,-4.018779754638672,-0.04138608276844025,1.0992357730865479,0.3513159453868866,29.949359893798828,-7.0675811767578125,21.36648941040039,1.147331953048706,-0.10864448547363281,0.006556034088134766,-0.5507222414016724,6.790166854858398,-4.025335788726807
6_20251106_151831,1762413475175,6,0.2771921157836914,0.41509807109832764,0.7591707110404968,0.4177534282207489,0.0256209634244442,1.439265489578247,-2.037057876586914,0.4864811301231384,6.679128170013428,-4.284524917602539,0.030085086822509766,1.0656383037567139,0.21631482243537903,29.19715690612793,-7.399040222167969,22.088165283203125,0.8297626972198486,-0.08883094787597656,-0.2073512077331543,-0.3432815670967102,6.767959117889404,-4.077173709869385
6_20251106_151831,1762413475194,6,0.2679211497306824,0.41277414560317993,0.7608678340911865,0.4229845404624939,0.059016693383455276,1.423360824584961,-2.0521552562713623,0.043572843074798584,6.633640289306641,-4.454505920410156,0.050243623554706573,1.0601404905319214,0.11857647448778152,28.50235366821289,-7.5763702392578125,22.787940979003906,0.3094835579395294,-0.10745477676391602,-0.3018655776977539,-0.26591071486473083,6.741095066070557,-4.152640342712402
6_20251106_151831,1762413475212,6,0.2590544521808624,0.4096250832080841,0.7632321715354919,0.4272876977920532,0.08923360705375671,1.4084372520446777,-2.066851854324341,-0.2006252259016037,6.493585586547852,-4.602939605712891,0.017256930470466614,1.146883249282837,0.14850884675979614,27.79767608642578,-7.716552734375,23.460983276367188,0.0522284060716629,-0.19800758361816406,-0.36023950576782227,-0.2528536319732666,6.691593170166016,-4.242700099945068
6_20251106_151831,1762413475231,6,0.2502300441265106,0.4059910774230957,0.7656922340393066,0.43159186840057373,0.12028533220291138,1.3926759958267212,-2.083904504776001,0.02082892507314682,6.4014129638671875,-5.0865478515625,0.017256930470466614,1.146883249282837,0.14850884675979614,27.117778778076172,-7.842994689941406,24.175819396972656,0.21894603967666626,-0.23214435577392578,-0.6750783920288086,-0.19811712205410004,6.633557319641113,-4.411469459533691
6_20251106_151831,1762413475252,6,0.2405003160238266,0.4024263620376587,0.7678160071372986,0.43665918707847595,0.12028533220291138,1.3926759958267212,-2.083904504776001,0.02082892507314682,6.4014129638671875,-5.0865478515625,-0.09880736470222473,1.146883249282837,0.38857871294021606,26.36445426940918,-7.9862213134765625,24.833385467529297,0.21894603967666626,-0.23214435577392578,-0.6750783920288086,-0.19811712205410004,6.633557319641113,-4.411469459533691
6_20251106_151831,1762413475270,6,0.230543315410614,0.39979276061058044,0.7690648436546326,0.44221577048301697,0.15628236532211304,1.3751451969146729,-2.1053261756896973,0.30213552713394165,6.58096981048584,-5.135626792907715,-0.1831067055463791,1.1334443092346191,0.4087372422218323,25.57526397705078,-8.130882263183594,25.394866943359375,0.4002021253108978,-0.04207038879394531,-0.5793261528015137,-0.09806659817695618,6.623040199279785,-4.556300640106201
6_20251106_151831,1762413475289,6,0.22076059877872467,0.3974932134151459,0.7696327567100525,0.4482514262199402,0.21438492834568024,1.3484565019607544,-2.1405131816864014,0.4804958701133728,6.516329765319824,-4.962054252624512,-0.2918405830860138,1.197585105895996,0.41423502564430237,24.775707244873047,-8.23907470703125,25.997196197509766,0.3871344327926636,-0.09070396423339844,-0.26312971115112305,0.09336142241954803,6.607033729553223,-4.698924541473389
6_20251106_151831,1762413475307,6,0.21108415722846985,0.3948487937450409,0.7697154879570007,0.4550560414791107,0.24329358339309692,1.3358162641525269,-2.1580371856689453,0.6935706734657288,6.537876129150391,-5.051833152770996,-0.4341720640659332,1.242178201675415,0.5003669261932373,23.99990463256836,-8.369712829589844,26.49184799194336,0.480167418718338,-0.055325984954833984,-0.28232669830322266,0.21340325474739075,6.593202114105225,-4.769506454467773
6_20251106_151831,1762413475326,6,0.20122265815734863,0.3917942941188812,0.7691468000411987,0.46305498480796814,0.2742534875869751,1.3244374990463257,-2.176210403442383,0.9317834377288818,7.065774917602539,-4.98838996887207,-0.5600103139877319,1.2470650672912598,0.6616352200508118,23.18462371826172,-8.553092956542969,26.99748992919922,0.5747041702270508,0.37805843353271484,-0.17510700225830078,0.35707926750183105,6.687716484069824,-4.8132829666137695
6_20251106_151831,1762413475346,6,0.19111940264701843,0.3893677592277527,0.7673492431640625,0.47227245569229126,0.3088964521884918,1.3157000541687012,-2.193944215774536,1.5686136484146118,7.556565284729004,-4.668777942657471,-0.6430878639221191,1.258671522140503,0.8253469467163086,22.320598602294922,-8.739654541015625,27.501171112060547,0.9692275524139404,0.6950788497924805,0.11560392379760742,0.5993860960006714,6.861486434936523,-4.784381866455078
6_20251106_151831,1762413475365,6,0.18051250278949738,0.3878190219402313,0.7643330693244934,0.4825004041194916,0.34506404399871826,1.3103060722351074,-2.209346055984497,2.3861985206604004,7.76963996887207,-4.564634323120117,-0.6528617143630981,1.1817026138305664,0.9059810638427734,21.413375854492188,-9.042015075683594,28.041553497314453,1.4294500350952148,0.7265229225158691,0.1757979393005371,0.9567485451698303,7.043117046356201,-4.740432262420654
6_20251106_151831,1762413475385,6,0.16942565143108368,0.3870178163051605,0.7603853940963745,0.4932810664176941,0.3852466642856598,1.3072704076766968,-2.222208023071289,3.0792901515960693,7.804354667663574,-4.095390796661377,-0.6455312967300415,0.9941670298576355,0.9072028398513794,20.46646499633789,-9.409004211425781,28.52507781982422,1.698033332824707,0.6089897155761719,0.5160331726074219,1.3812568187713623,7.195364952087402,-4.611423969268799
6_20251106_151831,1762413475403,6,0.15921151638031006,0.38728761672973633,0.7558211088180542,0.5033829808235168,0.42910027503967285,1.305912733078003,-2.2316384315490723,3.4515724182128906,7.751684188842773,-3.5950241088867188,-0.6687442064285278,0.9214741587638855,0.8033558130264282,19.552265167236328,-9.860031127929688,28.85955047607422,1.656252384185791,0.4450554847717285,0.8131198883056641,1.7953200340270996,7.306628704071045,-4.408143997192383
6_20251106_151831,1762413475422,6,0.15019111335277557,0.3878972828388214,0.750963568687439,0.5128665566444397,0.47504255175590515,1.306550145149231,-2.2387638092041016,3.3558084964752197,8.009050369262695,-3.7398672103881836,-0.733495831489563,1.008827805519104,0.6475853323936462,18.610986709594727,-10.351127624511719,29.273345947265625,1.2483909130096436,0.5619373321533203,0.5346212387084961,2.107417583465576,7.447113037109375,-4.27448844909668
6_20251106_151831,1762413475441,6,0.141761913895607,0.38728195428848267,0.7462199926376343,0.5225629210472107,0.5222014784812927,1.3089207410812378,-2.2437968254089355,3.3881287574768066,8.090450286865234,-3.6417088508605957,-0.8037452697753906,1.0729687213897705,0.5113624930381775,17.699909210205078,-10.964469909667969,29.591358184814453,1.024569034576416,0.5146694183349609,0.5062236785888672,2.3635597229003906,7.575780868530273,-4.147932529449463
6_20251106_151831,1762413475460,6,0.1341087967157364,0.3853881061077118,0.7414346933364868,0.5326963663101196,0.5707921385765076,1.3123024702072144,-2.247241735458374,3.744849681854248,7.9875030517578125,-3.6608619689941406,-0.8813251256942749,1.1792590618133545,0.4478325843811035,16.779056549072266,-11.54052734375,29.869125366210938,1.105031967163086,0.3293781280517578,0.38965654373168945,2.639817714691162,7.658124923706055,-4.05051851272583
6_20251106_151831,1762413475479,6,0.12628628313541412,0.3817249536514282,0.7369116544723511,0.543414294719696,0.6210458278656006,1.3164515495300293,-2.2497310638427734,4.131496429443359,7.999473571777344,-3.765005111694336,-1.0041089057922363,1.1841460466384888,0.4185110926628113,15.98931884765625,-12.169822692871094,30.069869995117188,1.193342924118042,0.27307891845703125,0.2284107208251953,2.9381535053253174,7.7263946533203125,-3.9934158325195312
6_20251106_151831,1762413475498,6,0.11850810796022415,0.3772469162940979,0.7319338321685791,0.5548995137214661,0.6727079153060913,1.3217992782592773,-2.250878095626831,4.367315292358398,8.238883972167969,-3.5495362281799316,-1.109788417816162,1.0540318489074707,0.38918954133987427,15.150218963623047,-12.826332092285156,30.159996032714844,1.1433296203613281,0.4099917411804199,0.3551034927368164,3.2239856719970703,7.828892230987549,-3.904639720916748
6_20251106_151831,1762413475517,6,0.11169152706861496,0.37284108996391296,0.7261106371879578,0.5668138265609741,0.725879430770874,1.3281128406524658,-2.249197244644165,4.715656280517578,8.278387069702148,-2.8947503566741943,-1.1073451042175293,0.7974686026573181,0.37819400429725647,14.339409828186035,-13.417930603027344,30.19835662841797,1.1933364868164062,0.35959577560424805,0.8079116344451904,3.522319793701172,7.9187912940979,-3.7026619911193848
6_20251106_151831,1762413475538,6,0.10668472200632095,0.3693481385707855,0.7196268439292908,0.5782192945480347,0.782904326915741,1.3356397151947021,-2.24424147605896,4.7898736000061035,8.317889213562012,-2.6254141330718994,-1.0218240022659302,0.5824442505836487,0.35375940799713135,13.612889289855957,-14.028541564941406,30.18555450439453,1.0140430927276611,0.3192787170410156,0.8617982864379883,3.7758305072784424,7.998610496520996,-3.4872124195098877
6_20251106_151831,1762413475558,6,0.10313622653484344,0.36710819602012634,0.7131043672561646,0.5882827639579773,0.782904326915741,1.3356397151947021,-2.24424147605896,4.7898736000061035,8.317889213562012,-2.6254141330718994,-0.9961676597595215,0.45599520206451416,0.29145121574401855,13.004098892211914,-14.7064208984375,30.162559509277344,1.0140430927276611,0.3192787170410156,0.8617982864379883,3.7758305072784424,7.998610496520996,-3.4872124195098877
6_20251106_151831,1762413475576,6,0.10071688890457153,0.36558136343955994,0.7067890167236328,0.5972065329551697,0.8949925899505615,1.3560811281204224,-2.226634979248047,4.8533172607421875,9.160612106323242,-2.272284507751465,-1.0621410608291626,0.4223976731300354,0.13262635469436646,13.004098892211914,-14.7064208984375,30.162559509277344,0.6899747848510742,0.8151206970214844,0.8114540576934814,4.163342475891113,8.345491409301758,-3.0837385654449463
6_20251106_151831,1762413475595,6,0.09947827458381653,0.3637067973613739,0.7005542516708374,0.6058425307273865,0.9489847421646118,1.3697394132614136,-2.2127039432525635,5.056816101074219,9.475435256958008,-1.3876652717590332,-1.0621410608291626,0.4223976731300354,0.13262635469436646,12.317167282104492,-15.867645263671875,30.297176361083984,0.7147789001464844,0.9039554595947266,1.356858730316162,4.342037200927734,8.571479797363281,-2.7445240020751953
6_20251106_151831,1762413475614,6,0.10002584010362625,0.360391229391098,0.6943496465682983,0.6148101687431335,1.001574993133545,1.3850865364074707,-2.1932573318481445,4.815011978149414,9.435933113098145,-0.48030179738998413,-1.2118029594421387,0.2825096547603607,-0.4147084057331085,11.855695724487305,-16.534507751464844,30.131385803222656,0.37837982177734375,0.6915626525878906,1.811377763748169,4.43663215637207,8.744370460510254,-2.291679620742798
6_20251106_151831,1762413475633,6,0.10324173420667648,0.3554835915565491,0.6883772015571594,0.6237863302230835,1.0506393909454346,1.401875615119934,-2.1699085235595703,4.109950065612793,9.549653053283691,-0.5150161981582642,-1.1000146865844727,0.28128790855407715,-0.533827006816864,11.441644668579102,-17.234786987304688,29.85863494873047,-0.26134538650512695,0.64422607421875,1.4213308095932007,4.37129545211792,8.905426979064941,-1.9363470077514648
6_20251106_151831,1762413475653,6,0.10784611850976944,0.3493787348270416,0.6831434965133667,0.6321539878845215,1.0924029350280762,1.419320821762085,-2.1472339630126953,3.398902416229248,9.853704452514648,-1.2619750499725342,-1.1000146865844727,0.28128790855407715,-0.533827006816864,11.198593139648438,-17.92340850830078,29.538684844970703,-0.7779145240783691,0.7586221694946289,0.5394976139068604,4.176816940307617,9.09508228302002,-1.8014726638793945
6_20251106_151831,1762413475671,6,0.1118188202381134,0.34282878041267395,0.678826093673706,0.6396562457084656,1.0924029350280762,1.419320821762085,-2.1472339630126953,3.398902416229248,9.853704452514648,-1.2619750499725342,-0.9497419595718384,0.28067705035209656,-0.26871174573898315,11.075894355773926,-18.62933349609375,29.236629486083984,-0.7779145240783691,0.7586221694946289,0.5394976139068604,4.176816940307617,9.09508228302002,-1.8014726638793945
6_20251106_151831,1762413475689,6,0.11486173421144485,0.33728623390197754,0.674629271030426,0.646467387676239,1.1664996147155762,1.461397647857666,-2.1006124019622803,3.3163058757781982,9.990167617797852,-1.2284576892852783,-1.0694714784622192,0.1951560080051422,-0.06956985592842102,11.01291275024414,-19.35613250732422,28.909465789794922,-0.5175929069519043,0.5491056442260742,0.43127453327178955,3.8338987827301025,9.441061973571777,-1.6597322225570679
6_20251106_151831,1762413475709,6,0.11728724092245102,0.3335055410861969,0.6693329811096191,0.6534608602523804,1.1664996147155762,1.461397647857666,-2.1006124019622803,3.3163058757781982,9.990167617797852,-1.2284576892852783,-1.1782053709030151,0.10658062249422073,0.08497891575098038,10.916984558105469,-20.034011840820312,28.4737548828125,-0.5175929069519043,0.5491056442260742,0.43127453327178955,3.8338987827301025,9.441061973571777,-1.6597322225570679
6_20251106_151831,1762413475728,6,0.11958710849285126,0.3312372863292694,0.6624592542648315,0.661156952381134,1.233648419380188,1.503953218460083,-2.0458474159240723,4.069250106811523,9.665766716003418,-0.1175958514213562,-1.1782053709030151,0.10658062249422073,0.08497891575098038,10.91964340209961,-20.69243621826172,27.98816680908203,0.19505929946899414,0.14189529418945312,1.048447847366333,3.8741908073425293,9.523871421813965,-1.1660436391830444
6_20251106_151831,1762413475747,6,0.12179125100374222,0.3302527964115143,0.6547154784202576,0.6689152717590332,1.265032410621643,1.5246267318725586,-2.0170419216156006,4.1769843101501465,9.990167617797852,-0.3007444143295288,-1.0212130546569824,-0.01314886286854744,0.1356806755065918,10.93217658996582,-21.38800811767578,27.529312133789062,0.2422349452972412,0.37303733825683594,0.6922394037246704,3.9347493648529053,9.617130279541016,-0.9929838180541992
6_20251106_151831,1762413475766,6,0.12387657165527344,0.3300067186355591,0.6472530364990234,0.675879955291748,1.2954789400100708,1.5457563400268555,-1.9883325099945068,4.165013790130615,10.160148620605469,-0.5030457377433777,-1.0041089057922363,-0.030863938853144646,0.021448984742164612,10.920831680297852,-22.084495544433594,27.00189208984375,0.18421173095703125,0.4344148635864258,0.39195042848587036,3.980802059173584,9.725733757019043,-0.894996166229248
6_20251106_151831,1762413475786,6,0.12629422545433044,0.32960274815559387,0.6403887867927551,0.6821392774581909,1.2954789400100708,1.5457563400268555,-1.9883325099945068,4.165013790130615,10.160148620605469,-0.5030457377433777,-1.1079559326171875,-0.011927132494747639,-0.15448004007339478,10.935986518859863,-22.73011016845703,26.571125030517578,0.18421173095703125,0.4344148635864258,0.39195042848587036,3.980802059173584,9.725733757019043,-0.894996166229248
6_20251106_151831,1762413475805,6,0.12988276779651642,0.32823994755744934,0.6336999535560608,0.6883410215377808,1.3277642726898193,1.56904137134552,-1.9562039375305176,4.075235366821289,10.053611755371094,-0.30313852429389954,-1.250287413597107,0.033887721598148346,-0.27482038736343384,10.959691047668457,-23.449462890625,26.05816650390625,0.0755467414855957,0.2623023986816406,0.4734860956668854,3.9996886253356934,9.791309356689453,-0.7766246199607849
6_20251106_151831,1762413475824,6,0.13470293581485748,0.3254145085811615,0.6266598105430603,0.695167601108551,1.3793450593948364,1.6072427034378052,-1.8990216255187988,3.6766176223754883,9.846521377563477,-0.1283693015575409,-1.360853910446167,0.00029016094049438834,-0.2968115210533142,10.984397888183594,-24.155853271484375,25.504920959472656,-0.24238967895507812,0.04414558410644531,0.4167986810207367,3.9190073013305664,9.802375793457031,-0.5451679825782776
6_20251106_151831,1762413475843,6,0.1403769850730896,0.3219851851463318,0.6188178062438965,0.7026267647743225,1.4020007848739624,1.6263306140899658,-1.8691754341125488,3.401296377182007,10.129024505615234,0.20201633870601654,-1.4091122150421143,-0.11760672181844711,-0.276652991771698,11.024702072143555,-24.810409545898438,24.872127532958984,-0.4141688346862793,0.2613191604614258,0.5977474451065063,3.815465211868286,9.867705345153809,-0.395731121301651
6_20251106_151831,1762413475861,6,0.1467585414648056,0.31897756457328796,0.6102281808853149,0.7101667523384094,1.4210999011993408,1.6441620588302612,-1.839674711227417,3.291167736053467,10.13261604309082,0.6760479211807251,-1.3669625520706177,-0.2464992105960846,-0.22778382897377014,11.147897720336914,-25.497482299804688,24.282520294189453,-0.41943788528442383,0.2119283676147461,0.8574232459068298,3.7106056213378906,9.920687675476074,-0.18137533962726593
6_20251106_151831,1762413475880,6,0.15364105999469757,0.316914826631546,0.6012691855430603,0.7172410488128662,1.4391932487487793,1.663025140762329,-1.8072633743286133,3.3246853351593018,10.278656005859375,0.8496200442314148,-1.2588396072387695,-0.36683955788612366,-0.18135809898376465,11.28416919708252,-26.18254852294922,23.571758270263672,-0.30873632431030273,0.2863750457763672,0.8247963190078735,3.6334216594696045,9.992280960083008,0.02482372522354126
6_20251106_151831,1762413475899,6,0.16074521839618683,0.3161204755306244,0.592409074306488,0.7233811616897583,1.4558961391448975,1.682804822921753,-1.773083209991455,3.4563605785369873,10.67009162902832,1.260208010673523,-1.2441787719726562,-0.4535823464393616,-0.142873615026474,11.446123123168945,-26.841049194335938,22.876022338867188,-0.1416487693786621,0.5422487258911133,0.9883074760437012,3.5980093479156494,10.127842903137207,0.27190056443214417
6_20251106_151831,1762413475918,6,0.16768141090869904,0.316168874502182,0.5837936997413635,0.7287695407867432,1.4558961391448975,1.682804822921753,-1.773083209991455,3.4563605785369873,10.67009162902832,1.260208010673523,-1.3003783226013184,-0.4774060845375061,-0.11843904107809067,11.672914505004883,-27.443862915039062,22.035114288330078,-0.1416487693786621,0.5422487258911133,0.9883074760437012,3.5980093479156494,10.127842903137207,0.27190056443214417
6_20251106_151831,1762413475937,6,0.17488963901996613,0.31676971912384033,0.5745537281036377,0.734138011932373,1.487160563468933,1.7264013290405273,-1.6950043439865112,3.7077410221099854,11.112998962402344,2.5470361709594727,-1.2625046968460083,-0.4584692716598511,-0.142873615026474,11.89788818359375,-28.083946228027344,21.15286636352539,0.08784890174865723,0.6513757705688477,1.5405505895614624,3.619892120361328,10.461623191833496,1.0064855813980103
6_20251106_151831,1762413475957,6,0.18199962377548218,0.31717783212661743,0.5650337934494019,0.7396020293235779,1.5028177499771118,1.7502095699310303,-1.6494836807250977,3.7233028411865234,10.953792572021484,2.622450351715088,-1.1256710290908813,-0.4633561968803406,-0.21067962050437927,12.031506538391113,-28.629249572753906,20.20122528076172,0.08272838592529297,0.3937349319458008,1.292771816253662,3.6405744552612305,10.560057640075684,1.3296785354614258
6_20251106_151831,1762413475976,6,0.18916070461273193,0.3173636198043823,0.5562120079994202,0.7443969249725342,1.5168665647506714,1.772287368774414,-1.6054750680923462,3.6107800006866455,10.775430679321289,2.396207809448242,-1.0120501518249512,-0.5061166882514954,-0.2454988956451416,12.250216484069824,-29.180877685546875,19.18517303466797,-0.023835420608520508,0.17229843139648438,0.853223443031311,3.634615421295166,10.603132247924805,1.5429843664169312
6_20251106_151831,1762413475995,6,0.19636695086956024,0.31758198142051697,0.5484137535095215,0.7482139468193054,1.5298519134521484,1.793405532836914,-1.561125636100769,3.5030455589294434,10.655726432800293,2.4692280292510986,-0.9796743392944336,-0.6062985062599182,-0.22961640357971191,12.250216484069824,-29.180877685546875,19.18517303466797,-0.1052560806274414,0.042075157165527344,0.740994930267334,3.6083016395568848,10.613651275634766,1.7282330989837646
6_20251106_151831,1762413476014,6,0.20381544530391693,0.3184478282928467,0.5409924983978271,0.7512505650520325,1.5417908430099487,1.8136128187179565,-1.5154565572738647,3.463542938232422,10.666500091552734,3.0174765586853027,-0.9521853923797607,-0.7101455330848694,-0.18257984519004822,12.446359634399414,-29.70844268798828,18.114601135253906,-0.11580681800842285,0.04227924346923828,1.0313947200775146,3.5793497562408447,10.624220848083496,1.986081838607788
6_20251106_151831,1762413476034,6,0.2116095870733261,0.32040151953697205,0.5332342386245728,0.7538073062896729,1.553344964981079,1.8337411880493164,-1.466120719909668,3.4527697563171387,10.598268508911133,3.1922457218170166,-0.9521853923797607,-0.7101455330848694,-0.18257984519004822,12.693361282348633,-30.195159912109375,17.046783447265625,-0.10126399993896484,-0.02076244354248047,0.9649310111999512,3.5540337562561035,10.619030952453613,2.2273147106170654
6_20251106_151831,1762413476053,6,0.21934577822685242,0.32301607728004456,0.5257123708724976,0.755760908126831,1.5633503198623657,1.8512556552886963,-1.4194207191467285,3.400099277496338,10.38160228729248,3.0198705196380615,-0.8446732759475708,-0.7278606295585632,-0.19846230745315552,12.88597297668457,-30.57256317138672,15.951855659484863,-0.12314772605895996,-0.1899433135986328,0.6340446472167969,3.523247003555298,10.571545600891113,2.3858258724212646
6_20251106_151831,1762413476071,6,0.2269672155380249,0.32544994354248047,0.5189899802207947,0.7571113705635071,1.5718395709991455,1.866356372833252,-1.3761006593704224,3.3139119148254395,10.302597045898438,2.9097421169281006,-0.7603738903999329,-0.7321366667747498,-0.2723769247531891,13.12954330444336,-30.90898895263672,14.846165657043457,-0.16746807098388672,-0.21515846252441406,0.41913294792175293,3.481379985809326,10.517755508422852,2.4906091690063477
6_20251106_151831,1762413476090,6,0.23476719856262207,0.3278142809867859,0.512597382068634,0.7580673098564148,1.5796040296554565,1.880636215209961,-1.3310997486114502,3.208571434020996,10.203241348266602,3.059373378753662,-0.7646499872207642,-0.7883362174034119,-0.3114722669124603,13.362264633178711,-31.197998046875,13.943785667419434,-0.2182469367980957,-0.25161170959472656,0.45501136779785156,3.426818370819092,10.454853057861328,2.6043620109558105
6_20251106_151831,1762413476109,6,0.24302424490451813,0.3303428292274475,0.5061493515968323,0.7586999535560608,1.5796040296554565,1.880636215209961,-1.3310997486114502,3.208571434020996,10.203241348266602,3.059373378753662,-0.771369457244873,-0.8353727459907532,-0.34079378843307495,13.609373092651367,-31.46002197265625,12.934292793273926,-0.2182469367980957,-0.25161170959472656,0.45501136779785156,3.426818370819092,10.454853057861328,2.6043620109558105
6_20251106_151831,1762413476128,6,0.25171950459480286,0.3329639732837677,0.49966299533843994,0.7590185403823853,1.590865135192871,1.9048123359680176,-1.2417726516723633,2.92726469039917,10.101492881774902,3.5238285064697266,-0.7524327039718628,-0.8756898641586304,-0.35667628049850464,13.960115432739258,-31.602943420410156,11.95813274383545,-0.3402080535888672,-0.23783397674560547,0.6240825653076172,3.267472743988037,10.339326858520508,2.8997459411621094
6_20251106_151831,1762413476148,6,0.2608131468296051,0.3357642889022827,0.4930543005466461,0.7590364217758179,1.590865135192871,1.9048123359680176,-1.2417726516723633,2.92726469039917,10.101492881774902,3.5238285064697266,-0.7292197942733765,-0.8934049606323242,-0.35178935527801514,14.260505676269531,-31.774429321289062,11.006514549255371,-0.3402080535888672,-0.23783397674560547,0.6240825653076172,3.267472743988037,10.339326858520508,2.8997459411621094
6_20251106_151831,1762413476167,6,0.2700824737548828,0.33881092071533203,0.48645809292793274,0.7586970329284668,1.5970333814620972,1.9252849817276,-1.1516084671020508,2.879382848739624,10.289429664611816,3.675853729248047,-0.762206494808197,-0.9129526019096375,-0.34079378843307495,14.574604034423828,-31.90825653076172,10.137276649475098,-0.24761128425598145,-0.010100364685058594,0.5208415985107422,3.1269941329956055,10.299530029296875,3.1550121307373047
6_20251106_151831,1762413476186,6,0.2793264389038086,0.3418880105018616,0.47979074716567993,0.7582151293754578,1.5970333814620972,1.9252849817276,-1.1516084671020508,2.879382848739624,10.289429664611816,3.675853729248047,-0.7994692325592041,-0.9526588320732117,-0.31941351294517517,14.826560020446777,-32.070899963378906,9.23802661895752,-0.24761128425598145,-0.010100364685058594,0.5208415985107422,3.1269941329956055,10.299530029296875,3.1550121307373047
6_20251106_151831,1762413476205,6,0.28865280747413635,0.3451029658317566,0.4725247919559479,0.7578283548355103,1.6005017757415771,1.945341944694519,-1.0612865686416626,2.9823291301727295,10.63058853149414,4.547305583953857,-0.7041743397712708,-0.9581565856933594,-0.33651772141456604,15.157976150512695,-32.115760803222656,8.344094276428223,-0.09162783622741699,0.22566699981689453,0.933203935623169,3.0739569664001465,10.404921531677246,3.6141016483306885
6_20251106_151831,1762413476225,6,0.29796332120895386,0.34852007031440735,0.46524351835250854,0.7571658492088318,1.6014087200164795,1.9555115699768066,-1.016520619392395,2.875791549682617,10.595874786376953,4.148688316345215,-0.5575668215751648,-0.9257807731628418,-0.3939390182495117,15.516583442687988,-32.10881042480469,7.4521989822387695,-0.15853238105773926,0.15276241302490234,0.4276692867279053,3.0343239307403564,10.44311237335205,3.7210190296173096
6_20251106_151831,1762413476245,6,0.3070673942565918,0.35199835896492004,0.4589799642562866,0.7557408213615417,1.6010513305664062,1.9663366079330444,-0.9691742658615112,2.643564224243164,10.486943244934082,3.8230905532836914,-0.5031998157501221,-0.9007353186607361,-0.44402992725372314,15.93479061126709,-32.29523468017578,6.532201766967773,-0.3126077651977539,0.035064697265625,0.08165740966796875,2.956171989440918,10.451878547668457,3.7414331436157227
6_20251106_151831,1762413476263,6,0.3161237835884094,0.35529592633247375,0.45379987359046936,0.7535889148712158,1.5998371839523315,1.9750372171401978,-0.9302340149879456,2.581317663192749,10.405543327331543,3.8985047340393066,-0.5031998157501221,-0.9007353186607361,-0.44402992725372314,16.305498123168945,-32.27600860595703,5.7491912841796875,-0.2998833656311035,-0.03706836700439453,0.1256570816040039,2.8812010288238525,10.442611694335938,3.7728476524353027
6_20251106_151831,1762413476282,6,0.3250075578689575,0.3581763207912445,0.448917955160141,0.7513670921325684,1.598154902458191,1.9834040403366089,-0.8905978202819824,2.7117960453033447,10.312173843383789,3.987086296081543,-0.5099193453788757,-0.8188794255256653,-0.4263148307800293,16.615880966186523,-32.248329162597656,4.977508544921875,-0.13552403450012207,-0.10435104370117188,0.17139101028442383,2.847320079803467,10.416524887084961,3.815695285797119
6_20251106_151831,1762413476302,6,0.3336866796016693,0.36072149872779846,0.4439818561077118,0.7492752075195312,1.5962790250778198,1.9909842014312744,-0.8508736491203308,2.783618927001953,10.157754898071289,3.844637632369995,-0.4286743104457855,-0.8414814472198486,-0.3939390182495117,16.881057739257812,-32.14942932128906,4.30006217956543,-0.05096101760864258,-0.2070159912109375,0.023154020309448242,2.8345799446105957,10.364770889282227,3.821483612060547
6_20251106_151831,1762413476320,6,0.3417721092700958,0.3633069097995758,0.4393885135650635,0.7470861077308655,1.5945526361465454,1.99664306640625,-0.8174597024917603,2.784816026687622,10.030867576599121,3.598045587539673,-0.3639226257801056,-0.9050113558769226,-0.32979822158813477,17.193470001220703,-32.072601318359375,3.6375656127929688,-0.039811134338378906,-0.2671222686767578,-0.17875027656555176,2.824627161026001,10.297989845275879,3.7767958641052246
6_20251106_151831,1762413476338,6,0.3494866192340851,0.3667756915092468,0.43497568368911743,0.7443996667861938,1.5928970575332642,2.001791477203369,-0.7856407761573792,2.818333148956299,10.205636978149414,3.8075289726257324,-0.3688095510005951,-0.9911432862281799,-0.2613813877105713,17.50940704345703,-31.93299102783203,2.976388931274414,-0.0050351619720458984,-0.0738821029663086,0.02458667755126953,2.8233683109283447,10.279519081115723,3.782942295074463
6_20251106_151831,1762413476358,6,0.3568435609340668,0.37121596932411194,0.43021076917648315,0.7414715886116028,1.5915089845657349,2.00750732421875,-0.7506110668182373,2.941629409790039,10.372026443481445,4.257619380950928,-0.3730855882167816,-1.007636547088623,-0.26015961170196533,17.833919525146484,-31.843894958496094,2.4227771759033203,0.09460878372192383,0.074005126953125,0.3797416687011719,2.8470206260681152,10.29802131652832,3.877877712249756
6_20251106_151831,1762413476378,6,0.3641353249549866,0.3761459290981293,0.42495957016944885,0.7384639978408813,1.590248703956604,2.013227701187134,-0.7152541279792786,2.866215229034424,10.393572807312012,4.561670303344727,-0.35475966334342957,-0.9606000781059265,-0.3475132882595062,18.087331771850586,-31.722023010253906,1.8805294036865234,0.015355587005615234,0.07644081115722656,0.5470337867736816,2.8508596420288086,10.317131996154785,4.014636516571045
6_20251106_151831,1762413476396,6,0.3716233968734741,0.38072457909584045,0.41994476318359375,0.7352491021156311,1.5883835554122925,2.0182361602783203,-0.6827130913734436,2.531041383743286,10.364843368530273,4.9531049728393555,-0.3926332890987396,-0.8793550133705139,-0.4275365471839905,18.342636108398438,-31.585975646972656,1.176351547241211,-0.25585460662841797,0.038168907165527344,0.7507748603820801,2.786895990371704,10.326674461364746,4.202330112457275
6_20251106_151831,1762413476416,6,0.3795331120491028,0.38432061672210693,0.41542965173721313,0.7318951487541199,1.5845634937286377,2.023864507675171,-0.6443060040473938,2.1779119968414307,10.439061164855957,5.537265300750732,-0.41767874360084534,-0.7968882918357849,-0.4116540849208832,18.342636108398438,-31.585975646972656,1.176351547241211,-0.48718714714050293,0.08990859985351562,1.067948341369629,2.6650991439819336,10.349152565002441,4.4693169593811035
6_20251106_151831,1762413476436,6,0.38755834102630615,0.3869241774082184,0.41091054677963257,0.7288626432418823,1.5785400867462158,2.029477596282959,-0.6048892736434937,1.8774523735046387,10.436666488647461,5.433121681213379,-0.3052796423435211,-0.7272497415542603,-0.27848559617996216,18.57398796081543,-31.427757263183594,0.6068830490112305,-0.6301174163818359,0.07001113891601562,0.7710437774658203,2.5075697898864746,10.366655349731445,4.662077903747559
6_20251106_151831,1762413476455,6,0.39454102516174316,0.3890955448150635,0.40671220421791077,0.726310670375824,1.5713356733322144,2.034925937652588,-0.5688029527664185,1.8630878925323486,10.506095886230469,4.84896183013916,-0.3052796423435211,-0.7272497415542603,-0.27848559617996216,18.83041763305664,-31.255386352539062,0.03866004943847656,-0.5155854225158691,0.11155223846435547,0.1495070457458496,2.3786733150482178,10.394543647766113,4.6994547843933105
6_20251106_151831,1762413476473,6,0.39944565296173096,0.39241647720336914,0.40312671661376953,0.7238379120826721,1.5645253658294678,2.0408999919891357,-0.537168562412262,2.2461438179016113,10.82929801940918,4.3569746017456055,0.07284562289714813,-0.8836311101913452,0.19982147216796875,19.087156295776367,-31.070999145507812,-0.4752340316772461,-0.10602355003356934,0.34780406951904297,-0.2739839553833008,2.3521673679351807,10.481493949890137,4.630958557128906
6_20251106_151831,1762413476492,6,0.4022814929485321,0.39810726046562195,0.3996657431125641,0.7210738658905029,1.5592623949050903,2.048557758331299,-0.5077670216560364,2.8422744274139404,11.286571502685547,4.366550922393799,0.13271035254001617,-1.0039713382720947,0.35864633321762085,19.29233169555664,-30.940017700195312,-0.9921455383300781,0.3920857906341553,0.6440620422363281,-0.21152639389038086,2.450188636779785,10.642509460449219,4.57807731628418
6_20251106_151831,1762413476511,6,0.4036296010017395,0.4060255289077759,0.39571401476860046,0.7180785536766052,1.5570824146270752,2.0602364540100098,-0.47597405314445496,3.5605039596557617,11.82524299621582,4.8274149894714355,0.1626427322626114,-1.0497862100601196,0.3299356698989868,19.44795799255371,-30.824905395507812,-1.4977664947509766,0.8882522583007812,0.9461870193481445,0.19947004318237305,2.6722517013549805,10.879055976867676,4.6279449462890625
6_20251106_151831,1762413476530,6,0.4046909213066101,0.4150483012199402,0.3912772536277771,0.7147462964057922,1.5587310791015625,2.074035882949829,-0.44687485694885254,3.9902443885803223,12.067047119140625,4.775941848754883,0.22861610352993011,-0.9911432862281799,0.1252959966659546,19.51577377319336,-30.753562927246094,-1.953547477722168,1.054394245147705,0.9503927230834961,0.11839723587036133,2.935850143432617,11.116654396057129,4.6575446128845215
6_20251106_151831,1762413476550,6,0.40633437037467957,0.42368999123573303,0.3875623345375061,0.7107563614845276,1.5633970499038696,2.0899431705474854,-0.4199698567390442,4.0656585693359375,12.136476516723633,4.388097763061523,0.2811504900455475,-0.9569348692893982,-0.17097339034080505,19.594377517700195,-30.694931030273438,-2.314488410949707,0.9038467407226562,0.81585693359375,-0.21555757522583008,3.1618118286132812,11.320619583129883,4.6036553382873535
6_20251106_151831,1762413476569,6,0.4091535210609436,0.43118977546691895,0.38548579812049866,0.7057403922080994,1.5633970499038696,2.0899431705474854,-0.4199698567390442,4.0656585693359375,12.136476516723633,4.388097763061523,0.2750418484210968,-0.9496045112609863,-0.5038946866989136,19.673192977905273,-30.624412536621094,-2.607583999633789,0.9038467407226562,0.81585693359375,-0.21555757522583008,3.1618118286132812,11.320619583129883,4.6036553382873535
6_20251106_151831,1762413476588,6,0.4139416515827179,0.43759530782699585,0.384861558675766,0.6993169784545898,1.5751484632492065,2.126192331314087,-0.37081030011177063,3.0613343715667725,11.86474609375,4.331836700439453,0.234724760055542,-0.8622508645057678,-0.7726751565933228,19.773250579833984,-30.61455535888672,-2.9550838470458984,-0.16313385963439941,0.30840301513671875,-0.17530441284179688,3.224468231201172,11.556343078613281,4.50714111328125
6_20251106_151831,1762413476607,6,0.4207453429698944,0.442375123500824,0.3855428993701935,0.6918339729309082,1.5785329341888428,2.1431143283843994,-0.3491976261138916,2.6327905654907227,11.596607208251953,4.438373565673828,0.234724760055542,-0.8622508645057678,-0.7726751565933228,19.947044372558594,-30.575897216796875,-3.1909828186035156,-0.4733421802520752,0.0322113037109375,-0.05501413345336914,3.106132745742798,11.564395904541016,4.493387699127197
6_20251106_151831,1762413476626,6,0.42872121930122375,0.44550037384033203,0.38716569542884827,0.68398118019104,1.5791488885879517,2.158470630645752,-0.3286752998828888,2.158759117126465,11.302133560180664,4.489847183227539,0.28664830327033997,-0.8121599555015564,-1.0292383432388306,20.198577880859375,-30.456588745117188,-3.4764204025268555,-0.7578988075256348,-0.2098102569580078,-0.0028324127197265625,2.9166579246520996,11.511943817138672,4.492679595947266
6_20251106_151831,1762413476645,6,0.43730273842811584,0.44802144169807434,0.3894881010055542,0.6755309700965881,1.5791488885879517,2.158470630645752,-0.3286752998828888,2.158759117126465,11.302133560180664,4.489847183227539,0.4088212251663208,-0.8500335812568665,-1.103152871131897,20.503889083862305,-30.246070861816406,-3.771564483642578,-0.7578988075256348,-0.2098102569580078,-0.0028324127197265625,2.9166579246520996,11.511943817138672,4.492679595947266
6_20251106_151831,1762413476665,6,0.4460529088973999,0.45062944293022156,0.39269354939460754,0.6661543846130371,1.5699801445007324,2.183438301086426,-0.2906334102153778,1.1807698011398315,10.886756896972656,4.443161964416504,0.5267180800437927,-0.8671377897262573,-1.1459134817123413,20.922115325927734,-29.95440673828125,-3.925548553466797,-1.1992627382278442,-0.4365100860595703,-0.04050159454345703,2.380032539367676,11.323266983032227,4.483663558959961
6_20251106_151831,1762413476685,6,0.4547576606273651,0.4536499083042145,0.3966883718967438,0.6557709574699402,1.5699801445007324,2.183438301086426,-0.2906334102153778,1.1807698011398315,10.886756896972656,4.443161964416504,0.6336193680763245,-0.8439249396324158,-1.1349178552627563,21.54216957092285,-29.524734497070312,-4.042013168334961,-1.1992627382278442,-0.4365100860595703,-0.04050159454345703,2.380032539367676,11.323266983032227,4.483663558959961
6_20251106_151831,1762413476703,6,0.46291372179985046,0.4568096995353699,0.4014827609062195,0.6448622941970825,1.542681336402893,2.1984708309173584,-0.2603428363800049,0.2614358365535736,10.295413970947266,3.6004395484924316,0.6830994486808777,-0.8097164630889893,-1.068333625793457,22.27280044555664,-29.075088500976562,-4.180832862854004,-1.4206384420394897,-0.7036018371582031,-0.6286592483520508,1.6820743083953857,10.999015808105469,4.229098796844482
6_20251106_151831,1762413476721,6,0.4703170359134674,0.46024465560913086,0.40668702125549316,0.6337053179740906,1.525028109550476,2.2017977237701416,-0.2504417598247528,0.1525043547153473,10.205636024475098,3.418488025665283,0.6830994486808777,-0.8097164630889893,-1.068333625793457,23.017026901245117,-28.599533081054688,-4.318634033203125,-1.2236560583114624,-0.6347036361694336,-0.6484885215759277,1.3761603832244873,10.840339660644531,4.066976547241211
6_20251106_151831,1762413476741,6,0.476821631193161,0.46372371912002563,0.4117334485054016,0.6229583024978638,1.5030745267868042,2.20327091217041,-0.24217309057712555,0.28417977690696716,10.169724464416504,3.3490591049194336,0.7374663949012756,-0.7742863297462463,-0.8447571992874146,23.79046058654785,-28.034622192382812,-4.440090179443359,-0.873584508895874,-0.5364923477172852,-0.574333906173706,1.1577643156051636,10.706216812133789,3.9233930110931396
6_20251106_151831,1762413476760,6,0.48216068744659424,0.46743831038475037,0.41656824946403503,0.6127751469612122,1.4822769165039062,2.203498125076294,-0.2366178333759308,0.33445584774017334,10.28703498840332,3.308359384536743,0.8003854751586914,-0.8164359927177429,-0.7958879470825195,24.56450080871582,-27.457290649414062,-4.547765731811523,-0.658646821975708,-0.3353462219238281,-0.49202704429626465,0.9931026697158813,10.622381210327148,3.800386428833008
6_20251106_151831,1762413476779,6,0.48698118329048157,0.4720855951309204,0.4209727644920349,0.6023009419441223,1.4584052562713623,2.2032463550567627,-0.23152190446853638,0.36198797821998596,10.460607528686523,3.547769546508789,0.8003854751586914,-0.8164359927177429,-0.7958879470825195,25.26250648498535,-26.935089111328125,-4.645923614501953,-0.5048917531967163,-0.12941837310791016,-0.20209360122680664,0.8668797612190247,10.590025901794434,3.7498631477355957
6_20251106_151831,1762413476797,6,0.4914761185646057,0.47697874903678894,0.4254017174243927,0.5915876030921936,1.4366514682769775,2.2025768756866455,-0.22770674526691437,0.3212882876396179,10.405543327331543,3.529813766479492,0.8437568545341492,-0.6020224690437317,-0.904011070728302,26.008056640625,-26.422943115234375,-4.674802780151367,-0.43647319078445435,-0.14758586883544922,-0.176039457321167,0.7577614784240723,10.553129196166992,3.705853223800659
6_20251106_151831,1762413476817,6,0.4956284761428833,0.48089760541915894,0.43065422773361206,0.5810566544532776,1.4116053581237793,2.200824499130249,-0.2249571532011032,0.07230204343795776,10.209226608276367,3.2856154441833496,0.8950694799423218,-0.49573200941085815,-0.987088680267334,26.718149185180664,-25.90007781982422,-4.758954048156738,-0.5483675599098206,-0.27512264251708984,-0.33619022369384766,0.6206696033477783,10.484349250793457,3.6218056678771973
6_20251106_151831,1762413476837,6,0.49949130415916443,0.4837501049041748,0.4370236098766327,0.570530116558075,1.3850492238998413,2.197584867477417,-0.2244478464126587,-0.2880098223686218,9.966226577758789,2.9300918579101562,0.9402734637260437,-0.411432683467865,-1.0567272901535034,26.718149185180664,-25.90007781982422,-4.758954048156738,-0.7269435524940491,-0.41449832916259766,-0.5533709526062012,0.43893373012542725,10.380724906921387,3.4834628105163574
6_20251106_151831,1762413476856,6,0.5030441284179688,0.4859761595726013,0.4443512260913849,0.5597550868988037,1.3578004837036133,2.1926369667053223,-0.22651468217372894,-0.7572531700134277,9.643022537231445,2.5625977516174316,0.9402734637260437,-0.411432683467865,-1.0567272901535034,27.392698287963867,-25.355026245117188,-4.789983749389648,-0.9569495320320129,-0.5901613235473633,-0.7366921901702881,0.1996963769197464,10.233183860778809,3.2992899417877197
6_20251106_151831,1762413476874,6,0.5063483119010925,0.4875565469264984,0.4524683356285095,0.548791766166687,1.3578004837036133,2.1926369667053223,-0.22651468217372894,-0.7572531700134277,9.643022537231445,2.5625977516174316,0.8810195922851562,-0.20862558484077454,-1.1104832887649536,27.994342803955078,-24.8028564453125,-4.756111145019531,-0.9569495320320129,-0.5901613235473633,-0.7366921901702881,0.1996963769197464,10.233183860778809,3.2992899417877197
6_20251106_151831,1762413476894,6,0.5094262361526489,0.4882526099681854,0.4609774053096771,0.5381395220756531,1.2959729433059692,2.174347400665283,-0.23655860126018524,-1.5437145233154297,8.73446273803711,2.415360689163208,0.8211548328399658,-0.08645262569189072,-1.0762748718261719,28.692373275756836,-24.257431030273438,-4.66451358795166,-1.1759227514266968,-1.0319633483886719,-0.5808453559875488,-0.3677917718887329,9.766426086425781,2.996206045150757
6_20251106_151831,1762413476912,6,0.5121532082557678,0.48793041706085205,0.469560444355011,0.5283331871032715,1.2629338502883911,2.1608388423919678,-0.24398714303970337,-2.0201401710510254,8.200578689575195,2.1412363052368164,0.7851138114929199,-0.02231183461844921,-1.0035820007324219,29.282745361328125,-23.681617736816406,-4.563021659851074,-1.3218787908554077,-1.2526779174804688,-0.6839756965637207,-0.6982613801956177,9.453256607055664,2.825212001800537
6_20251106_151831,1762413476931,6,0.5143011808395386,0.4869551956653595,0.4781743884086609,0.5193439722061157,1.2246918678283691,2.1431827545166016,-0.2536938488483429,-2.561206579208374,7.955183029174805,2.0023787021636963,0.7478511333465576,-0.023533564060926437,-0.8325399160385132,29.81361198425293,-23.073043823242188,-4.3685760498046875,-1.490356206893921,-1.1984586715698242,-0.6582667827606201,-1.0708503723144531,9.153641700744629,2.6606454849243164
6_20251106_151831,1762413476951,6,0.5159757137298584,0.48620423674583435,0.48602914810180664,0.511028528213501,1.2246918678283691,2.1431827545166016,-0.2536938488483429,-2.561206579208374,7.955183029174805,2.0023787021636963,0.7478511333465576,-0.023533564060926437,-0.8325399160385132,30.43130111694336,-22.42205047607422,-4.088808059692383,-1.490356206893921,-1.1984586715698242,-0.6582667827606201,-1.0708503723144531,9.153641700744629,2.6606454849243164
6_20251106_151831,1762413476970,6,0.516563355922699,0.4861178398132324,0.4928600490093231,0.5039252638816833,1.1408076286315918,2.1029059886932373,-0.27671271562576294,-2.498960018157959,8.315495491027832,1.9329497814178467,0.7331903576850891,0.17438659071922302,-0.27970731258392334,30.986242294311523,-21.812294006347656,-3.852832794189453,-0.8594048023223877,-0.5061521530151367,-0.48334598541259766,-1.6395552158355713,8.821647644042969,2.4162957668304443
6_20251106_151831,1762413476989,6,0.5152410268783569,0.48663631081581116,0.4988650679588318,0.49884408712387085,1.0974215269088745,2.0812768936157227,-0.291001558303833,-2.0141549110412598,8.432806015014648,1.6707959175109863,0.8126027584075928,0.18477129936218262,-0.09705878049135208,31.501001358032227,-21.267837524414062,-3.6061325073242188,-0.2996797561645508,-0.31107330322265625,-0.5964000225067139,-1.714475154876709,8.743879318237305,2.2671959400177
6_20251106_151831,1762413477008,6,0.5121723413467407,0.4882052540779114,0.5042330026626587,0.4950598180294037,1.0580673217773438,2.061310291290283,-0.306318461894989,-1.7867156267166138,8.581239700317383,1.3847010135650635,0.8755218386650085,0.18354958295822144,-0.032307110726833344,31.880020141601562,-20.74602508544922,-3.229928970336914,-0.05779242515563965,-0.1301116943359375,-0.705996036529541,-1.7289232015609741,8.71135139465332,2.0906970500946045
6_20251106_151831,1762413477028,6,0.5081983208656311,0.49095091223716736,0.5092149376869202,0.49132663011550903,1.0580673217773438,2.061310291290283,-0.306318461894989,-1.7867156267166138,8.581239700317383,1.3847010135650635,0.8651371002197266,0.28495311737060547,-0.031085379421710968,32.22883224487305,-20.32653045654297,-2.829784393310547,-0.05779242515563965,-0.1301116943359375,-0.705996036529541,-1.7289232015609741,8.71135139465332,2.0906970500946045
6_20251106_151831,1762413477047,6,0.5035392642021179,0.4936756491661072,0.514461100101471,0.48791632056236267,0.9839590787887573,2.0235977172851562,-0.345593124628067,-1.475482702255249,8.857759475708008,0.5503576993942261,0.8077158331871033,0.4236193895339966,-0.04024834930896759,32.49104309082031,-19.92595672607422,-2.3522396087646484,0.191888689994812,0.11572647094726562,-1.05246901512146,-1.667371392250061,8.742033004760742,1.602826714515686
6_20251106_151831,1762413477066,6,0.4983694553375244,0.49551814794540405,0.5202053785324097,0.48525872826576233,0.9521551132202148,2.007221221923828,-0.3689177632331848,-1.2360728979110718,8.880502700805664,0.18046943843364716,0.8077158331871033,0.4236193895339966,-0.04024834930896759,32.75517654418945,-19.700927734375,-1.8238344192504883,0.3450387716293335,0.11077594757080078,-1.1378858089447021,-1.5811116695404053,8.769726753234863,1.3183552026748657
6_20251106_151831,1762413477085,6,0.49277520179748535,0.49652600288391113,0.5262976884841919,0.4833686649799347,0.9236072301864624,1.9921185970306396,-0.39449694752693176,-0.973919153213501,8.935566902160645,0.07153795659542084,0.739298939704895,0.5329641699790955,-0.1013348177075386,32.89433288574219,-19.53447723388672,-1.2608413696289062,0.48575401306152344,0.13267230987548828,-0.9974538087844849,-1.4596731662750244,8.802894592285156,1.068991780281067
6_20251106_151831,1762413477105,6,0.4871367812156677,0.49709707498550415,0.5325499176979065,0.48164597153663635,0.8969218134880066,1.9774593114852905,-0.4226243793964386,-0.8470318913459778,8.948734283447266,0.23074552416801453,0.7105883359909058,0.5445706248283386,-0.20090577006340027,32.92936325073242,-19.48779296875,-0.6635980606079102,0.4901130795478821,0.11667156219482422,-0.6705969572067261,-1.3371449708938599,8.832062721252441,0.901342511177063
6_20251106_151831,1762413477123,6,0.4818638563156128,0.4971280097961426,0.5389707088470459,0.4797724187374115,0.8749029040336609,1.9648178815841675,-0.4482627213001251,-1.0134217739105225,8.788330078125,0.2558835744857788,0.695316731929779,0.6233721375465393,-0.34140464663505554,33.00156784057617,-19.414695739746094,0.04377460479736328,0.25897860527038574,-0.03498649597167969,-0.5163671970367432,-1.2724003791809082,8.82331657409668,0.772250771522522
6_20251106_151831,1762413477142,6,0.4769664406776428,0.49617618322372437,0.5460201501846313,0.47767582535743713,0.8526532053947449,1.9511455297470093,-0.4761771857738495,-1.3342310190200806,8.460338592529297,-0.03140830248594284,0.658053994178772,0.7779209017753601,-0.47946006059646606,33.052223205566406,-19.292953491210938,0.7512216567993164,-0.04946446418762207,-0.29038238525390625,-0.6429272890090942,-1.2847665548324585,8.750720977783203,0.6115189790725708
6_20251106_151831,1762413477161,6,0.4721720814704895,0.4937271773815155,0.5541419386863708,0.4756193161010742,0.8306446075439453,1.9365061521530151,-0.5055140852928162,-1.602370023727417,8.149105072021484,-0.41566115617752075,0.5737546682357788,0.9288045167922974,-0.5368813276290894,33.07559585571289,-19.21155548095703,1.5650272369384766,-0.25408267974853516,-0.481292724609375,-0.8217440843582153,-1.3482873439788818,8.63039779663086,0.40608295798301697
6_20251106_151831,1762413477180,6,0.46717390418052673,0.48950427770614624,0.5632918477058411,0.47416916489601135,0.8084251880645752,1.9207791090011597,-0.5365386009216309,-1.8262181282043457,7.967153549194336,-0.7436526417732239,0.5737546682357788,0.9288045167922974,-0.5368813276290894,33.03249740600586,-19.021499633789062,2.337717056274414,-0.38234472274780273,-0.5305957794189453,-0.9197884798049927,-1.443873405456543,8.497749328613281,0.1761358678340912
6_20251106_151831,1762413477199,6,0.4622133672237396,0.4845578670501709,0.5722821354866028,0.47334519028663635,0.8084251880645752,1.9207791090011597,-0.5365386009216309,-1.8262181282043457,7.967153549194336,-0.7436526417732239,0.41248640418052673,0.9966105818748474,-0.39638248085975647,33.051536560058594,-18.802627563476562,3.1404190063476562,-0.38234472274780273,-0.5305957794189453,-0.9197884798049927,-1.443873405456543,8.497749328613281,0.1761358678340912
6_20251106_151831,1762413477217,6,0.45694586634635925,0.47930893301963806,0.5807934403419495,0.47343680262565613,0.7640435099601746,1.8874841928482056,-0.601760983467102,-2.0811896324157715,7.83667516708374,-1.1051616668701172,0.37094762921333313,0.9740085005760193,-0.2809290289878845,32.989620208740234,-18.502227783203125,4.022632598876953,-0.42301297187805176,-0.4236617088317871,-0.8297984004020691,-1.6581766605377197,8.260336875915527,-0.2753632664680481
6_20251106_151831,1762413477238,6,0.4514680802822113,0.4745718240737915,0.5883928537368774,0.4740801453590393,0.7640435099601746,1.8874841928482056,-0.601760983467102,-2.0811896324157715,7.83667516708374,-1.1051616668701172,0.3214675784111023,1.027153730392456,-0.17769291996955872,32.988136291503906,-18.198532104492188,4.974880218505859,-0.42301297187805176,-0.4236617088317871,-0.8297984004020691,-1.6581766605377197,8.260336875915527,-0.2753632664680481
6_20251106_151831,1762413477257,6,0.44562163949012756,0.47018828988075256,0.5952944159507751,0.4753618538379669,0.7171131372451782,1.8509877920150757,-0.6740496754646301,-1.7520012855529785,7.979124069213867,-0.9567275047302246,0.27626359462738037,1.1523810625076294,-0.09033925831317902,32.94081497192383,-17.85926055908203,5.817827224731445,-0.020784616470336914,-0.1730813980102539,-0.4309018850326538,-1.7312166690826416,8.152205467224121,-0.5258256196975708
6_20251106_151831,1762413477276,6,0.4389159083366394,0.46556568145751953,0.6019182801246643,0.477803111076355,0.6969442367553711,1.8343807458877563,-0.7082969546318054,-1.5676556825637817,8.04256820678711,-1.1805756092071533,0.2390008121728897,1.2440108060836792,-0.003596467897295952,32.94081497192383,-17.85926055908203,5.817827224731445,0.13084888458251953,-0.08770942687988281,-0.5238000154495239,-1.6985045671463013,8.130277633666992,-0.6567755937576294
6_20251106_151831,1762413477294,6,0.4311758577823639,0.46051734685897827,0.6084657311439514,0.48143601417541504,0.6969442367553711,1.8343807458877563,-0.7082969546318054,-1.5676556825637817,8.04256820678711,-1.1805756092071533,0.21639882028102875,1.2727214097976685,0.094141885638237,32.757049560546875,-17.555191040039062,6.790014266967773,0.13084888458251953,-0.08770942687988281,-0.5238000154495239,-1.6985045671463013,8.130277633666992,-0.6567755937576294
6_20251106_151831,1762413477314,6,0.4227948784828186,0.45571309328079224,0.614517092704773,0.48573532700538635,0.6626283526420593,1.8038132190704346,-0.7771490812301636,-1.131929636001587,8.205366134643555,-1.5061731338500977,0.2090684324502945,1.2525628805160522,0.18271726369857788,32.59404373168945,-17.30084228515625,7.870256423950195,0.4003390073776245,0.058399200439453125,-0.5790471434593201,-1.5322686433792114,8.146966934204102,-0.9271259903907776
6_20251106_151831,1762413477333,6,0.41382312774658203,0.4512447714805603,0.6200748085975647,0.49054643511772156,0.6491101980209351,1.7899260520935059,-0.8114259243011475,-0.9212490320205688,8.199380874633789,-1.470261573791504,0.2029597908258438,1.1591005325317383,0.2535775899887085,32.294456481933594,-17.116661071777344,8.808622360229492,0.48881566524505615,0.04193115234375,-0.43450844287872314,-1.410064697265625,8.157449722290039,-1.0357531309127808
6_20251106_151831,1762413477352,6,0.4047630727291107,0.44749903678894043,0.6249420642852783,0.4953371286392212,0.6491101980209351,1.7899260520935059,-0.8114259243011475,-0.9212490320205688,8.199380874633789,-1.470261573791504,0.172416552901268,1.138942003250122,0.2859534025192261,32.05217742919922,-16.991432189941406,9.761636734008789,0.48881566524505615,0.04193115234375,-0.43450844287872314,-1.410064697265625,8.157449722290039,-1.0357531309127808
6_20251106_151831,1762413477371,6,0.3958773612976074,0.4443238377571106,0.629124104976654,0.5000602602958679,0.6297553181648254,1.7648063898086548,-0.8754012584686279,-0.5082669258117676,8.231701850891113,-1.0285505056381226,0.1369864046573639,1.2562280893325806,0.2890077531337738,31.63566780090332,-16.94024658203125,10.719980239868164,0.6114341020584106,0.044457435607910156,0.015143632888793945,-1.1197010278701782,8.187244415283203,-1.0436941385269165
6_20251106_151831,1762413477392,6,0.3867032527923584,0.44073325395584106,0.6331627368927002,0.505291759967804,0.6243515014648438,1.752591848373413,-0.9068601131439209,-0.15274325013160706,8.158681869506836,-1.1757875680923462,0.09422588348388672,1.3417491912841797,0.30122503638267517,31.265777587890625,-16.935165405273438,11.584615707397461,0.7735662460327148,-0.02285003662109375,-0.10567474365234375,-0.9263094663619995,8.18153190612793,-1.0701128244400024
6_20251106_151831,1762413477409,6,0.37677496671676636,0.436288982629776,0.6373724341392517,0.5113207697868347,0.6222226619720459,1.7418386936187744,-0.933955729007721,0.08546958118677139,8.055734634399414,-1.1506495475769043,0.033139411360025406,1.3484686613082886,0.30733367800712585,30.720657348632812,-17.01708984375,12.494867324829102,0.8094232678413391,-0.10063743591308594,-0.0644294023513794,-0.7239536643028259,8.1563720703125,-1.086220145225525
6_20251106_151831,1762413477428,6,0.36675795912742615,0.43157103657722473,0.641219973564148,0.5177566409111023,0.6226567625999451,1.7305134534835815,-0.9610406756401062,0.2123568058013916,7.958774089813232,-1.0548855066299438,0.027030766010284424,1.3008211851119995,0.3097771406173706,30.1617431640625,-17.12519073486328,13.431133270263672,0.7490484118461609,-0.15807867050170898,0.025067687034606934,-0.5366916060447693,8.116852760314941,-1.0799531936645508
6_20251106_151831,1762413477448,6,0.3568243682384491,0.42666321992874146,0.6447452306747437,0.5243456959724426,0.6256154179573059,1.7184711694717407,-0.9886061549186707,0.2937561869621277,7.880965709686279,-1.2380340099334717,0.027030766010284424,1.3008211851119995,0.3097771406173706,29.664859771728516,-17.216224670410156,14.316049575805664,0.6643582582473755,-0.18870973587036133,-0.1264646053314209,-0.3706020712852478,8.06967544555664,-1.1115694046020508
6_20251106_151831,1762413477468,6,0.3470325469970703,0.4220777750015259,0.6480584144592285,0.530508279800415,0.6300463080406189,1.707598328590393,-1.0130873918533325,0.40149062871932983,7.835477828979492,-1.4822320938110352,0.07651080191135406,1.232404351234436,0.34765076637268066,29.007938385009766,-17.354576110839844,15.126216888427734,0.6176741719245911,-0.18735790252685547,-0.2965301275253296,-0.21618354320526123,8.022835731506348,-1.1857019662857056
6_20251106_151831,1762413477487,6,0.33717986941337585,0.41779980063438416,0.6512574553489685,0.5362991094589233,0.6376251578330994,1.6954933404922485,-1.0423741340637207,0.579850971698761,8.0066556930542,-1.8281793594360352,0.04108065366744995,1.2519519329071045,0.392243891954422,28.460491180419922,-17.486053466796875,15.967830657958984,0.6368276476860046,-0.012944221496582031,-0.5139819383621216,-0.05697665363550186,8.019599914550781,-1.3141974210739136
6_20251106_151831,1762413477506,6,0.32715561985969543,0.41374948620796204,0.6541113257408142,0.5421428680419922,0.6376251578330994,1.6954933404922485,-1.0423741340637207,0.579850971698761,8.0066556930542,-1.8281793594360352,0.02153298258781433,1.239123821258545,0.42034366726875305,27.824726104736328,-17.673583984375,16.831989288330078,0.6368276476860046,-0.012944221496582031,-0.5139819383621216,-0.05697665363550186,8.019599914550781,-1.3141974210739136
6_20251106_151831,1762413477524,6,0.31680870056152344,0.4096602201461792,0.6566205620765686,0.5483248829841614,0.6470913887023926,1.6849349737167358,-1.0716350078582764,0.8013051152229309,8.149105072021484,-2.22320556640625,0.002596176229417324,1.1762046813964844,0.4166784882545471,27.140514373779297,-17.8638916015625,17.653635025024414,0.6866254210472107,0.10360431671142578,-0.7272064685821533,0.11467969417572021,8.045500755310059,-1.4959990978240967
6_20251106_151831,1762413477544,6,0.30669137835502625,0.40590277314186096,0.6588159799575806,0.5542064905166626,0.6571941375732422,1.676318883895874,-1.099027395248413,0.9305864572525024,8.212549209594727,-2.460221290588379,-0.09758564829826355,1.1902546882629395,0.41118067502975464,26.40906524658203,-18.032127380371094,18.4603328704834,0.6527254581451416,0.1336383819580078,-0.7713778018951416,0.2778610289096832,8.078910827636719,-1.6888434886932373
6_20251106_151831,1762413477561,6,0.29698893427848816,0.4020654857158661,0.6605886220932007,0.5601460933685303,0.6821220517158508,1.6627981662750244,-1.1556546688079834,1.36272132396698,8.474702835083008,-2.5595765113830566,-0.20509783923625946,1.2495086193084717,0.4435565173625946,25.762203216552734,-18.218971252441406,19.175321578979492,0.7383620738983154,0.26115989685058594,-0.5701014995574951,0.6243592500686646,8.213542938232422,-1.9894750118255615
6_20251106_151831,1762413477582,6,0.28731000423431396,0.3976929485797882,0.6617056131362915,0.5669558644294739,0.6994357109069824,1.656711459159851,-1.187747597694397,1.7290184497833252,8.350210189819336,-2.7056164741516113,-0.27290380001068115,1.2427890300750732,0.4960908889770508,25.078174591064453,-18.420623779296875,19.875059127807617,0.8837273716926575,0.10933399200439453,-0.5729131698608398,0.8452910780906677,8.240876197814941,-2.1327033042907715
6_20251106_151831,1762413477600,6,0.27766385674476624,0.3934037685394287,0.6620407700538635,0.5743154883384705,0.7187929749488831,1.6519254446029663,-1.2178728580474854,2.205444097518921,8.49864387512207,-2.55598521232605,-0.34620755910873413,1.1377203464508057,0.554123044013977,24.343473434448242,-18.674468994140625,20.450132369995117,1.0881223678588867,0.20621395111083984,-0.338625431060791,1.1173217296600342,8.29242992401123,-2.217359781265259
6_20251106_151831,1762413477619,6,0.26804158091545105,0.38938748836517334,0.6616211533546448,0.5820554494857788,0.7408968806266785,1.6487064361572266,-1.2470629215240479,2.471189022064209,8.776359558105469,-2.425507068634033,-0.35537052154541016,0.9831714630126953,0.599937915802002,23.68108367919922,-18.936233520507812,21.041399002075195,1.0830938816070557,0.3871440887451172,-0.1665177345275879,1.3880951404571533,8.389215469360352,-2.2589893341064453
6_20251106_151831,1762413477639,6,0.2591610848903656,0.38641464710235596,0.6602287292480469,0.5895907878875732,0.7657867074012756,1.6472097635269165,-1.2747544050216675,2.8063626289367676,8.958311080932617,-2.2447524070739746,-0.35048362612724304,0.8481703400611877,0.6518614292144775,22.84606170654297,-19.258270263671875,21.51661491394043,1.1346139907836914,0.4552764892578125,0.011389493942260742,1.6717486381530762,8.503034591674805,-2.2561419010162354
6_20251106_151831,1762413477657,6,0.2508890628814697,0.38461533188819885,0.6582163572311401,0.5965542197227478,0.7938783764839172,1.6476970911026,-1.3001892566680908,3.292365074157715,9.198917388916016,-1.9383080005645752,-0.39690932631492615,0.7626493573188782,0.6671329736709595,22.081520080566406,-19.637115478515625,21.87180519104004,1.2964932918548584,0.556706428527832,0.25426697731018066,1.9958717823028564,8.642210960388184,-2.192574977874756
6_20251106_151831,1762413477678,6,0.24306760728359222,0.38363081216812134,0.655552864074707,0.603320837020874,0.8267847299575806,1.6508848667144775,-1.3232864141464233,3.5796566009521484,9.530500411987305,-1.4235767126083374,-0.4622718393802643,0.7003411054611206,0.5608425140380859,21.388078689575195,-20.048728942871094,22.21563148498535,1.2670278549194336,0.7106313705444336,0.6151987314224243,2.312628746032715,8.819869041442871,-2.0387754440307617
6_20251106_151831,1762413477696,6,0.23602278530597687,0.3825300931930542,0.6524717807769775,0.6101185083389282,0.8594499230384827,1.6566376686096191,-1.3411070108413696,3.3941140174865723,9.86806869506836,-0.9363776445388794,-0.5361865758895874,0.6905673146247864,0.3726962208747864,21.388078689575195,-20.048728942871094,22.21563148498535,0.8651881217956543,0.8385601043701172,0.8819183111190796,2.528925895690918,9.029508590698242,-1.818295955657959
6_20251106_151831,1762413477715,6,0.23040767014026642,0.3806076943874359,0.6492756009101868,0.6168397665023804,0.8924975991249084,1.6647778749465942,-1.3540109395980835,3.2636356353759766,10.004531860351562,-0.3510204553604126,-0.6027708053588867,0.8023555278778076,0.21570396423339844,20.706417083740234,-20.471702575683594,22.519136428833008,0.5877678394317627,0.7800188064575195,1.1738204956054688,2.675867795944214,9.224513053894043,-1.5248409509658813
6_20251106_151831,1762413477735,6,0.22588254511356354,0.3769036829471588,0.646373450756073,0.6237965226173401,0.9275285601615906,1.6760462522506714,-1.3637540340423584,3.3282763957977295,10.253517150878906,-0.4850900173187256,-0.6107120513916016,0.9367457628250122,0.13262635469436646,19.963401794433594,-20.92241668701172,22.68449592590332,0.5219266414642334,0.8232030868530273,0.8318008184432983,2.806349754333496,9.430314064025879,-1.316890835762024
6_20251106_151831,1762413477755,6,0.22120128571987152,0.37130317091941833,0.6438881754875183,0.6313572525978088,0.9626057147979736,1.6895995140075684,-1.3705686330795288,3.397705316543579,10.36723804473877,-0.5138192176818848,-0.6070468425750732,0.897650420665741,0.09719621390104294,19.30860710144043,-21.31720733642578,22.840829849243164,0.4730844497680664,0.7495393753051758,0.6424573659896851,2.9246208667755127,9.617698669433594,-1.1562765836715698
6_20251106_151831,1762413477773,6,0.21650105714797974,0.36492109298706055,0.6417214870452881,0.6388688683509827,0.9938176274299622,1.703628659248352,-1.3742119073867798,3.4204492568969727,10.609042167663574,-0.2696211338043213,-0.6009382009506226,0.7815861105918884,0.09719621390104294,18.689964294433594,-21.721763610839844,22.957822799682617,0.39666271209716797,0.7930746078491211,0.7093243598937988,3.0237865447998047,9.815967559814453,-0.9789454936981201
6_20251106_151831,1762413477792,6,0.21245433390140533,0.35907936096191406,0.639350414276123,0.6458762884140015,1.0259220600128174,1.7201452255249023,-1.3760637044906616,3.317502975463867,10.708396911621094,-0.3222913146018982,-0.5123628377914429,0.6551371216773987,0.10086140036582947,18.15862464904785,-22.09484100341797,22.997678756713867,0.23497319221496582,0.7139434814453125,0.5253233313560486,3.0825297832489014,9.994453430175781,-0.8476146459579468
6_20251106_151831,1762413477811,6,0.20903824269771576,0.3540974259376526,0.6368436217308044,0.6521872878074646,1.0550880432128906,1.7366325855255127,-1.376875877380371,3.193009853363037,10.653332710266113,-0.5006515979766846,-0.3620900511741638,0.5213577151298523,0.1197982057929039,17.69868278503418,-22.500282287597656,22.985620498657227,0.08838391304016113,0.5271034240722656,0.2775704264640808,3.104625940322876,10.126229286193848,-0.7782220244407654
6_20251106_151831,1762413477829,6,0.20598210394382477,0.35028064250946045,0.6348322629928589,0.6571627259254456,1.0846432447433472,1.7548975944519043,-1.3772014379501343,3.2169508934020996,10.757476806640625,-0.6000067591667175,-0.30405789613723755,0.454773485660553,0.14728713035583496,17.242870330810547,-22.83051300048828,22.98866081237793,0.0898599624633789,0.5049982070922852,0.14257222414016724,3.1270909309387207,10.25247859954834,-0.7425789833068848
6_20251106_151831,1762413477849,6,0.2029544562101364,0.34746888279914856,0.6333046555519104,0.6610598564147949,1.1148755550384521,1.7749452590942383,-1.3771880865097046,3.349823236465454,10.838874816894531,-0.6311299800872803,-0.30405789613723755,0.454773485660553,0.14728713035583496,16.801050186157227,-23.134300231933594,22.93865394592285,0.17818593978881836,0.4691162109375,0.08915925025939941,3.1716372966766357,10.369758605957031,-0.7202892303466797
6_20251106_151831,1762413477868,6,0.2001069337129593,0.3450652062892914,0.6316776871681213,0.6647334098815918,1.1430137157440186,1.7947161197662354,-1.3763797283172607,3.4826958179473877,10.981325149536133,-0.43002569675445557,-0.39080068469047546,0.37352848052978516,0.12163079530000687,16.40797233581543,-23.434906005859375,22.89061164855957,0.24884676933288574,0.48925304412841797,0.23221087455749512,3.233849048614502,10.492072105407715,-0.6622365713119507
6_20251106_151831,1762413477887,6,0.197719007730484,0.3427317440509796,0.6297450661659241,0.6684783101081848,1.1706148386001587,1.8153958320617676,-1.374199628829956,3.5509276390075684,11.183626174926758,-0.14752207696437836,-0.44211331009864807,0.3191615343093872,0.08131372928619385,16.138364791870117,-23.702186584472656,22.820966720581055,0.2536628246307373,0.5532436370849609,0.41177159547805786,3.297264814376831,10.630382537841797,-0.5592936873435974
6_20251106_151831,1762413477906,6,0.19602854549884796,0.3404345214366913,0.6273653507232666,0.672376275062561,1.1976369619369507,1.8366973400115967,-1.370105504989624,3.589233160018921,11.233901977539062,0.17807534337043762,-0.4262308180332184,0.2672380208969116,-0.005429062061011791,15.880434036254883,-23.98096466064453,22.724515914916992,0.23357462882995605,0.4828157424926758,0.5898952484130859,3.355658531188965,10.751086235046387,-0.4118199050426483
6_20251106_151831,1762413477925,6,0.1951698362827301,0.3381024897098541,0.624893069267273,0.6760947704315186,1.2235875129699707,1.858044981956482,-1.364035964012146,3.4575576782226562,11.15609359741211,0.3827708065509796,-0.35537052154541016,0.23364047706127167,-0.11966077238321304,15.637805938720703,-24.20831298828125,22.58906364440918,0.08151912689208984,0.3240060806274414,0.6356725692749023,3.3760385513305664,10.832087516784668,-0.2529017925262451
6_20251106_151831,1762413477944,6,0.19507183134555817,0.335467666387558,0.6229534149169922,0.6792182922363281,1.2477744817733765,1.8789153099060059,-1.3563978672027588,3.206177234649658,11.047162055969238,0.4294557273387909,-0.2765689790248871,0.20492984354496002,-0.21678826212882996,15.36668872833252,-24.50084686279297,22.532407760620117,-0.13588905334472656,0.1720590591430664,0.5458860397338867,3.3420662879943848,10.875102996826172,-0.11643029749393463
6_20251106_151831,1762413477966,6,0.19562406837940216,0.332520991563797,0.6217642426490784,0.6815938949584961,1.2706968784332275,1.8997446298599243,-1.347060203552246,2.92606782913208,10.86161994934082,0.4426232576370239,-0.21059562265872955,0.1804952621459961,-0.285815954208374,15.248345375061035,-24.670562744140625,22.456979751586914,-0.33279895782470703,-0.010787010192871094,0.4472428560256958,3.258866786956787,10.872406959533691,-0.004619590938091278
6_20251106_151831,1762413477983,6,0.19663001596927643,0.3292970359325409,0.6213088035583496,0.6832828521728516,1.2895944118499756,1.9178928136825562,-1.33756685256958,2.6064558029174805,10.635376930236816,0.3839678466320038,-0.21059562265872955,0.1804952621459961,-0.285815954208374,15.132426261901855,-24.79058837890625,22.436674118041992,-0.5219287872314453,-0.18962383270263672,0.310869961977005,3.128384590148926,10.825000762939453,0.07309789210557938
6_20251106_151831,1762413478002,6,0.19792906939983368,0.3260424733161926,0.6213094592094421,0.6844668984413147,1.2895944118499756,1.9178928136825562,-1.33756685256958,2.6064558029174805,10.635376930236816,0.3839678466320038,-0.11163552105426788,0.1187979206442833,-0.29497891664505005,15.105419158935547,-24.853744506835938,22.312726974487305,-0.5219287872314453,-0.18962383270263672,0.310869961977005,3.128384590148926,10.825000762939453,0.07309789210557938
6_20251106_151831,1762413478020,6,0.199295774102211,0.32302287220954895,0.6216171383857727,0.6852222681045532,1.3169773817062378,1.947420358657837,-1.3186763525009155,2.0258865356445312,10.223591804504395,0.1361786127090454,-0.07559451460838318,0.1285717487335205,-0.25405099987983704,15.153247833251953,-24.87500762939453,22.246580123901367,-0.743138313293457,-0.4172697067260742,0.0034067779779434204,2.7690248489379883,10.640861511230469,0.132771834731102
6_20251106_151831,1762413478040,6,0.20062889158725739,0.32047581672668457,0.6220531463623047,0.6856334209442139,1.3263523578643799,1.9592336416244507,-1.3103505373001099,1.8894230127334595,10.090719223022461,-0.09604896605014801,-0.08842267096042633,0.11452186852693558,-0.18685588240623474,15.199864387512207,-24.921112060546875,22.15287208557129,-0.7036815881729126,-0.44011402130126953,-0.18305663764476776,2.593104600906372,10.53083324432373,0.08700767159461975
6_20251106_151831,1762413478059,6,0.20138759911060333,0.3180450201034546,0.6225273013114929,0.6861123442649841,1.3335844278335571,1.969592571258545,-1.3020644187927246,1.8882259130477905,10.052412986755371,0.07393205165863037,-0.12873974442481995,0.08458949625492096,-0.11477384716272354,15.246381759643555,-24.96735382080078,22.07267951965332,-0.5639029741287231,-0.3827362060546875,-0.010460495948791504,2.4521288871765137,10.435149192810059,0.08439254760742188
6_20251106_151831,1762413478078,6,0.20196883380413055,0.3162373900413513,0.6225724220275879,0.6867358088493347,1.3390076160430908,1.977989912033081,-1.2938727140426636,2.0498275756835938,10.088324546813965,0.3444651961326599,-0.15989385545253754,0.0674852803349495,-0.061628617346286774,15.281926155090332,-24.989547729492188,22.019556045532227,-0.3218410015106201,-0.27746009826660156,0.20805811882019043,2.371668577194214,10.365784645080566,0.13640707731246948
6_20251106_151831,1762413478099,6,0.20237860083580017,0.31486251950263977,0.6220943331718445,0.6876795291900635,1.3438091278076172,1.9856202602386475,-1.2844371795654297,2.1671385765075684,10.113462448120117,0.5455694794654846,-0.11713331937789917,0.014340049587190151,-0.04574613273143768,15.319683074951172,-24.97393035888672,21.953710556030273,-0.16362404823303223,-0.2018585205078125,0.32732993364334106,2.3307626247406006,10.31532096862793,0.21823954582214355
6_20251106_151831,1762413478117,6,0.20274977385997772,0.3139156103134155,0.6213975548744202,0.6886323690414429,1.3438091278076172,1.9856202602386475,-1.2844371795654297,2.1671385765075684,10.113462448120117,0.5455694794654846,-0.03100138157606125,-0.027809614315629005,-0.06101774424314499,15.342941284179688,-24.997055053710938,21.91361427307129,-0.16362404823303223,-0.2018585205078125,0.32732993364334106,2.3307626247406006,10.31532096862793,0.21823954582214355
6_20251106_151831,1762413478136,6,0.20319689810276031,0.3134670555591583,0.6210585832595825,0.6890106797218323,1.3503854274749756,1.9979106187820435,-1.2652078866958618,1.966034173965454,10.126630783081055,0.48451998829841614,-0.03100138157606125,-0.027809614315629005,-0.06101774424314499,15.342941284179688,-24.997055053710938,21.91361427307129,-0.2598569393157959,-0.12880611419677734,0.15490570664405823,2.22589111328125,10.255436897277832,0.3296142816543579
6_20251106_151831,1762413478155,6,0.20376138389110565,0.31316515803337097,0.6212901473045349,0.688772439956665,1.3517509698867798,2.0024890899658203,-1.2563087940216064,1.7733091115951538,9.933905601501465,0.24511009454727173,0.08628463745117188,-0.051022469997406006,-0.14470621943473816,15.367300987243652,-25.007080078125,21.819719314575195,-0.3620656728744507,-0.25722503662109375,-0.06760334968566895,2.1353747844696045,10.191130638122559,0.3127134442329407
6_20251106_151831,1762413478175,6,0.20451201498508453,0.31273210048675537,0.6221162676811218,0.6880005598068237,1.3517509698867798,2.0024890899658203,-1.2563087940216064,1.7733091115951538,9.933905601501465,0.24511009454727173,0.08628463745117188,-0.051022469997406006,-0.14470621943473816,15.438512802124023,-25.028106689453125,21.88971519470215,-0.3620656728744507,-0.25722503662109375,-0.06760334968566895,2.1353747844696045,10.191130638122559,0.3127134442329407
6_20251106_151831,1762413478193,6,0.20534507930278778,0.3122061491012573,0.6230495572090149,0.6871462464332581,1.349657654762268,2.007910966873169,-1.2420438528060913,1.4740468263626099,9.744771957397461,-0.014649607241153717,0.04413497447967529,-0.047357283532619476,-0.09828049689531326,15.438413619995117,-25.028244018554688,21.903230667114258,-0.43723130226135254,-0.29601287841796875,-0.21659889817237854,1.9112781286239624,10.04078483581543,0.20194928348064423
6_20251106_151831,1762413478213,6,0.20612820982933044,0.3117657005786896,0.6237769722938538,0.6864514946937561,1.3468002080917358,2.008894205093384,-1.2369961738586426,1.395041584968567,9.663372993469238,-0.14273390173912048,0.04718930274248123,-0.03697258606553078,-0.04635699838399887,15.418159484863281,-24.96623992919922,21.822473526000977,-0.4129892587661743,-0.3019294738769531,-0.27574655413627625,1.8080308437347412,9.965302467346191,0.13301265239715576
6_20251106_151831,1762413478231,6,0.2065342217683792,0.3115106523036957,0.6243360042572021,0.6859368085861206,1.342659592628479,2.0087122917175293,-1.2327464818954468,1.4381353855133057,9.564018249511719,-0.22173914313316345,0.05146535485982895,-0.03391826152801514,-0.009705115109682083,15.433066368103027,-24.91535186767578,21.83753776550293,-0.29591643810272217,-0.3210268020629883,-0.28380143642425537,1.7340518236160278,9.885045051574707,0.06206229701638222
6_20251106_151831,1762413478250,6,0.20666445791721344,0.3115693926811218,0.6248005628585815,0.6854476928710938,1.342659592628479,2.0087122917175293,-1.2327464818954468,1.4381353855133057,9.564018249511719,-0.22173914313316345,0.01542433351278305,-0.044913824647665024,0.006788232829421759,15.459355354309082,-24.876365661621094,21.866342544555664,-0.29591643810272217,-0.3210268020629883,-0.28380143642425537,1.7340518236160278,9.885045051574707,0.06206229701638222
6_20251106_151831,1762413478270,6,0.20661796629428864,0.3117447793483734,0.6251510977745056,0.6850622296333313,1.3341983556747437,2.007305145263672,-1.227453589439392,1.6548012495040894,9.902782440185547,-0.0685168206691742,-0.07192932069301605,-0.082176573574543,0.011064285412430763,15.560677528381348,-24.795211791992188,21.925912857055664,-0.03482365608215332,0.04697608947753906,-0.04852103441953659,1.6896249055862427,9.855806350708008,-0.019995786249637604
6_20251106_151831,1762413478288,6,0.20685286819934845,0.3120627701282501,0.624983012676239,0.6850000023841858,1.330264687538147,2.0073776245117188,-1.2237260341644287,1.700289249420166,10.090719223022461,0.47733771800994873,-0.1366809904575348,-0.07790052145719528,-0.015813762322068214,15.601662635803223,-24.71721649169922,21.901933670043945,0.008531451225280762,0.18793106079101562,0.397866815328598,1.6917577981948853,9.902788162231445,0.0794709101319313
6_20251106_151831,1762413478308,6,0.20757170021533966,0.3123617470264435,0.6242139339447021,0.6853473782539368,1.3263061046600342,2.0083816051483154,-1.2179738283157349,1.6835304498672485,10.209226608276367,0.7454767823219299,-0.1366809904575348,-0.07790052145719528,-0.015813762322068214,15.676992416381836,-24.674644470214844,21.892152786254883,-0.006581902503967285,0.24515056610107422,0.5328047275543213,1.6901123523712158,9.964076042175293,0.21267206966876984
6_20251106_151831,1762413478328,6,0.20840738713741302,0.3119280934333801,0.6234154105186462,0.6860178709030151,1.322357416152954,2.0096778869628906,-1.2117081880569458,1.5530520677566528,10.106281280517578,0.6042249202728271,-0.09330958127975464,0.09619592875242233,-0.18074724078178406,15.678586959838867,-24.660873413085938,21.770769119262695,-0.10964822769165039,0.11376380920410156,0.3132422864437103,1.6627002954483032,9.992517471313477,0.2909826338291168
6_20251106_151831,1762413478345,6,0.2091936618089676,0.3103311359882355,0.6232004165649414,0.686697781085968,1.3180913925170898,2.010756254196167,-1.2059197425842285,1.3734946250915527,9.956649780273438,0.3516474962234497,-0.06093375384807587,0.09375246614217758,-0.20518183708190918,15.678672790527344,-24.67235565185547,21.66237449645996,-0.23136448860168457,-0.02869415283203125,0.04853188991546631,1.6048591136932373,9.985343933105469,0.3031156063079834
6_20251106_151831,1762413478366,6,0.20996521413326263,0.30805280804634094,0.6235587000846863,0.6871627569198608,1.311937928199768,2.011510133743286,-1.199730634689331,1.1795727014541626,9.853703498840332,0.2355337142944336,-0.038331761956214905,0.01617264188826084,-0.1520366072654724,15.763282775878906,-24.667739868164062,21.760419845581055,-0.3402291536331177,-0.10531234741210938,-0.05406549572944641,1.5198018550872803,9.959015846252441,0.28959921002388
6_20251106_151831,1762413478384,6,0.21082355082035065,0.3062628209590912,0.6239480972290039,0.6873465776443481,1.30586838722229,2.0118205547332764,-1.194508671760559,1.0897939205169678,9.835747718811035,0.36361801624298096,-0.018173225224018097,-0.04002691060304642,-0.07262417674064636,15.800249099731445,-24.65320587158203,21.802705764770508,-0.34400641918182373,-0.09861469268798828,0.05921506881713867,1.4338003396987915,9.934362411499023,0.3044029474258423
6_20251106_151831,1762413478405,6,0.21165083348751068,0.30549436807632446,0.6241768598556519,0.6872265934944153,1.298946499824524,2.011854648590088,-1.189231276512146,1.1292966604232788,9.833353042602539,0.319327175617218,-0.011453713290393353,-0.016814053058624268,-0.018868084996938705,15.882830619812012,-24.697738647460938,21.791566848754883,-0.24360287189483643,-0.08080768585205078,0.011939376592636108,1.3728995323181152,9.91416072845459,0.3073877990245819
6_20251106_151831,1762413478422,6,0.21196022629737854,0.3051478862762451,0.6242935657501221,0.6871791481971741,1.2919389009475708,2.011606216430664,-1.1845660209655762,1.2154842615127563,9.811807632446289,0.18046945333480835,-0.025503601878881454,0.0021227551624178886,0.016562068834900856,15.931463241577148,-24.706314086914062,21.712167739868164,-0.1259322166442871,-0.08188247680664062,-0.10153466463088989,1.3414164781570435,9.89369010925293,0.28200411796569824
6_20251106_151831,1762413478441,6,0.2119404673576355,0.3049060106277466,0.6242950558662415,0.6872912645339966,1.2851495742797852,2.0113558769226074,-1.1802647113800049,1.2932922840118408,9.888418197631836,0.23433667421340942,-0.0438295416533947,-0.01681405119597912,0.03549887612462044,15.981010437011719,-24.690444946289062,21.700876235961914,-0.03849935531616211,-0.0042171478271484375,-0.03813394904136658,1.331791639328003,9.892635345458984,0.272470623254776
6_20251106_151831,1762413478461,6,0.21191193163394928,0.30496925115585327,0.6240190863609314,0.6875225305557251,1.2791595458984375,2.0114974975585938,-1.1761131286621094,1.3806769847869873,10.041640281677246,0.3863619267940521,-0.06765326857566833,0.014950915239751339,0.02877936325967312,16.016258239746094,-24.713043212890625,21.688302993774414,0.0391082763671875,0.11920452117919922,0.09111306071281433,1.3415687084197998,9.922435760498047,0.2952488660812378
6_20251106_151831,1762413478480,6,0.2119867354631424,0.30479252338409424,0.6239919662475586,0.6876024603843689,1.2734966278076172,2.0118417739868164,-1.1718051433563232,1.4668644666671753,9.996152877807617,0.3480563461780548,-0.08536835014820099,0.0723721981048584,-0.01092684455215931,16.114648818969727,-24.693862915039062,21.665456771850586,0.10023665428161621,0.05897331237792969,0.04224598407745361,1.366627812385559,9.937179565429688,0.3058103621006012
6_20251106_151831,1762413478499,6,0.21182747185230255,0.30392271280288696,0.6238029599189758,0.6882078051567078,1.267974853515625,2.012312650680542,-1.1670037508010864,1.4931997060775757,9.969818115234375,0.38875603675842285,-0.08536835014820099,0.0723721981048584,-0.01092684455215931,16.19924545288086,-24.70085906982422,21.66862678527832,0.1012575626373291,0.02611064910888672,0.06635653972625732,1.3919421434402466,9.943707466125488,0.3223994970321655
6_20251106_151831,1762413478519,6,0.21178331971168518,0.30272403359413147,0.6236582398414612,0.6888805031776428,1.2631556987762451,2.012974500656128,-1.1619993448257446,1.4501057863235474,10.021289825439453,0.5395842790603638,-0.08842267096042633,0.06504181772470474,-0.047578729689121246,16.219982147216797,-24.7738037109375,21.58692741394043,0.046530842781066895,0.062066078186035156,0.17374783754348755,1.4035749435424805,9.959223747253418,0.3658364415168762
6_20251106_151831,1762413478537,6,0.21209636330604553,0.3018805682659149,0.6234081387519836,0.6893805861473083,1.2591322660446167,2.0138139724731445,-1.157112956047058,1.4429235458374023,10.070369720458984,0.6126042604446411,-0.08292488753795624,0.01678350754082203,-0.031696245074272156,16.255216598510742,-24.808013916015625,21.479475021362305,0.0314788818359375,0.08891677856445312,0.19741427898406982,1.4114446640014648,9.981452941894531,0.4151899814605713
6_20251106_151831,1762413478556,6,0.21243955194950104,0.3010954260826111,0.6230327486991882,0.689957320690155,1.2552989721298218,2.015031099319458,-1.1517239809036255,1.4848203659057617,10.11825180053711,0.5934514999389648,-0.04627300053834915,-0.012537998147308826,-0.014592032879590988,16.256725311279297,-24.78276824951172,21.46648597717285,0.0587005615234375,0.10943984985351562,0.14260923862457275,1.4261198043823242,10.008811950683594,0.4508422613143921
6_20251106_151831,1762413478576,6,0.2126893252134323,0.3004189133644104,0.6226482391357422,0.6905221939086914,1.2516586780548096,2.0166683197021484,-1.1459378004074097,1.4896085262298584,10.146980285644531,0.5814809799194336,-0.02061668410897255,-0.02292269840836525,-0.01703549176454544,16.256725311279297,-24.78276824951172,21.46648597717285,0.050791025161743164,0.11053466796875,0.10451096296310425,1.4388175010681152,10.036445617675781,0.47697001695632935
6_20251106_151831,1762413478596,6,0.21288317441940308,0.30009278655052185,0.6224043369293213,0.6908240914344788,1.248234748840332,2.0184760093688965,-1.1403489112854004,1.4501057863235474,10.1194486618042,0.5072638988494873,-0.024281872436404228,0.005787943489849567,-0.04024834930896759,16.173030853271484,-24.76294708251953,21.436548233032227,0.009030580520629883,0.06640243530273438,0.02423509955406189,1.4410752058029175,10.053046226501465,0.4830287992954254
6_20251106_151831,1762413478613,6,0.21303655207157135,0.29963862895965576,0.6223164200782776,0.6910530924797058,1.2453293800354004,2.0198159217834473,-1.1358693838119507,1.3770856857299805,9.998546600341797,0.4677613079547882,-0.028557926416397095,0.027168208733201027,-0.05674169957637787,16.208375930786133,-24.78540802001953,21.410459518432617,-0.05119156837463379,-0.04360008239746094,-0.01221400499343872,1.4282772541046143,10.042146682739258,0.47997531294822693
6_20251106_151831,1762413478633,6,0.21319548785686493,0.29887256026268005,0.6223704814910889,0.691287100315094,1.2453293800354004,2.0198159217834473,-1.1358693838119507,1.3770856857299805,9.998546600341797,0.4677613079547882,-0.028557926416397095,0.027168208733201027,-0.05674169957637787,16.197092056274414,-24.77337646484375,21.38319969177246,-0.05119156837463379,-0.04360008239746094,-0.01221400499343872,1.4282772541046143,10.042146682739258,0.47997531294822693
6_20251106_151831,1762413478652,6,0.2133629322052002,0.29804131388664246,0.6225183606147766,0.6914611458778381,1.2382680177688599,2.0223283767700195,-1.1274704933166504,1.2980806827545166,10.003334045410156,0.306159645318985,-0.024281872436404228,0.017394373193383217,-0.054909102618694305,16.134653091430664,-24.802597045898438,21.393735885620117,-0.08849704265594482,-0.02407360076904297,-0.11832854151725769,1.3865777254104614,10.0274076461792,0.4244881868362427
6_20251106_151831,1762413478671,6,0.21355590224266052,0.29727795720100403,0.6227908730506897,0.691484808921814,1.234456181526184,2.023210048675537,-1.1241401433944702,1.2083019018173218,9.951862335205078,0.3348888158798218,-0.03649916499853134,0.022281290963292122,-0.07140245288610458,16.0748233795166,-24.793472290039062,21.337480545043945,-0.14262068271636963,-0.060436248779296875,-0.0716795027256012,1.3509225845336914,10.012298583984375,0.406568318605423
6_20251106_151831,1762413478690,6,0.21393035352230072,0.2965935468673706,0.6231101155281067,0.6913753747940063,1.2304108142852783,2.023960590362549,-1.1210383176803589,1.1963313817977905,9.9805908203125,0.3839678466320038,-0.04993819072842598,0.03572031483054161,-0.07262418419122696,16.075725555419922,-24.78064727783203,21.310712814331055,-0.1236729621887207,-0.025365829467773438,-0.01808038353919983,1.3200043439865112,10.005956649780273,0.4020482301712036
6_20251106_151831,1762413478708,6,0.21439974009990692,0.29565930366516113,0.6234267354011536,0.691344678401947,1.2263681888580322,2.0244526863098145,-1.11821448802948,1.156828761100769,9.931511878967285,0.4150911271572113,-0.028557926416397095,0.012507455423474312,-0.05674169957637787,16.150760650634766,-24.738479614257812,21.34147834777832,-0.13054049015045166,-0.059556007385253906,0.010434329509735107,1.2873692512512207,9.991067886352539,0.4046567976474762
6_20251106_151831,1762413478727,6,0.21483387053012848,0.29464229941368103,0.6236804127693176,0.6914152503013611,1.2263681888580322,2.0244526863098145,-1.11821448802948,1.156828761100769,9.931511878967285,0.4150911271572113,0.0007635811343789101,-0.010705403983592987,-0.0139811672270298,16.15317153930664,-24.700401306152344,21.301721572875977,-0.13054049015045166,-0.059556007385253906,0.010434329509735107,1.2873692512512207,9.991067886352539,0.4046567976474762
6_20251106_151831,1762413478747,6,0.21519139409065247,0.2941194474697113,0.6239914894104004,0.691245973110199,1.2170146703720093,2.0247962474823,-1.1125593185424805,1.1759816408157349,9.86926555633545,0.37439143657684326,-0.005345066078007221,-0.0003207037807442248,0.023281581699848175,16.27522850036621,-24.692184448242188,21.279592514038086,-0.06190323829650879,-0.08752918243408203,-0.0256902277469635,1.2378848791122437,9.956794738769531,0.40008166432380676
6_20251106_151831,1762413478767,6,0.21520264446735382,0.2937459945678711,0.6242451071739197,0.6911723017692566,1.2128266096115112,2.024925470352173,-1.1095129251480103,1.354341983795166,9.997349739074707,0.5359930992126465,-0.005345066078007221,-0.0003207037807442248,0.023281581699848175,16.251264572143555,-24.681617736816406,21.319425582885742,0.09316563606262207,0.032444000244140625,0.10872912406921387,1.261176347732544,9.964905738830566,0.4272639751434326
6_20251106_151831,1762413478786,6,0.21506543457508087,0.2935158610343933,0.6243692636489868,0.6912006139755249,1.2095849514007568,2.0254530906677246,-1.1061369180679321,1.457288146018982,10.114660263061523,0.6556980609893799,-0.03039051964879036,0.018616100773215294,0.03610973805189133,16.29960060119629,-24.690597534179688,21.28057289123535,0.1568894386291504,0.11980342864990234,0.1827472746372223,1.3003987073898315,9.994856834411621,0.4729507863521576
6_20251106_151831,1762413478805,6,0.21472638845443726,0.2931194305419922,0.6242583990097046,0.6915742754936218,1.2070770263671875,2.0262041091918945,-1.1020900011062622,1.5087611675262451,10.085930824279785,0.7789941430091858,-0.04749473184347153,0.027168208733201027,0.025725040584802628,16.34844398498535,-24.687286376953125,21.269018173217773,0.16668999195098877,0.0728597640991211,0.24483472108840942,1.3420711755752563,10.013071060180664,0.5341594219207764
