session_id,timestamp,label,quaternion_w,quaternion_x,quaternion_y,quaternion_z,position_x,position_y,position_z,accelerometer_x,accelerometer_y,accelerometer_z,gyroscope_x,gyroscope_y,gyroscope_z,magnetometer_x,magnetometer_y,magnetometer_z,linear_acceleration_x,linear_acceleration_y,linear_acceleration_z,gravity_x,gravity_y,gravity_z
1_20251106_212455,1762435458066,1,0.3029094338417053,0.5174986124038696,0.5871081352233887,0.5438245534896851,0.7385810017585754,2.4584810733795166,1.7440054416656494,2.7129931449890137,10.030866622924805,-1.4750497341156006,-0.2270965874195099,0.24736203253269196,-0.08370755612850189,29.62127685546875,-25.736778259277344,19.03299903869629,0.45313334465026855,1.0560989379882812,0.314825177192688,2.259859800338745,8.974767684936523,-1.7898749113082886
1_20251106_212455,1762435458085,1,0.3028453290462494,0.5148187875747681,0.587113082408905,0.5463922619819641,0.7641369700431824,2.5338492393493652,1.6376569271087646,2.740525245666504,10.245138168334961,-1.4977936744689941,-0.18372520804405212,0.23697733879089355,-0.15823304653167725,29.439071655273438,-25.972442626953125,18.87270164489746,0.30858349800109863,0.8122711181640625,0.18750667572021484,2.4319417476654053,9.432867050170898,-1.685300350189209
1_20251106_212455,1762435458104,1,0.30302223563194275,0.5119119882583618,0.5876625776290894,0.5484307408332825,0.7765721082687378,2.572214365005493,1.5889918804168701,2.4795684814453125,10.248730659484863,-1.643833875656128,-0.11042143404483795,0.19482767581939697,-0.22298471629619598,29.314773559570312,-26.04168701171875,18.717798233032227,0.0381014347076416,0.6526908874511719,0.0331730842590332,2.441467046737671,9.596039772033691,-1.6770069599151611
1_20251106_212455,1762435458122,1,0.3034152686595917,0.5090910792350769,0.5887702703475952,0.5496498942375183,0.7875770330429077,2.609910011291504,1.542243480682373,2.1467885971069336,10.051217079162598,-1.8652880191802979,-0.07560214400291443,0.2033797800540924,-0.2321476936340332,29.23792266845703,-26.121124267578125,18.645689010620117,-0.23574280738830566,0.36414241790771484,-0.15062487125396729,2.3825314044952393,9.687074661254883,-1.7146631479263306
1_20251106_212455,1762435458142,1,0.30367687344551086,0.5062840580940247,0.5901474356651306,0.5506203770637512,0.7976142168045044,2.6484615802764893,1.494032859802246,2.064192295074463,9.968620300292969,-2.1956734657287598,-0.060941390693187714,0.19604939222335815,-0.170450359582901,29.136600494384766,-26.20227813720703,18.58611488342285,-0.2546713352203369,0.2252359390258789,-0.3848083019256592,2.3188636302948,9.74338436126709,-1.8108651638031006
1_20251106_212455,1762435458160,1,0.3036161959171295,0.5039197206497192,0.5913203954696655,0.5515635013580322,0.8054097294807434,2.6820662021636963,1.4517531394958496,1.99955153465271,10.004532814025879,-2.241161346435547,-0.06460657715797424,0.15634319186210632,-0.09164878726005554,29.111709594726562,-26.227767944335938,18.462961196899414,-0.2554497718811035,0.20891857147216797,-0.3442368507385254,2.2550013065338135,9.795614242553711,-1.8969244956970215
1_20251106_212455,1762435458180,1,0.30338478088378906,0.5022581815719604,0.5919972658157349,0.5524795651435852,0.8124045133590698,2.716370105743408,1.4089370965957642,1.9552607536315918,10.016502380371094,-2.049633502960205,-0.0768238753080368,0.14534762501716614,-0.012847247533500195,29.092172622680664,-26.14159393310547,18.47734260559082,-0.2397923469543457,0.1767101287841797,-0.12216722965240479,2.1950531005859375,9.839792251586914,-1.9274662733078003
1_20251106_212455,1762435458199,1,0.30288875102996826,0.5010876655578613,0.5921890735626221,0.5536078214645386,0.8124045133590698,2.716370105743408,1.4089370965957642,1.9552607536315918,10.016502380371094,-2.049633502960205,-0.05788706988096237,0.12824341654777527,0.07328468561172485,29.119857788085938,-26.08910369873047,18.41179847717285,-0.2397923469543457,0.1767101287841797,-0.12216722965240479,2.1950531005859375,9.839792251586914,-1.9274662733078003
1_20251106_212455,1762435458220,1,0.3019507825374603,0.500504195690155,0.5920197367668152,0.5548278093338013,0.8268534541130066,2.786374807357788,1.3239374160766602,2.4508392810821533,10.069171905517578,-1.7623417377471924,-0.031009020283818245,0.05616137757897377,0.13620373606681824,29.099010467529297,-26.027908325195312,18.412137985229492,0.2113935947418213,0.16576385498046875,0.12464094161987305,2.239445686340332,9.90340805053711,-1.8869826793670654
1_20251106_212455,1762435458240,1,0.3009963929653168,0.500800371170044,0.5913966298103333,0.5557429194450378,0.8350212574005127,2.8186428546905518,1.287411093711853,2.6531405448913574,10.03685188293457,-1.3780888319015503,-0.01573740318417549,-0.01836412213742733,0.14414498209953308,29.069599151611328,-25.904586791992188,18.399789810180664,0.33095598220825195,0.10675525665283203,0.40711510181427,2.3221845626831055,9.930096626281738,-1.7852039337158203
1_20251106_212455,1762435458256,1,0.30025526881217957,0.5015249252319336,0.5906175374984741,0.5563186407089233,0.8420753479003906,2.843416213989258,1.2607645988464355,2.7572836875915527,10.058399200439453,-1.2128959894180298,0.02946658618748188,-0.023861903697252274,0.10749310255050659,29.069599151611328,-25.904586791992188,18.399789810180664,0.34807920455932617,0.10264205932617188,0.45784640312194824,2.4092044830322266,9.955757141113281,-1.670742392539978
1_20251106_212455,1762435458276,1,0.2994948625564575,0.5021498203277588,0.5902026295661926,0.5566051006317139,0.8420753479003906,2.843416213989258,1.2607645988464355,2.7572836875915527,10.058399200439453,-1.2128959894180298,0.0722271203994751,0.006070468109101057,0.04335230588912964,28.971914291381836,-25.911209106445312,18.42289924621582,0.34807920455932617,0.10264205932617188,0.45784640312194824,2.4092044830322266,9.955757141113281,-1.670742392539978
1_20251106_212455,1762435458295,1,0.2986794114112854,0.502342700958252,0.5903993844985962,0.556660532951355,0.8606210350990295,2.898083209991455,1.203861117362976,2.7644662857055664,9.944679260253906,-1.5121583938598633,0.06978365778923035,0.03355938196182251,-0.021399352699518204,28.923677444458008,-25.902099609375,18.448232650756836,0.22181320190429688,-0.008047103881835938,0.08176648616790771,2.5426530838012695,9.952726364135742,-1.593924880027771
1_20251106_212455,1762435458313,1,0.2980595827102661,0.5020663738250732,0.5909678936004639,0.5566388368606567,0.8694846630096436,2.922938346862793,1.1779488325119019,2.5262532234191895,9.832157135009766,-1.5265228748321533,0.07650317251682281,0.04760926961898804,-0.09531398117542267,28.88782501220703,-25.891929626464844,18.447023391723633,-0.013119935989379883,-0.09645557403564453,0.05392158031463623,2.5393731594085693,9.92861270904541,-1.5804444551467896
1_20251106_212455,1762435458333,1,0.29774531722068787,0.5013585686683655,0.5919535756111145,0.556397557258606,0.877526044845581,2.9470889568328857,1.1514326333999634,2.268887519836426,9.696889877319336,-1.7791004180908203,0.10093776136636734,0.08242855966091156,-0.12646809220314026,28.813100814819336,-25.922080993652344,18.4705867767334,-0.21638870239257812,-0.1853780746459961,-0.15892481803894043,2.485276222229004,9.882267951965332,-1.6201756000518799
1_20251106_212455,1762435458352,1,0.2974138557910919,0.5004470348358154,0.5932475328445435,0.5560172200202942,0.8835414052009583,2.9668893814086914,1.1274915933609009,2.1360151767730713,9.537683486938477,-2.1358208656311035,0.11376591771841049,0.06227003037929535,-0.10447695851325989,28.739181518554688,-25.939537048339844,18.480897903442383,-0.27940893173217773,-0.2756681442260742,-0.41251611709594727,2.415424108505249,9.81335163116455,-1.7233047485351562
1_20251106_212455,1762435458371,1,0.29695212841033936,0.4997219741344452,0.5945680737495422,0.5555053353309631,0.888774037361145,2.9858012199401855,1.102187991142273,2.12404465675354,9.469450950622559,-2.1956734657287598,0.08810960501432419,0.013400844298303127,-0.04522307962179184,28.679672241210938,-25.906784057617188,18.573850631713867,-0.23310351371765137,-0.27512073516845703,-0.37789487838745117,2.3571481704711914,9.744571685791016,-1.8177785873413086
1_20251106_212455,1762435458390,1,0.2965964376926422,0.49958714842796326,0.5953482389450073,0.5549808144569397,0.888774037361145,2.9858012199401855,1.102187991142273,2.12404465675354,9.469450950622559,-2.1956734657287598,0.0618424192070961,-0.02813795767724514,-0.012847247533500195,28.65298843383789,-25.946311950683594,18.599111557006836,-0.23310351371765137,-0.27512073516845703,-0.37789487838745117,2.3571481704711914,9.744571685791016,-1.8177785873413086
1_20251106_212455,1762435458409,1,0.2964172661304474,0.49978065490722656,0.5957297086715698,0.5544927716255188,0.8934653997421265,3.004138708114624,1.0764743089675903,2.1791088581085205,9.555638313293457,-1.9526724815368652,0.06123155355453491,-0.023251038044691086,-0.021399352699518204,28.688854217529297,-25.944869995117188,18.6951961517334,-0.14243149757385254,-0.15114688873291016,-0.10791516304016113,2.321540355682373,9.706785202026367,-1.844757318496704
1_20251106_212455,1762435458428,1,0.2961505055427551,0.49986129999160767,0.5959600210189819,0.5543150901794434,0.9009479284286499,3.035336494445801,1.031132459640503,2.1779117584228516,9.566411972045898,-1.910775899887085,0.07100538909435272,-0.023861903697252274,-0.053164318203926086,28.7257080078125,-25.94208526611328,18.656118392944336,-0.10149884223937988,-0.08830642700195312,-0.0569995641708374,2.2794106006622314,9.654718399047852,-1.8537763357162476
1_20251106_212455,1762435458447,1,0.2959105968475342,0.499622106552124,0.5963405966758728,0.5542495846748352,0.9036470055580139,3.0490317344665527,1.009947419166565,2.064192295074463,9.444313049316406,-1.9023964405059814,0.05512291193008423,-0.009812015108764172,-0.06110556051135063,28.790050506591797,-25.88707733154297,18.578527450561523,-0.17217469215393066,-0.16832447052001953,-0.03889608383178711,2.2363669872283936,9.612637519836426,-1.8635003566741943
1_20251106_212455,1762435458465,1,0.29585331678390503,0.4993777275085449,0.5967023372650146,0.5541110038757324,0.9056256413459778,3.0609371662139893,0.9906465411186218,2.0534186363220215,9.441919326782227,-1.9586577415466309,0.05512291193008423,-0.007368555758148432,-0.03544924408197403,28.8056640625,-25.823631286621094,18.593854904174805,-0.14635872840881348,-0.13657474517822266,-0.07612597942352295,2.199777364730835,9.57849407196045,-1.882531762123108
1_20251106_212455,1762435458485,1,0.29575085639953613,0.49923020601272583,0.5970035195350647,0.5539742112159729,0.9073493480682373,3.073183298110962,0.9697471857070923,2.079753875732422,9.473041534423828,-2.0556187629699707,0.05512291193008423,-0.007368555758148432,-0.03544924408197403,28.83346176147461,-25.75939178466797,18.609670639038086,-0.09601879119873047,-0.08436203002929688,-0.13846957683563232,2.1757726669311523,9.557403564453125,-1.9171491861343384
1_20251106_212455,1762435458504,1,0.2955416738986969,0.4993070662021637,0.597266674041748,0.5537328720092773,0.9086875319480896,3.0839285850524902,0.9504498243331909,2.09651255607605,9.445509910583496,-2.0759685039520264,0.0514577180147171,-0.03485746681690216,-0.007349465042352676,28.885828018188477,-25.69329071044922,18.599435806274414,-0.06340813636779785,-0.08951473236083984,-0.12705540657043457,2.1599206924438477,9.535024642944336,-1.9489130973815918
1_20251106_212455,1762435458523,1,0.2953735589981079,0.4995465576648712,0.5974363088607788,0.5534235239028931,0.9096435904502869,3.0939271450042725,0.9315223693847656,2.045039415359497,9.458677291870117,-2.1657471656799316,0.04595993459224701,-0.04157697781920433,-0.011625518091022968,28.960552215576172,-25.66313934326172,18.57587242126465,-0.09190511703491211,-0.06107807159423828,-0.17346715927124023,2.136944532394409,9.519755363464355,-1.9922800064086914
1_20251106_212455,1762435458542,1,0.2952985167503357,0.49985483288764954,0.5975393652915955,0.5530737638473511,0.90998774766922,3.1033105850219727,0.9127599596977234,1.9313197135925293,9.47783088684082,-2.2770729064941406,0.023968802765011787,-0.04157697781920433,-0.001240817829966545,29.02802276611328,-25.545883178710938,18.553667068481445,-0.16449975967407227,-0.033539772033691406,-0.22783422470092773,2.0958194732666016,9.511370658874512,-2.049238681793213
1_20251106_212455,1762435458561,1,0.2953251600265503,0.5002130270004272,0.5975441932678223,0.5527304410934448,0.9098830819129944,3.1123692989349365,0.8944222331047058,1.9385019540786743,9.564018249511719,-2.23637318611145,0.023968802765011787,-0.04157697781920433,-0.001240817829966545,29.04291534423828,-25.506607055664062,18.473852157592773,-0.12585413455963135,0.042118072509765625,-0.14970755577087402,2.0643560886383057,9.521900177001953,-2.086665630340576
1_20251106_212455,1762435458581,1,0.2954200208187103,0.5006133913993835,0.597294807434082,0.5525867938995361,0.9096813797950745,3.12131404876709,0.8770734667778015,2.0270836353302,9.645416259765625,-2.0604066848754883,-0.04994582384824753,-0.04096611216664314,0.07817159593105316,29.05561065673828,-25.49352264404297,18.501638412475586,-0.029817819595336914,0.09881305694580078,0.021007061004638672,2.056901454925537,9.546603202819824,-2.081413745880127
1_20251106_212455,1762435458599,1,0.29549187421798706,0.5011188387870789,0.5966853499412537,0.5527486801147461,0.9094341993331909,3.130361795425415,0.861221194267273,2.0366601943969727,9.74716567993164,-1.8521203994750977,-0.03161988407373428,-0.06478983163833618,0.10077358782291412,29.08129119873047,-25.466957092285156,18.516664505004883,-0.016192913055419922,0.16044998168945312,0.18343472480773926,2.0528531074523926,9.586715698242188,-2.035555124282837
1_20251106_212455,1762435458619,1,0.295462429523468,0.5017567873001099,0.5958808064460754,0.5530534386634827,0.9091851115226746,3.1399118900299072,0.8461776971817017,2.0522217750549316,9.751955032348633,-1.769524097442627,0.0031994041055440903,-0.06601156294345856,0.11360175162553787,29.092266082763672,-25.491004943847656,18.489595413208008,-0.0005049705505371094,0.13219165802001953,0.21282482147216797,2.0527267456054688,9.619763374328613,-1.982348918914795
1_20251106_212455,1762435458638,1,0.2952761948108673,0.5022903084754944,0.5951262712478638,0.5534809231758118,0.9091987013816833,3.148850917816162,0.8327118754386902,2.139606475830078,9.736392974853516,-1.941899061203003,0.041073016822338104,-0.06540070474147797,0.13559287786483765,29.143407821655273,-25.46136474609375,18.356924057006836,0.0695037841796875,0.09330368041992188,0.032359957695007324,2.0701026916503906,9.643089294433594,-1.9742590188980103
1_20251106_212455,1762435458658,1,0.29476165771484375,0.5029007792472839,0.5944842100143433,0.5538907051086426,0.90968918800354,3.1581389904022217,0.8189696073532104,2.2269909381866455,9.757940292358398,-2.065195083618164,0.0514577180147171,-0.08739183098077774,0.14536669850349426,29.102718353271484,-25.538955688476562,18.34035301208496,0.12551069259643555,0.09188079833984375,-0.07274889945983887,2.10148024559021,9.666059494018555,-1.9924461841583252
1_20251106_212455,1762435458676,1,0.294272243976593,0.504070520401001,0.5937129259109497,0.5539149045944214,0.9105089902877808,3.1661651134490967,0.8073031902313232,2.264099597930908,9.700481414794922,-1.95865797996521,0.04534906893968582,-0.09105701744556427,0.13131682574748993,29.102718353271484,-25.538955688476562,18.34035301208496,0.1300954818725586,0.02753734588623047,0.027030467987060547,2.1340041160583496,9.672944068908691,-1.9856884479522705
1_20251106_212455,1762435458695,1,0.29377618432044983,0.5052822232246399,0.5930098295211792,0.5538273453712463,0.911720871925354,3.174213409423828,0.7956161499023438,2.2760701179504395,9.672948837280273,-1.9814016819000244,0.0514577180147171,-0.05501600354909897,0.10016272962093353,29.061635971069336,-25.617088317871094,18.37784767150879,0.11365294456481934,3.814697265625e-06,0.003429412841796875,2.16241717338562,9.672945022583008,-1.9848310947418213
1_20251106_212455,1762435458715,1,0.29315096139907837,0.5060040354728699,0.5925701856613159,0.553970217704773,0.9134347438812256,3.1820290088653564,0.7836884260177612,2.327543258666992,9.596338272094727,-2.063997983932495,0.05267944931983948,-0.0379117876291275,0.05984565243124962,29.04451560974121,-25.705780029296875,18.37550926208496,0.13210082054138184,-0.06128501892089844,-0.06333351135253906,2.1954424381256104,9.657623291015625,-2.000664472579956
1_20251106_212455,1762435458734,1,0.2926654815673828,0.5064813494682312,0.5923511385917664,0.5540250539779663,0.9151895642280579,3.1888487339019775,0.7728056907653809,2.2712817192077637,9.572397232055664,-2.0436482429504395,0.04840339720249176,-0.03913351893424988,0.02013944834470749,29.04109001159668,-25.7684326171875,18.360673904418945,0.060671329498291016,-0.06818103790283203,-0.03438711166381836,2.2106103897094727,9.640578269958496,-2.009261131286621
1_20251106_212455,1762435458752,1,0.29235872626304626,0.5069072246551514,0.5922684669494629,0.5538857579231262,0.9151895642280579,3.1888487339019775,0.7728056907653809,2.2712817192077637,9.572397232055664,-2.0436482429504395,0.06367501616477966,-0.029970550909638405,-0.01467984076589346,28.976451873779297,-25.82384490966797,18.478811264038086,0.060671329498291016,-0.06818103790283203,-0.03438711166381836,2.2106103897094727,9.640578269958496,-2.009261131286621
1_20251106_212455,1762435458772,1,0.2920534014701843,0.5069371461868286,0.5925966501235962,0.5536684393882751,0.9183456897735596,3.1991050243377686,0.7520355582237244,2.1611533164978027,9.178567886352539,-2.2040529251098633,0.06978365778923035,-0.016531525179743767,-0.0421687550842762,28.93547821044922,-25.890228271484375,18.597665786743164,-0.04027128219604492,-0.33054542541503906,-0.15262985229492188,2.2014245986938477,9.509113311767578,-2.0514230728149414
1_20251106_212455,1762435458791,1,0.2919498682022095,0.5069288611412048,0.5930036902427673,0.5532947182655334,0.919525146484375,3.201735019683838,0.7415034770965576,2.12404465675354,8.94035530090332,-2.2986197471618652,0.043516479432582855,-0.020196713507175446,-0.04888826981186867,28.947566986083984,-25.889564514160156,18.61167335510254,-0.061903953552246094,-0.45500659942626953,-0.19775748252868652,2.185948610305786,9.39536190032959,-2.1008622646331787
1_20251106_212455,1762435458811,1,0.29191043972969055,0.5069868564605713,0.5934510827064514,0.552782416343689,0.919525146484375,3.201735019683838,0.7415034770965576,2.12404465675354,8.94035530090332,-2.2986197471618652,0.011751508340239525,-0.017753256484866142,-0.05072086304426193,28.921810150146484,-25.893043518066406,18.7999210357666,-0.061903953552246094,-0.45500659942626953,-0.19775748252868652,2.185948610305786,9.39536190032959,-2.1008622646331787
1_20251106_212455,1762435458830,1,0.29203832149505615,0.5071820020675659,0.593723475933075,0.552243173122406,0.9210338592529297,3.201423406600952,0.7195427417755127,2.11087703704834,8.576452255249023,-2.3872013092041016,-0.016959132626652718,-0.011644609272480011,-0.06660334020853043,28.921316146850586,-25.893714904785156,18.867502212524414,-0.04421520233154297,-0.5604925155639648,-0.19494009017944336,2.155092239379883,9.136944770812988,-2.192261219024658
1_20251106_212455,1762435458850,1,0.2922803461551666,0.5071555376052856,0.5940117239952087,0.5518292188644409,0.9212438464164734,3.1981167793273926,0.7080333232879639,2.015113115310669,8.428018569946289,-2.441068649291992,-0.051167555153369904,-0.02141844481229782,-0.08615101128816605,28.912555694580078,-25.83185577392578,18.88184928894043,-0.1119832992553711,-0.5671405792236328,-0.19904589653015137,2.12709641456604,8.995159149169922,-2.242022752761841
1_20251106_212455,1762435458869,1,0.2927917540073395,0.5072477459907532,0.5941165089607239,0.5513604283332825,0.9206269383430481,3.1929492950439453,0.697356104850769,1.8331615924835205,8.199380874633789,-2.34769868850708,-0.09698240458965302,-0.007368554826825857,-0.10264435410499573,28.888704299926758,-25.809539794921875,19.003042221069336,-0.23514795303344727,-0.636622428894043,-0.08454084396362305,2.0683095455169678,8.836003303527832,-2.263157844543457
1_20251106_212455,1762435458887,1,0.2935549020767212,0.5070959329605103,0.5941845178604126,0.5510208010673523,0.9190475940704346,3.1866986751556396,0.6874735951423645,1.6524072885513306,8.186214447021484,-2.3740339279174805,-0.14340811967849731,0.04760926961898804,-0.10325522720813751,28.8411865234375,-25.776260375976562,19.123517990112305,-0.3327218294143677,-0.5198307037353516,-0.08870100975036621,1.9851291179656982,8.706045150756836,-2.2853329181671143
1_20251106_212455,1762435458906,1,0.2942977547645569,0.5063223838806152,0.5943053960800171,0.551205575466156,0.9163375496864319,3.1787350177764893,0.6768736243247986,1.574599027633667,8.088056564331055,-2.536832332611084,-0.19227731227874756,0.08426114916801453,-0.08126409351825714,28.96877098083496,-25.679336547851562,19.022138595581055,-0.3284240961074829,-0.49439048767089844,-0.20119953155517578,1.90302312374115,8.582447052001953,-2.335632801055908
1_20251106_212455,1762435458925,1,0.2950933873653412,0.5052385926246643,0.594335675239563,0.5517417788505554,0.9126550555229187,3.170292615890503,0.6661629676818848,1.4991848468780518,8.262825012207031,-2.56915283203125,-0.19227731227874756,0.08426114916801453,-0.08126409351825714,29.00693702697754,-25.651573181152344,18.997106552124023,-0.3230706453323364,-0.25569725036621094,-0.18681597709655762,1.8222554922103882,8.518522262573242,-2.3823368549346924
1_20251106_212455,1762435458945,1,0.29600027203559875,0.5040891170501709,0.5935110449790955,0.5531930923461914,0.9081177711486816,3.161425828933716,0.6553974747657776,1.5410816669464111,8.378938674926758,-2.4003689289093018,-0.2668027877807617,0.026229003444314003,0.04213057830929756,29.04410171508789,-25.63677215576172,19.012357711791992,-0.22493910789489746,-0.11166667938232422,-0.01442575454711914,1.7660207748413086,8.490605354309082,-2.3859431743621826
1_20251106_212455,1762435458963,1,0.2968443036079407,0.5034285187721252,0.5921354293823242,0.5548142790794373,0.9081177711486816,3.161425828933716,0.6553974747657776,1.5410816669464111,8.378938674926758,-2.4003689289093018,-0.2814635634422302,0.00668133283033967,0.11543434858322144,29.056076049804688,-25.647857666015625,18.94500160217285,-0.22493910789489746,-0.11166667938232422,-0.01442575454711914,1.7660207748413086,8.490605354309082,-2.3859431743621826
1_20251106_212455,1762435458983,1,0.29748597741127014,0.503219723701477,0.5902576446533203,0.5566577911376953,0.9039673209190369,3.1540400981903076,0.6456092000007629,1.7457771301269531,8.715309143066406,-2.412339210510254,-0.2814635634422302,0.00668133283033967,0.11543434858322144,29.018898010253906,-25.674278259277344,18.834871292114258,-0.016194939613342285,0.1797628402709961,-0.02111673355102539,1.7619720697402954,8.53554630279541,-2.3912224769592285
1_20251106_212455,1762435459001,1,0.29825007915496826,0.5031853318214417,0.5879179239273071,0.5587521195411682,0.8985385298728943,3.145564556121826,0.6296470761299133,2.1815030574798584,9.455085754394531,-1.8784555196762085,-0.3254458010196686,-0.015920663252472878,0.14903190732002258,28.991287231445312,-25.749862670898438,18.697145462036133,0.29799509048461914,0.6434736251831055,0.3877359628677368,1.8835079669952393,8.811612129211426,-2.2661914825439453
1_20251106_212455,1762435459020,1,0.29923802614212036,0.5029168128967285,0.5853694081306458,0.5611363053321838,0.897613525390625,3.144979953765869,0.6246241331100464,2.310784339904785,9.68851089477539,-1.566025733947754,-0.39936041831970215,0.061659157276153564,0.0964975357055664,28.96446418762207,-25.824371337890625,18.4512882232666,0.34182119369506836,0.7015190124511719,0.5601325035095215,1.9689631462097168,8.986991882324219,-2.1261582374572754
1_20251106_212455,1762435459040,1,0.3002132475376129,0.5019258856773376,0.5829969048500061,0.5639654397964478,0.8979314565658569,3.1473357677459717,0.6224320530891418,2.377819061279297,9.954256057739258,-1.1949403285980225,-0.3926409184932709,0.09953276813030243,0.03663279488682747,28.937034606933594,-25.911300659179688,18.191652297973633,0.3270847797393799,0.7738113403320312,0.7449743747711182,2.050734281539917,9.180444717407227,-1.9399147033691406
1_20251106_212455,1762435459059,1,0.3012775778770447,0.5003896355628967,0.5810045003890991,0.5668119788169861,0.8979314565658569,3.1473357677459717,0.6224320530891418,2.377819061279297,9.954256057739258,-1.1949403285980225,-0.3046764135360718,0.08426114916801453,-0.02201021835207939,28.832077026367188,-26.066993713378906,18.04939842224121,0.3270847797393799,0.7738113403320312,0.7449743747711182,2.050734281539917,9.180444717407227,-1.9399147033691406
1_20251106_212455,1762435459079,1,0.3023126721382141,0.49878451228141785,0.5797051191329956,0.5690018534660339,0.8997782468795776,3.1586742401123047,0.6272886395454407,2.107285976409912,10.047625541687012,-0.8920868039131165,-0.16845358908176422,0.0647134780883789,-0.04277962073683739,28.73223876953125,-26.14612579345703,17.787080764770508,0.012826681137084961,0.5523138046264648,0.6595012545585632,2.094459295272827,9.495311737060547,-1.5515880584716797
1_20251106_212455,1762435459098,1,0.30292654037475586,0.4974609315395355,0.5791962146759033,0.5703506469726562,0.9005482196807861,3.165867805480957,0.6312070488929749,2.064192295074463,9.914752960205078,-1.329009771347046,-0.09576068073511124,0.04577667638659477,-0.01956675946712494,28.73223876953125,-26.14612579345703,17.787080764770508,-0.024213552474975586,0.3355531692504883,0.1780625581741333,2.0884058475494385,9.57919979095459,-1.5070723295211792
1_20251106_212455,1762435459116,1,0.30323949456214905,0.49662691354751587,0.5788965821266174,0.5712147355079651,0.9012081027030945,3.173017740249634,0.6346120834350586,2.074965476989746,9.853703498840332,-1.556449294090271,-0.11225402355194092,0.007292197551578283,0.03052414581179619,28.618703842163086,-26.251304626464844,17.537263870239258,-0.010752439498901367,0.2196025848388672,-0.03950154781341553,2.0857179164886475,9.634100914001465,-1.5169477462768555
1_20251106_212455,1762435459136,1,0.3035769760608673,0.49632933735847473,0.5781766176223755,0.5720227360725403,0.9022285342216492,3.180981397628784,0.6382790207862854,2.1922764778137207,9.771106719970703,-1.4930055141448975,-0.11225402355194092,0.007292197551578283,0.03052414581179619,28.529232025146484,-26.366912841796875,17.234098434448242,0.08524680137634277,0.1096048355102539,0.019153833389282227,2.107029676437378,9.66150188446045,-1.5121593475341797
1_20251106_212455,1762435459154,1,0.3040222227573395,0.4962185323238373,0.5768593549728394,0.573211133480072,0.9037560224533081,3.1883316040039062,0.6416707038879395,2.3730309009552,9.881235122680664,-1.4080151319503784,-0.21976622939109802,0.0390571653842926,0.07572814077138901,28.465864181518555,-26.43218994140625,17.081647872924805,0.2128009796142578,0.17578601837158203,0.08331537246704102,2.1602299213409424,9.705449104309082,-1.4913305044174194
1_20251106_212455,1762435459173,1,0.3043898940086365,0.4957156479358673,0.5754519104957581,0.5748633742332458,0.9060817956924438,3.1961417198181152,0.6452347040176392,2.4496421813964844,9.865674018859863,-1.4319560527801514,-0.22220969200134277,0.06776780635118484,0.012198206037282944,28.3905086517334,-26.49798583984375,16.901674270629883,0.23152971267700195,0.12817955017089844,0.047499656677246094,2.2181124687194824,9.737494468688965,-1.4794557094573975
1_20251106_212455,1762435459193,1,0.30497267842292786,0.49474260210990906,0.5743594169616699,0.5764830112457275,0.9086565375328064,3.2036027908325195,0.6487866640090942,2.300010919570923,9.622673034667969,-1.483429193496704,-0.22220969200134277,0.06776780635118484,0.012198206037282944,28.305984497070312,-26.514076232910156,16.695234298706055,0.06551885604858398,-0.0918569564819336,-0.003178834915161133,2.234492063522339,9.714529991149902,-1.480250358581543
1_20251106_212455,1762435459211,1,0.30590224266052246,0.4934104084968567,0.5736076235771179,0.5778790712356567,0.9086565375328064,3.2036027908325195,0.6487866640090942,2.300010919570923,9.622673034667969,-1.483429193496704,-0.24053561687469482,0.08426115661859512,-0.0782097727060318,28.290557861328125,-26.5888671875,16.55799674987793,0.06551885604858398,-0.0918569564819336,-0.003178834915161133,2.234492063522339,9.714529991149902,-1.480250358581543
1_20251106_212455,1762435459230,1,0.3070063292980194,0.49186545610427856,0.5728647112846375,0.5793457627296448,0.9123791456222534,3.214094638824463,0.6553748250007629,2.079753875732422,9.316228866577148,-1.3852711915969849,-0.24053561687469482,0.08426115661859512,-0.0782097727060318,28.266258239746094,-26.613548278808594,16.353742599487305,-0.11243939399719238,-0.2729167938232422,0.06710708141326904,2.1921932697296143,9.58914566040039,-1.452378273010254
1_20251106_212455,1762435459251,1,0.3080941140651703,0.49039313197135925,0.5719894170761108,0.5808792114257812,0.9137294888496399,3.2181780338287354,0.6592134833335876,2.0725717544555664,9.311440467834473,-1.3733006715774536,-0.2949025630950928,0.08365029096603394,-0.02201021835207939,28.263622283935547,-26.67511749267578,16.230775833129883,-0.09569716453552246,-0.22216415405273438,0.06326210498809814,2.168268918991089,9.533604621887207,-1.4365627765655518
1_20251106_212455,1762435459271,1,0.309163361787796,0.4889857769012451,0.5706892609596252,0.5827732682228088,0.9137294888496399,3.2181780338287354,0.6592134833335876,2.0725717544555664,9.311440467834473,-1.3733006715774536,-0.343771755695343,0.08914807438850403,-0.0036842767149209976,28.26059341430664,-26.737228393554688,16.161874771118164,-0.09569716453552246,-0.22216415405273438,0.06326210498809814,2.168268918991089,9.533604621887207,-1.4365627765655518
1_20251106_212455,1762435459289,1,0.31031742691993713,0.48749861121177673,0.569053590297699,0.5850009918212891,0.9164796471595764,3.223543167114258,0.6674923300743103,2.295222759246826,9.317425727844238,-0.9710921049118042,-0.3590433597564697,0.07265472412109375,-0.027508001774549484,28.196224212646484,-26.815467834472656,16.049707412719727,0.09523200988769531,-0.1431427001953125,0.34731554985046387,2.199990749359131,9.46056842803955,-1.318407654762268
1_20251106_212455,1762435459309,1,0.31169578433036804,0.48589012026786804,0.567409098148346,0.5871996283531189,0.9179787039756775,3.22542667388916,0.6735877990722656,2.200655937194824,9.304258346557617,-0.8298402428627014,-0.3590433597564697,0.07265472412109375,-0.027508001774549484,28.179981231689453,-26.91455841064453,15.830842971801758,0.0005321502685546875,-0.1250476837158203,0.3908539414405823,2.2001237869262695,9.429306030273438,-1.2206941843032837
1_20251106_212455,1762435459327,1,0.3132425844669342,0.48406514525413513,0.5661655068397522,0.5890811681747437,0.9185935258865356,3.226475954055786,0.679181694984436,1.928925633430481,9.214479446411133,-0.9148308038711548,-0.3028438091278076,0.10380882769823074,-0.1246354877948761,28.154075622558594,-26.964622497558594,15.653093338012695,-0.2169584035873413,-0.1718616485595703,0.2446906566619873,2.1458840370178223,9.386341094970703,-1.159521460533142
1_20251106_212455,1762435459345,1,0.3147999048233032,0.4819266200065613,0.5652834177017212,0.5908489227294922,0.9185935258865356,3.226475954055786,0.679181694984436,1.928925633430481,9.214479446411133,-0.9148308038711548,-0.3291109800338745,0.1270216852426529,-0.09531398117542267,28.12565803527832,-27.052894592285156,15.528619766235352,-0.2169584035873413,-0.1718616485595703,0.2446906566619873,2.1458840370178223,9.386341094970703,-1.159521460533142
1_20251106_212455,1762435459364,1,0.3162010908126831,0.47971251606941223,0.5642333030700684,0.592902660369873,0.9169654846191406,3.2270963191986084,0.6921327114105225,1.7637327909469604,9.23243522644043,-0.9435599446296692,-0.3920300602912903,0.12885427474975586,-0.02567540854215622,28.065505981445312,-27.067398071289062,15.323160171508789,-0.24553453922271729,-0.08758258819580078,0.1476002335548401,2.0092673301696777,9.32001781463623,-1.0911601781845093
1_20251106_212455,1762435459384,1,0.31749939918518066,0.4776758551597595,0.5625356435775757,0.595460832118988,0.9169654846191406,3.2270963191986084,0.6921327114105225,1.7637327909469604,9.23243522644043,-0.9435599446296692,-0.4158537983894348,0.1007544994354248,0.05007181689143181,27.938982009887695,-27.186065673828125,15.086103439331055,-0.24553453922271729,-0.08758258819580078,0.1476002335548401,2.0092673301696777,9.32001781463623,-1.0911601781845093
1_20251106_212455,1762435459402,1,0.3186386227607727,0.4761360287666321,0.5602567195892334,0.5982276201248169,0.915208101272583,3.2279558181762695,0.7004470229148865,1.895408272743225,9.508953094482422,-0.789140522480011,-0.38775402307510376,0.05677224323153496,0.09833013266324997,27.81498146057129,-27.254905700683594,14.890649795532227,-0.0910872220993042,0.15114879608154297,0.24161571264266968,1.9864954948425293,9.357804298400879,-1.0307562351226807
1_20251106_212455,1762435459422,1,0.3196428716182709,0.4752136170864105,0.5577272772789001,0.6007834672927856,0.9135652184486389,3.2318012714385986,0.7167547345161438,2.2305822372436523,9.779486656188965,-0.43720802664756775,-0.38775402307510376,0.05677224323153496,0.09833013266324997,27.651491165161133,-27.388107299804688,14.611307144165039,0.1813056468963623,0.28155994415283203,0.3905964195728302,2.04927659034729,9.497926712036133,-0.827804446220398
1_20251106_212455,1762435459440,1,0.32030588388442993,0.4745917320251465,0.5553373694419861,0.6031312346458435,0.9135652184486389,3.2318012714385986,0.7167547345161438,2.2305822372436523,9.779486656188965,-0.43720802664756775,-0.32666754722595215,0.025618137791752815,0.12581904232501984,27.562637329101562,-27.47968292236328,14.416799545288086,0.1813056468963623,0.28155994415283203,0.3905964195728302,2.04927659034729,9.497926712036133,-0.827804446220398
1_20251106_212455,1762435459460,1,0.32096076011657715,0.4741169810295105,0.5529126524925232,0.6053799390792847,0.9154465198516846,3.239654302597046,0.7352632284164429,2.5094947814941406,10.07396125793457,-0.4455873668193817,-0.356599897146225,0.010957385413348675,0.09344321489334106,27.446693420410156,-27.622940063476562,14.20673942565918,0.309478759765625,0.3924121856689453,0.2641547620296478,2.2000160217285156,9.681549072265625,-0.7097421288490295
1_20251106_212455,1762435459479,1,0.3218762278556824,0.4736756384372711,0.5502817034721375,0.6076323986053467,0.9176046252250671,3.2456746101379395,0.7462074160575867,2.4280953407287598,10.152965545654297,-0.2971532344818115,-0.37370413541793823,0.028672462329268456,0.03968711942434311,27.309083938598633,-27.72930145263672,13.91539192199707,0.1824634075164795,0.3771333694458008,0.3300711512565613,2.2456319332122803,9.775832176208496,-0.6272243857383728
1_20251106_212455,1762435459499,1,0.323074609041214,0.4727901220321655,0.547753095626831,0.6099662780761719,0.9176046252250671,3.2456746101379395,0.7462074160575867,2.4280953407287598,10.152965545654297,-0.2971532344818115,-0.3767584562301636,0.05860483646392822,0.0195285826921463,27.19696044921875,-27.809364318847656,13.666101455688477,0.1824634075164795,0.3771333694458008,0.3300711512565613,2.2456319332122803,9.775832176208496,-0.6272243857383728
1_20251106_212455,1762435459519,1,0.3243737518787384,0.47143125534057617,0.5454219579696655,0.6124125719070435,0.9223037958145142,3.2595055103302,0.770310640335083,2.376622200012207,10.163740158081055,0.04280876740813255,-0.35721075534820557,0.05127445608377457,0.040297981351614,27.04334259033203,-27.979713439941406,13.413492202758789,0.09130334854125977,0.25458240509033203,0.4606148302555084,2.2853188514709473,9.909157752990723,-0.41780605912208557
1_20251106_212455,1762435459537,1,0.32553884387016296,0.4700499176979065,0.5431801080703735,0.6148437857627869,0.9248429536819458,3.2674856185913086,0.7839345932006836,2.3850016593933105,10.395966529846191,0.3169330656528473,-0.3132285177707672,0.021342085674405098,0.05373700335621834,27.04334259033203,-27.979713439941406,13.413492202758789,0.07974624633789062,0.3894472122192383,0.5877913236618042,2.30525541305542,10.006519317626953,-0.2708582282066345
1_20251106_212455,1762435459555,1,0.3265899419784546,0.469237357378006,0.5410800576210022,0.6167557835578918,0.9272714853286743,3.275402784347534,0.7976906895637512,2.363454818725586,10.304991722106934,0.33608585596084595,-0.3132285177707672,0.021342085674405098,0.05373700335621834,26.831924438476562,-28.09178924560547,13.213815689086914,0.04655957221984863,0.23877811431884766,0.4855552911758423,2.3168952465057373,10.066213607788086,-0.14946943521499634
1_20251106_212455,1762435459575,1,0.3272522985935211,0.4686884582042694,0.5395509004592896,0.6181600689888,0.930038332939148,3.2842965126037598,0.8131375908851624,2.3838043212890625,10.242744445800781,0.15533140301704407,-0.14646245539188385,-0.005535961594432592,0.06839776039123535,26.681224822998047,-28.211776733398438,12.948747634887695,0.0535273551940918,0.14122486114501953,0.24384067952632904,2.3302769660949707,10.101519584655762,-0.08850927650928497
1_20251106_212455,1762435459594,1,0.3276110589504242,0.4685704708099365,0.5382751822471619,0.6191708445549011,0.932745099067688,3.29223370552063,0.8265206813812256,2.468794822692871,10.236759185791016,-0.01704370230436325,-0.12386045604944229,-0.07700712978839874,0.09038889408111572,26.58108901977539,-28.29131317138672,12.726980209350586,0.11081433296203613,0.10819149017333984,0.05717245489358902,2.357980489730835,10.128567695617676,-0.07421615719795227
1_20251106_212455,1762435459613,1,0.32809847593307495,0.46909525990486145,0.5368250012397766,0.6197741031646729,0.936081051826477,3.3008642196655273,0.841377854347229,2.5154800415039062,10.211621284484863,0.16610485315322876,-0.11653007566928864,-0.13870447874069214,0.09833014011383057,26.45628547668457,-28.372840881347656,12.544778823852539,0.12599968910217285,0.06644248962402344,0.19225680828094482,2.3894803524017334,10.14517879486084,-0.026151958853006363
1_20251106_212455,1762435459632,1,0.3287436366081238,0.4700336456298828,0.5352439880371094,0.6200885772705078,0.939430832862854,3.3091180324554443,0.8552383780479431,2.5130858421325684,10.314567565917969,0.13857272267341614,-0.1134757548570633,-0.11426988244056702,0.06167824566364288,26.312747955322266,-28.355506896972656,12.363710403442383,0.09888458251953125,0.1355113983154297,0.131779745221138,2.414201259613037,10.179056167602539,0.006792975589632988
1_20251106_212455,1762435459652,1,0.3294758200645447,0.47063523530960083,0.5338929295539856,0.620408296585083,0.9428483247756958,3.3174052238464355,0.8691210746765137,2.436474561691284,10.190074920654297,0.014079585671424866,-0.16784271597862244,-0.031192278489470482,-0.006738600321114063,26.17405128479004,-28.463356018066406,12.221040725708008,0.017818689346313477,0.008815765380859375,0.005829288624227047,2.4186558723449707,10.181259155273438,0.008250297047197819
1_20251106_212455,1762435459670,1,0.33045533299446106,0.4702461063861847,0.5327807664871216,0.6211380958557129,0.9454840421676636,3.3241825103759766,0.8810021877288818,2.3024048805236816,10.056005477905273,0.012882530689239502,-0.21182498335838318,0.035391975194215775,-0.04583394527435303,26.06224822998047,-28.519790649414062,12.12095832824707,-0.09300088882446289,-0.10020256042480469,0.0037057865411043167,2.3954057693481445,10.156208038330078,0.009176744148135185
1_20251106_212455,1762435459690,1,0.33156147599220276,0.46917638182640076,0.531783938407898,0.6222108602523804,0.947615921497345,3.3311007022857666,0.8936201333999634,2.1815030574798584,10.07874870300293,0.03442942351102829,-0.21182498335838318,0.035391975194215775,-0.04583394527435303,25.953365325927734,-28.525863647460938,12.008413314819336,-0.17112207412719727,-0.06196784973144531,0.020202143117785454,2.3526251316070557,10.140716552734375,0.014227280393242836
1_20251106_212455,1762435459712,1,0.33258235454559326,0.468060165643692,0.5307413935661316,0.6233957409858704,0.947615921497345,3.3311007022857666,0.8936201333999634,2.1815030574798584,10.07874870300293,0.03442942351102829,-0.22220967710018158,0.03661370649933815,-0.034227512776851654,25.957172393798828,-28.474288940429688,11.874307632446289,-0.17112207412719727,-0.06196784973144531,0.020202143117785454,2.3526251316070557,10.140716552734375,0.014227280393242836
1_20251106_212455,1762435459731,1,0.33347076177597046,0.4674057066440582,0.5294530987739563,0.6245067119598389,0.9504445791244507,3.3433847427368164,0.919241726398468,2.284449338912964,9.976999282836914,0.25109535455703735,-0.19166645407676697,-0.02202930860221386,0.05312614142894745,25.82522964477539,-28.45697021484375,11.77482795715332,-0.02926778793334961,-0.11818599700927734,0.16538557410240173,2.3137171268463135,10.095185279846191,0.08570977300405502
1_20251106_212455,1762435459747,1,0.33419495820999146,0.46718549728393555,0.5279839038848877,0.6255273222923279,0.9514761567115784,3.347215414047241,0.9292795062065125,2.343104839324951,9.88243293762207,0.3839678466320038,-0.17761656641960144,-0.029359685257077217,0.07572813332080841,25.755413055419922,-28.422447204589844,11.610483169555664,0.023510217666625977,-0.17020130157470703,0.23860645294189453,2.319594621658325,10.052634239196777,0.14536139369010925
1_20251106_212455,1762435459766,1,0.334701806306839,0.4671340584754944,0.5264883041381836,0.6265544891357422,0.9528751373291016,3.3510797023773193,0.9412941336631775,2.405351400375366,9.886024475097656,0.3971353769302368,-0.17334049940109253,0.00668133283033967,0.07694986462593079,25.64853286743164,-28.40259552001953,11.417367935180664,0.06860542297363281,-0.1332874298095703,0.2014191895723343,2.3367459774017334,10.019311904907227,0.19571618735790253
1_20251106_212455,1762435459786,1,0.33505934476852417,0.466933012008667,0.5250596404075623,0.6277110576629639,0.954548180103302,3.3542113304138184,0.9537282586097717,2.4268980026245117,9.778289794921875,0.3336917757987976,-0.1647883951663971,0.04211148992180824,0.04274144023656845,25.609338760375977,-28.466552734375,11.292928695678711,0.07212162017822266,-0.19281768798828125,0.11038047075271606,2.354776382446289,9.971107482910156,0.22331130504608154
1_20251106_212455,1762435459804,1,0.3353751599788666,0.466366171836853,0.5239585638046265,0.6288827657699585,0.9560206532478333,3.3559041023254395,0.9645722508430481,2.3718338012695312,9.571200370788574,0.3097507953643799,-0.16539925336837769,0.06288088858127594,0.0024243704974651337,25.549495697021484,-28.469039916992188,11.14179801940918,0.01364588737487793,-0.31992626190185547,0.06915158033370972,2.3581879138946533,9.89112663269043,0.24059921503067017
1_20251106_212455,1762435459823,1,0.33581775426864624,0.46548840403556824,0.5231045484542847,0.6300068497657776,0.957281768321991,3.3561787605285645,0.9754324555397034,2.279661178588867,9.372489929199219,0.2355337142944336,-0.16539925336837769,0.06288088858127594,0.0024243704974651337,25.41583251953125,-28.488853454589844,10.987459182739258,-0.0628213882446289,-0.41490936279296875,-0.004052400588989258,2.342482566833496,9.787399291992188,0.23958611488342285
1_20251106_212455,1762435459842,1,0.3362715542316437,0.4646470248699188,0.5222412347793579,0.631101131439209,0.957281768321991,3.3561787605285645,0.9754324555397034,2.279661178588867,9.372489929199219,0.2355337142944336,-0.14585158228874207,0.028061598539352417,0.02380463480949402,25.319332122802734,-28.493858337402344,10.848373413085938,-0.0628213882446289,-0.41490936279296875,-0.004052400588989258,2.342482566833496,9.787399291992188,0.23958611488342285
1_20251106_212455,1762435459862,1,0.3366445302963257,0.46415939927101135,0.5213351845741272,0.6320095658302307,0.9583700895309448,3.3552610874176025,0.9859564900398254,2.285646438598633,9.395233154296875,0.1289963275194168,-0.15684714913368225,-0.008590285666286945,0.05190441384911537,25.258487701416016,-28.509307861328125,10.737527847290039,-0.045469045639038086,-0.3137331008911133,-0.08847182989120483,2.331115484237671,9.708966255187988,0.21746815741062164
1_20251106_212455,1762435459880,1,0.3371243476867676,0.4641864001750946,0.5201669335365295,0.6326962113380432,0.9595751166343689,3.353563070297241,0.9959473609924316,2.3873956203460693,9.437129974365234,0.21518388390541077,-0.17578396201133728,0.0005726855015382171,0.04946095123887062,25.173072814941406,-28.52661895751953,10.652732849121094,0.04502415657043457,-0.2174692153930664,-0.0018274188041687012,2.3423714637756348,9.6545991897583,0.21701130270957947
1_20251106_212455,1762435459900,1,0.3376075029373169,0.4641098380088806,0.5188072323799133,0.6336105465888977,0.9627645015716553,3.349400758743286,1.0126270055770874,2.533435344696045,9.494588851928711,0.19363698363304138,-0.19166645407676697,0.02683986909687519,0.01158734131604433,25.0894775390625,-28.50666046142578,10.60927963256836,0.1264944076538086,-0.09321403503417969,-0.021663039922714233,2.4069409370422363,9.58780288696289,0.21530002355575562
1_20251106_212455,1762435459919,1,0.33809807896614075,0.46371304988861084,0.5175536274909973,0.6346638202667236,0.9627645015716553,3.349400758743286,1.0126270055770874,2.533435344696045,9.494588851928711,0.19363698363304138,-0.19899682700634003,0.0390571653842926,-0.025064542889595032,25.01634979248047,-28.523040771484375,10.511459350585938,0.1264944076538086,-0.09321403503417969,-0.021663039922714233,2.4069409370422363,9.58780288696289,0.21530002355575562
1_20251106_212455,1762435459939,1,0.338812917470932,0.4631771445274353,0.5164569616317749,0.6355666518211365,0.9667470455169678,3.344290256500244,1.029157280921936,2.402956962585449,9.525711059570312,0.2678540349006653,-0.19410990178585052,0.0005726855015382171,-0.03667097166180611,24.92499351501465,-28.428260803222656,10.442066192626953,-0.013083934783935547,-0.03724861145019531,0.04991443455219269,2.4160408973693848,9.562959671020508,0.2179396003484726
1_20251106_212455,1762435459958,1,0.33985406160354614,0.46285954117774963,0.5153836607933044,0.636113166809082,0.9667470455169678,3.344290256500244,1.029157280921936,2.402956962585449,9.525711059570312,0.2678540349006653,-0.1904447078704834,-0.043409571051597595,-0.02201021835207939,24.844512939453125,-28.35767364501953,10.359119415283203,-0.013083934783935547,-0.03724861145019531,0.04991443455219269,2.4160408973693848,9.562959671020508,0.2179396003484726
1_20251106_212455,1762435459976,1,0.34100160002708435,0.4626728892326355,0.5141951441764832,0.6365964412689209,0.9689742922782898,3.3397700786590576,1.0446498394012451,2.2437496185302734,9.540077209472656,0.5503576993942261,-0.18739038705825806,-0.05379427224397659,0.007311288267374039,24.844512939453125,-28.35767364501953,10.359119415283203,-0.11735296249389648,-0.012155532836914062,0.22615453600883484,2.36110258102417,9.55223274230957,0.32420316338539124
1_20251106_212455,1762435459995,1,0.3421470522880554,0.4623962938785553,0.5128519535064697,0.6372659802436829,0.9689742922782898,3.3397700786590576,1.0446498394012451,2.2437496185302734,9.540077209472656,0.5503576993942261,-0.1953316330909729,-0.052572544664144516,0.03235674276947975,24.84741973876953,-28.318923950195312,10.251781463623047,-0.11735296249389648,-0.012155532836914062,0.22615453600883484,2.36110258102417,9.55223274230957,0.32420316338539124
1_20251106_212455,1762435460015,1,0.3431659936904907,0.4620531499385834,0.5114089250564575,0.6381260752677917,0.9698413610458374,3.3347203731536865,1.0624418258666992,2.22100567817688,9.455085754394531,0.5742986798286438,-0.20815978944301605,-0.049518220126628876,0.04946095123887062,24.791606903076172,-28.246337890625,10.129266738891602,-0.09502482414245605,-0.07136821746826172,0.1746172308921814,2.316030502319336,9.526453971862793,0.3996814489364624
1_20251106_212455,1762435460034,1,0.34413519501686096,0.4618905782699585,0.509846031665802,0.6389718651771545,0.9699820876121521,3.3322181701660156,1.071292519569397,2.2892374992370605,9.468254089355469,0.6664714813232422,-0.2362595647573471,-0.0043142312206327915,0.06167824938893318,24.731170654296875,-28.2496337890625,10.059232711791992,-0.021434307098388672,-0.04656028747558594,0.21343204379081726,2.310671806335449,9.514814376831055,0.4530394375324249
1_20251106_212455,1762435460052,1,0.3449145555496216,0.4612879753112793,0.5082329511642456,0.6402707695960999,0.9700825214385986,3.329521417617798,1.0801697969436646,2.300010919570923,9.334184646606445,0.8232849836349487,-0.2362595647573471,-0.0043142312206327915,0.06167824938893318,24.707788467407227,-28.2498779296875,9.923089981079102,-0.008528709411621094,-0.14450359344482422,0.29619646072387695,2.308539628982544,9.47868824005127,0.5270885229110718
1_20251106_212455,1762435460071,1,0.34570741653442383,0.46048614382743835,0.5066247582435608,0.6416932344436646,0.9699200987815857,3.325698137283325,1.0900026559829712,2.2126264572143555,9.070833206176758,0.8663787245750427,-0.20815980434417725,0.015233438462018967,0.03724366053938866,24.64874839782715,-28.23967742919922,9.758707046508789,-0.07673048973083496,-0.32628440856933594,0.27143216133117676,2.2893569469451904,9.397117614746094,0.594946563243866
1_20251106_212455,1762435460091,1,0.34630316495895386,0.45959657430648804,0.5051921606063843,0.6431376338005066,0.9692114591598511,3.320559024810791,1.1002130508422852,2.10968017578125,8.964296340942383,0.7191416621208191,-0.1537928283214569,-0.00859028659760952,0.06900862604379654,24.578649520874023,-28.193946838378906,9.729787826538086,-0.14374136924743652,-0.34625720977783203,0.09935611486434937,2.2534215450286865,9.310553550720215,0.6197855472564697
1_20251106_212455,1762435460115,1,0.3466467559337616,0.4591452181339264,0.5038598775863647,0.6443189978599548,0.9674232602119446,3.3133838176727295,1.1115909814834595,2.029477834701538,9.009783744812012,0.5599340796470642,-0.1537928283214569,-0.00859028659760952,0.06900862604379654,24.519622802734375,-28.17212677001953,9.660282135009766,-0.1791548728942871,-0.2406158447265625,-0.04788118600845337,2.208632707595825,9.250399589538574,0.6078152656555176
1_20251106_212455,1762435460131,1,0.3464577794075012,0.4595867991447449,0.5026551485061646,0.6450463533401489,0.966205358505249,3.308751106262207,1.1181495189666748,2.1647443771362305,9.204902648925781,0.2750363349914551,-0.03528507798910141,-0.13442841172218323,0.24493765830993652,24.46100616455078,-28.138160705566406,9.631589889526367,-0.0351107120513916,-0.03639698028564453,-0.26622313261032104,2.199855089187622,9.241299629211426,0.5412594676017761
1_20251106_212455,1762435460150,1,0.345909982919693,0.46124714612960815,0.5013067126274109,0.6452046036720276,0.9652506709098816,3.304104804992676,1.12459135055542,2.3526811599731445,9.452692031860352,0.1924399435520172,-0.05422188341617584,-0.2132299691438675,0.3023589551448822,24.37860870361328,-28.10497283935547,9.520818710327148,0.12226080894470215,0.1691141128540039,-0.2790556252002716,2.2304203510284424,9.283577919006348,0.4714955687522888
1_20251106_212455,1762435460168,1,0.34550929069519043,0.46407023072242737,0.49939432740211487,0.6448778510093689,0.9652506709098816,3.304104804992676,1.12459135055542,2.3526811599731445,9.452692031860352,0.1924399435520172,-0.15684714913368225,-0.2022344022989273,0.2870873510837555,24.317468643188477,-28.120826721191406,9.450521469116211,0.12226080894470215,0.1691141128540039,-0.2790556252002716,2.2304203510284424,9.283577919006348,0.4714955687522888
1_20251106_212455,1762435460186,1,0.34559789299964905,0.46666187047958374,0.49689337611198425,0.6448920369148254,0.9658704996109009,3.297811508178711,1.1361517906188965,2.673490285873413,9.573593139648438,0.7634324431419373,-0.15684714913368225,-0.2022344022989273,0.2870873510837555,24.17304039001465,-28.104705810546875,9.39109992980957,0.30808043479919434,0.18944072723388672,0.24468106031417847,2.3654098510742188,9.38415241241455,0.5187513828277588
1_20251106_212455,1762435460206,1,0.34597232937812805,0.4678020477294922,0.4939737319946289,0.6461070775985718,0.9680052399635315,3.295835018157959,1.1438655853271484,2.7967865467071533,9.69329833984375,0.9741131663322449,-0.2887939214706421,-0.09838739037513733,0.23821815848350525,24.079360961914062,-28.059486389160156,9.253068923950195,0.34510135650634766,0.24731731414794922,0.36428940296173096,2.4516851902008057,9.4459810256958,0.6098237633705139
1_20251106_212455,1762435460225,1,0.3463197648525238,0.4673598110675812,0.49080780148506165,0.6486486792564392,0.9712070822715759,3.295222520828247,1.1524146795272827,2.9164915084838867,9.872856140136719,1.188385009765625,-0.38958659768104553,0.014622574672102928,0.19667935371398926,23.896358489990234,-28.083282470703125,9.177865982055664,0.371845006942749,0.34150028228759766,0.4628490209579468,2.5446465015411377,9.531355857849121,0.7255359888076782
1_20251106_212455,1762435460243,1,0.34696486592292786,0.46651434898376465,0.4875732958316803,0.6513463258743286,0.9752814769744873,3.2957215309143066,1.1619737148284912,3.0290141105651855,9.957847595214844,1.4828591346740723,-0.40974512696266174,0.029283326119184494,0.15514054894447327,23.788068771362305,-28.088546752929688,8.984224319458008,0.3874940872192383,0.34119319915771484,0.605858564376831,2.6415200233459473,9.616654396057129,0.8770005702972412
1_20251106_212455,1762435460262,1,0.34766697883605957,0.4656996428966522,0.4846218526363373,0.6537531614303589,0.980604350566864,3.2976012229919434,1.1729981899261475,3.0924577713012695,10.1194486618042,1.4014596939086914,-0.3132285177707672,0.014622574672102928,0.08489111065864563,23.6393985748291,-28.159385681152344,8.828340530395508,0.3607501983642578,0.4022359848022461,0.4195672869682312,2.7317075729370117,9.717212677001953,0.9818924069404602
1_20251106_212455,1762435460281,1,0.34822675585746765,0.46455565094947815,0.48200738430023193,0.6561974287033081,0.9867953658103943,3.3005857467651367,1.1844451427459717,3.145127773284912,10.154163360595703,1.3368191719055176,-0.3132285177707672,0.014622574672102928,0.08489111065864563,23.490829467773438,-28.230087280273438,8.658941268920898,0.3307361602783203,0.3495607376098633,0.283941388130188,2.814391613006592,9.80460262298584,1.0528777837753296
1_20251106_212455,1762435460302,1,0.349054217338562,0.4633711278438568,0.4797898232936859,0.6582173705101013,0.9867953658103943,3.3005857467651367,1.1844451427459717,3.145127773284912,10.154163360595703,1.3368191719055176,-0.324224054813385,0.01706603355705738,-0.033616650849580765,23.341453552246094,-28.3134765625,8.50279426574707,0.3307361602783203,0.3495607376098633,0.283941388130188,2.814391613006592,9.80460262298584,1.0528777837753296
1_20251106_212455,1762435460321,1,0.35052579641342163,0.4619923233985901,0.47796234488487244,0.6597323417663574,1.0002110004425049,3.3088836669921875,1.2084859609603882,2.865018367767334,10.100296020507812,1.4672975540161133,-0.3498803973197937,0.03722456842660904,-0.10325522720813751,23.215648651123047,-28.40796661376953,8.360879898071289,0.00022459030151367188,0.18388080596923828,0.29663920402526855,2.8647937774658203,9.916415214538574,1.1706583499908447
1_20251106_212455,1762435460339,1,0.35247543454170227,0.4601059854030609,0.4763500392436981,0.6611763834953308,1.0002110004425049,3.3088836669921875,1.2084859609603882,2.865018367767334,10.100296020507812,1.4672975540161133,-0.3773692846298218,0.0958675816655159,-0.1447940319776535,23.154987335205078,-28.43476104736328,8.128122329711914,0.00022459030151367188,0.18388080596923828,0.29663920402526855,2.8647937774658203,9.916415214538574,1.1706583499908447
1_20251106_212455,1762435460359,1,0.35452234745025635,0.45748916268348694,0.4749731421470642,0.6628862023353577,1.0097471475601196,3.316955804824829,1.235292911529541,2.440065860748291,9.814201354980469,1.7761361598968506,-0.3773692846298218,0.0958675816655159,-0.1447940319776535,23.05677032470703,-28.476898193359375,7.934179306030273,-0.29653310775756836,-0.08820915222167969,0.4085737466812134,2.7365989685058594,9.902410507202148,1.3675624132156372
1_20251106_212455,1762435460379,1,0.3563637435436249,0.4547416567802429,0.473570853471756,0.6647898554801941,1.01276695728302,3.320066452026367,1.250523328781128,2.4185187816619873,9.719634056091309,1.959284782409668,-0.3449934720993042,0.11969131231307983,-0.05133172497153282,23.043851852416992,-28.513473510742188,7.743669509887695,-0.25446438789367676,-0.14622116088867188,0.47337794303894043,2.672983169555664,9.86585521697998,1.4859068393707275
1_20251106_212455,1762435460396,1,0.3576493263244629,0.4524504542350769,0.4720453917980194,0.6667448282241821,1.01276695728302,3.320066452026367,1.250523328781128,2.4185187816619873,9.719634056091309,1.959284782409668,-0.29001563787460327,0.10380882769823074,0.025026366114616394,23.043851852416992,-28.513473510742188,7.743669509887695,-0.25446438789367676,-0.14622116088867188,0.47337794303894043,2.672983169555664,9.86585521697998,1.4859068393707275
1_20251106_212455,1762435460417,1,0.35824984312057495,0.45074373483657837,0.4704873561859131,0.6686769127845764,1.0177748203277588,3.3243813514709473,1.2799813747406006,2.690248966217041,9.649007797241211,1.7318453788757324,-0.22526401281356812,0.03050505556166172,0.047628361731767654,23.00677490234375,-28.539756774902344,7.620023727416992,0.025606393814086914,-0.1546792984008789,0.13077831268310547,2.664642572402954,9.80368709564209,1.601067066192627
1_20251106_212455,1762435460436,1,0.3587011396884918,0.4498491585254669,0.46899980306625366,0.6700809001922607,1.0200347900390625,3.3253376483917236,1.2943106889724731,2.628002405166626,9.518529891967773,1.7749391794204712,-0.19777509570121765,-0.012866338714957237,0.038465388119220734,22.997282028198242,-28.513687133789062,7.44434928894043,-0.0293121337890625,-0.22812557220458984,0.13909780979156494,2.6573145389556885,9.746655464172363,1.6358413696289062
1_20251106_212455,1762435460453,1,0.3592815697193146,0.449342280626297,0.46757152676582336,0.6711074113845825,1.0200347900390625,3.3253376483917236,1.2943106889724731,2.628002405166626,9.518529891967773,1.7749391794204712,-0.19777509570121765,-0.012866338714957237,0.038465388119220734,23.000286102294922,-28.47480010986328,7.323493957519531,-0.0293121337890625,-0.22812557220458984,0.13909780979156494,2.6573145389556885,9.746655464172363,1.6358413696289062
1_20251106_212455,1762435460473,1,0.35981690883636475,0.4483596384525299,0.46615761518478394,0.6724600195884705,1.023822546005249,3.325183868408203,1.321144700050354,2.6363816261291504,9.47783088684082,1.7629687786102295,-0.22831833362579346,0.03722457215189934,0.03052414581179619,23.001880645751953,-28.461029052734375,7.202112197875977,-0.00860905647277832,-0.17377185821533203,0.07944631576538086,2.6449906826019287,9.651602745056152,1.6835224628448486
1_20251106_212455,1762435460493,1,0.36028099060058594,0.446846604347229,0.4647250473499298,0.6742079854011536,1.0258210897445679,3.323997735977173,1.3352084159851074,2.6842637062072754,9.384459495544434,1.8515503406524658,-0.283296138048172,0.1422933042049408,0.018917717039585114,23.0037841796875,-28.43524169921875,7.135059356689453,0.0314183235168457,-0.213714599609375,0.13442230224609375,2.6528453826904297,9.598174095153809,1.717128038406372
1_20251106_212455,1762435460511,1,0.36066538095474243,0.44497615098953247,0.4633600115776062,0.6761761903762817,1.0274749994277954,3.3223917484283447,1.3469810485839844,2.6710963249206543,9.303060531616211,1.9066145420074463,-0.3034546673297882,0.1166369840502739,0.0005917763337492943,23.020484924316406,-28.370315551757812,7.001707077026367,0.014600753784179688,-0.23609066009521484,0.1515892744064331,2.6564955711364746,9.539151191711426,1.7550252676010132
1_20251106_212455,1762435460530,1,0.3612847626209259,0.44307366013526917,0.46188077330589294,0.6781041026115417,1.029069423675537,3.319540500640869,1.3610872030258179,2.5729384422302246,9.19173526763916,2.06701922416687,-0.31628283858299255,0.07387645542621613,-0.018345028162002563,23.008296966552734,-28.371109008789062,7.001216888427734,-0.06684565544128418,-0.27793216705322266,0.24959516525268555,2.639784097671509,9.469667434692383,1.8174240589141846
1_20251106_212455,1762435460550,1,0.3623807430267334,0.44139599800109863,0.46016740798950195,0.6797762513160706,1.0299406051635742,3.316274404525757,1.375676155090332,2.4280953407287598,9.28630256652832,2.208271026611328,-0.31628283858299255,0.07387645542621613,-0.018345028162002563,22.972444534301758,-28.360931396484375,7.000009536743164,-0.16935110092163086,-0.14669227600097656,0.3126775026321411,2.5974464416503906,9.432994842529297,1.895593523979187
1_20251106_212455,1762435460569,1,0.3632892668247223,0.4394117593765259,0.45856422185897827,0.681657612323761,1.030350923538208,3.312868595123291,1.3893786668777466,2.4604153633117676,9.265953063964844,2.0909602642059326,-0.3034546971321106,0.1679496169090271,0.004256964661180973,22.962051391601562,-28.347686767578125,6.851104736328125,-0.10962486267089844,-0.13363361358642578,0.15629339218139648,2.570040225982666,9.39958667755127,1.9346668720245361
1_20251106_212455,1762435460588,1,0.36364230513572693,0.4370887577533722,0.45726674795150757,0.683830976486206,1.0307257175445557,3.3091776371002197,1.4020695686340332,2.564558982849121,9.233631134033203,1.815638780593872,-0.29001563787460327,0.18016691505908966,0.037854522466659546,22.926790237426758,-28.336700439453125,6.768800735473633,-0.0043849945068359375,-0.1327648162841797,-0.09522247314453125,2.568943977355957,9.366395950317383,1.9108612537384033
1_20251106_212455,1762435460607,1,0.36378851532936096,0.4350009560585022,0.45588064193725586,0.686006486415863,1.031624674797058,3.3056650161743164,1.4134573936462402,2.766860008239746,9.364109992980957,1.6672048568725586,-0.29001563787460327,0.18016691505908966,0.037854522466659546,22.923450469970703,-28.41082763671875,6.645570755004883,0.15833282470703125,-0.0018291473388671875,-0.19492506980895996,2.608527183532715,9.365939140319824,1.8621299266815186
1_20251106_212455,1762435460625,1,0.3640282452106476,0.4336131513118744,0.45372870564460754,0.6881811618804932,1.033233404159546,3.3031210899353027,1.4242286682128906,2.9332501888275146,9.616687774658203,2.0742015838623047,-0.4011930227279663,-0.01530979759991169,0.1270407736301422,22.921520233154297,-28.45984649658203,6.522869110107422,0.2597782611846924,0.20059871673583984,0.16965723037719727,2.6734719276428223,9.416089057922363,1.9045443534851074
1_20251106_212455,1762435460646,1,0.36485448479652405,0.43293821811676025,0.4505786895751953,0.6902351379394531,1.0360705852508545,3.3019299507141113,1.4375478029251099,3.0481667518615723,9.907570838928223,2.5458390712738037,-0.4182972311973572,-0.017753256484866142,0.10321705043315887,22.83840560913086,-28.450828552246094,6.31695556640625,0.2997560501098633,0.3931856155395508,0.513035774230957,2.748410701751709,9.514385223388672,2.0328032970428467
1_20251106_212455,1762435460664,1,0.3658714294433594,0.43250688910484314,0.4473430812358856,0.692069411277771,1.0396801233291626,3.3022983074188232,1.4512879848480225,3.130763053894043,10.040443420410156,2.6595587730407715,-0.4182972311973572,-0.017753256484866142,0.10321705043315887,22.786224365234375,-28.52826690673828,6.205280303955078,0.30588197708129883,0.42084693908691406,0.5014042854309082,2.824881076812744,9.619596481323242,2.1581544876098633
1_20251106_212455,1762435460683,1,0.3667983412742615,0.43110746145248413,0.44468924403190613,0.6941590309143066,1.043810486793518,3.303874969482422,1.465795636177063,3.0804872512817383,10.066778182983398,2.6882879734039307,-0.3767584562301636,0.04027889296412468,0.03724366053938866,22.709457397460938,-28.619178771972656,6.024778366088867,0.2044849395751953,0.3577451705932617,0.4241068363189697,2.876002311706543,9.709033012390137,2.264181137084961
1_20251106_212455,1762435460701,1,0.36793237924575806,0.42952096462249756,0.4424900710582733,0.6959454417228699,1.0477601289749146,3.3062515258789062,1.4799439907073975,2.9703588485717773,10.097902297973633,2.7074408531188965,-0.3443826138973236,0.05310705304145813,-0.024453677237033844,22.68233871459961,-28.69408416748047,5.819469451904297,0.0754852294921875,0.3110952377319336,0.35460782051086426,2.89487361907959,9.7868070602417,2.3528330326080322
1_20251106_212455,1762435460721,1,0.3691677153110504,0.4277629256248474,0.44058215618133545,0.6975825428962708,1.0518457889556885,3.309786081314087,1.4958252906799316,2.8674123287200928,10.124237060546875,2.664346933364868,-0.3083415925502777,0.04699840396642685,-0.05988383665680885,22.642045974731445,-28.771133422851562,5.748832702636719,-0.021969079971313477,0.2699441909790039,0.24921107292175293,2.8893814086914062,9.854292869567871,2.4151358604431152
1_20251106_212455,1762435460741,1,0.3705056309700012,0.4260437786579132,0.43900513648986816,0.6989182829856873,1.0518457889556885,3.309786081314087,1.4958252906799316,2.8674123287200928,10.124237060546875,2.664346933364868,-0.2771874964237213,0.03355938196182251,-0.06721420586109161,22.636789321899414,-28.882667541503906,5.5977783203125,-0.021969079971313477,0.2699441909790039,0.24921107292175293,2.8893814086914062,9.854292869567871,2.4151358604431152
1_20251106_212455,1762435460759,1,0.3718065619468689,0.4244798719882965,0.4376521110534668,0.7000266909599304,1.0576001405715942,3.3180932998657227,1.5259584188461304,2.614834785461426,10.094310760498047,2.7541255950927734,-0.2674136757850647,0.022563815116882324,-0.05438604950904846,22.603321075439453,-28.857643127441406,5.367057800292969,-0.19409656524658203,0.14824867248535156,0.2324674129486084,2.808931350708008,9.946062088012695,2.521658182144165
1_20251106_212455,1762435460779,1,0.37304967641830444,0.42307183146476746,0.4362873435020447,0.7010688781738281,1.0594888925552368,3.322864294052124,1.5421562194824219,2.6208202838897705,10.106281280517578,2.9097421169281006,-0.2674136757850647,0.022563815116882324,-0.05438604950904846,22.581249237060547,-28.832901000976562,5.244958877563477,-0.15048885345458984,0.1281757354736328,0.310467004776001,2.7713091373443604,9.978105545043945,2.5992751121520996
1_20251106_212455,1762435460800,1,0.37411776185035706,0.4218814969062805,0.43460017442703247,0.7022638916969299,1.0611859560012817,3.3277792930603027,1.559404969215393,2.739328384399414,10.103886604309082,3.2113986015319824,-0.2625267505645752,0.01401170901954174,0.04213057830929756,22.663719177246094,-28.889183044433594,5.152458190917969,-0.025584697723388672,0.10062503814697266,0.4896988868713379,2.7649130821228027,10.00326156616211,2.7216997146606445
1_20251106_212455,1762435460818,1,0.3747657239437103,0.4209189713001251,0.4328256845474243,0.7035906314849854,1.0630316734313965,3.332517385482788,1.57661771774292,2.879383087158203,10.113462448120117,3.3215270042419434,-0.2625267505645752,0.01401170901954174,0.04213057830929756,22.663719177246094,-28.889183044433594,5.152458190917969,0.09157609939575195,0.08816051483154297,0.4798617362976074,2.787806987762451,10.025301933288574,2.841665267944336
1_20251106_212455,1762435460837,1,0.37518665194511414,0.4200180172920227,0.43141689896583557,0.70476895570755,1.0648983716964722,3.3369483947753906,1.5942962169647217,2.8291068077087402,9.999744415283203,3.32511830329895,-0.21182498335838318,0.021342085674405098,0.03541106358170509,22.687767028808594,-28.911224365234375,5.004232406616211,0.03303980827331543,-0.020445823669433594,0.3867623805999756,2.796066999435425,10.020190238952637,2.9383559226989746
1_20251106_212455,1762435460855,1,0.37584519386291504,0.41917967796325684,0.4306431710720062,0.7053901553153992,1.0660613775253296,3.3401756286621094,1.611117959022522,2.5861058235168457,9.711254119873047,3.3083596229553223,-0.10125845670700073,0.0390571653842926,-0.08798360824584961,22.76288604736328,-28.880538940429688,4.926605224609375,-0.1679689884185791,-0.2471485137939453,0.2960028648376465,2.754074811935425,9.958402633666992,3.012356758117676
1_20251106_212455,1762435460875,1,0.3765353262424469,0.41803714632987976,0.4305224120616913,0.7057737112045288,1.0662871599197388,3.3419501781463623,1.6291663646697998,2.424504280090332,9.421568870544434,3.108452320098877,-0.10125845670700073,0.0390571653842926,-0.08798360824584961,22.837696075439453,-28.86186981201172,4.794649124145508,-0.2636566162109375,-0.42946720123291016,0.07687640190124512,2.6881608963012695,9.851036071777344,3.031575918197632
1_20251106_212455,1762435460893,1,0.3770666718482971,0.4166979491710663,0.43056824803352356,0.7062538862228394,1.0656540393829346,3.341891050338745,1.6441857814788818,2.3526811599731445,9.210887908935547,2.8642542362213135,-0.08476511389017105,0.051274459809064865,-0.025064542889595032,22.86235237121582,-28.871490478515625,4.66020393371582,-0.2683837413787842,-0.5121183395385742,-0.13385748863220215,2.6210649013519287,9.723006248474121,2.9981117248535156
1_20251106_212455,1762435460912,1,0.37728211283683777,0.41579756140708923,0.43035998940467834,0.7067962288856506,1.0656540393829346,3.341891050338745,1.6441857814788818,2.3526811599731445,9.210887908935547,2.8642542362213135,-0.08537597954273224,-0.010422879830002785,0.05618046596646309,22.90212631225586,-28.818344116210938,4.608665466308594,-0.2683837413787842,-0.5121183395385742,-0.13385748863220215,2.6210649013519287,9.723006248474121,2.9981117248535156
1_20251106_212455,1762435460932,1,0.3773101568222046,0.41573867201805115,0.42956340312957764,0.7073003053665161,1.0635491609573364,3.3370108604431152,1.6730213165283203,2.642367362976074,9.109138488769531,2.9265007972717285,-0.08537597954273224,-0.010422879830002785,0.05618046596646309,22.960742950439453,-28.852310180664062,4.637357711791992,0.04236292839050293,-0.39804649353027344,-0.023230791091918945,2.6000044345855713,9.507184982299805,2.9497315883636475
1_20251106_212455,1762435460952,1,0.37710437178611755,0.4161437749862671,0.4284813106060028,0.7078279256820679,1.0631204843521118,3.3331544399261475,1.687126874923706,2.7620720863342285,9.23363208770752,3.109649181365967,-0.08598683774471283,-0.06112464889883995,0.09955186396837234,22.994876861572266,-28.899620056152344,4.583707809448242,0.1296541690826416,-0.2188425064086914,0.12793397903442383,2.632417917251587,9.452474594116211,2.981715202331543
1_20251106_212455,1762435460970,1,0.37701648473739624,0.4163467288017273,0.4274497628211975,0.7083789110183716,1.0630230903625488,3.329291820526123,1.6992899179458618,2.741722345352173,9.222858428955078,3.0234618186950684,-0.09637154638767242,0.02745073474943638,0.0012026410549879074,22.97049331665039,-28.912818908691406,4.487848281860352,0.08744359016418457,-0.18369293212890625,0.03339719772338867,2.6542787551879883,9.406551361083984,2.9900646209716797
1_20251106_212455,1762435460990,1,0.377167284488678,0.41573354601860046,0.4269227981567383,0.7089763283729553,1.0628331899642944,3.3241212368011475,1.7115933895111084,2.625608444213867,9.046892166137695,2.8139781951904297,-0.12080613523721695,0.08120682835578918,-0.07087939232587814,22.994653701782227,-28.923110961914062,4.420984268188477,-0.022936344146728516,-0.28772735595703125,-0.140869140625,2.6485447883605957,9.334619522094727,2.9548473358154297
1_20251106_212455,1762435461008,1,0.3777068853378296,0.4144064784049988,0.42670658230781555,0.7095958590507507,1.062180995941162,3.318800210952759,1.7217600345611572,2.4496421813964844,8.969083786010742,2.811583995819092,-0.17639482021331787,0.08303942531347275,-0.08920533210039139,22.981849670410156,-28.94794464111328,4.311836242675781,-0.15912222862243652,-0.29242897033691406,-0.11461067199707031,2.608764410018921,9.261512756347656,2.926194667816162
1_20251106_212455,1762435461027,1,0.37865591049194336,0.41285714507102966,0.4261760413646698,0.7103117108345032,1.062180995941162,3.318800210952759,1.7217600345611572,2.4496421813964844,8.969083786010742,2.811583995819092,-0.20877066254615784,0.06593520939350128,-0.05438604950904846,22.97026824951172,-28.936317443847656,4.325126647949219,-0.15912222862243652,-0.29242897033691406,-0.11461067199707031,2.608764410018921,9.261512756347656,2.926194667816162
1_20251106_212455,1762435461047,1,0.37950703501701355,0.41138285398483276,0.42528796195983887,0.7112444639205933,1.059065341949463,3.305246591567993,1.7425110340118408,2.4137306213378906,8.912822723388672,3.015082359313965,-0.200829416513443,0.04211148992180824,0.004867829382419586,23.020212173461914,-28.919906616210938,4.259771347045898,-0.1181180477142334,-0.22182083129882812,0.06857132911682129,2.531848669052124,9.1346435546875,2.9465110301971436
1_20251106_212455,1762435461066,1,0.37997448444366455,0.4102787673473358,0.4241591691970825,0.7123059034347534,1.0575913190841675,3.2983181476593018,1.7523258924484253,2.578923225402832,8.970281600952148,3.077329158782959,-0.19349902868270874,0.014622574672102928,0.04701749607920647,23.031780242919922,-28.943145751953125,4.151603698730469,0.037659645080566406,-0.13148975372314453,0.10465431213378906,2.5412635803222656,9.101771354675293,2.97267484664917
1_20251106_212455,1762435461084,1,0.38030314445495605,0.40959909558296204,0.4227655827999115,0.7133494019508362,1.0566374063491821,3.292153835296631,1.7617589235305786,2.692643165588379,9.130685806274414,3.2161865234375,-0.19349902868270874,0.014622574672102928,0.04701749607920647,23.01968002319336,-28.955421447753906,4.042718887329102,0.12110352516174316,0.023131370544433594,0.1948091983795166,2.5715396404266357,9.10755443572998,3.0213773250579834
1_20251106_212455,1762435461104,1,0.3806971311569214,0.408937007188797,0.42136090993881226,0.7143495082855225,1.05595862865448,3.285902976989746,1.7725156545639038,2.679475784301758,9.191736221313477,3.2844185829162598,-0.19166645407676697,0.029894191771745682,-0.025064542889595032,22.984418869018555,-28.944435119628906,3.9604129791259766,0.0863490104675293,0.06734561920166016,0.2104330062866211,2.5931267738342285,9.124390602111816,3.0739855766296387
1_20251106_212455,1762435461122,1,0.3814330995082855,0.40789854526519775,0.4202748239040375,0.7151899337768555,1.0550986528396606,3.28062105178833,1.7820303440093994,2.4795684814453125,9.149837493896484,3.203019142150879,-0.18372520804405212,0.07876337319612503,-0.09409224987030029,22.998001098632812,-28.930137634277344,3.8665542602539062,-0.09084677696228027,0.02035808563232422,0.10322690010070801,2.5704152584075928,9.12947940826416,3.099792242050171
1_20251106_212455,1762435461142,1,0.382367342710495,0.4062463343143463,0.419715017080307,0.7159597873687744,1.0534878969192505,3.27482533454895,1.7914179563522339,2.297616958618164,8.94753646850586,3.043811559677124,-0.18372520804405212,0.07876337319612503,-0.09409224987030029,22.987213134765625,-28.917434692382812,3.7717132568359375,-0.21823883056640625,-0.1455545425415039,-0.0447845458984375,2.5158557891845703,9.093091011047363,3.0885961055755615
1_20251106_212455,1762435461160,1,0.383402943611145,0.40423107147216797,0.4190182387828827,0.7169540524482727,1.0534878969192505,3.27482533454895,1.7914179563522339,2.297616958618164,8.94753646850586,3.043811559677124,-0.27474403381347656,0.08609375357627869,-0.01956675946712494,23.03664779663086,-28.913314819335938,3.6790618896484375,-0.21823883056640625,-0.1455545425415039,-0.0447845458984375,2.5158557891845703,9.093091011047363,3.0885961055755615
1_20251106_212455,1762435461181,1,0.3842718303203583,0.40254291892051697,0.4175783395767212,0.7182775735855103,1.0485910177230835,3.2610514163970947,1.8108241558074951,2.411336660385132,8.840999603271484,3.440034866333008,-0.2875722050666809,0.02378554455935955,0.07511727511882782,23.074195861816406,-28.909584045410156,3.545370101928711,-0.04237651824951172,-0.15195369720458984,0.27797389030456543,2.4537131786346436,8.992953300476074,3.1620609760284424
1_20251106_212455,1762435461199,1,0.38487061858177185,0.40143418312072754,0.41573426127433777,0.7196459174156189,1.046797752380371,3.2550692558288574,1.8206061124801636,2.58131742477417,8.993024826049805,3.6686713695526123,-0.2466442584991455,-3.817921970039606e-05,0.10932569950819016,23.073970794677734,-28.933082580566406,3.3826465606689453,0.10208344459533691,5.7220458984375e-05,0.4052884578704834,2.479233980178833,8.99296760559082,3.263382911682129
1_20251106_212455,1762435461219,1,0.38502439856529236,0.40057191252708435,0.4136943817138672,0.721217930316925,1.0454081296920776,3.2488350868225098,1.8316541910171509,2.644761085510254,9.019359588623047,3.501084327697754,-0.1947207748889923,0.021952951326966286,0.08061505854129791,23.0628719329834,-28.932395935058594,3.2334766387939453,0.13242173194885254,0.02111339569091797,0.19016122817993164,2.5123393535614014,8.998246192932129,3.3109230995178223
1_20251106_212455,1762435461239,1,0.3850674331188202,0.39965155720710754,0.41197800636291504,0.7226865291595459,1.0454081296920776,3.2488350868225098,1.8316541910171509,2.644761085510254,9.019359588623047,3.501084327697754,-0.20327287912368774,0.04394408315420151,0.04579576477408409,23.0628719329834,-28.932395935058594,3.2334766387939453,0.13242173194885254,0.02111339569091797,0.19016122817993164,2.5123393535614014,8.998246192932129,3.3109230995178223
1_20251106_212455,1762435461257,1,0.38528454303741455,0.3987354338169098,0.41051724553108215,0.7239070534706116,1.0437289476394653,3.236762285232544,1.8513275384902954,2.5908939838409424,8.69735336303711,3.3873648643493652,-0.20327287912368774,0.04394408315420151,0.04579576477408409,23.07222557067871,-28.993446350097656,3.138032913208008,0.046636104583740234,-0.21766185760498047,0.046624183654785156,2.544257879257202,8.91501522064209,3.34074068069458
1_20251106_212455,1762435461275,1,0.38571685552597046,0.3975467383861542,0.4089375138282776,0.7252235412597656,1.0431715250015259,3.2303836345672607,1.8609033823013306,2.6040613651275635,8.795511245727539,3.4125027656555176,-0.24908773601055145,0.06410261988639832,0.02685895934700966,23.083581924438477,-29.02857208251953,2.9620208740234375,0.04784274101257324,-0.09560298919677734,0.05740952491760254,2.5562186241149902,8.891114234924316,3.355093240737915
1_20251106_212455,1762435461295,1,0.38636520504951477,0.3963712155818939,0.4069663882255554,0.7266293168067932,1.042945146560669,3.224165678024292,1.8710650205612183,2.6651110649108887,8.943946838378906,3.54776930809021,-0.29673516750335693,0.03172678500413895,0.03541106358170509,23.058393478393555,-29.054466247558594,2.879413604736328,0.08711385726928711,0.042265892028808594,0.15414071083068848,2.5779972076416016,8.901680946350098,3.3936285972595215
1_20251106_212455,1762435461314,1,0.38704657554626465,0.3953355550765991,0.40497025847435,0.7279449701309204,1.042945146560669,3.224165678024292,1.8710650205612183,2.6651110649108887,8.943946838378906,3.54776930809021,-0.29673516750335693,0.03172678500413895,0.03541106358170509,23.044078826904297,-29.10454559326172,2.783252716064453,0.08711385726928711,0.042265892028808594,0.15414071083068848,2.5779972076416016,8.901680946350098,3.3936285972595215
1_20251106_212455,1762435461333,1,0.3878558576107025,0.3942878842353821,0.40305012464523315,0.7291470766067505,1.0436582565307617,3.2141518592834473,1.8903692960739136,2.7022194862365723,9.100759506225586,3.7141594886779785,-0.3028438091278076,0.018287761136889458,-0.021399356424808502,23.0054931640625,-29.156082153320312,2.672595977783203,0.0749056339263916,0.1440725326538086,0.23693370819091797,2.6273138523101807,8.956686973571777,3.4772257804870605
1_20251106_212455,1762435461352,1,0.3890811800956726,0.3933304250240326,0.40111714601516724,0.7300767302513123,1.0440142154693604,3.2106220722198486,1.9007371664047241,2.5920910835266113,9.268346786499023,3.866184711456299,-0.34621521830558777,0.05616137757897377,-0.044001348316669464,22.940196990966797,-29.270370483398438,2.3974437713623047,-0.02817821502685547,0.2493276596069336,0.31116724014282227,2.620269298553467,9.01901912689209,3.5550174713134766
1_20251106_212455,1762435461371,1,0.3903805911540985,0.39161503314971924,0.39916786551475525,0.7313724756240845,1.0440142154693604,3.2106220722198486,1.9007371664047241,2.5920910835266113,9.268346786499023,3.866184711456299,-0.33644136786460876,0.08426115661859512,-0.03911443427205086,22.9136962890625,-29.321243286132812,2.300792694091797,-0.02817821502685547,0.2493276596069336,0.31116724014282227,2.620269298553467,9.01901912689209,3.5550174713134766
1_20251106_212455,1762435461391,1,0.3917021155357361,0.38961994647979736,0.3974473774433136,0.7326672673225403,1.0448873043060303,3.2059197425842285,1.9232673645019531,2.674687385559082,9.33178997039795,3.9152636528015137,-0.30040037631988525,0.05005272850394249,-0.006738600321114063,22.948917388916016,-29.3670654296875,2.0984649658203125,0.042105674743652344,0.2149209976196289,0.2326645851135254,2.6325817108154297,9.11686897277832,3.6825990676879883
1_20251106_212455,1762435461409,1,0.39268091320991516,0.38814687728881836,0.395732581615448,0.7338524460792542,1.0448873043060303,3.2059197425842285,1.9232673645019531,2.674687385559082,9.33178997039795,3.9152636528015137,-0.2814635634422302,0.0036270092241466045,0.014641664922237396,22.97245979309082,-29.401397705078125,1.922943115234375,0.042105674743652344,0.2149209976196289,0.2326645851135254,2.6325817108154297,9.11686897277832,3.6825990676879883
1_20251106_212455,1762435461429,1,0.39371970295906067,0.3873157799243927,0.39387983083724976,0.7347311973571777,1.0468590259552002,3.2049388885498047,1.9461100101470947,2.815939426422119,9.480224609375,4.107988357543945,-0.2942917048931122,-0.01836412213742733,0.004867829382419586,22.99449348449707,-29.460975646972656,1.7604084014892578,0.12769150733947754,0.24269866943359375,0.30327677726745605,2.6882479190826416,9.237525939941406,3.8047115802764893
1_20251106_212455,1762435461448,1,0.3948867619037628,0.3866841197013855,0.3919333815574646,0.7354781031608582,1.0482410192489624,3.2054128646850586,1.9580591917037964,2.817136287689209,9.449100494384766,4.4012651443481445,-0.2942917048931122,-0.01836412213742733,0.004867829382419586,23.043804168701172,-29.48021697998047,1.49151611328125,0.10311079025268555,0.16926002502441406,0.47724294662475586,2.7140254974365234,9.279840469360352,3.9240221977233887
1_20251106_212455,1762435461467,1,0.3962259292602539,0.38566267490386963,0.3901165723800659,0.7362596988677979,1.0482410192489624,3.2054128646850586,1.9580591917037964,2.817136287689209,9.449100494384766,4.4012651443481445,-0.26008328795433044,0.03783543407917023,-0.08554014563560486,23.068052291870117,-29.501991271972656,1.3162574768066406,0.10311079025268555,0.16926002502441406,0.47724294662475586,2.7140254974365234,9.279840469360352,3.9240221977233887
1_20251106_212455,1762435461485,1,0.39762938022613525,0.38408568501472473,0.3886375427246094,0.7371091842651367,1.051018238067627,3.206768274307251,1.9850977659225464,2.645958423614502,9.24919319152832,4.340215682983398,-0.22282055020332336,0.03722457215189934,-0.10508781671524048,23.106388092041016,-29.49718475341797,1.0744361877441406,-0.05984306335449219,-0.03780937194824219,0.25697898864746094,2.705801486968994,9.287002563476562,4.0832366943359375
1_20251106_212455,1762435461505,1,0.3989917039871216,0.38253065943717957,0.38755324482917786,0.7377522587776184,1.051018238067627,3.206768274307251,1.9850977659225464,2.645958423614502,9.24919319152832,4.340215682983398,-0.2112141251564026,0.032337650656700134,-0.10630954802036285,23.14716339111328,-29.431076049804688,0.9826126098632812,-0.05984306335449219,-0.03780937194824219,0.25697898864746094,2.705801486968994,9.287002563476562,4.0832366943359375
1_20251106_212455,1762435461524,1,0.40040352940559387,0.3810645639896393,0.3865995705127716,0.7382463216781616,1.0517481565475464,3.2068912982940674,2.000155210494995,2.533435583114624,9.137868881225586,4.328245162963867,-0.20144027471542358,0.004237873945385218,-0.09103792905807495,23.2233829498291,-29.387290954589844,0.8511848449707031,-0.1378927230834961,-0.11930656433105469,0.19600677490234375,2.67132830619812,9.25717544555664,4.132238388061523
1_20251106_212455,1762435461543,1,0.4017985463142395,0.37980419397354126,0.385619580745697,0.7386502623558044,1.0513181686401367,3.2054443359375,2.0255165100097656,2.407745361328125,8.975069046020508,4.315077781677246,-0.20144027471542358,0.004237873945385218,-0.09103792905807495,23.283594131469727,-29.407493591308594,0.7584953308105469,-0.1778864860534668,-0.19338035583496094,0.13540363311767578,2.585631847381592,9.168449401855469,4.17967414855957
1_20251106_212455,1762435461562,1,0.4031873345375061,0.37897729873657227,0.3844735026359558,0.7389156222343445,1.0504255294799805,3.203777551651001,2.0386438369750977,2.440065860748291,8.925990104675293,4.493438243865967,-0.22892919182777405,-0.01530979759991169,-0.03544924408197403,23.3480224609375,-29.363967895507812,0.5725116729736328,-0.11645269393920898,-0.1939678192138672,0.25101137161254883,2.5565185546875,9.11995792388916,4.242426872253418
1_20251106_212455,1762435461582,1,0.40438613295555115,0.3778866231441498,0.3831008970737457,0.7395317554473877,1.0504255294799805,3.203777551651001,2.0386438369750977,2.440065860748291,8.925990104675293,4.493438243865967,-0.2313726544380188,0.009124791249632835,-0.017734166234731674,23.42474937438965,-29.307899475097656,0.4683799743652344,-0.11645269393920898,-0.1939678192138672,0.25101137161254883,2.5565185546875,9.11995792388916,4.242426872253418
1_20251106_212455,1762435461600,1,0.40536004304885864,0.3765762746334076,0.3815790116786957,0.7404532432556152,1.0488885641098022,3.2002687454223633,2.065117835998535,2.630396604537964,9.147443771362305,4.578428745269775,-0.23259437084197998,0.008513926528394222,-0.03850356861948967,23.47357940673828,-29.316200256347656,0.36194801330566406,0.06030583381652832,0.035785675048828125,0.22940540313720703,2.5700907707214355,9.111658096313477,4.349023342132568
1_20251106_212455,1762435461619,1,0.4064178466796875,0.3753972053527832,0.38012710213661194,0.7412185072898865,1.0483847856521606,3.1986846923828125,2.0785484313964844,2.60884952545166,9.103153228759766,4.652646064758301,-0.2112141251564026,0.009124791249632835,-0.08798360824584961,23.53579330444336,-29.31047821044922,0.1886882781982422,0.031006813049316406,-0.0068035125732421875,0.24289798736572266,2.5778427124023438,9.109956741333008,4.409748077392578
1_20251106_212455,1762435461640,1,0.40775150060653687,0.37422242760658264,0.37893369793891907,0.741690993309021,1.0476295948028564,3.1969380378723145,2.092364549636841,2.4951300621032715,9.056468963623047,4.536531925201416,-0.16539925336837769,0.011568250134587288,-0.12402462959289551,23.608686447143555,-29.329208374023438,0.02890777587890625,-0.06617021560668945,-0.04279041290283203,0.10142707824707031,2.561300277709961,9.099259376525879,4.435104846954346
1_20251106_212455,1762435461659,1,0.4091671407222748,0.373025119304657,0.378145694732666,0.7419166564941406,1.0476295948028564,3.1969380378723145,2.092364549636841,2.4951300621032715,9.056468963623047,4.536531925201416,-0.15134936571121216,0.009124791249632835,-0.13318760693073273,23.706260681152344,-29.334335327148438,-0.07556343078613281,-0.06617021560668945,-0.04279041290283203,0.10142707824707031,2.561300277709961,9.099259376525879,4.435104846954346
1_20251106_212455,1762435461678,1,0.4106868803501129,0.37192395329475403,0.37762245535850525,0.7418963313102722,1.0445778369903564,3.19248104095459,2.117398977279663,2.329937219619751,8.911625862121582,4.392885684967041,-0.16662099957466125,0.01401170901954174,-0.12158116698265076,23.706260681152344,-29.334335327148438,-0.07556343078613281,-0.15343523025512695,-0.1264057159423828,-0.03621387481689453,2.483372449874878,9.038031578063965,4.4290995597839355
1_20251106_212455,1762435461696,1,0.41216787695884705,0.3707222640514374,0.3771073818206787,0.7419384717941284,1.0425559282302856,3.1901443004608154,2.128092050552368,2.2892374992370605,8.94155216217041,4.465906143188477,-0.16662099957466125,0.01401170901954174,-0.12158116698265076,23.71802520751953,-29.35730743408203,-0.21076393127441406,-0.15530800819396973,-0.07718372344970703,0.029445171356201172,2.4445455074310303,9.018735885620117,4.436460971832275
1_20251106_212455,1762435461716,1,0.41358232498168945,0.3697446882724762,0.37660863995552063,0.7418924570083618,1.039847731590271,3.1872174739837646,2.1396324634552,2.2557201385498047,8.867334365844727,4.519773483276367,-0.159290611743927,-0.0012599086621776223,-0.11180733144283295,23.767955780029297,-29.352516174316406,-0.37099647521972656,-0.1510603427886963,-0.12112140655517578,0.0666499137878418,2.406780481338501,8.988455772399902,4.453123569488525
1_20251106_212455,1762435461734,1,0.41498151421546936,0.3688848316669464,0.3761354982852936,0.7417792081832886,1.037118911743164,3.1843106746673584,2.149869918823242,2.2389614582061768,8.824241638183594,4.603566646575928,-0.1336342990398407,-0.014088068157434464,-0.09042707085609436,23.84458351135254,-29.29657745361328,-0.4616127014160156,-0.13425517082214355,-0.13137149810791016,0.12035465240478516,2.3732166290283203,8.955613136291504,4.483211994171143
1_20251106_212455,1762435461754,1,0.41627082228660583,0.36805811524391174,0.37561169266700745,0.7417328953742981,1.0338340997695923,3.180722951889038,2.161431312561035,2.2401585578918457,8.784738540649414,4.731651306152344,-0.1293582320213318,-0.00309250270947814,-0.08554014563560486,23.907108306884766,-29.278831481933594,-0.5805435180664062,-0.10644650459289551,-0.13669967651367188,0.19875144958496094,2.346605062484741,8.921438217163086,4.532899856567383
1_20251106_212455,1762435461772,1,0.4173949956893921,0.36707818508148193,0.3751085102558136,0.7418413758277893,1.0338340997695923,3.180722951889038,2.161431312561035,2.2401585578918457,8.784738540649414,4.731651306152344,-0.11591921746730804,0.01706603355705738,-0.09103792905807495,23.958053588867188,-29.24945831298828,-0.6861839294433594,-0.10644650459289551,-0.13669967651367188,0.19875144958496094,2.346605062484741,8.921438217163086,4.532899856567383
1_20251106_212455,1762435461791,1,0.41839608550071716,0.3658812940120697,0.37469419836997986,0.7420780658721924,1.027313470840454,3.1732852458953857,2.183332681655884,2.2102322578430176,8.679398536682129,4.834597110748291,-0.10553450882434845,0.031726788729429245,-0.09287051856517792,23.984329223632812,-29.222084045410156,-0.7522563934326172,-0.09072613716125488,-0.17003631591796875,0.19749164581298828,2.3009583950042725,8.849434852600098,4.637105464935303
1_20251106_212455,1762435461811,1,0.4192999005317688,0.36456847190856934,0.3743705451488495,0.7423773407936096,1.0235332250595093,3.168569326400757,2.195021867752075,2.1791090965270996,8.614757537841797,4.774744987487793,-0.08965203166007996,0.018287761136889458,-0.08492927998304367,24.085737228393555,-29.15240478515625,-0.8010787963867188,-0.09747958183288574,-0.1877422332763672,0.11011171340942383,2.2765886783599854,8.802499771118164,4.664633274078369
1_20251106_212455,1762435461831,1,0.42009228467941284,0.36339378356933594,0.37403687834739685,0.7426734566688538,1.01963472366333,3.1635732650756836,2.206326723098755,2.1755177974700928,8.632713317871094,4.7304534912109375,-0.08354339003562927,0.0036270092241466045,-0.08004236221313477,24.162464141845703,-29.096336364746094,-0.9052104949951172,-0.0808565616607666,-0.13582897186279297,0.05265617370605469,2.2563743591308594,8.768542289733887,4.677797317504883
1_20251106_212455,1762435461849,1,0.42094507813453674,0.3624502122402191,0.3736722767353058,0.7428351640701294,1.0161672830581665,3.1592559814453125,2.215977430343628,2.201852798461914,8.750024795532227,4.6717987060546875,-0.09392808377742767,0.009124791249632835,-0.08126409351825714,24.22518539428711,-29.078323364257812,-1.0511722564697266,-0.04361724853515625,-0.014814376831054688,-0.00479888916015625,2.2454700469970703,8.764839172363281,4.676597595214844
1_20251106_212455,1762435461869,1,0.42184069752693176,0.36152324080467224,0.3732978105545044,0.7429671287536621,1.0123600959777832,3.1547811031341553,2.22623348236084,2.1970648765563965,8.791921615600586,4.6993303298950195,-0.10125845670700073,0.010957385413348675,-0.10264435410499573,24.314098358154297,-29.021453857421875,-1.1548137664794922,-0.03872418403625488,0.021665573120117188,0.018186092376708984,2.2357890605926514,8.770256042480469,4.6811442375183105
1_20251106_212455,1762435461887,1,0.4229229688644409,0.3606593608856201,0.37302863597869873,0.7429068684577942,1.0086559057235718,3.1510350704193115,2.2350618839263916,2.0534186363220215,8.802694320678711,4.705316066741943,-0.10125845670700073,0.010957385413348675,-0.10264435410499573,24.351051330566406,-29.018531799316406,-1.207406997680664,-0.14589643478393555,0.02595043182373047,0.019337177276611328,2.199315071105957,8.77674388885498,4.685978889465332
1_20251106_212455,1762435461907,1,0.42419975996017456,0.3597789704799652,0.3728393614292145,0.7427008152008057,1.0037565231323242,3.14689040184021,2.244676113128662,1.873861312866211,8.714113235473633,4.783123970031738,-0.09453894942998886,0.023174678906798363,-0.119137704372406,24.390119552612305,-28.977943420410156,-1.2592086791992188,-0.2603631019592285,-0.05010414123535156,0.07771587371826172,2.1342244148254395,8.764217376708984,4.705408096313477
1_20251106_212455,1762435461925,1,0.42537644505500793,0.35867759585380554,0.3728615641593933,0.7425493001937866,0.9986080527305603,3.1433324813842773,2.253081798553467,1.7445800304412842,8.758403778076172,4.780730247497559,-0.10003672540187836,0.04699840769171715,-0.06477074325084686,24.514490127563477,-28.931793212890625,-1.307577133178711,-0.31171560287475586,-0.004651069641113281,0.060257911682128906,2.05629563331604,8.763054847717285,4.72047233581543
1_20251106_212455,1762435461946,1,0.4261091649532318,0.3572677671909332,0.37283995747566223,0.7428197264671326,0.9928035140037537,3.139948844909668,2.2617976665496826,1.8223881721496582,8.83022689819336,4.825020790100098,-0.0975932702422142,0.05005273222923279,0.010976476594805717,24.61447525024414,-28.898841857910156,-1.4518051147460938,-0.18712592124938965,0.053737640380859375,0.08363866806030273,2.009514093399048,8.7764892578125,4.741382122039795
1_20251106_212455,1762435461963,1,0.42642515897750854,0.3560481071472168,0.3727118968963623,0.7432880997657776,0.9872224926948547,3.137200355529785,2.270425319671631,1.9851869344711304,8.946340560913086,4.868114471435547,-0.0975932702422142,0.05005273222923279,0.010976476594805717,24.65557098388672,-28.809097290039062,-1.3944206237792969,-0.019461750984191895,0.1358814239501953,0.10138559341430664,2.0046486854553223,8.81045913696289,4.76672887802124
1_20251106_212455,1762435461983,1,0.4264037013053894,0.3553699254989624,0.3722454905509949,0.7438584566116333,0.982343316078186,3.1351263523101807,2.2792251110076904,2.158759117126465,9.006193161010742,4.986622333526611,-0.06521744281053543,0.0030161445029079914,0.10138446092605591,24.621524810791016,-28.773269653320312,-1.4491653442382812,0.12328839302062988,0.1565876007080078,0.17591476440429688,2.035470724105835,8.849605560302734,4.8107075691223145
1_20251106_212455,1762435462002,1,0.42597538232803345,0.355192631483078,0.371737539768219,0.744442343711853,0.9782959818840027,3.1337268352508545,2.2879984378814697,2.249734878540039,9.057665824890137,4.961484909057617,-0.02245691418647766,-0.006757691036909819,0.09099975228309631,24.672876358032227,-28.73174285888672,-1.5139923095703125,0.17141127586364746,0.16644763946533203,0.1206216812133789,2.0783236026763916,8.891218185424805,4.840863227844238
1_20251106_212455,1762435462021,1,0.42548829317092896,0.3553466498851776,0.3713047206401825,0.7448632717132568,0.9749705195426941,3.1327457427978516,2.2966411113739014,2.267690658569336,9.018163681030273,4.9531049728393555,-0.00962875597178936,0.008513926528394222,0.05984565243124962,24.586164474487305,-28.762420654296875,-1.517953872680664,0.15149354934692383,0.10155677795410156,0.08979320526123047,2.116197109222412,8.916606903076172,4.863311767578125
1_20251106_212455,1762435462040,1,0.4251595437526703,0.35551509261131287,0.3710722029209137,0.7450864315032959,0.9721929430961609,3.1318912506103516,2.3056440353393555,2.296419858932495,8.9583101272583,4.981834411621094,-0.00962875597178936,0.008513926528394222,0.05984565243124962,24.5975341796875,-28.785934448242188,-1.5990886688232422,0.14417815208435059,0.033362388610839844,0.094818115234375,2.1522417068481445,8.924947738647461,4.887016296386719
1_20251106_212455,1762435462060,1,0.4248259663581848,0.35516947507858276,0.37091949582099915,0.7455174326896667,0.9704443216323853,3.1311838626861572,2.31367826461792,2.406548261642456,8.934370040893555,5.023731231689453,-0.03528507426381111,0.06410261988639832,0.03052414581179619,24.621498107910156,-28.79650115966797,-1.6389198303222656,0.2034451961517334,0.007537841796875,0.10937213897705078,2.2031030654907227,8.92683219909668,4.914359092712402
1_20251106_212455,1762435462079,1,0.4245339035987854,0.3547469973564148,0.37073805928230286,0.7459750771522522,0.9704443216323853,3.1311838626861572,2.31367826461792,2.406548261642456,8.934370040893555,5.023731231689453,0.003810266964137554,0.029894191771745682,0.018917717039585114,24.486536026000977,-28.829673767089844,-1.712423324584961,0.2034451961517334,0.007537841796875,0.10937213897705078,2.2031030654907227,8.92683219909668,4.914359092712402
1_20251106_212455,1762435462099,1,0.42420366406440735,0.3547426164150238,0.3706154525279999,0.746225893497467,0.9697021245956421,3.1295325756073,2.331739902496338,2.519071102142334,8.867335319519043,5.009366035461426,0.05512291193008423,0.006070468109101057,-0.024453677237033844,24.486536026000977,-28.829673767089844,-1.712423324584961,0.19838905334472656,-0.04612159729003906,0.04471588134765625,2.3206820487976074,8.913456916809082,4.9646501541137695
1_20251106_212455,1762435462118,1,0.42402708530426025,0.3550272285938263,0.37069883942604065,0.746149480342865,0.9698596596717834,3.1285736560821533,2.3388688564300537,2.379016399383545,8.832620620727539,4.786715507507324,0.06856193393468857,0.01706603355705738,-0.0727119892835617,24.44997787475586,-28.832054138183594,-1.7138938903808594,0.04666757583618164,-0.06466865539550781,-0.1423478126525879,2.3323488235473633,8.897289276123047,4.929063320159912
1_20251106_212455,1762435462135,1,0.4241885840892792,0.3552125096321106,0.37109968066215515,0.7457701563835144,0.9696792960166931,3.127129077911377,2.345242738723755,2.2090351581573486,8.721294403076172,4.646660804748535,0.04534906893968582,0.04211148992180824,-0.10325522720813751,24.44784927368164,-28.88134002685547,-1.8095645904541016,-0.09865093231201172,-0.14079570770263672,-0.2259221076965332,2.3076860904693604,8.862090110778809,4.872582912445068
1_20251106_212455,1762435462154,1,0.42460986971855164,0.3550734221935272,0.37179434299468994,0.7452504634857178,0.9688826203346252,3.125107765197754,2.3504810333251953,2.079753875732422,8.625531196594238,4.5748372077941895,0.04534906893968582,0.04211148992180824,-0.10325522720813751,24.483295440673828,-28.903663635253906,-1.8491706848144531,-0.18234562873840332,-0.18924713134765625,-0.23819637298583984,2.262099504470825,8.814778327941895,4.813033580780029
1_20251106_212455,1762435462174,1,0.4251112639904022,0.3547094166278839,0.37240922451019287,0.744830846786499,0.9675072431564331,3.122457981109619,2.3547778129577637,2.0366601943969727,8.548919677734375,4.565260887145996,0.006253726780414581,0.04088975861668587,-0.029951460659503937,24.460134506225586,-28.880409240722656,-1.822591781616211,-0.18035149574279785,-0.21268653869628906,-0.19821834564208984,2.2170116901397705,8.761606216430664,4.763479232788086
1_20251106_212455,1762435462193,1,0.4252816140651703,0.3545084297657013,0.37283530831336975,0.7446160912513733,0.9660093784332275,3.1192853450775146,2.358508348464966,2.1767148971557617,8.589619636535645,4.577231407165527,0.006253726780414581,0.04088975861668587,-0.029951460659503937,24.548255920410156,-28.824623107910156,-1.8181018829345703,-0.03223752975463867,-0.1375894546508789,-0.14899826049804688,2.2089524269104004,8.727209091186523,4.726229667663574
1_20251106_212455,1762435462213,1,0.42497575283050537,0.35477715730667114,0.37297728657722473,0.7445916533470154,0.9652029275894165,3.116405963897705,2.3618407249450684,2.407745361328125,8.721295356750488,4.713695049285889,0.024579668417572975,-0.03974438086152077,0.0812259167432785,24.538198471069336,-28.77613067626953,-1.7229232788085938,0.15903425216674805,-0.004731178283691406,-0.010027408599853516,2.248711109161377,8.72602653503418,4.723722457885742
1_20251106_212455,1762435462232,1,0.4245425760746002,0.355686753988266,0.3727174401283264,0.7445349097251892,0.9652693271636963,3.113814115524292,2.3656375408172607,2.535829544067383,8.820650100708008,4.876494407653809,0.024579668417572975,-0.03974438086152077,0.0812259167432785,24.528324127197266,-28.738983154296875,-1.749654769897461,0.22969484329223633,0.0756988525390625,0.12221765518188477,2.3061347007751465,8.744951248168945,4.754276752471924
1_20251106_212455,1762435462251,1,0.42413151264190674,0.35662057995796204,0.3723061680793762,0.7445282936096191,0.9658346772193909,3.1115777492523193,2.369547128677368,2.490341901779175,8.782344818115234,4.930360794067383,0.01908188685774803,-0.003703367430716753,-0.012236383743584156,24.580692291259766,-28.672889709472656,-1.7598896026611328,0.14736580848693848,0.02991485595703125,0.1408672332763672,2.3429760932922363,8.752429962158203,4.789493560791016
1_20251106_212455,1762435462270,1,0.42407092452049255,0.35704395174980164,0.3720903694629669,0.7444677352905273,0.966447651386261,3.1091771125793457,2.3731091022491455,2.3706369400024414,8.65186595916748,4.734045028686523,0.01908188685774803,-0.003703367430716753,-0.012236383743584156,24.6066837310791,-28.634300231933594,-1.6905345916748047,0.022128582000732422,-0.08045101165771484,-0.04435873031616211,2.348508358001709,8.732316970825195,4.7784037590026855
1_20251106_212455,1762435462289,1,0.4242432713508606,0.3569001853466034,0.3721717596054077,0.7443978190422058,0.9668968915939331,3.1064460277557373,2.3758885860443115,2.300011157989502,8.568073272705078,4.558078765869141,0.01663842797279358,0.03294851630926132,-0.059883829206228256,24.59429931640625,-28.635360717773438,-1.663991928100586,-0.038797855377197266,-0.1313953399658203,-0.17625999450683594,2.338809013366699,8.699468612670898,4.734338760375977
1_20251106_212455,1762435462309,1,0.42446383833885193,0.35679861903190613,0.3723895251750946,0.7442118525505066,0.9672609567642212,3.1032207012176514,2.378190517425537,2.310784339904785,8.536949157714844,4.5772318840026855,0.0074754562228918076,-0.0006490439409390092,-0.03972529619932175,24.547176361083984,-28.601539611816406,-1.5975799560546875,-0.02241969108581543,-0.13001537322998047,-0.1256856918334961,2.3332040309906006,8.666964530944824,4.702917575836182
1_20251106_212455,1762435462326,1,0.42470020055770874,0.357035368680954,0.3724827766418457,0.7439167499542236,0.9675109386444092,3.1003754138946533,2.3798837661743164,2.313178539276123,8.55729866027832,4.627508163452148,0.009308049455285072,-0.029970547184348106,-0.0317840538918972,24.57205581665039,-28.587661743164062,-1.5693035125732422,-0.01602029800415039,-0.08773231506347656,-0.06032752990722656,2.3291988372802734,8.645030975341797,4.687835693359375
1_20251106_212455,1762435462346,1,0.4249536097049713,0.3574828505516052,0.3724035322666168,0.7435966730117798,0.9677125215530396,3.0972561836242676,2.381636381149292,2.3036022186279297,8.665033340454102,4.641872406005859,0.0074754562228918076,-0.06112464889883995,-0.040947023779153824,24.499744415283203,-28.579734802246094,-1.5854988098144531,-0.020477294921875,0.01600170135498047,-0.03677082061767578,2.3240795135498047,8.649031639099121,4.678643226623535
1_20251106_212455,1762435462365,1,0.42541196942329407,0.35806503891944885,0.3721790909767151,0.7431667447090149,0.9677125215530396,3.0972561836242676,2.381636381149292,2.3036022186279297,8.665033340454102,4.641872406005859,0.0074754562228918076,-0.06112464889883995,-0.040947023779153824,24.464088439941406,-28.569290161132812,-1.613739013671875,-0.020477294921875,0.01600170135498047,-0.03677082061767578,2.3240795135498047,8.649031639099121,4.678643226623535
1_20251106_212455,1762435462383,1,0.42598098516464233,0.3584457039833069,0.37211358547210693,0.7426899671554565,0.9671732187271118,3.0913727283477783,2.3854997158050537,2.1168622970581055,8.59799861907959,4.7304534912109375,0.003199402242898941,-0.04402043670415878,-0.05927296355366707,24.500139236450195,-28.579193115234375,-1.6395645141601562,-0.15215492248535156,-0.027680397033691406,0.018027782440185547,2.269017219543457,8.625679016113281,4.712425708770752
1_20251106_212455,1762435462404,1,0.4263550937175751,0.35783880949020386,0.37213578820228577,0.7427568435668945,0.9659031629562378,3.08821177482605,2.387115240097046,1.9887781143188477,8.507022857666016,4.6227192878723145,-0.024900373071432114,0.07265472412109375,-0.07149025797843933,24.548585891723633,-28.57642364501953,-1.5970535278320312,-0.22419118881225586,-0.0949249267578125,-0.07176494598388672,2.2129693031311035,8.601947784423828,4.694484233856201
1_20251106_212455,1762435462422,1,0.42676642537117004,0.3569425344467163,0.3724445402622223,0.7427970767021179,0.9638787508010864,3.0847878456115723,2.388617992401123,1.9648370742797852,8.515402793884277,4.65743350982666,-0.050556689500808716,0.06043742969632149,-0.020788490772247314,24.548389434814453,-28.576690673828125,-1.5700206756591797,-0.19850587844848633,-0.06923580169677734,-0.029640674591064453,2.1633429527282715,8.584638595581055,4.687074184417725
1_20251106_212455,1762435462442,1,0.42700260877609253,0.35616758465766907,0.372489869594574,0.7430105805397034,0.9638787508010864,3.0847878456115723,2.388617992401123,1.9648370742797852,8.515402793884277,4.65743350982666,-0.03833939880132675,0.0030161445029079914,0.04335230588912964,24.584537506103516,-28.586463928222656,-1.6093616485595703,-0.19850587844848633,-0.06923580169677734,-0.029640674591064453,2.1633429527282715,8.584638595581055,4.687074184417725
1_20251106_212455,1762435462460,1,0.4268929660320282,0.3559838533401489,0.37221547961235046,0.7432990670204163,0.9592683911323547,3.078836441040039,2.3922581672668457,2.1060891151428223,8.661442756652832,4.8908586502075195,-0.012683079577982426,-0.04218784347176552,0.0867237001657486,24.693099975585938,-28.604026794433594,-1.6460247039794922,-0.019213438034057617,0.06371021270751953,0.1472768783569336,2.12530255317688,8.597732543945312,4.743581771850586
1_20251106_212455,1762435462480,1,0.42655375599861145,0.35628920793533325,0.37171560525894165,0.7435976266860962,0.9573056101799011,3.0765860080718994,2.394716501235962,2.1970646381378174,8.740447998046875,4.938740253448486,0.010529778897762299,-0.05135081335902214,0.0916106253862381,24.68130874633789,-28.604278564453125,-1.7005805969238281,0.05740976333618164,0.11417198181152344,0.1561269760131836,2.1396548748016357,8.626276016235352,4.782613277435303
1_20251106_212455,1762435462499,1,0.4261114299297333,0.35680678486824036,0.3712139129638672,0.7438536286354065,0.9555027484893799,3.07489013671875,2.3976967334747314,2.1922764778137207,8.808679580688477,4.954301834106445,0.0007559442892670631,-0.017753256484866142,0.07267381250858307,24.72039031982422,-28.55207061767578,-1.6575050354003906,0.04209733009338379,0.14592266082763672,0.13735103607177734,2.150179147720337,8.66275691986084,4.816950798034668
1_20251106_212455,1762435462519,1,0.42569857835769653,0.35705646872520447,0.3707836866378784,0.744184672832489,0.9538488984107971,3.0735116004943848,2.4006471633911133,2.169532537460327,8.739250183105469,4.856143951416016,-0.006574432365596294,0.025007272139191628,0.0451848991215229,24.743549346923828,-28.57532501220703,-1.6840839385986328,0.015482664108276367,0.061194419860839844,0.031354427337646484,2.154049873352051,8.678055763244629,4.824789524078369
1_20251106_212455,1762435462537,1,0.4253299832344055,0.35685351490974426,0.37063536047935486,0.7445666193962097,0.9523698091506958,3.072277307510376,2.403055191040039,2.1276357173919678,8.655457496643066,4.778336048126221,-0.005963567644357681,0.03050505556166172,0.02930241823196411,24.743549346923828,-28.57532501220703,-1.6840839385986328,-0.021131277084350586,-0.01807880401611328,-0.03716278076171875,2.1487669944763184,8.67353630065918,4.8154988288879395
1_20251106_212455,1762435462556,1,0.4250572919845581,0.3566201329231262,0.3706214129924774,0.7448410391807556,0.9507563710212708,3.0710294246673584,2.4055421352386475,2.1013007164001465,8.669821739196777,4.841779708862305,-0.005963567644357681,0.03050505556166172,0.02930241823196411,24.682830810546875,-28.567413330078125,-1.6186904907226562,-0.03797292709350586,-0.002971649169921875,0.021024703979492188,2.1392736434936523,8.6727933883667,4.8207550048828125
1_20251106_212455,1762435462574,1,0.42475974559783936,0.3564867675304413,0.3705333173274994,0.7451183795928955,0.9507563710212708,3.0710294246673584,2.4055421352386475,2.1013007164001465,8.669821739196777,4.841779708862305,-0.012072214856743813,0.019509492442011833,0.041519712656736374,24.64456558227539,-28.595314025878906,-1.5801410675048828,-0.03797292709350586,-0.002971649169921875,0.021024703979492188,2.1392736434936523,8.6727933883667,4.8207550048828125
1_20251106_212455,1762435462594,1,0.4243184030056,0.356497198343277,0.3703896403312683,0.7454361915588379,0.9482437372207642,3.0690178871154785,2.4102988243103027,2.247340679168701,8.756010055541992,4.832202911376953,0.012973237782716751,-0.019585849717259407,0.07023035734891891,24.584735870361328,-28.58618927001953,-1.6363945007324219,0.08046317100524902,0.06417655944824219,0.005219459533691406,2.166877508163452,8.69183349609375,4.826983451843262
1_20251106_212455,1762435462613,1,0.4239123463630676,0.35684889554977417,0.3701433837413788,0.7456212639808655,0.9482437372207642,3.0690178871154785,2.4102988243103027,2.247340679168701,8.756010055541992,4.832202911376953,0.012973237782716751,-0.019585849717259407,0.07023035734891891,24.54796600341797,-28.60045623779297,-1.7057113647460938,0.08046317100524902,0.06417655944824219,0.005219459533691406,2.166877508163452,8.69183349609375,4.826983451843262
1_20251106_212455,1762435462633,1,0.4237273037433624,0.35709118843078613,0.36998698115348816,0.7456880807876587,0.9473406076431274,3.0683867931365967,2.413100242614746,2.236567258834839,8.775161743164062,4.933952331542969,0.014805832877755165,0.048220135271549225,0.0024243704974651337,24.522790908813477,-28.61473846435547,-1.6934394836425781,0.055751800537109375,0.06666278839111328,0.08557510375976562,2.1808154582977295,8.70849895477295,4.848377227783203
1_20251106_212455,1762435462652,1,0.42346617579460144,0.3566928207874298,0.3702316880226135,0.7459055781364441,0.945438027381897,3.067148208618164,2.4175524711608887,2.059404134750366,8.595603942871094,4.683769226074219,0.031299181282520294,0.061659157276153564,-0.006738600321114063,24.486133575439453,-28.61725616455078,-1.6813945770263672,-0.08976960182189941,-0.0898733139038086,-0.1417393684387207,2.1491737365722656,8.685477256774902,4.8255085945129395
1_20251106_212455,1762435462670,1,0.4232633113861084,0.356151819229126,0.37071138620376587,0.7460409998893738,0.9440330266952515,3.0659775733947754,2.418733835220337,2.0258865356445312,8.529767990112305,4.546108245849609,0.027633992955088615,0.032337650656700134,0.020750312134623528,24.47132682800293,-28.668006896972656,-1.7099742889404297,-0.09862971305847168,-0.12456703186035156,-0.22352027893066406,2.124516248703003,8.654335021972656,4.769628524780273
1_20251106_212455,1762435462690,1,0.4230581820011139,0.35604795813560486,0.3710881769657135,0.7460195422172546,0.9440330266952515,3.0659775733947754,2.418733835220337,2.0258865356445312,8.529767990112305,4.546108245849609,-0.0071852970868349075,0.004237873945385218,0.05190441384911537,24.46991729736328,-28.69312286376953,-1.7105026245117188,-0.09862971305847168,-0.12456703186035156,-0.22352027893066406,2.124516248703003,8.654335021972656,4.769628524780273
1_20251106_212455,1762435462710,1,0.42287477850914,0.35620206594467163,0.3710840344429016,0.7460520267486572,0.9407834410667419,3.063845634460449,2.420714855194092,2.1036949157714844,8.741644859313965,4.838188648223877,-0.015126538462936878,0.021342085674405098,0.057402197271585464,24.480792999267578,-28.717308044433594,-1.7240562438964844,-0.004706859588623047,0.07139205932617188,0.06801128387451172,2.1084017753601074,8.670252799987793,4.770177364349365
1_20251106_212455,1762435462729,1,0.4225715100765228,0.3561042845249176,0.37105080485343933,0.7462870478630066,0.9394587278366089,3.0632240772247314,2.4216387271881104,2.1479856967926025,8.739250183105469,4.747212886810303,-0.015126538462936878,0.021342085674405098,0.057402197271585464,24.481595993041992,-28.704612731933594,-1.7373085021972656,0.031667232513427734,0.055197715759277344,-0.01837158203125,2.116318464279175,8.684052467346191,4.765584468841553
1_20251106_212455,1762435462748,1,0.422136515378952,0.3556998670101166,0.3713317811489105,0.746586263179779,0.9383710026741028,3.06282114982605,2.4221272468566895,2.158759117126465,8.747629165649414,4.626310348510742,0.012973237782716751,0.07326558977365494,0.02930241823196411,24.55189323425293,-28.750076293945312,-1.735422134399414,0.03395247459411621,0.050861358642578125,-0.1114192008972168,2.1248066425323486,8.696767807006836,4.737729549407959
1_20251106_212455,1762435462765,1,0.4217446744441986,0.355356901884079,0.37170273065567017,0.7467864751815796,0.9383710026741028,3.06282114982605,2.4221272468566895,2.158759117126465,8.747629165649414,4.626310348510742,-0.004130973480641842,0.06288088858127594,0.037854522466659546,24.52661895751953,-28.764488220214844,-1.709634780883789,0.03395247459411621,0.050861358642578125,-0.1114192008972168,2.1248066425323486,8.696767807006836,4.737729549407959
1_20251106_212455,1762435462786,1,0.4214610755443573,0.3552338778972626,0.3719255030155182,0.7468941807746887,0.9375275373458862,3.062514305114746,2.423048257827759,2.3885927200317383,8.806285858154297,4.803474426269531,0.0025885384529829025,0.05005272850394249,0.044574033468961716,24.488143920898438,-28.804275512695312,-1.7389297485351562,0.19123196601867676,0.0810089111328125,0.058739662170410156,2.1973607540130615,8.725276947021484,4.744734764099121
1_20251106_212455,1762435462804,1,0.42108267545700073,0.35526779294013977,0.37198731303215027,0.7470606565475464,0.9382465481758118,3.062903642654419,2.423706531524658,2.485553741455078,8.869728088378906,4.79389762878418,0.0025885384529829025,0.05005272850394249,0.044574033468961716,24.51171112060547,-28.81537628173828,-1.7246971130371094,0.23055434226989746,0.11556053161621094,0.039330482482910156,2.2549993991851807,8.754167556762695,4.7545671463012695
1_20251106_212455,1762435462823,1,0.42079877853393555,0.35532715916633606,0.3721684515476227,0.7471021413803101,0.9395424723625183,3.063554286956787,2.4244463443756104,2.4783716201782227,8.856561660766602,4.796291351318359,0.024579668417572975,0.05005272850394249,0.008533017709851265,24.48391342163086,-28.879615783691406,-1.7405147552490234,0.17869782447814941,0.08191490173339844,0.033379554748535156,2.2996737957000732,8.774646759033203,4.762911796569824
1_20251106_212455,1762435462842,1,0.4209763705730438,0.35530197620391846,0.3724662959575653,0.7468656301498413,0.9395424723625183,3.063554286956787,2.4244463443756104,2.4783716201782227,8.856561660766602,4.796291351318359,0.0233579371124506,0.042111486196517944,-0.11791598796844482,24.473743438720703,-28.842872619628906,-1.7266979217529297,0.17869782447814941,0.08191490173339844,0.033379554748535156,2.2996737957000732,8.774646759033203,4.762911796569824
1_20251106_212455,1762435462862,1,0.4215564727783203,0.35510388016700745,0.3729607164859772,0.7463857531547546,0.9417304992675781,3.0637319087982178,2.426873207092285,2.1156654357910156,8.581239700317383,4.929163932800293,0.0233579371124506,0.042111486196517944,-0.11791598796844482,24.462261199951172,-28.83110809326172,-1.7269248962402344,-0.15415573120117188,-0.13852882385253906,0.11578607559204102,2.2698211669921875,8.719768524169922,4.813377857208252
1_20251106_212455,1762435462882,1,0.4222252070903778,0.3543829321861267,0.37360072135925293,0.7460302114486694,0.9415544867515564,3.0627613067626953,2.428010940551758,1.920546293258667,8.386120796203613,4.7783355712890625,0.04412734508514404,0.09953277558088303,-0.13746365904808044,24.4483699798584,-28.857421875,-1.6873950958251953,-0.2794198989868164,-0.2669181823730469,-0.028033733367919922,2.1999661922454834,8.65303897857666,4.806369304656982
1_20251106_212455,1762435462900,1,0.42268091440200806,0.353129506111145,0.37460556626319885,0.7458626627922058,0.9403154850006104,3.060565233230591,2.4283623695373535,1.8535114526748657,8.26761245727539,4.526955604553223,0.050846852362155914,0.08792634308338165,-0.09042706340551376,24.424419403076172,-28.835243225097656,-1.5526847839355469,-0.27716386318206787,-0.30834102630615234,-0.22353076934814453,2.1306753158569336,8.575953483581543,4.750486373901367
1_20251106_212455,1762435462920,1,0.4228545129299164,0.3520314693450928,0.37561121582984924,0.7457775473594666,0.9382266998291016,3.057537794113159,2.428093194961548,1.8307675123214722,8.266416549682617,4.552093505859375,0.050846852362155914,0.08792634308338165,-0.09042706340551376,24.437223434448242,-28.81041717529297,-1.4435367584228516,-0.23992621898651123,-0.24763011932373047,-0.15871429443359375,2.0706937313079834,8.514046669006348,4.710807800292969
1_20251106_212455,1762435462940,1,0.4228976368904114,0.35156795382499695,0.3760853111743927,0.7457327842712402,0.9355930685997009,3.0541274547576904,2.428159236907959,1.8571027517318726,8.338239669799805,4.816641807556152,0.014805832877755165,0.034781113266944885,-0.025064542889595032,24.437223434448242,-28.81041717529297,-1.4435367584228516,-0.17087280750274658,-0.14064598083496094,0.08466720581054688,2.027975559234619,8.478885650634766,4.7319746017456055
1_20251106_212455,1762435462958,1,0.4228628873825073,0.3512270450592041,0.37605223059654236,0.7459297776222229,0.9330354928970337,3.051130533218384,2.428636312484741,1.903787612915039,8.445974349975586,4.902829170227051,-0.023678645491600037,0.03294851630926132,0.02685895934700966,24.512876510620117,-28.74420928955078,-1.3041133880615234,-0.0993504524230957,-0.02632904052734375,0.13668346405029297,2.0031380653381348,8.47230339050293,4.766145706176758
1_20251106_212455,1762435462976,1,0.422684907913208,0.3505542576313019,0.37589889764785767,0.7464242577552795,0.9330354928970337,3.051130533218384,2.428636312484741,1.903787612915039,8.445974349975586,4.902829170227051,-0.009017891250550747,0.05310705304145813,0.02380463480949402,24.512876510620117,-28.74420928955078,-1.3041133880615234,-0.0993504524230957,-0.02632904052734375,0.13668346405029297,2.0031380653381348,8.47230339050293,4.766145706176758
1_20251106_212455,1762435462996,1,0.42240577936172485,0.3498086929321289,0.3758999705314636,0.7469313740730286,0.9269630312919617,3.0454671382904053,2.4298877716064453,1.8535115718841553,8.487871170043945,4.754395008087158,-0.017569996416568756,0.06715694069862366,0.0555696003139019,24.540081024169922,-28.68077850341797,-1.2071990966796875,-0.09805929660797119,0.007282257080078125,-0.02016162872314453,1.9515708684921265,8.480588912963867,4.774556636810303
1_20251106_212455,1762435463015,1,0.42187628149986267,0.3490881323814392,0.3759365677833557,0.7475490570068359,0.9269630312919617,3.0454671382904053,2.4298877716064453,1.8535115718841553,8.487871170043945,4.754395008087158,-0.044448040425777435,0.06227002292871475,0.11054743081331253,24.518033981323242,-28.6328125,-1.1395435333251953,-0.09805929660797119,0.007282257080078125,-0.02016162872314453,1.9515708684921265,8.480588912963867,4.774556636810303
1_20251106_212455,1762435463033,1,0.4210909307003021,0.3485688269138336,0.375651478767395,0.7483770251274109,0.9221716523170471,3.041306495666504,2.4309988021850586,2.1827001571655273,8.680595397949219,4.901632308959961,-0.050556689500808716,0.0341702476143837,0.12520818412303925,24.526399612426758,-28.695205688476562,-1.0998249053955078,0.17377901077270508,0.14868927001953125,0.10814237594604492,2.0089211463928223,8.531906127929688,4.793489933013916
