session_id,timestamp,label,quaternion_w,quaternion_x,quaternion_y,quaternion_z,position_x,position_y,position_z,accelerometer_x,accelerometer_y,accelerometer_z,gyroscope_x,gyroscope_y,gyroscope_z,magnetometer_x,magnetometer_y,magnetometer_z,linear_acceleration_x,linear_acceleration_y,linear_acceleration_z,gravity_x,gravity_y,gravity_z
5_20251106_150007,1762412370642,5,0.02102242037653923,-0.04130358621478081,-0.8701823949813843,-0.49054527282714844,1.1062201261520386,1.7543612718582153,-2.398668050765991,0.2997414171695709,8.193395614624023,-5.2517409324646,0.16039398312568665,-0.26113322377204895,-0.23097938299179077,-0.8695249557495117,-3.0015335083007812,30.965534210205078,-0.5627961158752441,-0.1479015350341797,-0.18868064880371094,0.8625375032424927,8.341297149658203,-5.063060283660889
5_20251106_150007,1762412370661,5,0.017671316862106323,-0.040202680975198746,-0.8710076212882996,-0.48930278420448303,1.1062201261520386,1.7543612718582153,-2.398668050765991,0.2997414171695709,8.193395614624023,-5.2517409324646,0.1524527370929718,-0.26479843258857727,-0.12896499037742615,-0.6284446716308594,-2.8342742919921875,30.829341888427734,-0.5627961158752441,-0.1479015350341797,-0.18868064880371094,0.8625375032424927,8.341297149658203,-5.063060283660889
5_20251106_150007,1762412370680,5,0.01465939823538065,-0.03982303664088249,-0.8718977570533752,-0.4878458082675934,1.1003577709197998,1.749720811843872,-2.4065005779266357,0.29495322704315186,8.168258666992188,-5.357081413269043,0.1115248054265976,-0.2635766863822937,-0.040389612317085266,-0.3760809898376465,-2.679046630859375,30.720409393310547,-0.4540674686431885,-0.13843059539794922,-0.23521661758422852,0.7490206956863403,8.306689262390137,-5.1218647956848145
5_20251106_150007,1762412370699,5,0.012093791738152504,-0.040272656828165054,-0.8726161122322083,-0.48659318685531616,1.0881541967391968,1.7416218519210815,-2.4210662841796875,0.5511218309402466,8.372953414916992,-5.163159370422363,0.07792724668979645,-0.237920343875885,-0.005570322275161743,-0.07797718048095703,-2.5595245361328125,30.734291076660156,-0.10443800687789917,0.06175422668457031,-0.00057220458984375,0.6555598378181458,8.311199188232422,-5.1625871658325195
5_20251106_150007,1762412370719,5,0.009931741282343864,-0.04121646657586098,-0.8731085062026978,-0.4856790602207184,1.0881541967391968,1.7416218519210815,-2.4210662841796875,0.5511218309402466,8.372953414916992,-5.163159370422363,0.06815341114997864,-0.17255783081054688,-0.03000490926206112,0.16864871978759766,-2.5048904418945312,30.636760711669922,-0.10443800687789917,0.06175422668457031,-0.00057220458984375,0.6555598378181458,8.311199188232422,-5.1625871658325195
5_20251106_150007,1762412370738,5,0.008153824135661125,-0.042038001120090485,-0.8734633922576904,-0.4850030839443207,1.0811232328414917,1.737502932548523,-2.428704023361206,0.6193535923957825,8.369361877441406,-5.0638041496276855,0.06754255294799805,-0.09681060165166855,-0.08253928273916245,0.39081668853759766,-2.4403610229492188,30.646644592285156,-0.028964996337890625,0.04652976989746094,0.0790262222290039,0.6483185887336731,8.322832107543945,-5.1428303718566895
5_20251106_150007,1762412370758,5,0.006880803033709526,-0.04235422983765602,-0.8736881017684937,-0.48459044098854065,1.070401668548584,1.7308778762817383,-2.440321445465088,0.5930184721946716,8.224519729614258,-5.151188850402832,0.06754255294799805,-0.09681060165166855,-0.08253928273916245,0.5759191513061523,-2.3905029296875,30.627761840820312,-0.04688382148742676,-0.07345390319824219,-0.005923748016357422,0.6399022936820984,8.2979736328125,-5.145265102386475
5_20251106_150007,1762412370777,5,0.005853166803717613,-0.04212956503033638,-0.8739025592803955,-0.4842366874217987,1.0645307302474976,1.7271002531051636,-2.4458518028259277,0.43620502948760986,8.143119812011719,-5.088942050933838,0.03027980402112007,-0.025950299575924873,-0.19127319753170013,0.7767324447631836,-2.277069091796875,30.610687255859375,-0.1629577875137329,-0.12388324737548828,0.0450587272644043,0.5991628170013428,8.267003059387207,-5.134000778198242
5_20251106_150007,1762412370796,5,0.004828920122236013,-0.04135189577937126,-0.8741168975830078,-0.48392802476882935,1.0578259229660034,1.7227931022644043,-2.4515180587768555,0.3248794674873352,8.092844009399414,-5.178720474243164,0.007066940888762474,0.0027603451162576675,-0.21020999550819397,0.7767324447631836,-2.277069091796875,30.610687255859375,-0.219426691532135,-0.1393270492553711,-0.03577566146850586,0.5443061590194702,8.232171058654785,-5.142944812774658
5_20251106_150007,1762412370815,5,0.0038563809357583523,-0.039885301142930984,-0.8742519617080688,-0.48381584882736206,1.0578259229660034,1.7227931022644043,-2.4515180587768555,0.3248794674873352,8.092844009399414,-5.178720474243164,-0.014924188144505024,-0.009456949308514595,-0.18699714541435242,0.9810705184936523,-2.1008529663085938,30.594932556152344,-0.219426691532135,-0.1393270492553711,-0.03577566146850586,0.5443061590194702,8.232171058654785,-5.142944812774658
5_20251106_150007,1762412370836,5,0.002821217756718397,-0.038285158574581146,-0.8743162751197815,-0.48383602499961853,1.0506219863891602,1.718321442604065,-2.4573919773101807,0.2698151767253876,8.107208251953125,-5.304410934448242,-0.014924188144505024,-0.009456949308514595,-0.18699714541435242,1.128218650817871,-2.0668792724609375,30.668926239013672,-0.21959277987480164,-0.09996986389160156,-0.12917280197143555,0.4894079566001892,8.207178115844727,-5.175238132476807
5_20251106_150007,1762412370853,5,0.0015766454162076116,-0.037086356431245804,-0.8743844628334045,-0.4838119149208069,1.0426759719848633,1.713967204093933,-2.4637482166290283,0.26263290643692017,8.238883972167969,-5.323563575744629,-0.03447185829281807,-0.09192368388175964,-0.1259106695652008,1.2163400650024414,-2.0110931396484375,30.673416137695312,-0.18142002820968628,0.02536487579345703,-0.11866044998168945,0.44405293464660645,8.213519096374512,-5.2049031257629395
5_20251106_150007,1762412370872,5,0.0001400093751726672,-0.03633466362953186,-0.8744307160377502,-0.4837878942489624,1.0360509157180786,1.7109293937683105,-2.4686737060546875,0.20996271073818207,8.354997634887695,-5.2218146324157715,-0.03996964171528816,-0.06015871837735176,-0.12835413217544556,1.2066640853881836,-1.9736785888671875,30.619651794433594,-0.18727217614650726,0.11318302154541016,-0.013528823852539062,0.39723488688468933,8.241814613342285,-5.208285808563232
5_20251106_150007,1762412370891,5,0.0012459326535463333,0.03556828200817108,0.8743593692779541,0.4839721620082855,1.0209074020385742,1.706268072128296,-2.4775819778442383,0.05195219814777374,8.436397552490234,-5.090139389038086,-0.042413100600242615,0.02780579961836338,-0.1307975947856903,1.2704133987426758,-1.9194793701171875,30.62316131591797,-0.22979120910167694,0.1254901885986328,0.07676315307617188,0.2817434072494507,8.310907363891602,-5.166902542114258
5_20251106_150007,1762412370910,5,0.0021091015078127384,0.03423034027218819,0.8741528391838074,0.48443853855133057,1.0119572877883911,1.7041667699813843,-2.4822893142700195,0.016040712594985962,8.338239669799805,-5.2541351318359375,-0.042413100600242615,0.02780579961836338,-0.1307975947856903,1.3120050430297852,-1.8290634155273438,30.612964630126953,-0.21256215870380402,0.0218658447265625,-0.06978607177734375,0.22860287129878998,8.316373825073242,-5.184349060058594
5_20251106_150007,1762412370930,5,0.0024179560132324696,0.032612044364213943,0.8738667964935303,0.485064297914505,1.0028594732284546,1.7022043466567993,-2.4869515895843506,0.03279940038919449,8.327465057373047,-5.246952533721924,-0.035693589597940445,0.07300978899002075,-0.10391955077648163,1.3750495910644531,-1.7874221801757812,30.616207122802734,-0.15664276480674744,0.00887298583984375,-0.05008268356323242,0.18944217264652252,8.318592071533203,-5.196869850158691
5_20251106_150007,1762412370948,5,0.002465652534738183,0.03135973960161209,0.87372225522995,0.48540690541267395,0.994983971118927,1.700595498085022,-2.4907310009002686,0.15011024475097656,8.34661865234375,-5.112882614135742,-0.01797851175069809,0.03147098794579506,0.04635317623615265,1.3387880325317383,-1.789398193359375,30.574188232421875,-0.03146553039550781,0.022420883178710938,0.06718969345092773,0.18157577514648438,8.324197769165039,-5.18007230758667
5_20251106_150007,1762412370967,5,0.0024036061950027943,0.030908720567822456,0.8736723065376282,0.48552611470222473,0.9874600172042847,1.6989156007766724,-2.4941723346710205,0.3176971673965454,8.299934387207031,-5.053030967712402,0.022338561713695526,0.029638392850756645,0.09827667474746704,1.2492561340332031,-1.87030029296875,30.569171905517578,0.1088971197605133,-0.019411087036132812,0.10163307189941406,0.2088000476360321,8.319345474243164,-5.154664039611816
5_20251106_150007,1762412370987,5,0.002003456698730588,0.031112300232052803,0.8736570477485657,0.48554232716560364,0.9874600172042847,1.6989156007766724,-2.4941723346710205,0.3176971673965454,8.299934387207031,-5.053030967712402,0.0699860155582428,0.015588504262268543,0.13492855429649353,1.2241792678833008,-1.8844451904296875,30.567928314208984,0.1088971197605133,-0.019411087036132812,0.10163307189941406,0.2088000476360321,8.319345474243164,-5.154664039611816
5_20251106_150007,1762412371005,5,0.0012837883550673723,0.0318794921040535,0.8737446665763855,0.4853373169898987,0.9763325452804565,1.6954331398010254,-2.501638174057007,0.7103293538093567,8.390909194946289,-5.489953517913818,0.0699860155582428,0.015588504262268543,0.13492855429649353,1.2372808456420898,-1.8592071533203125,30.63652801513672,0.34932488203048706,0.07089042663574219,-0.2569131851196289,0.36100447177886963,8.320018768310547,-5.2330403327941895
5_20251106_150007,1762412371026,5,0.00048806011909618974,0.03347083181142807,0.8740376830101013,0.4847036302089691,0.9731195569038391,1.6946403980255127,-2.507473945617676,0.8839014768600464,8.575254440307617,-5.816747665405273,0.1164117157459259,-0.06260217726230621,0.22289308905601501,1.3210744857788086,-1.8788986206054688,30.652950286865234,0.41831761598587036,0.20418834686279297,-0.4669656753540039,0.465583860874176,8.371066093444824,-5.3497819900512695
5_20251106_150007,1762412371044,5,0.0002596383274067193,-0.03598521649837494,-0.8745105266571045,-0.483669638633728,0.9725663065910339,1.6949942111968994,-2.515552282333374,1.3208246231079102,8.760797500610352,-6.37457275390625,0.1164117157459259,-0.06260217726230621,0.22289308905601501,1.3097906112670898,-1.8668670654296875,30.625690460205078,0.6841926574707031,0.3117847442626953,-0.8198328018188477,0.636631965637207,8.449012756347656,-5.554739952087402
5_20251106_150007,1762412371062,5,0.0012346224393695593,-0.039451565593481064,-0.8751899003982544,-0.48216667771339417,0.9763146042823792,1.6972770690917969,-2.526129722595215,2.361060619354248,9.24679946899414,-6.897683620452881,0.18788288533687592,-0.1047518402338028,0.39088088274002075,1.2601308822631836,-1.8944854736328125,30.555618286132812,1.3795429468154907,0.6382293701171875,-1.074355125427246,0.9815176725387573,8.608570098876953,-5.823328495025635
5_20251106_150007,1762412371081,5,0.0026579180266708136,-0.04426451772451401,-0.8762035965919495,-0.4798967242240906,0.9872278571128845,1.7017804384231567,-2.540186643600464,3.589233160018921,9.415582656860352,-7.080832481384277,0.12007690966129303,-0.10902789235115051,0.33956825733184814,1.2233753204345703,-1.8971405029296875,30.581180572509766,2.086172580718994,0.6456098556518555,-1.0060033798217773,1.5030606985092163,8.769972801208496,-6.0748291015625
5_20251106_150007,1762412371101,5,0.004540432244539261,-0.050323065370321274,-0.8772253394126892,-0.47741246223449707,1.005736231803894,1.7074850797653198,-2.555082321166992,4.470261573791504,9.28989315032959,-6.6367268562316895,-0.08150844275951385,-0.1505666971206665,0.2552689015865326,1.2489595413208008,-1.8707046508789062,30.609722137451172,2.37376070022583,0.4159364700317383,-0.44951820373535156,2.096500873565674,8.873956680297852,-6.187208652496338
5_20251106_150007,1762412371120,5,0.00523968692868948,-0.054039984941482544,-0.8772742748260498,-0.4769088625907898,1.0329782962799072,1.7143995761871338,-2.5682222843170166,4.969430923461914,9.27193832397461,-5.609658241271973,-0.27820688486099243,-0.25502458214759827,0.12393299490213394,1.2952795028686523,-1.9172134399414062,30.556564331054688,2.298344135284424,0.31838512420654297,0.46204042434692383,2.6710867881774902,8.953553199768066,-6.0716986656188965
5_20251106_150007,1762412371139,5,0.004741372540593147,-0.057669367641210556,-0.8762896060943604,-0.47829726338386536,1.062233328819275,1.7207151651382446,-2.5767745971679688,5.092727184295654,9.117518424987793,-4.982404708862305,-0.2647678554058075,-0.3668127954006195,-0.06604593992233276,1.3936700820922852,-1.8980331420898438,30.53371810913086,1.937312364578247,0.13117218017578125,0.8714351654052734,3.1554148197174072,8.986346244812012,-5.853839874267578
5_20251106_150007,1762412371158,5,0.002694588154554367,-0.06056679040193558,-0.8748194575309753,-0.48064056038856506,1.0984572172164917,1.7274748086929321,-2.582625150680542,4.913169860839844,9.016965866088867,-4.808832168579102,-0.09311486780643463,-0.5806155204772949,-0.2804594337940216,1.4854202270507812,-1.9922714233398438,30.54904556274414,1.4062042236328125,0.024496078491210938,0.8360061645507812,3.5069656372070312,8.992469787597656,-5.644838333129883
5_20251106_150007,1762412371178,5,0.0015100351301953197,0.062538281083107,0.8738775253295898,0.48210445046424866,1.1333619356155396,1.7331105470657349,-2.586308002471924,4.313447952270508,8.823043823242188,-5.0626068115234375,0.08403588831424713,-0.8353460431098938,-0.454555869102478,1.642725944519043,-2.00665283203125,30.51434326171875,0.6451859474182129,-0.13554096221923828,0.46578502655029297,3.668262004852295,8.958584785461426,-5.5283918380737305
5_20251106_150007,1762412371197,5,0.008572702296078205,0.06397695094347,0.8738706707954407,0.48185423016548157,1.168131947517395,1.7373261451721191,-2.589451789855957,3.6239476203918457,8.491460800170898,-5.351096153259277,0.18605029582977295,-1.1181764602661133,-0.519307553768158,1.9684219360351562,-2.0477218627929688,30.49923324584961,-0.035451412200927734,-0.3736991882324219,0.14183664321899414,3.6593990325927734,8.86515998840332,-5.4929327964782715
5_20251106_150007,1762412371216,5,0.018334748223423958,0.06545130908489227,0.8745412826538086,0.4801639914512634,1.1958894729614258,1.739686131477356,-2.591846466064453,2.8590331077575684,8.359786033630371,-5.373839378356934,0.20498710870742798,-1.3600788116455078,-0.509533703327179,1.9684219360351562,-2.0477218627929688,30.49923324584961,-0.6402928829193115,-0.4042997360229492,0.0952749252319336,3.49932599067688,8.76408576965332,-5.469114303588867
5_20251106_150007,1762412371235,5,0.030540436506271362,0.06797496974468231,0.8753902316093445,0.4776385426521301,1.1958894729614258,1.739686131477356,-2.591846466064453,2.8590331077575684,8.359786033630371,-5.373839378356934,0.17627646028995514,-1.4993560314178467,-0.46249711513519287,2.4385452270507812,-2.1049118041992188,30.54354476928711,-0.6402928829193115,-0.4042997360229492,0.0952749252319336,3.49932599067688,8.76408576965332,-5.469114303588867
5_20251106_150007,1762412371255,5,0.044353365898132324,0.07161552459001541,0.8759764432907104,0.47494134306907654,1.2404905557632446,1.7405037879943848,-2.5957555770874023,1.7002891302108765,8.173046112060547,-5.363066673278809,0.11335739493370056,-1.5604424476623535,-0.4258452355861664,3.036142349243164,-2.076934814453125,30.40511703491211,-1.2415932416915894,-0.4018230438232422,0.06652975082397461,2.941882371902466,8.574869155883789,-5.429596424102783
5_20251106_150007,1762412371273,5,0.05877368524670601,0.07589845359325409,0.8761339783668518,0.4724132716655731,1.2534939050674438,1.738994836807251,-2.596784830093384,1.1352818012237549,8.137134552001953,-5.2050557136535645,-0.04485655575990677,-1.5702162981033325,-0.43806254863739014,3.7417078018188477,-2.06732177734375,30.31112289428711,-1.4452803134918213,-0.3501873016357422,0.17963266372680664,2.580562114715576,8.487321853637695,-5.384688377380371
5_20251106_150007,1762412371292,5,0.07360684871673584,0.08035287261009216,0.8755897283554077,0.47060394287109375,1.260137915611267,1.7364856004714966,-2.596113681793213,0.49964869022369385,8.095237731933594,-4.783694267272949,-0.21589869260787964,-1.590985655784607,-0.47471439838409424,4.694109916687012,-1.9911956787109375,30.18744659423828,-1.6647309064865112,-0.31366729736328125,0.48079538345336914,2.164379596710205,8.408905029296875,-5.264489650726318
5_20251106_150007,1762412371312,5,0.08871541917324066,0.08432630449533463,0.874028742313385,0.4702046513557434,1.2598798274993896,1.7328299283981323,-2.592164993286133,-0.10605832934379578,8.031794548034668,-4.186367034912109,-0.21589869260787964,-1.590985655784607,-0.47471439838409424,5.733210563659668,-1.8960037231445312,29.972854614257812,-1.8163504600524902,-0.30168819427490234,0.8624982833862305,1.710292100906372,8.33348274230957,-5.04886531829834
5_20251106_150007,1762412371331,5,0.10474847257137299,0.08827684819698334,0.8717145323753357,0.4704771637916565,1.2536773681640625,1.7292356491088867,-2.586149215698242,-0.7189475893974304,8.143119812011719,-3.9768829345703125,-0.15725567936897278,-1.7546974420547485,-0.5131989121437073,6.898782730102539,-1.7285995483398438,29.615806579589844,-1.9433917999267578,-0.15229034423828125,0.8575859069824219,1.2244441509246826,8.29541015625,-4.834468841552734
5_20251106_150007,1762412371349,5,0.12167064845561981,0.09240564703941345,0.869238555431366,0.4701932966709137,1.240454077720642,1.7251970767974854,-2.577514171600342,-1.328245759010315,8.137134552001953,-3.8859071731567383,-0.04730001837015152,-1.823114275932312,-0.45944279432296753,8.147345542907715,-1.5935821533203125,29.288433074951172,-2.042151927947998,-0.12662029266357422,0.7588491439819336,0.7139061689376831,8.263754844665527,-4.644756317138672
5_20251106_150007,1762412371369,5,0.13898776471614838,0.09694978594779968,0.8668093681335449,0.4689612090587616,1.219527006149292,1.7203041315078735,-2.5661282539367676,-1.8202331066131592,7.982715129852295,-3.7398672103881836,0.08586849272251129,-1.925128698348999,-0.34460023045539856,9.494891166687012,-1.4385757446289062,28.85711669921875,-2.0273115634918213,-0.22483205795288086,0.7239112854003906,0.20707836747169495,8.207547187805176,-4.463778495788574
5_20251106_150007,1762412371389,5,0.15654517710208893,0.10273364186286926,0.8644437193870544,0.4665580689907074,1.1921950578689575,1.7150778770446777,-2.5526487827301025,-2.243988513946533,8.01742935180664,-3.5878419876098633,0.17627646028995514,-1.9801065921783447,-0.2389206439256668,10.895892143249512,-1.2159881591796875,28.266887664794922,-1.9608535766601562,-0.15209388732910156,0.7007489204406738,-0.28313499689102173,8.169523239135742,-4.288590908050537
5_20251106_150007,1762412371406,5,0.1743980497121811,0.11028335988521576,0.8620191812515259,0.46297499537467957,1.165252447128296,1.7104947566986084,-2.539651870727539,-2.5013539791107178,8.00426197052002,-3.326885223388672,0.17627646028995514,-1.9801065921783447,-0.2389206439256668,12.295483589172363,-1.0185165405273438,27.676128387451172,-1.7745752334594727,-0.13220882415771484,0.7693643569946289,-0.7267788052558899,8.136470794677734,-4.096249580383301
5_20251106_150007,1762412371427,5,0.19181498885154724,0.1183907613158226,0.8594013452529907,0.4589335024356842,1.165252447128296,1.7104947566986084,-2.539651870727539,-2.5013539791107178,8.00426197052002,-3.326885223388672,0.1420680284500122,-1.786462426185608,-0.25602486729621887,13.73302936553955,-0.8051605224609375,26.992488861083984,-1.7745752334594727,-0.13220882415771484,0.7693643569946289,-0.7267788052558899,8.136470794677734,-4.096249580383301
5_20251106_150007,1762412371446,5,0.20845407247543335,0.12582948803901672,0.8565488457679749,0.4550141990184784,1.0882972478866577,1.699703574180603,-2.50419545173645,-3.096287727355957,8.125164031982422,-3.2227420806884766,0.07059687376022339,-1.6923892498016357,-0.3727000057697296,15.183947563171387,-0.5893936157226562,26.147144317626953,-1.5756678581237793,0.009427070617675781,0.5713026523590088,-1.5206198692321777,8.115736961364746,-3.7940447330474854
5_20251106_150007,1762412371466,5,0.22443556785583496,0.13207431137561798,0.8535202145576477,0.4513184428215027,1.043025255203247,1.6946648359298706,-2.483473300933838,-3.8073348999023438,8.089252471923828,-2.69364595413208,0.07059687376022339,-1.6923892498016357,-0.3727000057697296,16.60334014892578,-0.28797149658203125,25.28866195678711,-1.8293721675872803,-0.021187782287597656,0.8803191184997559,-1.9779627323150635,8.110440254211426,-3.573965072631836
5_20251106_150007,1762412371484,5,0.24067308008670807,0.13666033744812012,0.8501613140106201,0.44791314005851746,0.9974843859672546,1.689552903175354,-2.4623501300811768,-4.75300407409668,7.784005165100098,-2.190885066986084,-0.05096520483493805,-1.5708271265029907,-0.5840591788291931,17.97298812866211,-0.002685546875,24.468502044677734,-2.2200331687927246,-0.26114845275878906,1.10646390914917,-2.532970905303955,8.045153617858887,-3.297348976135254
5_20251106_150007,1762412371502,5,0.25658875703811646,0.13824224472045898,0.8467569947242737,0.4450324475765228,0.9466140270233154,1.683030605316162,-2.4398443698883057,-5.622061729431152,7.36862850189209,-2.3069992065429688,-0.09678006172180176,-1.0509812831878662,-0.8369572162628174,19.309391021728516,0.33111572265625,23.580345153808594,-2.4712727069854736,-0.5412197113037109,0.7922797203063965,-3.1507890224456787,7.909848213195801,-3.0992789268493652
5_20251106_150007,1762412371521,5,0.27085983753204346,0.13711605966091156,0.8439180254936218,0.4423081576824188,0.8873376846313477,1.6738985776901245,-2.415959596633911,-6.163127899169922,6.96522331237793,-2.619428873062134,0.007066942751407623,-0.9159802198410034,-0.6970691680908203,20.466838836669922,0.7278060913085938,22.740482330322266,-2.4098711013793945,-0.755699634552002,0.3838801383972168,-3.7532567977905273,7.720922946929932,-3.0033090114593506
5_20251106_150007,1762412371540,5,0.28229838609695435,0.13400503993034363,0.8420297503471375,0.43970009684562683,0.8236810564994812,1.6624962091445923,-2.3923439979553223,-6.430069923400879,6.7270097732543945,-2.66611385345459,0.1011401116847992,-0.9318627119064331,-0.4710492193698883,21.540603637695312,1.1559371948242188,21.965557098388672,-2.1414504051208496,-0.7951302528381348,0.2697560787200928,-4.288619518280029,7.522140026092529,-2.9358699321746826
5_20251106_150007,1762412371559,5,0.2932157814502716,0.13393908739089966,0.8401596546173096,0.43613824248313904,0.7608841061592102,1.6504058837890625,-2.370708703994751,-6.524637222290039,6.779680252075195,-2.7810306549072266,0.16528089344501495,-0.9483560919761658,-0.2541922628879547,22.516780853271484,1.57757568359375,21.200225830078125,-1.7888145446777344,-0.5939679145812988,0.1238713264465332,-4.735822677612305,7.373648166656494,-2.9049019813537598
5_20251106_150007,1762412371578,5,0.3032468557357788,0.13594716787338257,0.8382048010826111,0.432403028011322,0.6891822814941406,1.6363804340362549,-2.3473055362701416,-6.517454624176025,6.958040714263916,-2.7187840938568115,0.2037653774023056,-0.9538538455963135,-0.09170224517583847,21.593917846679688,2.8378524780273438,19.054094314575195,-1.4253058433532715,-0.3324861526489258,0.1488943099975586,-5.092148780822754,7.290526866912842,-2.86767840385437
5_20251106_150007,1762412371597,5,0.3125136196613312,0.13975267112255096,0.8360840082168579,0.4286816418170929,0.6242201924324036,1.6242479085922241,-2.326543092727661,-6.577307224273682,7.233362197875977,-2.5619704723358154,0.19765672087669373,-0.8707762360572815,-0.04955258220434189,22.278148651123047,3.2643280029296875,18.399168014526367,-1.188127040863037,-0.04573202133178711,0.2445662021636963,-5.3891801834106445,7.279094219207764,-2.8065366744995117
5_20251106_150007,1762412371617,5,0.3210394084453583,0.1443970501422882,0.8338847756385803,0.42511099576950073,0.547945499420166,1.6110048294067383,-2.302358627319336,-6.664691925048828,7.33989953994751,-2.456630229949951,0.1878829002380371,-0.6844624876976013,-0.09658917039632797,22.278148651123047,3.2643280029296875,18.399168014526367,-1.0204095840454102,0.048644065856933594,0.2799253463745117,-5.644282341003418,7.291255474090576,-2.736555576324463
5_20251106_150007,1762412371636,5,0.3284640908241272,0.14831821620464325,0.8319647312164307,0.42183855175971985,0.47934624552726746,1.599469780921936,-2.281020402908325,-6.752076625823975,7.2357563972473145,-2.535635471343994,0.1878829002380371,-0.6844624876976013,-0.09658917039632797,22.862171173095703,3.6343612670898438,17.725744247436523,-0.886235237121582,-0.044399261474609375,0.160736083984375,-5.865841388702393,7.280155658721924,-2.696371555328369
5_20251106_150007,1762412371655,5,0.33455145359039307,0.1510009765625,0.8306962251663208,0.4185902178287506,0.41138750314712524,1.5879758596420288,-2.2607250213623047,-6.88255500793457,7.084928035736084,-2.6876606941223145,0.18971547484397888,-0.463940292596817,-0.17661245167255402,23.398365020751953,4.025657653808594,17.118467330932617,-0.8133707046508789,-0.15618228912353516,0.00696873664855957,-6.069184303283691,7.241110324859619,-2.694629430770874
5_20251106_150007,1762412371675,5,0.3393525183200836,0.1523251235485077,0.8301464319229126,0.4153237044811249,0.3402283191680908,1.5755995512008667,-2.2408015727996826,-7.121964454650879,6.950858116149902,-2.8169422149658203,0.18238511681556702,-0.20126846432685852,-0.2774050831794739,23.812007904052734,4.4080657958984375,16.600900650024414,-0.84222412109375,-0.23220157623291016,-0.09785032272338867,-6.279740333557129,7.1830596923828125,-2.7190918922424316
5_20251106_150007,1762412371695,5,0.3433311879634857,0.15268480777740479,0.8300581574440002,0.41208556294441223,0.2692151963710785,1.5625029802322388,-2.2224338054656982,-7.402074337005615,6.742571830749512,-2.9031295776367188,0.18055251240730286,-0.14934496581554413,-0.24625101685523987,24.15011215209961,4.736015319824219,16.025270462036133,-0.8978672027587891,-0.3523902893066406,-0.1472301483154297,-6.504207134246826,7.094962120056152,-2.755899429321289
5_20251106_150007,1762412371713,5,0.3467358648777008,0.15263521671295166,0.8302433490753174,0.40886756777763367,0.2059490978717804,1.5500692129135132,-2.207000494003296,-7.539734840393066,6.592940807342529,-2.866021156311035,0.1738329976797104,-0.0943671464920044,-0.13934969902038574,24.467891693115234,4.936119079589844,15.595190048217773,-0.8284220695495605,-0.40161705017089844,-0.08809733390808105,-6.711312770843506,6.994557857513428,-2.777923822402954
5_20251106_150007,1762412371732,5,0.3495951294898987,0.15313327312469482,0.8304139971733093,0.40588924288749695,0.140004500746727,1.5363545417785645,-2.191746234893799,-7.623528480529785,6.540270805358887,-2.8588387966156006,0.16955694556236267,-0.011900408193469048,-0.033670105040073395,24.713966369628906,5.1565704345703125,15.162694931030273,-0.7297725677490234,-0.36342954635620117,-0.06473183631896973,-6.893755912780762,6.903700351715088,-2.794106960296631
5_20251106_150007,1762412371750,5,0.3514555096626282,0.15409395098686218,0.8306550979614258,0.4034181237220764,0.07874830812215805,1.523107647895813,-2.178091287612915,-7.667819023132324,6.536679267883301,-2.824124336242676,0.16955694556236267,-0.011900408193469048,-0.033670105040073395,24.94898223876953,5.4125518798828125,14.865663528442383,-0.6192507743835449,-0.29361677169799805,-0.024013996124267578,-7.048568248748779,6.830296039581299,-2.800110340118408
5_20251106_150007,1762412371770,5,0.35219916701316833,0.15541723370552063,0.8310267925262451,0.40149179100990295,0.015219025313854218,1.5087950229644775,-2.1632821559906006,-7.815056324005127,6.455280303955078,-2.393186569213867,0.05410352721810341,0.2556583285331726,0.043909721076488495,25.108173370361328,5.6252899169921875,14.645994186401367,-0.6131906509399414,-0.30001258850097656,0.32553887367248535,-7.2018656730651855,6.755292892456055,-2.7187254428863525
5_20251106_150007,1762412371789,5,0.35183894634246826,0.15631580352783203,0.8315525650978088,0.40036866068840027,-0.050956740975379944,1.49320650100708,-2.1458420753479004,-8.07242202758789,6.335575103759766,-1.8533174991607666,-0.04974347725510597,0.5684210658073425,-0.005570322275161743,25.176956176757812,5.767524719238281,14.637834548950195,-0.6964449882507324,-0.33577442169189453,0.6923263072967529,-7.375977039337158,6.67134952545166,-2.5456438064575195
5_20251106_150007,1762412371808,5,0.3500874936580658,0.15579676628112793,0.8324209451675415,0.4003016948699951,-0.11300166696310043,1.4778388738632202,-2.1285083293914795,-8.222053527832031,6.197914123535156,-1.9646430015563965,-0.06806942075490952,0.9789221286773682,-0.008624646812677383,25.17272186279297,5.905128479003906,14.613214492797852,-0.6768612861633301,-0.37874794006347656,0.4648005962371826,-7.545192241668701,6.576662063598633,-2.429443597793579
5_20251106_150007,1762412371828,5,0.34549546241760254,0.15288586914539337,0.834345281124115,0.4014059603214264,-0.17684224247932434,1.4603264331817627,-2.1120142936706543,-8.135865211486816,5.871119976043701,-2.7056164741516113,-0.028363212943077087,1.237928867340088,0.10866137593984604,25.139801025390625,5.9772796630859375,14.694425582885742,-0.47253847122192383,-0.5644335746765137,-0.22093820571899414,-7.663326740264893,6.435553550720215,-2.484678268432617
5_20251106_150007,1762412371847,5,0.3377712368965149,0.14898991584777832,0.8374128937721252,0.4030536711215973,-0.17684224247932434,1.4603264331817627,-2.1120142936706543,-8.135865211486816,5.871119976043701,-2.7056164741516113,-0.028363212943077087,1.237928867340088,0.10866137593984604,24.99251937866211,6.001106262207031,15.121854782104492,-0.47253847122192383,-0.5644335746765137,-0.22093820571899414,-7.663326740264893,6.435553550720215,-2.484678268432617
5_20251106_150007,1762412371866,5,0.3284226655960083,0.14600422978401184,0.8406480550765991,0.4051322638988495,-0.2882373631000519,1.424798607826233,-2.0868208408355713,-7.850967884063721,5.8950605392456055,-2.430294990539551,-0.2543831467628479,1.1304166316986084,0.4562433958053589,24.675128936767578,6.014488220214844,15.474836349487305,-0.11281251907348633,-0.3028221130371094,0.14072036743164062,-7.738155364990234,6.197882652282715,-2.5710153579711914
5_20251106_150007,1762412371885,5,0.31905993819236755,0.14433413743972778,0.8428687453269958,0.4085838198661804,-0.34457138180732727,1.4079447984695435,-2.071011543273926,-7.935958385467529,6.648004531860352,-1.580390214920044,-0.40099069476127625,1.3619344234466553,0.4996148347854614,24.359474182128906,5.863670349121094,16.000585556030273,-0.15824222564697266,0.36009740829467773,0.7925000190734863,-7.777716159820557,6.287907123565674,-2.3728902339935303
5_20251106_150007,1762412371905,5,0.3093147277832031,0.1426781266927719,0.844207227230072,0.4138617217540741,-0.3979402184486389,1.393475890159607,-2.0538673400878906,-7.72886848449707,6.7952423095703125,-1.673760175704956,-0.3985472321510315,1.8695629835128784,0.5216059684753418,23.906150817871094,5.641197204589844,16.53313636779785,0.0390782356262207,0.4058680534362793,0.5593039989471436,-7.767946720123291,6.389374256134033,-2.2330641746520996
5_20251106_150007,1762412371922,5,0.2962833642959595,0.13908980786800385,0.8461620211601257,0.42057111859321594,-0.3979402184486389,1.393475890159607,-2.0538673400878906,-7.72886848449707,6.7952423095703125,-1.673760175704956,-0.3252434730529785,2.2269186973571777,0.6895937919616699,23.165538787841797,5.309722900390625,17.336400985717773,0.0390782356262207,0.4058680534362793,0.5593039989471436,-7.767946720123291,6.389374256134033,-2.2330641746520996
5_20251106_150007,1762412371942,5,0.27890676259994507,0.134116530418396,0.8492817282676697,0.4277198910713196,-0.48191913962364197,1.3696719408035278,-2.027522087097168,-6.552169322967529,6.474432945251465,-2.872006416320801,-0.31730222702026367,2.3649742603302,1.0622211694717407,22.371658325195312,4.899322509765625,18.176671981811523,0.887843132019043,0.062290191650390625,-0.48093748092651367,-7.440012454986572,6.412142753601074,-2.391068935394287
5_20251106_150007,1762412371961,5,0.2582275867462158,0.1302337646484375,0.8525672554969788,0.4353007972240448,-0.5155481100082397,1.358515739440918,-2.0179426670074463,-5.2749176025390625,6.542664527893066,-3.307732582092285,-0.32951951026916504,2.420562744140625,1.592451810836792,21.436805725097656,4.3779754638671875,19.185148239135742,1.7320761680603027,0.10441732406616211,-0.7333309650421143,-7.006993770599365,6.438247203826904,-2.574401617050171
5_20251106_150007,1762412371980,5,0.23412564396858215,0.1287621408700943,0.8551958799362183,0.4441232681274414,-0.5383074283599854,1.3484593629837036,-2.012139081954956,-3.4314613342285156,6.80003023147583,-3.8164782524108887,-0.32341086864471436,2.2990007400512695,2.1251258850097656,20.301044464111328,3.7430648803710938,20.224210739135742,2.8604259490966797,0.289426326751709,-0.9936611652374268,-6.291887283325195,6.510603904724121,-2.822817087173462
5_20251106_150007,1762412371998,5,0.20791472494602203,0.13253270089626312,0.8564178943634033,0.4536021649837494,-0.5449634790420532,1.341882586479187,-2.0093939304351807,-1.0924270153045654,7.331520080566406,-3.7231082916259766,-0.3625062108039856,2.157280445098877,2.52829647064209,18.945629119873047,2.8688888549804688,21.223154067993164,4.159567832946777,0.6567330360412598,-0.7202329635620117,-5.251995086669922,6.6747870445251465,-3.002875328063965
5_20251106_150007,1762412372019,5,0.18066975474357605,0.14113661646842957,0.8559497594833374,0.4634532332420349,-0.53225177526474,1.3395721912384033,-2.0081474781036377,1.8140089511871338,8.236490249633789,-3.5519304275512695,-0.402823269367218,2.1444520950317383,2.640695810317993,17.534320831298828,1.8658294677734375,22.23101234436035,5.652803421020508,1.2493624687194824,-0.43924403190612793,-3.838794469833374,6.987127780914307,-3.1126863956451416
5_20251106_150007,1762412372038,5,0.1523021012544632,0.15233495831489563,0.8538832664489746,0.47379472851753235,-0.4926829934120178,1.344531536102295,-2.0086147785186768,4.995765686035156,9.378475189208984,-3.6764235496520996,-0.3478454649448395,2.014948844909668,2.456214666366577,15.902464866638184,0.8352432250976562,23.297361373901367,7.067647933959961,1.9130783081054688,-0.4509897232055664,-2.071882486343384,7.465396881103516,-3.225433826446533
5_20251106_150007,1762412372056,5,0.1239200234413147,0.16352175176143646,0.8508368134498596,0.48371604084968567,-0.4300999045372009,1.3561739921569824,-2.0111706256866455,7.722644805908203,10.07755184173584,-4.003218173980713,-0.13831886649131775,1.6258279085159302,2.020056962966919,15.902464866638184,0.8352432250976562,23.297361373901367,7.8356218338012695,2.089723587036133,-0.622227668762207,-0.11297714710235596,7.987828254699707,-3.380990505218506
5_20251106_150007,1762412372076,5,0.09844046086072922,0.17400053143501282,0.847554087638855,0.4916149973869324,-0.33919867873191833,1.3744895458221436,-2.016538619995117,9.202198028564453,10.182891845703125,-4.306072235107422,-0.13831886649131775,1.6258279085159302,2.020056962966919,14.19405460357666,-0.27437591552734375,24.25105094909668,7.4521403312683105,1.7560510635375977,-0.740065336227417,1.7500576972961426,8.426840782165527,-3.566006898880005
5_20251106_150007,1762412372095,5,0.07834313064813614,0.18295367062091827,0.8453696966171265,0.49572205543518066,-0.2359822690486908,1.3947467803955078,-2.0264153480529785,9.469139099121094,9.78547191619873,-5.400175094604492,0.2092631608247757,1.1896705627441406,1.3933098316192627,12.499833106994629,-1.3572769165039062,25.124662399291992,6.175265312194824,1.086904525756836,-1.467334508895874,3.2938737869262695,8.698567390441895,-3.932840585708618
5_20251106_150007,1762412372115,5,0.06298104673624039,0.18866907060146332,0.8454106450080872,0.4956996738910675,-0.2359822690486908,1.3947467803955078,-2.0264153480529785,9.469139099121094,9.78547191619873,-5.400175094604492,0.7901955246925354,0.7296893000602722,0.18440861999988556,10.787161827087402,-2.3525161743164062,25.863977432250977,6.175265312194824,1.086904525756836,-1.467334508895874,3.2938737869262695,8.698567390441895,-3.932840585708618
5_20251106_150007,1762412372134,5,0.05140354856848717,0.19053737819194794,0.8477597832679749,0.4922972321510315,-0.005162343382835388,1.4337925910949707,-2.065319776535034,7.409017562866211,8.40168285369873,-6.8246636390686035,0.7944715619087219,0.5189409852027893,-0.21570777893066406,9.20689868927002,-3.1746826171875,26.422399520874023,2.416116714477539,-0.2978363037109375,-1.8994150161743164,4.992900848388672,8.699519157409668,-4.925248622894287
5_20251106_150007,1762412372153,5,0.04399872571229935,0.18969015777111053,0.8514707088470459,0.4869079887866974,0.11414381116628647,1.4495949745178223,-2.0938186645507812,5.968967437744141,7.827098846435547,-6.998235702514648,0.7944715619087219,0.5189409852027893,-0.21570777893066406,7.746869087219238,-3.812957763671875,26.894319534301758,0.780853271484375,-0.6979360580444336,-1.6583895683288574,5.188114166259766,8.52503490447998,-5.339846134185791
5_20251106_150007,1762412372173,5,0.0392172634601593,0.18650402128696442,0.8553627133369446,0.4816978871822357,0.22597560286521912,1.4611899852752686,-2.125981330871582,4.691715717315674,7.400948524475098,-7.013797283172607,0.37541836500167847,0.5287148356437683,-0.5577920079231262,6.5778703689575195,-4.043006896972656,27.23653221130371,-0.39711856842041016,-0.8992691040039062,-1.3391613960266113,5.088834285736084,8.300217628479004,-5.674635887145996
5_20251106_150007,1762412372190,5,0.035562846809625626,0.18140855431556702,0.8586313724517822,0.47809872031211853,0.3127809762954712,1.467783808708191,-2.154249906539917,3.495863437652588,7.039440155029297,-6.720520496368408,0.37541836500167847,0.5287148356437683,-0.5577920079231262,5.540403366088867,-4.0895843505859375,27.614377975463867,-1.274376392364502,-1.008622169494629,-0.836707592010498,4.77023983001709,8.048062324523926,-5.88381290435791
5_20251106_150007,1762412372209,5,0.03262374922633171,0.17514197528362274,0.8608736395835876,0.4766105115413666,0.3127809762954712,1.467783808708191,-2.154249906539917,3.495863437652588,7.039440155029297,-6.720520496368408,-0.18535545468330383,0.5610906481742859,-0.6243762969970703,4.672606468200684,-3.948150634765625,27.813066482543945,-1.274376392364502,-1.008622169494629,-0.836707592010498,4.77023983001709,8.048062324523926,-5.88381290435791
5_20251106_150007,1762412372228,5,0.03015745058655739,0.16780312359333038,0.8619654178619385,0.4774392247200012,0.40726110339164734,1.4711263179779053,-2.188462972640991,2.565755844116211,6.736586570739746,-6.19381856918335,-0.3985472321510315,0.5604798197746277,-0.6194893717765808,4.003520965576172,-3.7193374633789062,28.08876609802246,-1.7635869979858398,-1.049180507659912,-0.24800443649291992,4.329342842102051,7.785767078399658,-5.94581413269043
5_20251106_150007,1762412372248,5,0.02821868658065796,0.16001887619495392,0.8619052171707153,0.4803301692008972,0.542186975479126,1.4679299592971802,-2.240659475326538,1.2968835830688477,6.512738227844238,-5.220617294311523,-0.3985472321510315,0.5604798197746277,-0.6194893717765808,3.558804512023926,-3.399810791015625,28.266748428344727,-2.030409097671509,-0.8302521705627441,0.521392822265625,3.3272926807403564,7.342990398406982,-5.742010116577148
5_20251106_150007,1762412372267,5,0.026541000232100487,0.15218301117420197,0.8610321879386902,0.4845198392868042,0.5962703227996826,1.4618582725524902,-2.2624433040618896,0.8515811562538147,6.17636775970459,-4.941704750061035,-0.44130775332450867,0.5164975523948669,-0.44233858585357666,3.1504478454589844,-3.0781707763671875,28.473234176635742,-1.9805693626403809,-0.9332981109619141,0.6402444839477539,2.832150459289551,7.109665870666504,-5.581949234008789
5_20251106_150007,1762412372286,5,0.024646751582622528,0.14495985209941864,0.8598728775978088,0.48887401819229126,0.6394906044006348,1.453237771987915,-2.2797353267669678,0.6169595122337341,5.828026294708252,-4.64244270324707,-0.32402175664901733,0.40226584672927856,-0.2657986879348755,2.7976789474487305,-2.8526077270507812,28.63951301574707,-1.7721526622772217,-1.0253114700317383,0.7516050338745117,2.3891122341156006,6.85333776473999,-5.394047737121582
5_20251106_150007,1762412372305,5,0.022575831040740013,0.13916152715682983,0.8588806986808777,0.4923904538154602,0.6394906044006348,1.453237771987915,-2.2797353267669678,0.6169595122337341,5.828026294708252,-4.64244270324707,-0.21589869260787964,0.26909735798835754,-0.08925879746675491,2.5030078887939453,-2.6849136352539062,28.712308883666992,-1.7721526622772217,-1.0253114700317383,0.7516050338745117,2.3891122341156006,6.85333776473999,-5.394047737121582
5_20251106_150007,1762412372324,5,0.02063092030584812,0.13550814986228943,0.8581629395484924,0.49474063515663147,0.7102848291397095,1.4241446256637573,-2.3047659397125244,0.28777092695236206,5.179225444793701,-3.8966805934906006,-0.1725272834300995,0.1945718675851822,0.037801072001457214,2.209752082824707,-2.7050552368164062,28.80866813659668,-1.368224859237671,-1.1221871376037598,1.0228602886199951,1.6559957265853882,6.301412582397461,-4.919540882110596
5_20251106_150007,1762412372343,5,0.018823688849806786,0.13365399837493896,0.8575776815414429,0.49632930755615234,0.735680103302002,1.4056823253631592,-2.311513662338257,0.1525043547153473,5.026002883911133,-3.905060052871704,-0.20123794674873352,0.24466276168823242,0.13553942739963531,1.9279518127441406,-2.7601852416992188,28.715497970581055,-1.2027931213378906,-1.0203275680541992,0.8115847110748291,1.3552974462509155,6.046330451965332,-4.716644763946533
5_20251106_150007,1762412372362,5,0.01660311594605446,0.13265103101730347,0.8568742871284485,0.49789002537727356,0.7554444074630737,1.3854306936264038,-2.3157238960266113,0.09983417391777039,4.569927215576172,-3.9601242542266846,-0.30813926458358765,0.3173556625843048,0.2338886559009552,1.7279424667358398,-2.8609237670898438,28.71932029724121,-1.0043705701828003,-1.1811223030090332,0.6052162647247314,1.104204773902893,5.751049518585205,-4.565340518951416
5_20251106_150007,1762412372381,5,0.013362308964133263,0.13203205168247223,0.8557320237159729,0.5001116394996643,0.7732097506523132,1.3585128784179688,-2.317007064819336,0.08546958118677139,3.9283089637756348,-3.525595188140869,-0.48712265491485596,0.33140555024147034,0.2809252440929413,1.4689064025878906,-2.939849853515625,28.653635025024414,-0.8149881362915039,-1.4581923484802246,0.8317961692810059,0.9004577398300171,5.386501312255859,-4.357391357421875
5_20251106_150007,1762412372401,5,0.009952729567885399,0.13250674307346344,0.8537073135375977,0.5035144090652466,0.7860651016235352,1.3299531936645508,-2.3135271072387695,-0.04740290343761444,3.1346654891967773,-2.4985270500183105,-0.671603798866272,0.3680574297904968,0.19173897802829742,1.167983055114746,-3.1095962524414062,28.638696670532227,-0.7582885026931763,-1.801468849182129,1.487091302871704,0.7108855843544006,4.936134338378906,-3.9856183528900146
5_20251106_150007,1762412372419,5,0.006452404428273439,0.1322767734527588,0.8508679270744324,0.5084141492843628,0.7961031198501587,1.2922488451004028,-2.3026654720306396,-0.45080849528312683,2.449953079223633,-1.6210899353027344,-0.8585284352302551,0.607516348361969,-0.05443950742483139,1.0014886856079102,-3.2816848754882812,28.48021125793457,-0.929355263710022,-1.9889450073242188,1.89162278175354,0.47854679822921753,4.438898086547852,-3.5127127170562744
5_20251106_150007,1762412372437,5,0.0029902413953095675,0.1299479454755783,0.8473230600357056,0.514925479888916,0.7961031198501587,1.2922488451004028,-2.3026654720306396,-0.45080849528312683,2.449953079223633,-1.6210899353027344,-1.1242544651031494,1.028402328491211,-0.27190732955932617,0.7337837219238281,-3.5231781005859375,28.343515396118164,-0.929355263710022,-1.9889450073242188,1.89162278175354,0.47854679822921753,4.438898086547852,-3.5127127170562744
5_20251106_150007,1762412372458,5,0.0017151030478999019,-0.12364660948514938,-0.842888355255127,-0.5236867666244507,0.8019457459449768,1.206862449645996,-2.2707324028015137,-1.123550295829773,2.5528993606567383,-2.850459575653076,-1.4241890907287598,1.4621162414550781,-0.2028796225786209,0.41431713104248047,-3.8183441162109375,28.230833053588867,-1.0400898456573486,-1.1400046348571777,0.20933079719543457,-0.08346046507358551,3.692903995513916,-3.0597903728485107
5_20251106_150007,1762412372477,5,0.009208139032125473,-0.11414448916912079,-0.8368618488311768,-0.5353022217750549,0.8012586832046509,1.1678615808486938,-2.259887218475342,-0.690218448638916,3.4099864959716797,-4.330012798309326,-1.4241890907287598,1.4621162414550781,-0.2028796225786209,-0.07032012939453125,-4.249000549316406,28.068586349487305,-0.48540639877319336,-0.2263340950012207,-1.0161778926849365,-0.20481204986572266,3.6363205909729004,-3.3138349056243896
5_20251106_150007,1762412372497,5,0.01944584585726261,-0.10563923418521881,-0.828815758228302,-0.5491144061088562,0.801898181438446,1.1307423114776611,-2.2514517307281494,0.2793915867805481,4.361640930175781,-4.203125476837158,-1.8780615329742432,0.8054365515708923,0.8203188180923462,-0.07032012939453125,-4.249000549316406,28.068586349487305,0.38736289739608765,0.580256462097168,-0.7114324569702148,-0.10797132551670074,3.7813844680786133,-3.4916930198669434
5_20251106_150007,1762412372515,5,0.02925794944167137,-0.10339926183223724,-0.8188928961753845,-0.5637969374656677,0.8060349225997925,1.1021451950073242,-2.2421746253967285,1.1783756017684937,6.211081504821777,-3.0312137603759766,-1.8640117645263672,0.1634177565574646,1.398196816444397,-0.5470991134643555,-4.7543487548828125,27.918764114379883,1.0290775299072266,1.9437575340270996,0.36838340759277344,0.1492980420589447,4.267323970794678,-3.39959716796875
5_20251106_150007,1762412372535,5,0.03715427592396736,-0.10963824391365051,-0.8077855706214905,-0.5779978036880493,0.8060349225997925,1.1021451950073242,-2.2421746253967285,1.1783756017684937,6.211081504821777,-3.0312137603759766,-1.6728110313415527,-0.16400572657585144,1.8850560188293457,-1.0276126861572266,-5.334358215332031,27.699777603149414,1.0290775299072266,1.9437575340270996,0.36838340759277344,0.1492980420589447,4.267323970794678,-3.39959716796875
5_20251106_150007,1762412372554,5,0.0442269891500473,-0.12282975018024445,-0.796394944190979,-0.5905183553695679,0.8346325159072876,1.0908616781234741,-2.211301803588867,3.710134983062744,11.449369430541992,-1.5061731338500977,-1.4913841485977173,-0.0888693630695343,2.2387468814849854,-2.2500123977661133,-5.838600158691406,26.892013549804688,2.537881374359131,5.032617568969727,1.3010435104370117,1.1722536087036133,6.416751861572266,-2.8072166442871094
5_20251106_150007,1762412372573,5,0.05309917777776718,-0.13978660106658936,-0.785061776638031,-0.6010975241661072,0.8660654425621033,1.1169735193252563,-2.190340518951416,6.451378345489502,14.552122116088867,-0.9256042242050171,-1.424799919128418,0.172580748796463,2.3279330730438232,-2.5610551834106445,-6.6683807373046875,26.472095489501953,4.223299980163574,6.508296966552734,1.505289912223816,2.2280783653259277,8.043825149536133,-2.430894136428833
5_20251106_150007,1762412372592,5,0.06503496319055557,-0.15721529722213745,-0.7733179330825806,-0.6107644438743591,0.9150214791297913,1.1670713424682617,-2.165052652359009,9.187832832336426,17.26224136352539,-0.47192245721817017,-1.4046413898468018,0.318577378988266,2.0206680297851562,-2.940373420715332,-7.6280975341796875,26.087635040283203,5.567803382873535,7.374732971191406,1.5671775341033936,3.6200292110443115,9.887508392333984,-2.039099931716919
5_20251106_150007,1762412372611,5,0.07816125452518463,-0.17270125448703766,-0.7610074877738953,-0.6204294562339783,0.9802014231681824,1.2402870655059814,-2.1351168155670166,10.425582885742188,19.226600646972656,0.11582877486944199,-1.2904096841812134,0.30513837933540344,1.3145084381103516,-3.283021926879883,-8.573684692382812,25.786006927490234,5.4444427490234375,7.471273422241211,1.7239429950714111,4.98114013671875,11.755327224731445,-1.608114242553711
5_20251106_150007,1762412372630,5,0.08865182846784592,-0.18437515199184418,-0.7492018938064575,-0.6299549341201782,1.0555884838104248,1.3307769298553467,-2.1009626388549805,9.889304161071777,19.385807037353516,0.4749436378479004,-1.0454529523849487,0.3326272666454315,0.3823287785053253,-3.5194215774536133,-9.574783325195312,25.473957061767578,3.9265313148498535,6.104384422302246,1.666446328163147,5.962772846221924,13.28142261505127,-1.1915026903152466
5_20251106_150007,1762412372648,5,0.0945315733551979,-0.18977764248847961,-0.7396256923675537,-0.6387503743171692,1.1284866333007812,1.423140287399292,-2.066380023956299,8.013527870178223,17.717121124267578,0.3696032762527466,-0.7662878036499023,0.40348759293556213,-0.4087410271167755,-3.499729633331299,-10.570541381835938,25.050296783447266,1.640604019165039,3.5485591888427734,1.2488847970962524,6.372923851013184,14.168561935424805,-0.8792815208435059
5_20251106_150007,1762412372668,5,0.09542829543352127,-0.18829987943172455,-0.7331615686416626,-0.6464601159095764,1.2044103145599365,1.5248650312423706,-2.028502941131592,6.036002159118652,15.560037612915039,-0.4276316463947296,-0.5353808999061584,0.45846542716026306,-0.7422731518745422,-3.3666157722473145,-11.472869873046875,24.795093536376953,-0.26953744888305664,1.1131811141967773,0.3613199293613434,6.305539608001709,14.446856498718262,-0.788951575756073
5_20251106_150007,1762412372687,5,0.0936524048447609,-0.18189474940299988,-0.7292726635932922,-0.6529203057289124,1.268674612045288,1.6149307489395142,-1.9953933954238892,4.753962516784668,13.812345504760742,-1.1805756092071533,-0.36983656883239746,0.3185774087905884,-0.6634715795516968,-3.281540870666504,-12.365814208984375,24.538192749023438,-1.2412614822387695,-0.5076093673706055,-0.3132992386817932,5.9952239990234375,14.319954872131348,-0.8672763705253601
5_20251106_150007,1762412372705,5,0.09121385216712952,-0.1746213138103485,-0.7269791960716248,-0.6577907204627991,1.322044014930725,1.691901445388794,-1.9660921096801758,4.180575370788574,12.659587860107422,-1.0692501068115234,-0.23605722188949585,0.025973206385970116,-0.44294947385787964,-3.2368507385253906,-13.11138916015625,24.29601287841797,-1.451718807220459,-1.328293800354004,-0.1615789532661438,5.632294178009033,13.987881660461426,-0.9076711535453796
5_20251106_150007,1762412372726,5,0.08842623978853226,-0.16986878216266632,-0.7256870269775391,-0.6608356237411499,1.322044014930725,1.691901445388794,-1.9660921096801758,4.180575370788574,12.659587860107422,-1.0692501068115234,-0.06745855510234833,-0.17561215162277222,-0.2871789336204529,-3.124366283416748,-13.716079711914062,24.180835723876953,-1.451718807220459,-1.328293800354004,-0.1615789532661438,5.632294178009033,13.987881660461426,-0.9076711535453796
5_20251106_150007,1762412372745,5,0.08517172187566757,-0.16806508600711823,-0.7253290414810181,-0.6621160507202148,1.379105567932129,1.7761160135269165,-1.9294551610946655,3.711332082748413,11.6947660446167,-0.6419034600257874,0.08709022402763367,-0.16522744297981262,-0.17172552645206451,-2.8705759048461914,-14.174575805664062,24.141536712646484,-1.5367696285247803,-1.8344926834106445,0.21261411905288696,5.248101711273193,13.529258728027344,-0.8545175790786743
5_20251106_150007,1762412372764,5,0.082212895154953,-0.16773992776870728,-0.7258573770523071,-0.6619935035705566,1.4182710647583008,1.8353339433670044,-1.8997782468795776,3.2013893127441406,11.024417877197266,-0.5174103379249573,0.15856137871742249,-0.03816758841276169,-0.05810469388961792,-2.564629077911377,-14.578857421875,24.024158477783203,-1.6373701095581055,-2.003872871398926,0.2696858048439026,4.838759422302246,13.028290748596191,-0.7870961427688599
5_20251106_150007,1762412372783,5,0.08068381249904633,-0.16755878925323486,-0.7267971634864807,-0.6611959338188171,1.4759595394134521,1.923619031906128,-1.8501622676849365,3.3917198181152344,10.55756950378418,-1.5612373352050781,0.2092631459236145,0.014366774819791317,0.07506381720304489,-2.3102378845214844,-14.811981201171875,23.975605010986328,-0.879755973815918,-1.6216745376586914,-0.5984923243522644,4.271475791931152,12.179244041442871,-0.9627450108528137
5_20251106_150007,1762412372801,5,0.08077136427164078,-0.16741693019866943,-0.7278149724006653,-0.6601006388664246,1.5002020597457886,1.9575177431106567,-1.830156683921814,3.809490203857422,10.339706420898438,-1.799450159072876,0.25263458490371704,-0.09314541518688202,0.2283908724784851,-2.0977277755737305,-14.911376953125,24.049636840820312,-0.36958837509155273,-1.4716300964355469,-0.6693640947341919,4.179078578948975,11.811336517333984,-1.130086064338684
5_20251106_150007,1762412372820,5,0.08188483864068985,-0.1682393103837967,-0.7291118502616882,-0.6583207845687866,1.5250481367111206,1.987932801246643,-1.8110649585723877,4.374497413635254,10.507292747497559,-1.483429193496704,0.2697387933731079,-0.2177618145942688,0.33956825733184814,-2.004976272583008,-14.992645263671875,24.024681091308594,0.15633487701416016,-1.0432348251342773,-0.28267455101013184,4.218162536621094,11.550527572631836,-1.2007546424865723
5_20251106_150007,1762412372839,5,0.08277526497840881,-0.1713102012872696,-0.7304108142852783,-0.6559734344482422,1.5504372119903564,2.014247417449951,-1.7933191061019897,4.8688788414001465,10.610239028930664,-1.343374490737915,0.33998823165893555,-0.27579396963119507,0.3224640488624573,-1.8843278884887695,-15.009552001953125,24.002025604248047,0.5205731391906738,-0.7522306442260742,-0.11409592628479004,4.348305702209473,11.362469673156738,-1.229278564453125
5_20251106_150007,1762412372859,5,0.08343471586704254,-0.1754252016544342,-0.7318316102027893,-0.6532129049301147,1.5767929553985596,2.0368409156799316,-1.7768096923828125,5.163352966308594,10.485745429992676,-1.3565419912338257,0.4206223487854004,-0.2855678200721741,0.20578888058662415,-1.674234390258789,-14.934066772460938,24.09278106689453,0.6520376205444336,-0.7013797760009766,-0.10181069374084473,4.51131534576416,11.187125205993652,-1.254731297492981
5_20251106_150007,1762412372877,5,0.08356089144945145,-0.17920902371406555,-0.733873188495636,-0.6498706936836243,1.603793978691101,2.055713653564453,-1.7624133825302124,5.226797103881836,10.242744445800781,-1.7240360975265503,0.43711569905281067,-0.2593006193637848,0.059792205691337585,-1.6063547134399414,-14.804656982421875,24.11138916015625,0.572385311126709,-0.7555046081542969,-0.37544381618499756,4.654411792755127,10.998249053955078,-1.3485922813415527
5_20251106_150007,1762412372897,5,0.08313672989606857,-0.18193386495113373,-0.7363739609718323,-0.646329402923584,1.6324440240859985,2.07132887840271,-1.7493658065795898,5.196870803833008,9.92672348022461,-1.7922680377960205,0.43711569905281067,-0.2593006193637848,0.059792205691337585,-1.63494873046875,-14.657028198242188,24.180667877197266,0.43396711349487305,-0.8572206497192383,-0.35494065284729004,4.762903690338135,10.783944129943848,-1.4373273849487305
5_20251106_150007,1762412372917,5,0.08181482553482056,-0.18370799720287323,-0.7389753460884094,-0.6430187821388245,1.6602712869644165,2.0821893215179443,-1.7386027574539185,4.963445663452148,9.476633071899414,-1.9742193222045898,0.3796944320201874,-0.2654092609882355,-0.1882188767194748,-1.63494873046875,-14.657028198242188,24.180667877197266,0.16043376922607422,-1.0458488464355469,-0.4295135736465454,4.803011894226074,10.522481918334961,-1.5447057485580444
5_20251106_150007,1762412372935,5,0.07970995455980301,-0.18456241488456726,-0.7416107654571533,-0.6399973034858704,1.6602712869644165,2.0821893215179443,-1.7386027574539185,4.963445663452148,9.476633071899414,-1.9742193222045898,0.37541836500167847,-0.28129175305366516,-0.2083774209022522,-1.6388607025146484,-14.49578857421875,24.305255889892578,0.16043376922607422,-1.0458488464355469,-0.4295135736465454,4.803011894226074,10.522481918334961,-1.5447057485580444
5_20251106_150007,1762412372955,5,0.07714921981096268,-0.18497321009635925,-0.7443516254425049,-0.6370036005973816,1.7095543146133423,2.0902998447418213,-1.72547447681427,4.84972620010376,8.967887878417969,-2.4326891899108887,0.3485403060913086,-0.34298911690711975,-0.18211022019386292,-1.645803451538086,-14.39666748046875,24.360942840576172,0.03334474563598633,-1.0198383331298828,-0.5968470573425293,4.816381454467773,9.987726211547852,-1.8358421325683594
5_20251106_150007,1762412372974,5,0.07438413053750992,-0.18570727109909058,-0.747025728225708,-0.6339813470840454,1.7314954996109009,2.089101552963257,-1.7220392227172852,4.941899299621582,8.711718559265137,-2.393186569213867,0.30516892671585083,-0.4327861964702606,-0.16378429532051086,-1.6485166549682617,-14.222198486328125,24.418212890625,0.10041427612304688,-1.0208063125610352,-0.4458756446838379,4.841485023498535,9.732524871826172,-1.9473109245300293
5_20251106_150007,1762412372993,5,0.07118748128414154,-0.18710751831531525,-0.7495074272155762,-0.6310005784034729,1.7553539276123047,2.084249496459961,-1.718873381614685,5.07118034362793,8.552511215209961,-2.09871244430542,0.30516892671585083,-0.4327861964702606,-0.16378429532051086,-1.5900888442993164,-14.031875610351562,24.545780181884766,0.18375635147094727,-0.9440107345581055,-0.12112116813659668,4.887423992156982,9.496521949768066,-1.9775912761688232
5_20251106_150007,1762412373011,5,0.06722351908683777,-0.18929652869701385,-0.7517726421356201,-0.6280809640884399,1.7762378454208374,2.077690839767456,-1.7154655456542969,5.084347724914551,8.517796516418457,-1.6929128170013428,0.28256693482398987,-0.5683981776237488,-0.16317342221736908,-1.4833250045776367,-13.85052490234375,24.634498596191406,0.15753889083862305,-0.7829799652099609,0.22774279117584229,4.926808834075928,9.300776481628418,-1.920655608177185
5_20251106_150007,1762412373031,5,0.062213554978370667,-0.1922786682844162,-0.7541037201881409,-0.6248887181282043,1.7980912923812866,2.068103790283203,-1.7115108966827393,4.864090919494629,8.424427032470703,-1.8030414581298828,0.30883413553237915,-0.6960689425468445,-0.19127319753170013,-1.4752616882324219,-13.70037841796875,24.691730499267578,-0.05017423629760742,-0.7010793685913086,0.09409141540527344,4.914265155792236,9.125506401062012,-1.8971328735351562
5_20251106_150007,1762412373051,5,0.0563359409570694,-0.19544994831085205,-0.7566895484924316,-0.6213264465332031,1.8157917261123657,2.0575525760650635,-1.7086201906204224,4.514552116394043,8.169455528259277,-2.096318244934082,0.3839704692363739,-0.8029702305793762,-0.34460023045539856,-1.2965812683105469,-13.527496337890625,24.8507080078125,-0.31977033615112305,-0.7648401260375977,-0.15934836864471436,4.834322452545166,8.934295654296875,-1.9369698762893677
5_20251106_150007,1762412373069,5,0.04977547749876976,-0.1981433629989624,-0.7596755623817444,-0.6173772215843201,1.8325318098068237,2.043125867843628,-1.7065991163253784,4.194940090179443,7.852236747741699,-2.2758758068084717,0.3418208360671997,-0.8304591774940491,-0.3928585350513458,-1.1428918838500977,-13.3802490234375,24.900047302246094,-0.5115060806274414,-0.8656473159790039,-0.27112483978271484,4.706446170806885,8.717884063720703,-2.004750967025757
5_20251106_150007,1762412373088,5,0.04247509315609932,-0.2005815953016281,-0.7627386450767517,-0.6133455038070679,1.8325318098068237,2.043125867843628,-1.7065991163253784,4.194940090179443,7.852236747741699,-2.2758758068084717,0.2508019804954529,-0.8506177067756653,-0.3953019976615906,-0.9410638809204102,-13.242233276367188,24.93756866455078,-0.5115060806274414,-0.8656473159790039,-0.27112483978271484,4.706446170806885,8.717884063720703,-2.004750967025757
5_20251106_150007,1762412373109,5,0.0348631888628006,-0.20280656218528748,-0.7654433846473694,-0.6097134351730347,1.8551793098449707,2.0095577239990234,-1.7075797319412231,3.615568161010742,7.564944744110107,-2.697237253189087,0.1579505205154419,-0.903762936592102,-0.36598050594329834,-0.6778974533081055,-13.088104248046875,25.018352508544922,-0.743171215057373,-0.7574172019958496,-0.4657914638519287,4.358739376068115,8.322361946105957,-2.231445789337158
5_20251106_150007,1762412373126,5,0.026782061904668808,-0.20538994669914246,-0.767536461353302,-0.6066180467605591,1.8617966175079346,1.990678071975708,-1.7102304697036743,3.4060847759246826,7.555368423461914,-2.7499074935913086,0.09686405956745148,-1.021048903465271,-0.31955477595329285,-0.2813901901245117,-12.937789916992188,25.104267120361328,-0.7621238231658936,-0.6135950088500977,-0.41476941108703613,4.168208599090576,8.168963432312012,-2.3351380825042725
5_20251106_150007,1762412373145,5,0.018290357664227486,-0.2086457759141922,-0.7690868377685547,-0.6038525104522705,1.865430474281311,1.9709932804107666,-1.7132658958435059,3.2013890743255615,7.531427383422852,-2.523664951324463,0.09686405956745148,-1.021048903465271,-0.31955477595329285,0.14853382110595703,-12.85894775390625,25.04138946533203,-0.7734556198120117,-0.5100288391113281,-0.15082144737243652,3.9748446941375732,8.04145622253418,-2.3728435039520264
5_20251106_150007,1762412373166,5,0.008748596534132957,-0.21310600638389587,-0.7702103853225708,-0.6010701060295105,1.8658578395843506,1.9496779441833496,-1.715580701828003,2.9200825691223145,7.505092144012451,-2.1358211040496826,0.05288179963827133,-1.1560499668121338,-0.29389846324920654,0.6164379119873047,-12.740997314453125,25.075389862060547,-0.8438098430633545,-0.4290909767150879,0.18961787223815918,3.763892412185669,7.934183120727539,-2.325438976287842
5_20251106_150007,1762412373184,5,0.001700406544841826,0.218200221657753,0.7709974050521851,0.5982882380485535,1.8635573387145996,1.9293752908706665,-1.7160592079162598,2.784815788269043,7.5457916259765625,-1.7384006977081299,-0.02103283628821373,-1.1798737049102783,-0.36598050594329834,1.1913824081420898,-12.677474975585938,24.99083709716797,-0.7832612991333008,-0.3107132911682129,0.46963071823120117,3.5680770874023438,7.856504917144775,-2.208031415939331
5_20251106_150007,1762412373203,5,0.012508230283856392,0.22292664647102356,0.7715388536453247,0.5957139134407043,1.8583459854125977,1.9091695547103882,-1.7159085273742676,2.4652037620544434,7.5218505859375,-1.98738694190979,-0.04119137302041054,-1.103515625,-0.43195387721061707,1.7155532836914062,-12.666275024414062,24.795135498046875,-0.8822987079620361,-0.26772308349609375,0.1765155792236328,3.3475024700164795,7.789573669433594,-2.163902521133423
5_20251106_150007,1762412373223,5,0.023125488311052322,0.22670415043830872,0.7718198895454407,0.5936030149459839,1.8583459854125977,1.9091695547103882,-1.7159085273742676,2.4652037620544434,7.5218505859375,-1.98738694190979,-0.020421970635652542,-1.1102352142333984,-0.49853813648223877,2.37347412109375,-12.646743774414062,24.64537811279297,-0.8822987079620361,-0.26772308349609375,0.1765155792236328,3.3475024700164795,7.789573669433594,-2.163902521133423
5_20251106_150007,1762412373241,5,0.033936645835638046,0.22972559928894043,0.7721840739250183,0.5914441347122192,1.837095022201538,1.8671633005142212,-1.718103051185608,1.5434757471084595,6.888611793518066,-2.881582736968994,-0.039358776062726974,-1.2220234870910645,-0.4967055320739746,3.058079719543457,-12.587677001953125,24.47036361694336,-1.222378134727478,-0.6474809646606445,-0.5445454120635986,2.7658538818359375,7.536092758178711,-2.3370373249053955
5_20251106_150007,1762412373261,5,0.045232947915792465,0.23253107070922852,0.7726820707321167,0.5889360904693604,1.837095022201538,1.8671633005142212,-1.718103051185608,1.5434757471084595,6.888611793518066,-2.881582736968994,-0.1511470228433609,-1.4211652278900146,-0.3977454602718353,3.8271703720092773,-12.54736328125,24.21715545654297,-1.222378134727478,-0.6474809646606445,-0.5445454120635986,2.7658538818359375,7.536092758178711,-2.3370373249053955
5_20251106_150007,1762412373278,5,0.0577065572142601,0.2366444617509842,0.7725845575332642,0.5863296389579773,1.8026037216186523,1.8220720291137695,-1.7245428562164307,0.889886736869812,6.713842868804932,-2.3393194675445557,-0.3160804808139801,-1.5231797695159912,-0.2645769715309143,4.568550109863281,-12.582763671875,23.839736938476562,-1.2513741254806519,-0.5212607383728027,0.0820455551147461,2.141260862350464,7.235103607177734,-2.4213650226593018
5_20251106_150007,1762412373298,5,0.07109443098306656,0.24246467649936676,0.7712235450744629,0.5842694044113159,1.7806731462478638,1.7997043132781982,-1.7260520458221436,0.8288372159004211,7.169918060302734,-1.9071848392486572,-0.43031221628189087,-1.4901930093765259,-0.14668008685112,5.334920883178711,-12.592544555664062,23.571956634521484,-1.0499389171600342,-0.05214881896972656,0.4113442897796631,1.8787761926651,7.222066879272461,-2.3185291290283203
5_20251106_150007,1762412373317,5,0.08430324494838715,0.24922268092632294,0.7684488296508789,0.5833244919776917,1.7551250457763672,1.7784262895584106,-1.7249388694763184,0.6887824535369873,7.580506324768066,-1.4558970928192139,-0.43031221628189087,-1.4901930093765259,-0.14668008685112,6.158769607543945,-12.684234619140625,23.102035522460938,-0.9519950151443481,0.28675174713134766,0.690105676651001,1.6407774686813354,7.293754577636719,-2.146002769470215
5_20251106_150007,1762412373338,5,0.09686006605625153,0.25619184970855713,0.7650427222251892,0.5828323364257812,1.725527286529541,1.758198618888855,-1.7209056615829468,0.4134610891342163,7.591279983520508,-1.2739455699920654,-0.3887733817100525,-1.41627836227417,-0.11674769967794418,6.158769607543945,-12.684234619140625,23.102035522460938,-0.9818531274795532,0.2380199432373047,0.6976457834243774,1.3953142166137695,7.353260040283203,-1.9715913534164429
5_20251106_150007,1762412373356,5,0.10832331329584122,0.2622983455657959,0.7621566653251648,0.5818787217140198,1.6978914737701416,1.7406659126281738,-1.7177635431289673,-0.040220603346824646,6.922128677368164,-2.0292837619781494,-0.26110267639160156,-1.2311863899230957,-0.17905589938163757,6.948274612426758,-12.740493774414062,22.617919921875,-1.1484278440475464,-0.34490489959716797,-0.046153903007507324,1.1082072257995605,7.267033576965332,-1.983129858970642
5_20251106_150007,1762412373376,5,0.11876378208398819,0.26693201065063477,0.760097861289978,0.5804254412651062,1.6643410921096802,1.720273733139038,-1.7152858972549438,-0.33230066299438477,6.646807670593262,-2.2591171264648438,-0.33318471908569336,-1.2000322341918945,-0.050774313509464264,7.833759307861328,-12.815658569335938,22.150718688964844,-1.1524063348770142,-0.49618053436279297,-0.22078990936279297,0.8201056718826294,7.142988204956055,-2.038327217102051
5_20251106_150007,1762412373395,5,0.12920252978801727,0.27212294936180115,0.757599949836731,0.579049289226532,1.6324141025543213,1.7026423215866089,-1.714097261428833,-0.49629640579223633,7.063380718231201,-2.41593074798584,-0.4797922372817993,-1.234851598739624,0.17096957564353943,8.64370346069336,-12.945266723632812,21.625450134277344,-1.0531216859817505,-0.06368589401245117,-0.30208277702331543,0.5568252801895142,7.127066612243652,-2.1138479709625244
5_20251106_150007,1762412373413,5,0.13918596506118774,0.2790447473526001,0.7534812688827515,0.5788154602050781,1.5968061685562134,1.6855919361114502,-1.7131035327911377,-0.7524648904800415,7.356657981872559,-2.1860971450805664,-0.5384352803230286,-1.204308271408081,0.27115142345428467,9.46190071105957,-13.149017333984375,21.05854034423828,-1.0474321842193604,0.18367290496826172,-0.057799339294433594,0.29496726393699646,7.172985076904297,-2.128297805786133
5_20251106_150007,1762412373432,5,0.14861419796943665,0.28707951307296753,0.7482584118843079,0.5793172717094421,1.559122920036316,1.6699472665786743,-1.7117630243301392,-1.1103826761245728,7.3746137619018555,-1.9837958812713623,-0.5530959963798523,-1.03082275390625,0.29375338554382324,10.209392547607422,-13.3194580078125,20.448932647705078,-1.1242799758911133,0.16130304336547852,0.1156015396118164,0.013897299766540527,7.213310718536377,-2.0993974208831787
5_20251106_150007,1762412373452,5,0.15722112357616425,0.29479020833969116,0.7427579164505005,0.5802507400512695,1.559122920036316,1.6699472665786743,-1.7117630243301392,-1.1103826761245728,7.3746137619018555,-1.9837958812713623,-0.6673277616500854,-0.7968615889549255,0.3768309950828552,10.91448974609375,-13.593017578125,19.862773895263672,-1.1242799758911133,0.16130304336547852,0.1156015396118164,0.013897299766540527,7.213310718536377,-2.0993974208831787
5_20251106_150007,1762412373470,5,0.16422462463378906,0.3013665974140167,0.7371340394020081,0.5821012258529663,1.479304552078247,1.6416171789169312,-1.7058817148208618,-1.0912299156188965,7.453619003295898,-1.2691574096679688,-0.6673277616500854,-0.7968615889549255,0.3768309950828552,11.518871307373047,-13.935302734375,19.230823516845703,-0.6685928106307983,0.1863570213317871,0.6184988021850586,-0.42263710498809814,7.267261981964111,-1.8876562118530273
5_20251106_150007,1762412373490,5,0.16946814954280853,0.30724483728408813,0.7302274703979492,0.5862158536911011,1.438673973083496,1.6299867630004883,-1.6992632150650024,-0.6495187282562256,7.863010406494141,-1.0034124851226807,-0.9452711939811707,-0.5311354994773865,0.5472622513771057,12.025875091552734,-14.272201538085938,18.676311492919922,-0.18150529265403748,0.47659873962402344,0.707395076751709,-0.4680134356021881,7.386411666870117,-1.7108075618743896
5_20251106_150007,1762412373509,5,0.17273688316345215,0.31203413009643555,0.7215983271598816,0.5933738350868225,1.4042954444885254,1.6219356060028076,-1.6915972232818604,-0.3215272128582001,8.15509033203125,-0.895677924156189,-1.330115795135498,-0.1914946287870407,0.5735294222831726,12.46339225769043,-14.763885498046875,18.129695892333984,0.117188960313797,0.6149425506591797,0.6521036624908447,-0.43871617317199707,7.54014778137207,-1.5477815866470337
5_20251106_150007,1762412373528,5,0.1752815842628479,0.3156158924102783,0.7119432687759399,0.6023285984992981,1.3693604469299316,1.6167075634002686,-1.6809808015823364,0.006464332342147827,8.615954399108887,-0.7173176407814026,-1.4803886413574219,-0.1505666971206665,0.38538312911987305,12.760913848876953,-15.376785278320312,17.521244049072266,0.35614442825317383,0.8606452941894531,0.6643711924552917,-0.349680095911026,7.755309104919434,-1.3816888332366943
5_20251106_150007,1762412373547,5,0.17863786220550537,0.3179093897342682,0.7018493413925171,0.6119065284729004,1.3693604469299316,1.6167075634002686,-1.6809808015823364,0.006464332342147827,8.615954399108887,-0.7173176407814026,-1.7400062084197998,-0.03816758841276169,0.08422678709030151,13.020257949829102,-16.029067993164062,16.84294891357422,0.35614442825317383,0.8606452941894531,0.6643711924552917,-0.349680095911026,7.755309104919434,-1.3816888332366943
5_20251106_150007,1762412373566,5,0.18360868096351624,0.31772443652153015,0.6912317276000977,0.6225253343582153,1.3372657299041748,1.6161004304885864,-1.6663755178451538,0.010055474936962128,9.189340591430664,0.10505534708499908,-1.8835593461990356,0.030860120430588722,-0.10453041642904282,13.117658615112305,-16.75445556640625,16.15695571899414,0.2877884805202484,1.1472253799438477,1.1893953084945679,-0.2777329981327057,8.042115211486816,-1.08433997631073
5_20251106_150007,1762412373585,5,0.1903304159641266,0.31469088792800903,0.6798750162124634,0.6344398260116577,1.2795045375823975,1.625024676322937,-1.6231913566589355,-1.006239414215088,9.57838249206543,1.5032089948654175,-1.6935803890228271,0.08522708714008331,-0.14240401983261108,13.185245513916016,-17.581619262695312,15.440837860107422,-0.5495587587356567,1.0203676223754883,1.676908016204834,-0.45668068528175354,8.558014869689941,-0.17369896173477173
5_20251106_150007,1762412373605,5,0.19704020023345947,0.3102072775363922,0.6688588261604309,0.6462000012397766,1.248306155204773,1.6336930990219116,-1.597165584564209,-1.5185766220092773,9.574790954589844,0.8603934645652771,-1.4119718074798584,0.024140609428286552,-0.11613684147596359,13.144357681274414,-18.4027099609375,14.65298843383789,-0.849516749382019,0.813420295715332,0.827273964881897,-0.6690598726272583,8.761370658874512,0.03311951458454132
5_20251106_150007,1762412373624,5,0.2029351145029068,0.3059885799884796,0.6594159007072449,0.656017541885376,1.248306155204773,1.6336930990219116,-1.597165584564209,-1.5185766220092773,9.574790954589844,0.8603934645652771,-1.4021979570388794,0.015588504262268543,-0.007402917370200157,13.117462158203125,-19.197341918945312,13.812091827392578,-0.849516749382019,0.813420295715332,0.827273964881897,-0.6690598726272583,8.761370658874512,0.03311951458454132
5_20251106_150007,1762412373642,5,0.20845851302146912,0.3028394877910614,0.6507354974746704,0.6643617749214172,1.1814833879470825,1.65787672996521,-1.5384548902511597,-1.7232719659805298,10.336113929748535,2.1412363052368164,-1.5762944221496582,0.14387010037899017,0.2033454179763794,13.076166152954102,-20.03057861328125,12.983428955078125,-0.6522868871688843,1.1250505447387695,1.5192716121673584,-1.0709850788116455,9.211063385009766,0.6219647526741028
5_20251106_150007,1762412373662,5,0.21289797127246857,0.30002400279045105,0.6409087181091309,0.6737180352210999,1.148442029953003,1.6778367757797241,-1.498603343963623,-0.887731671333313,11.269813537597656,3.4807348251342773,-1.5976746082305908,0.31491219997406006,0.29864031076431274,13.02840805053711,-20.775634765625,12.047996520996094,0.14660274982452393,1.6470003128051758,2.2870161533355713,-1.034334421157837,9.62281322479248,1.193718671798706
5_20251106_150007,1762412373680,5,0.21448209881782532,0.295859694480896,0.6302541494369507,0.685014009475708,1.122543215751648,1.6978559494018555,-1.4611265659332275,-0.6782479286193848,11.399093627929688,3.6052277088165283,-1.2714729309082031,0.3753878176212311,0.14836758375167847,12.870975494384766,-21.52783203125,11.108148574829102,0.2848691940307617,1.4210243225097656,1.9292073249816895,-0.9631171226501465,9.978069305419922,1.6760203838348389
5_20251106_150007,1762412373699,5,0.21583570539951324,0.2916397750377655,0.620311439037323,0.6953955292701721,1.122543215751648,1.6978559494018555,-1.4611265659332275,-0.6782479286193848,11.399093627929688,3.6052277088165283,-0.992307722568512,0.4004332721233368,0.01947513222694397,12.678606033325195,-22.24542236328125,10.23520278930664,0.2848691940307617,1.4210243225097656,1.9292073249816895,-0.9631171226501465,9.978069305419922,1.6760203838348389
5_20251106_150007,1762412373719,5,0.21728506684303284,0.28705814480781555,0.6131126880645752,0.7031910419464111,1.0613352060317993,1.7511917352676392,-1.369325041770935,-1.9926080703735352,10.835284233093262,2.5326714515686035,-1.047896385192871,0.5256604552268982,0.14409154653549194,12.551298141479492,-22.883834838867188,9.37980842590332,-0.7684282064437866,0.48771095275878906,0.4787321090698242,-1.2241798639297485,10.347573280334473,2.0539393424987793
5_20251106_150007,1762412373737,5,0.21807296574115753,0.28217950463294983,0.6068658232688904,0.7103046774864197,1.0613352060317993,1.7511917352676392,-1.369325041770935,-1.9926080703735352,10.835284233093262,2.5326714515686035,-1.243373155593872,0.7357979416847229,0.33895736932754517,11.878429412841797,-22.844482421875,8.286283493041992,-0.7684282064437866,0.48771095275878906,0.4787321090698242,-1.2241798639297485,10.347573280334473,2.0539393424987793
5_20251106_150007,1762412373757,5,0.2168731391429901,0.27669650316238403,0.5994837284088135,0.719044029712677,1.0074846744537354,1.8060554265975952,-1.2803547382354736,-0.2927980124950409,11.70913028717041,3.689021348953247,-1.2000017166137695,0.8451427817344666,0.3224640488624573,11.878429412841797,-22.844482421875,8.286283493041992,0.7937412261962891,0.9604558944702148,1.1629014015197754,-1.0865392684936523,10.748674392700195,2.5261199474334717
5_20251106_150007,1762412373776,5,0.2141466587781906,0.2702440321445465,0.5913116335868835,0.7290129661560059,0.9860621690750122,1.8343769311904907,-1.2358503341674805,-0.29399505257606506,11.231508255004883,3.030643939971924,-0.8957911133766174,0.7199154496192932,0.11721348017454147,11.670568466186523,-23.389205932617188,7.551214218139648,0.6340353488922119,0.38626670837402344,0.40361928939819336,-0.9280304312705994,10.84524154663086,2.6270246505737305
5_20251106_150007,1762412373795,5,0.21184301376342773,0.26364418864250183,0.584786057472229,0.7373191714286804,0.965315580368042,1.8606079816818237,-1.1943751573562622,-1.0720770359039307,10.599465370178223,2.3339614868164062,-0.8957911133766174,0.7199154496192932,0.11721348017454147,11.381139755249023,-23.864822387695312,6.881877899169922,-0.11523723602294922,-0.19662094116210938,-0.2344505786895752,-0.9568397998809814,10.796086311340332,2.5684120655059814
5_20251106_150007,1762412373815,5,0.21116161346435547,0.25827521085739136,0.5796371102333069,0.7434551119804382,0.9443824291229248,1.888268232345581,-1.1523391008377075,-1.0182099342346191,11.26622200012207,2.7529287338256836,-1.1523542404174805,0.553149402141571,0.24488422274589539,11.102079391479492,-24.376907348632812,6.171689987182617,-0.049096107482910156,0.37610816955566406,0.1476132869720459,-0.969113826751709,10.890113830566406,2.6053154468536377
5_20251106_150007,1762412373834,5,0.21076557040214539,0.25382038950920105,0.5730690360069275,0.7501633167266846,0.9270764589309692,1.9182932376861572,-1.1116580963134766,-0.3909560739994049,12.735001564025879,3.6052279472351074,-1.4156370162963867,0.8219298720359802,0.28825563192367554,10.802988052368164,-24.803497314453125,5.543466567993164,0.46252623200416565,1.4759101867675781,0.7999300956726074,-0.8534823060035706,11.2590913772583,2.8052978515625
5_20251106_150007,1762412373852,5,0.2093452662229538,0.24799245595932007,0.564272940158844,0.7591246962547302,0.9144793152809143,1.9514260292053223,-1.0691492557525635,0.3560027480125427,13.740522384643555,5.199697494506836,-1.4156370162963867,0.8219298720359802,0.28825563192367554,10.495023727416992,-25.179977416992188,4.848228454589844,0.9675880670547485,1.9851446151733398,1.9155197143554688,-0.6115853190422058,11.755377769470215,3.284177780151367
5_20251106_150007,1762412373871,5,0.20696252584457397,0.23961664736270905,0.5550947785377502,0.769168496131897,0.9144793152809143,1.9514260292053223,-1.0691492557525635,0.3560027480125427,13.740522384643555,5.199697494506836,-1.3508853912353516,1.1041494607925415,0.18135428428649902,10.213151931762695,-25.517730712890625,4.208827972412109,0.9675880670547485,1.9851446151733398,1.9155197143554688,-0.6115853190422058,11.755377769470215,3.284177780151367
5_20251106_150007,1762412373891,5,0.2033543586730957,0.22895683348178864,0.548405110836029,0.7781244516372681,0.8982630968093872,2.030625581741333,-0.9685864448547363,0.39311128854751587,12.756547927856445,4.690951347351074,-0.5225527882575989,1.3546040058135986,0.1465349942445755,9.920305252075195,-25.831436157226562,3.59649658203125,0.6104460954666138,0.49786853790283203,0.7789063453674316,-0.2173348069190979,12.258679389953613,3.9120450019836426
5_20251106_150007,1762412373910,5,0.19821955263614655,0.21820740401744843,0.5452660918235779,0.7847161889076233,0.8936063647270203,2.0670876502990723,-0.921615719795227,0.3679732084274292,12.228649139404297,4.0277862548828125,-0.5225527882575989,1.3546040058135986,0.1465349942445755,9.689205169677734,-26.116867065429688,3.0682430267333984,0.4682464301586151,-0.02402496337890625,0.09259295463562012,-0.10027321428060532,12.252674102783203,3.9351933002471924
5_20251106_150007,1762412373928,5,0.19122612476348877,0.208763986825943,0.5437628626823425,0.7900456786155701,0.8936063647270203,2.0670876502990723,-0.921615719795227,0.3679732084274292,12.228649139404297,4.0277862548828125,-0.4657423496246338,1.4462337493896484,0.5668099522590637,9.39830207824707,-26.369949340820312,2.673492431640625,0.4682464301586151,-0.02402496337890625,0.09259295463562012,-0.10027321428060532,12.252674102783203,3.9351933002471924
5_20251106_150007,1762412373947,5,0.18174666166305542,0.19986526668071747,0.5420159697532654,0.7957642078399658,0.8873212933540344,2.1316771507263184,-0.8368847966194153,0.20038633048534393,12.213088035583496,4.234875679016113,-0.543933093547821,1.6905796527862549,0.6773764491081238,9.119485855102539,-26.62237548828125,2.2927474975585938,0.19395434856414795,0.00722503662109375,0.2659180164337158,0.006431989371776581,12.205862998962402,3.9689576625823975
5_20251106_150007,1762412373967,5,0.17096315324306488,0.19093193113803864,0.539576530456543,0.8019811511039734,0.8872053623199463,2.16566801071167,-0.7901703715324402,0.8922808170318604,12.774503707885742,5.270322799682617,-0.5579829812049866,1.9911251068115234,0.7189152240753174,8.760017395019531,-26.78125,2.0458450317382812,0.7086790800094604,0.4549121856689453,1.0410919189453125,0.1836017519235611,12.319591522216797,4.229230880737305
5_20251106_150007,1762412373986,5,0.1580478698015213,0.17967410385608673,0.5368905067443848,0.809003472328186,0.8916987180709839,2.198529005050659,-0.7415646314620972,1.8594967126846313,13.115663528442383,6.57869815826416,-0.35456496477127075,2.1114654541015625,0.7818343043327332,8.260480880737305,-27.038238525390625,1.940378189086914,1.340716004371643,0.6368570327758789,1.8795738220214844,0.5187807083129883,12.478806495666504,4.699124336242676
5_20251106_150007,1762412374006,5,0.14349408447742462,0.16702668368816376,0.5347914099693298,0.8157877922058105,0.8916987180709839,2.198529005050659,-0.7415646314620972,1.8594967126846313,13.115663528442383,6.57869815826416,0.07304033637046814,2.1108546257019043,0.8893464803695679,7.790586471557617,-27.170501708984375,2.0818252563476562,1.340716004371643,0.6368570327758789,1.8795738220214844,0.5187807083129883,12.478806495666504,4.699124336242676
5_20251106_150007,1762412374025,5,0.12708477675914764,0.15480059385299683,0.5348069071769714,0.8208945393562317,0.9166930317878723,2.26387882232666,-0.6344411373138428,2.832697868347168,12.427359580993652,6.0352373123168945,0.45910683274269104,2.1004695892333984,1.0457279682159424,7.243965148925781,-27.35882568359375,2.327404022216797,1.5437281131744385,-0.1235189437866211,0.7470903396606445,1.2889697551727295,12.550878524780273,5.28814697265625
5_20251106_150007,1762412374044,5,0.10898976027965546,0.1440320909023285,0.5376661419868469,0.8235843181610107,0.9368268251419067,2.292081356048584,-0.5849375128746033,3.570080280303955,12.186752319335938,5.295461654663086,0.45910683274269104,2.1004695892333984,1.0457279682159424,6.551532745361328,-27.532913208007812,2.702787399291992,1.8248884677886963,-0.29130077362060547,0.00585174560546875,1.7451918125152588,12.478053092956543,5.289609909057617
5_20251106_150007,1762412374062,5,0.0892244502902031,0.13436321914196014,0.5424324870109558,0.8244710564613342,0.9607937932014465,2.3156824111938477,-0.5413779020309448,4.119525909423828,11.754617691040039,4.886070251464844,0.8518928289413452,2.024111747741699,0.9980803728103638,5.692342758178711,-27.6317138671875,3.221832275390625,1.8994674682617188,-0.5787487030029297,-0.3228316307067871,2.2200584411621094,12.333366394042969,5.208901882171631
5_20251106_150007,1762412374081,5,0.06918616592884064,0.1249493733048439,0.5484725832939148,0.8238803148269653,0.9607937932014465,2.3156824111938477,-0.5413779020309448,4.119525909423828,11.754617691040039,4.886070251464844,0.9752874970436096,1.9324820041656494,0.7335759997367859,4.740118026733398,-27.638031005859375,3.9012603759765625,1.8994674682617188,-0.5787487030029297,-0.3228316307067871,2.2200584411621094,12.333366394042969,5.208901882171631
5_20251106_150007,1762412374101,5,0.0510501004755497,0.11527904868125916,0.5556541681289673,0.8217986822128296,0.9939079880714417,2.33740496635437,-0.496652752161026,4.174590110778809,11.010053634643555,4.148688316345215,0.9575724005699158,1.7730462551116943,0.48373234272003174,3.79949951171875,-27.63275146484375,4.75715446472168,1.5636253356933594,-1.0586509704589844,-0.8481707572937012,2.610964775085449,12.068704605102539,4.996859073638916
5_20251106_150007,1762412374120,5,0.03545358031988144,0.10511326789855957,0.56331866979599,0.818759024143219,1.0573393106460571,2.3582990169525146,-0.4338706433773041,3.790337562561035,9.643022537231445,3.441232204437256,0.8494493365287781,1.5580220222473145,0.3365139365196228,2.8279619216918945,-27.529388427734375,5.613689422607422,0.7249202728271484,-1.6487741470336914,-1.0266284942626953,3.0654172897338867,11.291796684265137,4.467860698699951
5_20251106_150007,1762412374139,5,0.02274492383003235,0.09544257819652557,0.5703152418136597,0.8155451416969299,1.0573393106460571,2.3582990169525146,-0.4338706433773041,3.790337562561035,9.643022537231445,3.441232204437256,0.7743130326271057,1.3094000816345215,0.25160372257232666,1.9521141052246094,-27.22076416015625,6.599525451660156,0.7249202728271484,-1.6487741470336914,-1.0266284942626953,3.0654172897338867,11.291796684265137,4.467860698699951
5_20251106_150007,1762412374157,5,0.01217732485383749,0.08700811117887497,0.5764129161834717,0.812421977519989,1.0941071510314941,2.360232353210449,-0.40606582164764404,3.711332321166992,9.479026794433594,3.4795374870300293,0.7462132573127747,1.1218645572662354,0.12759819626808167,1.0984249114990234,-26.9483642578125,7.599067687988281,0.5167319774627686,-1.450216293334961,-0.7906584739685059,3.1946003437042236,10.929243087768555,4.270195960998535
5_20251106_150007,1762412374178,5,0.003605141304433346,0.07970942556858063,0.5820300579071045,0.8092431426048279,1.1542065143585205,2.351893663406372,-0.36724308133125305,3.307926654815674,9.121109008789062,3.345468044281006,0.7339959740638733,1.0351217985153198,0.01642080768942833,0.29770946502685547,-26.597442626953125,8.602155685424805,0.030775785446166992,-1.1874675750732422,-0.6301314830780029,3.277150869369507,10.308576583862305,3.975599527359009
5_20251106_150007,1762412374197,5,0.0033970631193369627,-0.07255394756793976,-0.5875207781791687,-0.805942714214325,1.183229684829712,2.3422560691833496,-0.3517068028450012,3.1211867332458496,8.966690063476562,3.078526020050049,0.7150591015815735,0.9269986152648926,-0.018398480489850044,-0.34913158416748047,-26.110610961914062,9.532670974731445,-0.1247713565826416,-1.0735092163085938,-0.7176589965820312,3.245958089828491,10.040199279785156,3.79618501663208
5_20251106_150007,1762412374216,5,0.009365575388073921,-0.06553881615400314,-0.5928353071212769,-0.8025978207588196,1.2110947370529175,2.3285763263702393,-0.3394038677215576,2.865018367767334,8.710521697998047,2.732578754425049,0.7150591015815735,0.9269986152648926,-0.018398480489850044,-0.34913158416748047,-26.110610961914062,9.532670974731445,-0.3047518730163574,-1.0637426376342773,-0.8508849143981934,3.1697702407836914,9.774264335632324,3.583463668823242
5_20251106_150007,1762412374235,5,0.014670172706246376,-0.059471067041158676,-0.5980228781700134,-0.7991349101066589,1.2350587844848633,2.3132166862487793,-0.33162352442741394,2.738131046295166,8.675806045532227,2.3722667694091797,0.6668007969856262,0.6117923855781555,0.08667024970054626,-0.9958744049072266,-25.623641967773438,10.449668884277344,-0.34531140327453613,-0.8787670135498047,-0.9689574241638184,3.083442449569702,9.554573059082031,3.341224193572998
5_20251106_150007,1762412374255,5,0.019472621381282806,-0.05494119971990585,-0.6030604839324951,-0.7955628633499146,1.257973074913025,2.295316457748413,-0.3264431059360504,2.738131046295166,8.718900680541992,2.4859867095947266,0.598994791507721,0.47495874762535095,0.12759819626808167,-1.4590482711791992,-25.135299682617188,11.171016693115234,-0.2762491703033447,-0.6685380935668945,-0.684190034866333,3.0143802165985107,9.387438774108887,3.1701767444610596
5_20251106_150007,1762412374273,5,0.02403905987739563,-0.051740724593400955,-0.6075942516326904,-0.7921958565711975,1.2766163349151611,2.2784628868103027,-0.3242439031600952,2.629199504852295,8.758403778076172,2.2645325660705566,0.5965513586997986,0.4004332721233368,0.10133100301027298,-1.9063148498535156,-24.583099365234375,11.867141723632812,-0.30814456939697266,-0.5032281875610352,-0.724515438079834,2.9373440742492676,9.261631965637207,2.9890480041503906
5_20251106_150007,1762412374292,5,0.028051599860191345,-0.04934050142765045,-0.6118544340133667,-0.7889314293861389,1.2937860488891602,2.259390354156494,-0.3243744969367981,2.3814103603363037,8.469914436340332,2.1376452445983887,0.5965513586997986,0.4004332721233368,0.10133100301027298,-2.2963857650756836,-24.101593017578125,12.49655532836914,-0.4447469711303711,-0.6333742141723633,-0.6811223030090332,2.826157331466675,9.103288650512695,2.818767547607422
5_20251106_150007,1762412374312,5,0.031429026275873184,-0.04716641455888748,-0.6161015629768372,-0.7856248617172241,1.3082234859466553,2.239093780517578,-0.32711610198020935,2.143197536468506,8.309510231018066,1.864717960357666,0.5275236368179321,0.3124687373638153,0.12148953229188919,-2.605804443359375,-23.713638305664062,12.99212646484375,-0.546367883682251,-0.6350221633911133,-0.763239860534668,2.689565420150757,8.94453239440918,2.627957820892334
5_20251106_150007,1762412374330,5,0.03470054268836975,-0.04529917985200882,-0.6200693249702454,-0.7824690937995911,1.3202102184295654,2.218017101287842,-0.3321529030799866,2.059403896331787,8.29035758972168,1.7414216995239258,0.4676589369773865,0.2752059996128082,0.16058488190174103,-2.9376792907714844,-23.289871215820312,13.514541625976562,-0.50412917137146,-0.5233392715454102,-0.7092287540435791,2.563533067703247,8.81369686126709,2.450650453567505
5_20251106_150007,1762412374349,5,0.03803892433643341,-0.04394369199872017,-0.6236007809638977,-0.7795794010162354,1.3300567865371704,2.196125030517578,-0.3392121493816376,2.0019454956054688,8.132347106933594,1.6217169761657715,0.4200114905834198,0.24771709740161896,0.18196514248847961,-3.2663516998291016,-22.826950073242188,13.889068603515625,-0.44927024841308594,-0.5450801849365234,-0.6631467342376709,2.4512157440185547,8.677427291870117,2.2848637104034424
5_20251106_150007,1762412374368,5,0.041493430733680725,-0.04284614324569702,-0.6267088055610657,-0.7769675254821777,1.338181734085083,2.1735496520996094,-0.34821733832359314,2.003142833709717,8.029399871826172,1.4469475746154785,0.4200114905834198,0.24771709740161896,0.18196514248847961,-3.624527931213379,-22.45379638671875,14.287799835205078,-0.3584582805633545,-0.5184221267700195,-0.6703329086303711,2.3616011142730713,8.547821998596191,2.1172804832458496
5_20251106_150007,1762412374387,5,0.04498717561364174,-0.0421370193362236,-0.6295509338378906,-0.7745103240013123,1.345925211906433,2.152191400527954,-0.3588150143623352,2.3706369400024414,8.580042839050293,1.3727306127548218,0.30944496393203735,0.09683351218700409,0.3267400860786438,-3.82420015335083,-22.081787109375,14.584510803222656,0.0072286128997802734,0.02577686309814453,-0.5956399440765381,2.363408327102661,8.554265975952148,1.9683705568313599
5_20251106_150007,1762412374407,5,0.04865722730755806,-0.04244891181588173,-0.6320102214813232,-0.7722652554512024,1.3545749187469482,2.1328110694885254,-0.3712671101093292,2.661520004272461,9.204902648925781,1.3583660125732422,0.30944496393203735,0.09683351218700409,0.3267400860786438,-4.041400909423828,-21.810623168945312,14.83807373046875,0.23848938941955566,0.5205097198486328,-0.48800361156463623,2.4230306148529053,8.684392929077148,1.8463696241378784
5_20251106_150007,1762412374426,5,0.051957543939352036,-0.04410170391201973,-0.6338179111480713,-0.7704740762710571,1.3634165525436401,2.11799955368042,-0.38371920585632324,2.800377607345581,9.660978317260742,1.4038538932800293,0.20743057131767273,-0.005180897191166878,0.32307493686676025,-4.247937202453613,-21.575531005859375,15.010234832763672,0.3018777370452881,0.7812681198120117,-0.3540126085281372,2.498499870300293,8.87971019744873,1.7578665018081665
5_20251106_150007,1762412374446,5,0.05419657379388809,-0.04586908221244812,-0.634895920753479,-0.769328236579895,1.3723680973052979,2.1056759357452393,-0.3974403738975525,2.534632682800293,9.698087692260742,1.3404102325439453,0.08953367173671722,-0.0375567227602005,0.16425007581710815,-4.454176902770996,-21.340042114257812,15.141849517822266,0.02890634536743164,0.6547021865844727,-0.3339650630950928,2.5057263374328613,9.04338550567627,1.674375295639038
5_20251106_150007,1762412374464,5,0.05476516857743263,-0.046560317277908325,-0.6352579593658447,-0.7689474821090698,1.3723680973052979,2.1056759357452393,-0.3974403738975525,2.534632682800293,9.698087692260742,1.3404102325439453,-0.08700622618198395,-0.08276071399450302,-0.22609247267246246,-4.615901470184326,-21.176712036132812,15.273841857910156,0.02890634536743164,0.6547021865844727,-0.3339650630950928,2.5057263374328613,9.04338550567627,1.674375295639038
5_20251106_150007,1762412374483,5,0.05366948992013931,-0.04617222398519516,-0.6351331472396851,-0.7691512107849121,1.3792157173156738,2.0960216522216797,-0.4109928607940674,2.0570099353790283,9.57838249206543,1.2482374906539917,-0.1505361646413803,-0.11024962365627289,-0.2767942547798157,-4.680150985717773,-21.018646240234375,15.31488037109375,-0.35897326469421387,0.4279975891113281,-0.34091031551361084,2.415983200073242,9.150384902954102,1.5891478061676025
5_20251106_150007,1762412374502,5,0.05150480195879936,-0.045279085636138916,-0.6344926953315735,-0.7698805928230286,1.3849191665649414,2.080874443054199,-0.4362092614173889,1.3256127834320068,9.562820434570312,1.628899097442627,-0.1505361646413803,-0.11024962365627289,-0.2767942547798157,-4.725358009338379,-20.947418212890625,15.409114837646484,-0.7376749515533447,0.28713417053222656,0.060681939125061035,2.0632877349853516,9.275686264038086,1.568217158317566
5_20251106_150007,1762412374521,5,0.04920834302902222,-0.04453149810433388,-0.6336398124694824,-0.7707762718200684,1.3839462995529175,2.0750882625579834,-0.44756072759628296,1.1580257415771484,9.619081497192383,1.7605745792388916,-0.11388427019119263,-0.12613210082054138,-0.1307975947856903,-4.700379848480225,-20.93341064453125,15.423877716064453,-0.7242096662521362,0.2747163772583008,0.15388596057891846,1.8822354078292847,9.344365119934082,1.6066886186599731
5_20251106_150007,1762412374541,5,0.04705651104450226,-0.044567931443452835,-0.6328702569007874,-0.7715404033660889,1.3814141750335693,2.070648431777954,-0.45729202032089233,1.2094990015029907,9.656190872192383,1.8036683797836304,-0.07723239064216614,-0.09864319860935211,-0.03916788101196289,-4.666443824768066,-20.980987548828125,15.397258758544922,-0.5381890535354614,0.24946117401123047,0.1575838327407837,1.7476880550384521,9.406729698181152,1.6460845470428467
5_20251106_150007,1762412374558,5,0.04623221233487129,-0.04450445622205734,-0.6323261857032776,-0.7720398306846619,1.3814141750335693,2.070648431777954,-0.45729202032089233,1.2094990015029907,9.656190872192383,1.8036683797836304,-0.05096520483493805,-0.09131282567977905,0.02252945490181446,-4.591818809509277,-20.950973510742188,15.387214660644531,-0.5381890535354614,0.24946117401123047,0.1575838327407837,1.7476880550384521,9.406729698181152,1.6460845470428467
5_20251106_150007,1762412374578,5,0.0460699237883091,-0.04480009526014328,-0.6319787502288818,-0.7723168730735779,1.3706914186477661,2.0616042613983154,-0.47863489389419556,0.9186159372329712,9.19532585144043,1.1680351495742798,-0.09678006172180176,-0.058936990797519684,0.0487966388463974,-4.460097789764404,-20.991790771484375,15.323970794677734,-0.5604845285415649,-0.18069076538085938,-0.36532533168792725,1.4791004657745361,9.376016616821289,1.533360481262207
5_20251106_150007,1762412374599,5,0.04627363756299019,-0.045290496200323105,-0.6316238045692444,-0.7725664377212524,1.3639390468597412,2.0566353797912598,-0.48899081349372864,1.1245083808898926,9.160612106323242,1.4864503145217896,-0.22628338634967804,-0.018619919195771217,0.028638100251555443,-4.316684722900391,-21.032485961914062,15.328800201416016,-0.28367364406585693,-0.17232322692871094,-0.037528157234191895,1.4081820249557495,9.332935333251953,1.5239784717559814
5_20251106_150007,1762412374617,5,0.046679750084877014,-0.04554716497659683,-0.6305988430976868,-0.7733637690544128,1.35769522190094,2.0521416664123535,-0.4977594316005707,1.4704556465148926,9.415583610534668,1.9137969017028809,-0.2989763021469116,-0.003959166817367077,-0.06238073855638504,-4.21135139465332,-21.1124267578125,15.25027084350586,0.04981887340545654,0.06611919403076172,0.3118547201156616,1.420636773109436,9.349464416503906,1.6019421815872192
5_20251106_150007,1762412374638,5,0.04682918265461922,-0.04528707638382912,-0.6287060976028442,-0.774909496307373,1.351766586303711,2.048933506011963,-0.5044664740562439,1.5243228673934937,9.77230453491211,2.2800941467285156,-0.301419734954834,-0.0680999606847763,-0.15401044487953186,-4.181149959564209,-21.23468017578125,15.154487609863281,0.08294892311096191,0.3382720947265625,0.542521595954895,1.4413739442825317,9.434032440185547,1.7375725507736206
5_20251106_150007,1762412374658,5,0.04599946737289429,-0.04469233751296997,-0.6266017556190491,-0.7766961455345154,1.3453524112701416,2.047673463821411,-0.5085841417312622,1.2920953035354614,10.012910842895508,2.5051393508911133,-0.2843155264854431,-0.12124519050121307,-0.16439515352249146,-4.181149959564209,-21.23468017578125,15.154487609863281,-0.11942291259765625,0.4631023406982422,0.61405348777771,1.4115182161331177,9.549808502197266,1.8910858631134033
5_20251106_150007,1762412374674,5,0.04433223977684975,-0.04440823942422867,-0.6245520710945129,-0.7784582376480103,1.3397471904754639,2.0482447147369385,-0.5104100108146667,1.1053556203842163,10.251124382019043,2.5015482902526855,-0.2843155264854431,-0.12124519050121307,-0.16439515352249146,-4.075717926025391,-21.314483642578125,15.06243896484375,-0.24493014812469482,0.5610532760620117,0.4883699417114258,1.3502857685089111,9.690071105957031,2.0131783485412598
5_20251106_150007,1762412374694,5,0.042874716222286224,-0.04424254968762398,-0.6225938200950623,-0.7801162004470825,1.3324177265167236,2.050687074661255,-0.5103692412376404,1.0000152587890625,10.28344440460205,2.697864294052124,-0.24583104252815247,-0.09253454208374023,-0.06115901470184326,-4.0078582763671875,-21.421249389648438,14.914325714111328,-0.2802164554595947,0.4746980667114258,0.5477488040924072,1.2802317142486572,9.808746337890625,2.150115489959717
5_20251106_150007,1762412374712,5,0.04184707626700401,-0.044272441416978836,-0.6206864714622498,-0.7816885709762573,1.3253459930419922,2.0537703037261963,-0.5089473128318787,0.953330397605896,10.212818145751953,2.713426113128662,-0.15359048545360565,-0.06504563242197037,-0.022063670679926872,-3.9636526107788086,-21.50543212890625,14.860374450683594,-0.2615211009979248,0.3232574462890625,0.45064854621887207,1.2148514986038208,9.88956069946289,2.26277756690979
5_20251106_150007,1762412374731,5,0.041381385177373886,-0.04433336481451988,-0.6191802024841309,-0.7829035520553589,1.3173072338104248,2.057170867919922,-0.5071191787719727,0.8695369362831116,10.002138137817383,2.4093754291534424,-0.04730001837015152,-0.06382390856742859,0.009701295755803585,-3.946948528289795,-21.653457641601562,14.750057220458984,-0.2762516140937805,0.09006214141845703,0.1172783374786377,1.145788550376892,9.912075996398926,2.2920970916748047
5_20251106_150007,1762412374751,5,0.041311778128147125,-0.044383469969034195,-0.6184771060943604,-0.7834599614143372,1.3090438842773438,2.0604286193847656,-0.505589485168457,0.917418897151947,9.921935081481934,2.2166504859924316,-0.04730001837015152,-0.06382390856742859,0.009701295755803585,-3.9181571006774902,-21.800811767578125,14.65374755859375,-0.1826956868171692,0.007887840270996094,-0.06035733222961426,1.1001145839691162,9.914047241210938,2.277007818222046
5_20251106_150007,1762412374769,5,0.04155421257019043,-0.044608768075704575,-0.6182665824890137,-0.7836005091667175,1.301056981086731,2.0639259815216064,-0.5039209127426147,1.0502912998199463,10.060792922973633,2.355508327484131,-0.06318250298500061,-0.055882666260004044,0.05612701177597046,-3.8767709732055664,-21.935226440429688,14.598739624023438,-0.03985857963562012,0.11739730834960938,0.06280040740966797,1.0901498794555664,9.943395614624023,2.292707920074463
5_20251106_150007,1762412374789,5,0.04193609952926636,-0.04504505917429924,-0.6179265975952148,-0.7838233113288879,1.2927888631820679,2.067692995071411,-0.5019740462303162,0.9976211786270142,10.032064437866211,2.38423752784729,-0.04424569383263588,-0.04061104729771614,0.017642537131905556,-3.8583474159240723,-22.046112060546875,14.543277740478516,-0.07402288913726807,0.07093524932861328,0.07322359085083008,1.0716440677642822,9.961129188537598,2.31101393699646
5_20251106_150007,1762412374808,5,0.042244210839271545,-0.04533858224749565,-0.6175295114517212,-0.7841027975082397,1.2847559452056885,2.070610761642456,-0.5002295970916748,0.863551676273346,9.78547191619873,2.306429386138916,-0.01797851175069809,-0.014343866147100925,-0.011068103834986687,-3.7666101455688477,-22.151962280273438,14.463726043701172,-0.16647392511367798,-0.14052581787109375,-0.003667593002319336,1.030025601387024,9.925997734069824,2.3100969791412354
5_20251106_150007,1762412374828,5,0.04238064959645271,-0.04520893096923828,-0.6173729300498962,-0.7842261791229248,1.2764149904251099,2.0721826553344727,-0.49897652864456177,0.7713788747787476,9.488603591918945,2.162783145904541,-0.017367646098136902,0.012534180656075478,-0.0012942692264914513,-3.7714452743530273,-22.239730834960938,14.448360443115234,-0.206917405128479,-0.3499155044555664,-0.11785101890563965,0.9782962799072266,9.838519096374512,2.2806341648101807
5_20251106_150007,1762412374845,5,0.04259370267391205,-0.044831547886133194,-0.6172873973846436,-0.784303605556488,1.2764149904251099,2.0721826553344727,-0.49897652864456177,0.7713788747787476,9.488603591918945,2.162783145904541,-0.03691531717777252,0.04674260690808296,0.020696859806776047,-3.7764782905578613,-22.3277587890625,14.460029602050781,-0.206917405128479,-0.3499155044555664,-0.11785101890563965,0.9782962799072266,9.838519096374512,2.2806341648101807
5_20251106_150007,1762412374867,5,0.04316703975200653,-0.044279906898736954,-0.6171584129333496,-0.7844051122665405,1.2669756412506104,2.071438789367676,-0.4988204538822174,0.6169594526290894,9.076818466186523,1.9197821617126465,-0.11693860590457916,0.11393772810697556,0.050629228353500366,-3.7283530235290527,-22.348617553710938,14.35333251953125,-0.2890694737434387,-0.6093606948852539,-0.2886815071105957,0.9060289263725281,9.686179161071777,2.208463668823242
5_20251106_150007,1762412374885,5,0.04420604556798935,-0.043515101075172424,-0.6166703701019287,-0.7847738265991211,1.256089448928833,2.0671300888061523,-0.5004708170890808,0.4673283100128174,8.621939659118652,1.6695988178253174,-0.24277673661708832,0.1994587779045105,0.07200949639081955,-3.7336955070495605,-22.44866943359375,14.310672760009766,-0.35096049308776855,-0.8513917922973633,-0.4310917854309082,0.8182888031005859,9.473331451416016,2.1006906032562256
5_20251106_150007,1762412374904,5,0.04578801244497299,-0.042414337396621704,-0.6153329014778137,-0.7857925295829773,1.239450454711914,2.055218458175659,-0.5035368800163269,1.37708580493927,9.148641586303711,2.3471288681030273,-0.24277673661708832,0.1994587779045105,0.07200949639081955,-3.798051357269287,-22.515289306640625,14.293384552001953,0.46622639894485474,-0.10973930358886719,0.23107576370239258,0.9108594059944153,9.258380889892578,2.1160531044006348
5_20251106_150007,1762412374922,5,0.047843560576438904,-0.040695078670978546,-0.6131334900856018,-0.7874783873558044,1.2342472076416016,2.0505025386810303,-0.5032942295074463,1.638042688369751,9.645417213439941,2.649982452392578,-0.2940893769264221,0.1585308462381363,-0.07215458154678345,-3.837540626525879,-22.57965087890625,14.209495544433594,0.5817465782165527,0.3096284866333008,0.42714357376098633,1.0562961101531982,9.33578872680664,2.222838878631592
5_20251106_150007,1762412374941,5,0.049115732312202454,-0.038756296038627625,-0.6107345223426819,-0.7893598079681396,1.2342472076416016,2.0505025386810303,-0.5032942295074463,1.638042688369751,9.645417213439941,2.649982452392578,-0.2494962513446808,0.0497969314455986,-0.08864792436361313,-3.8405709266662598,-22.641769409179688,14.140594482421875,0.5817465782165527,0.3096284866333008,0.42714357376098633,1.0562961101531982,9.33578872680664,2.222838878631592
5_20251106_150007,1762412374960,5,0.04889730364084244,-0.037755630910396576,-0.6086929440498352,-0.7909971475601196,1.230189323425293,2.047452926635742,-0.5015695691108704,1.566219687461853,9.98537826538086,2.6571645736694336,-0.27209824323654175,0.02536233887076378,-0.06848939508199692,-3.8819642066955566,-22.731918334960938,14.123760223388672,0.4079388380050659,0.5196714401245117,0.3474607467651367,1.158280849456787,9.465706825256348,2.309703826904297
5_20251106_150007,1762412374979,5,0.048659797757864,-0.0371335931122303,-0.6068015694618225,-0.7924930453300476,1.2277944087982178,2.047163963317871,-0.4990583658218384,1.5566432476043701,10.315763473510742,2.684696912765503,-0.278817743062973,0.04368828237056732,-0.09658917039632797,-3.8148093223571777,-22.851242065429688,13.975383758544922,0.3186899423599243,0.6800451278686523,0.29999446868896484,1.2379533052444458,9.63571834564209,2.384702444076538
5_20251106_150007,1762412374999,5,0.048448577523231506,-0.03647681325674057,-0.6046867966651917,-0.7941511869430542,1.2256247997283936,2.051901340484619,-0.49273398518562317,1.495593786239624,10.340902328491211,2.6320266723632812,-0.2226182073354721,0.032692715525627136,-0.17172552645206451,-3.795990467071533,-22.961593627929688,13.865859985351562,0.15416431427001953,0.43388938903808594,0.14928579330444336,1.3414294719696045,9.907012939453125,2.482740879058838
5_20251106_150007,1762412375018,5,0.04785832762718201,-0.035432714968919754,-0.6028382182121277,-0.7956382036209106,1.2246242761611938,2.0554327964782715,-0.4894188344478607,1.274139642715454,10.100296020507812,2.478804349899292,-0.1768033504486084,0.0021494803950190544,-0.23220112919807434,-3.7960968017578125,-23.186279296875,13.807533264160156,-0.05383181571960449,0.15462684631347656,-0.003149271011352539,1.3279714584350586,9.945669174194336,2.4819536209106445
5_20251106_150007,1762412375038,5,0.046446122229099274,-0.03417738899588585,-0.6014729738235474,-0.796809196472168,1.2228195667266846,2.0592458248138428,-0.4859926104545593,1.102961540222168,9.976999282836914,2.465636730194092,-0.16825124621391296,-0.0632130429148674,-0.22181643545627594,-3.7286324501037598,-23.2935791015625,13.713485717773438,-0.1800079345703125,0.025064468383789062,-0.013053417205810547,1.2829694747924805,9.951934814453125,2.4786901473999023
5_20251106_150007,1762412375056,5,0.04469451680779457,-0.032984763383865356,-0.6003581881523132,-0.7977997660636902,1.2228195667266846,2.0592458248138428,-0.4859926104545593,1.102961540222168,9.976999282836914,2.465636730194092,-0.16825124621391296,-0.0632130429148674,-0.22181643545627594,-3.649081230163574,-23.400222778320312,13.633445739746094,-0.1800079345703125,0.025064468383789062,-0.013053417205810547,1.2829694747924805,9.951934814453125,2.4786901473999023
5_20251106_150007,1762412375077,5,0.04277251660823822,-0.032634809613227844,-0.5993227958679199,-0.7986974716186523,1.2199918031692505,2.0626845359802246,-0.4825466275215149,0.889886736869812,9.948270797729492,2.5925240516662598,-0.13221022486686707,-0.16950350999832153,-0.07826322317123413,-3.649081230163574,-23.400222778320312,13.633445739746094,-0.3144662380218506,-0.0029315948486328125,0.09106707572937012,1.2043529748916626,9.951202392578125,2.5014569759368896
5_20251106_150007,1762412375095,5,0.041161563247442245,-0.033103249967098236,-0.5984333753585815,-0.7994294166564941,1.2116317749023438,2.0686116218566895,-0.4744425117969513,0.6588562726974487,9.88362979888916,2.904953956604004,-0.10777562856674194,-0.14690151810646057,-0.050163447856903076,-3.5467782020568848,-23.542282104492188,13.486011505126953,-0.3640570640563965,-0.05837726593017578,0.28141283988952637,1.0229133367538452,9.942007064819336,2.6235411167144775
5_20251106_150007,1762412375115,5,0.04005002602934837,-0.03375266492366791,-0.5976498126983643,-0.8000446557998657,1.2055683135986328,2.0706074237823486,-0.46880903840065,0.6002008318901062,9.658584594726562,2.9923386573791504,-0.06134990602731705,-0.12185605615377426,-0.044054798781871796,-3.4688472747802734,-23.685928344726562,13.337596893310547,-0.33817005157470703,-0.22673797607421875,0.29503822326660156,0.9383708834648132,9.885322570800781,2.697300434112549
5_20251106_150007,1762412375133,5,0.03911447152495384,-0.034283239394426346,-0.5970939993858337,-0.8004832863807678,1.1996454000473022,2.0710532665252686,-0.46386438608169556,0.47091948986053467,9.354534149169922,2.8774218559265137,-0.025308888405561447,-0.08703676611185074,-0.04466566443443298,-3.3387465476989746,-23.763748168945312,13.205982208251953,-0.37396109104156494,-0.42463016510009766,0.14409708976745605,0.8448805809020996,9.77916431427002,2.7333247661590576
5_20251106_150007,1762412375152,5,0.03836626559495926,-0.03455560654401779,-0.5968638062477112,-0.8006793856620789,1.1914594173431396,2.0691144466400146,-0.45863503217697144,0.3296676576137543,8.977462768554688,2.635617733001709,-0.04363483190536499,-0.061991315335035324,-0.014122428372502327,-3.2845687866210938,-23.88494873046875,13.165245056152344,-0.41217032074928284,-0.6413612365722656,-0.07816553115844727,0.7418379783630371,9.618824005126953,2.7137832641601562
5_20251106_150007,1762412375172,5,0.03784436732530594,-0.03464575111865997,-0.5966832041740417,-0.8008349537849426,1.1823642253875732,2.0642893314361572,-0.4545598030090332,0.3081207871437073,8.637500762939453,2.4201488494873047,-0.11205168068408966,-0.06748909503221512,0.06162479519844055,-3.1528472900390625,-23.925765991210938,13.102001190185547,-0.3469737768173218,-0.7850589752197266,-0.2349076271057129,0.655094563961029,9.42255973815918,2.6550564765930176
5_20251106_150007,1762412375190,5,0.03780004382133484,-0.03492343798279762,-0.5961506366729736,-0.8012215495109558,1.1743229627609253,2.0582189559936523,-0.45136210322380066,0.5475306510925293,8.632713317871094,2.538656711578369,-0.11205168068408966,-0.06748909503221512,0.06162479519844055,-3.057894706726074,-23.980850219726562,12.969440460205078,-0.08605116605758667,-0.6318769454956055,-0.09311962127685547,0.633581817150116,9.2645902633667,2.6317763328552246
5_20251106_150007,1762412375209,5,0.038219839334487915,-0.03608783334493637,-0.5950049757957458,-0.8020012378692627,1.1672680377960205,2.0517477989196777,-0.44765233993530273,1.0012123584747314,9.124700546264648,2.8151750564575195,-0.26049181818962097,-0.2067662477493286,0.31391194462776184,-3.0004029273986816,-24.0511474609375,12.862178802490234,0.2941044569015503,-0.11191177368164062,0.14671897888183594,0.7071079015731812,9.236612319946289,2.6684560775756836
5_20251106_150007,1762412375228,5,0.03924889490008354,-0.038772713392972946,-0.5932024121284485,-0.8031607270240784,1.1626174449920654,2.0468828678131104,-0.4427763819694519,1.4548940658569336,9.704072952270508,3.1611225605010986,-0.2604917883872986,-0.20493365824222565,0.30291637778282166,-2.930330276489258,-24.120101928710938,12.701343536376953,0.598228931427002,0.37396812438964844,0.3941330909729004,0.8566651344299316,9.33010482788086,2.7669894695281982
5_20251106_150007,1762412375248,5,0.04057411104440689,-0.04219285398721695,-0.5911332368850708,-0.8044470548629761,1.1602039337158203,2.0439226627349854,-0.43703341484069824,1.5925546884536743,9.956649780273438,3.0521910190582275,-0.21467696130275726,-0.1401819884777069,0.17402391135692596,-2.901736259460449,-24.267730712890625,12.632064819335938,0.5887116193771362,0.5012359619140625,0.22816133499145508,1.003843069076538,9.455413818359375,2.8240296840667725
5_20251106_150007,1762412375266,5,0.041505489498376846,-0.044942211359739304,-0.5892704129219055,-0.8056164383888245,1.1595605611801147,2.0427348613739014,-0.43195340037345886,1.580584168434143,10.000940322875977,2.8929834365844727,-0.2177312821149826,-0.10353010892868042,0.04818577319383621,-2.893594741821289,-24.353622436523438,12.50905990600586,0.461392879486084,0.43642139434814453,0.05516314506530762,1.119191288948059,9.564518928527832,2.837820291519165
5_20251106_150007,1762412375286,5,0.041593100875616074,-0.04654740169644356,-0.5877062082290649,-0.8066627383232117,1.1604260206222534,2.0430808067321777,-0.42571747303009033,1.6272691488265991,10.090719223022461,3.125211000442505,-0.27637428045272827,-0.1047518402338028,-0.006181186996400356,-2.9614877700805664,-24.494644165039062,12.395572662353516,0.40646231174468994,0.4209604263305664,0.22991251945495605,1.2208068370819092,9.669758796691895,2.895298480987549
5_20251106_150007,1762412375306,5,0.041118595749139786,-0.047519512474536896,-0.5858715772628784,-0.8079639077186584,1.1618603467941284,2.0443806648254395,-0.41938042640686035,1.5027759075164795,10.07755184173584,3.3035712242126465,-0.23605722188949585,-0.13773852586746216,-0.037946149706840515,-3.0273780822753906,-24.6097412109375,12.201519012451172,0.22557520866394043,0.3262348175048828,0.3266181945800781,1.277200698852539,9.751317024230957,2.9769530296325684
5_20251106_150007,1762412375324,5,0.04031645879149437,-0.04838574305176735,-0.5839035511016846,-0.8093762993812561,1.1633940935134888,2.0463733673095703,-0.4119713306427002,1.283716082572937,9.955452919006348,3.2137928009033203,-0.15542307496070862,-0.1499558389186859,-0.04466566443443298,-3.0700955390930176,-24.736480712890625,12.075763702392578,0.005212306976318359,0.16330909729003906,0.18947172164916992,1.2785037755966187,9.792143821716309,3.0243210792541504
5_20251106_150007,1762412375343,5,0.03920632228255272,-0.049313247203826904,-0.5825411081314087,-0.8103560209274292,1.164257287979126,2.048058271408081,-0.40510305762290955,1.0885969400405884,9.750757217407227,3.09049654006958,-0.12426897883415222,-0.12918642163276672,-0.014122428372502327,-3.0885396003723145,-24.861770629882812,11.96450424194336,-0.1519254446029663,-0.03310871124267578,0.05294036865234375,1.2405223846435547,9.783865928649902,3.0375561714172363
5_20251106_150007,1762412375361,5,0.038194674998521805,-0.05022839084267616,-0.581596314907074,-0.8110265135765076,1.1647189855575562,2.0495667457580566,-0.3985554575920105,1.1125379800796509,9.780683517456055,3.186260461807251,-0.1199929267168045,-0.11208222061395645,0.01947513222694397,-3.1175622940063477,-24.96246337890625,11.826248168945312,-0.10238754749298096,-0.0025453567504882812,0.11896347999572754,1.2149255275726318,9.783228874206543,3.0672969818115234
5_20251106_150007,1762412375380,5,0.037585582584142685,-0.05111246183514595,-0.5807369947433472,-0.8116152882575989,1.1649372577667236,2.0509772300720215,-0.39128559827804565,1.1257054805755615,9.74596881866455,3.3239212036132812,-0.08883881568908691,-0.11208221316337585,0.023751184344291687,-3.137119770050049,-25.112457275390625,11.673912048339844,-0.07137608528137207,-0.02980804443359375,0.20529937744140625,1.1970815658569336,9.775776863098145,3.118621826171875
5_20251106_150007,1762412375400,5,0.037122201174497604,-0.052108850330114365,-0.5799719095230103,-0.8121201992034912,1.1647965908050537,2.0518712997436523,-0.38330063223838806,1.0790205001831055,9.605914115905762,3.3538475036621094,-0.08883881568908691,-0.11208221316337585,0.023751184344291687,-3.129683017730713,-25.210906982421875,11.550643920898438,-0.09444880485534668,-0.13589000701904297,0.18818044662475586,1.1734693050384521,9.741804122924805,3.1656670570373535
5_20251106_150007,1762412375418,5,0.03681141138076782,-0.05273839086294174,-0.5794689655303955,-0.8124526143074036,1.1646206378936768,2.052212715148926,-0.3758479952812195,1.1508435010910034,9.570002555847168,3.419685125350952,-0.06073904037475586,-0.042443644255399704,-0.04588739573955536,-3.1463088989257812,-25.298919677734375,11.480724334716797,-0.018100619316101074,-0.13744068145751953,0.20321440696716309,1.1689441204071045,9.707443237304688,3.216470718383789
5_20251106_150007,1762412375438,5,0.036432232707738876,-0.052779264748096466,-0.5789859294891357,-0.8128113746643066,1.1637612581253052,2.0516350269317627,-0.36789849400520325,0.9473450779914856,9.398824691772461,3.2437188625335693,-0.007593811489641666,-0.0943671464920044,-0.05443950742483139,-3.0367465019226074,-25.303512573242188,11.403778076171875,-0.1772792935371399,-0.24689483642578125,0.021798372268676758,1.1246243715286255,9.645719528198242,3.2219204902648926
5_20251106_150007,1762412375457,5,0.03571099042892456,-0.052868712693452835,-0.5787428021430969,-0.8130106925964355,1.161737322807312,2.050009250640869,-0.3614163398742676,0.669629693031311,9.243207931518555,2.9695944786071777,-0.00637208204716444,-0.08948022127151489,-0.024507125839591026,-2.916407585144043,-25.332427978515625,11.326793670654297,-0.3639957904815674,-0.3220090866088867,-0.20186066627502441,1.0336254835128784,9.565217018127441,3.171455144882202
5_20251106_150007,1762412375477,5,0.034995194524526596,-0.053244829177856445,-0.5788436532020569,-0.8129454851150513,1.1587196588516235,2.047666549682617,-0.35551145672798157,0.7067382335662842,9.32939624786377,2.981564998626709,-0.06134990602731705,-0.05405006930232048,0.010923025198280811,-2.8698043823242188,-25.390151977539062,11.138208389282227,-0.26150983572006226,-0.18865680694580078,-0.15191221237182617,0.9682480692863464,9.51805305480957,3.133477210998535
5_20251106_150007,1762412375497,5,0.034596990793943405,-0.0535847507417202,-0.5786424279212952,-0.8130834102630615,1.1552616357803345,2.0455806255340576,-0.35027992725372314,0.7737729549407959,9.564018249511719,3.009097099304199,-0.09555833041667938,-0.052217476069927216,0.03535761684179306,-2.8698043823242188,-25.390151977539062,11.138208389282227,-0.15558010339736938,0.036772727966308594,-0.09950399398803711,0.9293530583381653,9.52724552154541,3.1086010932922363
5_20251106_150007,1762412375516,5,0.03450345620512962,-0.05393329635262489,-0.5780718326568604,-0.8134701251983643,1.1520309448242188,2.0442769527435303,-0.3455774188041687,0.8180637955665588,9.722028732299805,3.20182204246521,-0.11449514329433441,-0.032058943063020706,0.034135885536670685,-2.785813331604004,-25.409576416015625,11.12759780883789,-0.0890313982963562,0.15582656860351562,0.07457661628723145,0.907095193862915,9.566202163696289,3.1272454261779785
5_20251106_150007,1762412375535,5,0.03451063111424446,-0.05438195541501045,-0.5773345232009888,-0.8139634132385254,1.1489179134368896,2.0436692237854004,-0.33959364891052246,1.0048035383224487,9.818988800048828,3.4627790451049805,-0.12671242654323578,0.029638392850756645,0.015199078246951103,-2.705656051635742,-25.503799438476562,11.061338424682617,0.078166663646698,0.20222949981689453,0.26842689514160156,0.9266368746757507,9.616759300231934,3.194352149963379
5_20251106_150007,1762412375554,5,0.03458600118756294,-0.05444113165140152,-0.5764188766479492,-0.8146049380302429,1.147045373916626,2.043977737426758,-0.33284926414489746,1.2681543827056885,9.929118156433105,3.6842331886291504,-0.08700622618198395,0.04185568913817406,-0.0006834045052528381,-2.6344566345214844,-25.53643798828125,11.036457061767578,0.2732139825820923,0.24988746643066406,0.3919048309326172,0.9949404001235962,9.679230690002441,3.292328357696533
5_20251106_150007,1762412375573,5,0.03485455363988876,-0.05401437357068062,-0.5755400657653809,-0.8152430653572083,1.146262764930725,2.0449209213256836,-0.32562270760536194,1.3615241050720215,9.949466705322266,3.7620413303375244,0.0009582946076989174,0.0033712098374962807,-0.019009346142411232,-2.6099853515625,-25.534713745117188,11.023921966552734,0.29326701164245605,0.2161884307861328,0.37577033042907715,1.0682570934295654,9.733278274536133,3.3862709999084473
5_20251106_150007,1762412375592,5,0.034881144762039185,-0.053735822439193726,-0.5751804709434509,-0.8155140280723572,1.1462372541427612,2.046369791030884,-0.3174964189529419,1.331597924232483,9.88243293762207,3.5501632690429688,0.05593612417578697,0.011312451213598251,-0.03244837373495102,-2.587430953979492,-25.570388793945312,10.983562469482422,0.21067273616790771,0.11932373046875,0.13111400604248047,1.1209251880645752,9.76310920715332,3.4190492630004883
