session_id,timestamp,label,quaternion_w,quaternion_x,quaternion_y,quaternion_z,position_x,position_y,position_z,accelerometer_x,accelerometer_y,accelerometer_z,gyroscope_x,gyroscope_y,gyroscope_z,magnetometer_x,magnetometer_y,magnetometer_z,linear_acceleration_x,linear_acceleration_y,linear_acceleration_z,gravity_x,gravity_y,gravity_z
2_20251106_213426,1762436029779,2,0.012917440384626389,0.15866217017173767,0.7755697965621948,0.6108608245849609,0.6585991382598877,3.100954532623291,0.8576641082763672,2.200655698776245,9.985379219055176,-2.7223751544952393,-0.02763780951499939,0.14814232289791107,-0.00105374027043581,3.4695277214050293,-19.423091888427734,37.534217834472656,-0.03457784652709961,1.0383977890014648,-0.27176523208618164,2.2352335453033447,8.946981430053711,-2.4506099224090576
2_20251106_213426,1762436029796,2,0.011789318174123764,0.15779808163642883,0.7753934860229492,0.6113311052322388,0.6676703691482544,3.1070199012756348,0.8398348093032837,2.236567258834839,10.089522361755371,-2.739133834838867,-0.02763780951499939,0.14814232289791107,-0.00105374027043581,3.4695277214050293,-19.423091888427734,37.534217834472656,0.0010669231414794922,0.9140329360961914,-0.2308192253112793,2.2355003356933594,9.17548942565918,-2.508314609527588
2_20251106_213426,1762436029816,2,0.011347634717822075,0.15780788660049438,0.7755013108253479,0.6112000942230225,0.6777028441429138,3.117243528366089,0.8190498352050781,2.200655937194824,10.308582305908203,-2.79060697555542,0.05727238953113556,-0.019845468923449516,0.03254381939768791,3.343846321105957,-19.494220733642578,37.56854248046875,-0.027875423431396484,0.9064741134643555,-0.22583389282226562,2.2285313606262207,9.402108192443848,-2.5647730827331543
2_20251106_213426,1762436029834,2,0.011137996800243855,0.1582145243883133,0.7757800221443176,0.6107449531555176,0.6859732270240784,3.128190279006958,0.8005486726760864,2.1036949157714844,10.297808647155762,-2.8612327575683594,0.05360719561576843,0.007643444929271936,0.02704603783786297,3.2700252532958984,-19.511539459228516,37.565338134765625,-0.0998692512512207,0.7165603637695312,-0.2371675968170166,2.203564167022705,9.58124828338623,-2.6240651607513428
2_20251106_213426,1762436029855,2,0.010747003369033337,0.15836670994758606,0.7760568857192993,0.6103607416152954,0.6940755844116211,3.141421318054199,0.780717134475708,1.997157335281372,10.13261604309082,-2.723572254180908,0.00046196766197681427,0.025358520448207855,0.06125446408987045,3.2484726905822754,-19.462902069091797,37.56541442871094,-0.16512537002563477,0.44109439849853516,-0.0796055793762207,2.162282705307007,9.691521644592285,-2.6439666748046875
2_20251106_213426,1762436029873,2,0.010142188519239426,0.15867000818252563,0.7759839296340942,0.6103850603103638,0.7012764811515808,3.154628276824951,0.7635860443115234,2.1216506958007812,10.152966499328613,-2.364457368850708,-0.04413115978240967,0.02352592721581459,0.13272562623023987,3.1878390312194824,-19.46646499633789,37.52241516113281,-0.03250551223754883,0.3691558837890625,0.22360730171203613,2.15415620803833,9.78381061553955,-2.588064670562744
2_20251106_213426,1762436029892,2,0.00919822696596384,0.1594618856906891,0.7755393981933594,0.6107584834098816,0.7088328003883362,3.168266534805298,0.7484964728355408,2.4149277210235596,10.181694984436035,-2.1561708450317383,0.0016836989670991898,-0.01556941494345665,0.1718209683895111,3.119050979614258,-19.395755767822266,37.507537841796875,0.2086172103881836,0.31830692291259766,0.34551501274108887,2.206310510635376,9.863388061523438,-2.501685857772827
2_20251106_213426,1762436029911,2,0.008287855423986912,0.16085001826286316,0.7752270102500916,0.6108041405677795,0.7088328003883362,3.168266534805298,0.7484964728355408,2.4149277210235596,10.181694984436035,-2.1561708450317383,0.08659389615058899,-0.08887317776679993,0.14555378258228302,3.0221686363220215,-19.389690399169922,37.51739501953125,0.2086172103881836,0.31830692291259766,0.34551501274108887,2.206310510635376,9.863388061523438,-2.501685857772827
2_20251106_213426,1762436029931,2,0.00783637072890997,0.16243457794189453,0.775414228439331,0.6101527214050293,0.7256178855895996,3.196599245071411,0.7231299877166748,2.407745361328125,10.13022232055664,-2.016116142272949,0.12324577569961548,-0.13896410167217255,0.08385645598173141,3.0106873512268066,-19.377925872802734,37.517173767089844,0.10440278053283691,0.16292190551757812,0.3270444869995117,2.303342580795288,9.967300415039062,-2.343160629272461
2_20251106_213426,1762436029949,2,0.008063651621341705,0.16391144692897797,0.775882363319397,0.6091589331626892,0.7326033711433411,3.2090516090393066,0.7139719724655151,2.1611530780792236,10.004531860351562,-1.8796526193618774,0.15134555101394653,-0.1163620874285698,0.04292851686477661,2.990037441253662,-19.316455841064453,37.490478515625,-0.11375164985656738,0.02978515625,0.37080633640289307,2.274904727935791,9.974746704101562,-2.2504589557647705
2_20251106_213426,1762436029970,2,0.008366446010768414,0.16495530307292938,0.7765604853630066,0.6080078482627869,0.7390233874320984,3.222158908843994,0.7051704525947571,1.9612458944320679,9.962635040283203,-1.9658401012420654,0.1794453263282776,-0.04122573137283325,0.02704603783786297,2.934844970703125,-19.219837188720703,37.47662353515625,-0.2509270906448364,-0.0096893310546875,0.22769522666931152,2.2121729850769043,9.97232437133789,-2.193535327911377
2_20251106_213426,1762436029989,2,0.008131812326610088,0.1653183400630951,0.7774399518966675,0.6067873239517212,0.7436889410018921,3.23350191116333,0.6975102424621582,1.8008413314819336,9.795047760009766,-2.0903329849243164,0.20754510164260864,0.018028143793344498,0.025213442742824554,2.9238710403442383,-19.195789337158203,37.503692626953125,-0.32906532287597656,-0.14182090759277344,0.08256196975708008,2.12990665435791,9.936868667602539,-2.1728949546813965
2_20251106_213426,1762436030007,2,0.007408445701003075,0.1652306765317917,0.7785182595252991,0.6054364442825317,0.747018039226532,3.243652105331421,0.6894873976707458,1.7278213500976562,9.708860397338867,-2.44465970993042,0.2515273690223694,0.03574322164058685,0.07530435174703598,2.866267681121826,-19.137248992919922,37.52959442138672,-0.3216681480407715,-0.18240642547607422,-0.21741175651550293,2.0494894981384277,9.891266822814941,-2.227247953414917
2_20251106_213426,1762436030026,2,0.006245189346373081,0.16542765498161316,0.779787003993988,0.6037606596946716,0.747018039226532,3.243652105331421,0.6894873976707458,1.7278213500976562,9.708860397338867,-2.44465970993042,0.3022291660308838,-0.0387822724878788,0.1516624391078949,2.8219504356384277,-19.064815521240234,37.50218200683594,-0.3216681480407715,-0.18240642547607422,-0.21741175651550293,2.0494894981384277,9.891266822814941,-2.227247953414917
2_20251106_213426,1762436030046,2,0.0051172878593206406,0.1666012555360794,0.7812696695327759,0.6015276908874512,0.7516101598739624,3.260439157485962,0.6699827313423157,1.9792016744613647,9.5975341796875,-2.947420358657837,0.33949190378189087,-0.13774235546588898,0.21763581037521362,2.8007073402404785,-19.004154205322266,37.55658721923828,-0.014339685440063477,-0.1935434341430664,-0.48810720443725586,1.9935413599014282,9.791077613830566,-2.459313154220581
2_20251106_213426,1762436030064,2,0.004311800003051758,0.16888731718063354,0.7828767895698547,0.598800778388977,0.7516101598739624,3.260439157485962,0.6699827313423157,1.9792016744613647,9.5975341796875,-2.947420358657837,0.3376592993736267,-0.1725616604089737,0.24329212307929993,2.808474063873291,-18.854412078857422,37.65436553955078,-0.014339685440063477,-0.1935434341430664,-0.48810720443725586,1.9935413599014282,9.791077613830566,-2.459313154220581
2_20251106_213426,1762436030084,2,0.0035918185021728277,0.17158499360084534,0.7844259738922119,0.5960046648979187,0.7580687999725342,3.2747201919555664,0.6451113820075989,2.406548261642456,9.823777198791504,-3.1628894805908203,0.29856395721435547,-0.1462944597005844,0.21519236266613007,2.7925734519958496,-18.69369888305664,37.751434326171875,0.295926570892334,0.04716682434082031,-0.4619719982147217,2.110621690750122,9.776610374450684,-2.7009174823760986
2_20251106_213426,1762436030103,2,0.0029028442222625017,0.1739952266216278,0.7857764959335327,0.5935255289077759,0.7622443437576294,3.2813165187835693,0.6327738165855408,2.4915390014648438,9.948270797729492,-3.0946574211120605,0.2613012194633484,-0.07909933477640152,0.14860810339450836,2.7868432998657227,-18.56972885131836,37.834678649902344,0.3047337532043457,0.1373281478881836,-0.31499195098876953,2.186805248260498,9.810942649841309,-2.779665470123291
2_20251106_213426,1762436030122,2,0.0021613233257085085,0.1755886822938919,0.786997377872467,0.5914381146430969,0.7675527334213257,3.288431167602539,0.6188187003135681,2.4831595420837402,9.860885620117188,-3.0862784385681152,0.2350340038537979,-0.0045738485641777515,0.08080213516950607,2.803061008453369,-18.49386215209961,37.86378479003906,0.23708343505859375,0.039954185485839844,-0.24529027938842773,2.2460761070251465,9.820931434631348,-2.8409881591796875
2_20251106_213426,1762436030140,2,0.0012689913855865598,0.17623567581176758,0.7881596684455872,0.5896979570388794,0.772498369216919,3.2943854331970215,0.6060266494750977,2.4113364219665527,9.768712997436523,-3.1904213428497314,0.2350340038537979,-0.0045738485641777515,0.08080213516950607,2.8102216720581055,-18.35654067993164,37.947784423828125,0.13220834732055664,-0.041774749755859375,-0.27954649925231934,2.279128074645996,9.810487747192383,-2.910874843597412
2_20251106_213426,1762436030161,2,0.0006076449062675238,0.17682476341724396,0.7894136309623718,0.5878424644470215,0.7777153849601746,3.3001925945281982,0.5923828482627869,2.3730311393737793,9.750757217407227,-3.2083773612976074,0.2973422408103943,-0.1621769517660141,0.09363029152154922,2.8165783882141113,-18.231914520263672,38.0450439453125,0.07512235641479492,-0.047783851623535156,-0.23800206184387207,2.2979087829589844,9.798541069030762,-2.9703752994537354
2_20251106_213426,1762436030181,2,0.0007508686394430697,0.17845593392848969,0.7908969521522522,0.5853502750396729,0.7777153849601746,3.3001925945281982,0.5923828482627869,2.3730311393737793,9.750757217407227,-3.2083773612976074,0.3700351119041443,-0.31367141008377075,0.1363908052444458,2.9086456298828125,-18.08957290649414,38.18653869628906,0.07512235641479492,-0.047783851623535156,-0.23800206184387207,2.2979087829589844,9.798541069030762,-2.9703752994537354
2_20251106_213426,1762436030200,2,0.001649381360039115,0.18119767308235168,0.79270339012146,0.5820533037185669,0.7882899045944214,3.3108482360839844,0.5643965601921082,2.3514840602874756,9.609504699707031,-2.8911590576171875,0.39752405881881714,-0.3264995813369751,0.1565493494272232,3.0036182403564453,-17.90848159790039,38.220703125,0.043289899826049805,-0.1384124755859375,0.08364129066467285,2.308194160461426,9.747917175292969,-2.9748003482818604
2_20251106_213426,1762436030218,2,0.0024497685953974724,0.18419837951660156,0.7942599058151245,0.5789785385131836,0.7934545278549194,3.314300060272217,0.5527125000953674,2.6363818645477295,9.490997314453125,-3.1724658012390137,0.4268455505371094,-0.26907825469970703,0.17365355789661407,3.0952773094177246,-17.77829360961914,38.321388244628906,0.26255011558532715,-0.205535888671875,-0.15813231468200684,2.3738317489624023,9.696533203125,-3.014333486557007
2_20251106_213426,1762436030236,2,0.0025659198872745037,0.1869642585515976,0.7957069873809814,0.576097309589386,0.7998533844947815,3.317105770111084,0.5406720638275146,2.9799351692199707,9.504165649414062,-3.3963141441345215,0.4463931918144226,-0.3118388056755066,0.18098393082618713,3.0952773094177246,-17.77829360961914,38.321388244628906,0.48488283157348633,-0.15389347076416016,-0.3055844306945801,2.4950523376464844,9.658059120178223,-3.0907297134399414
2_20251106_213426,1762436030255,2,0.0027939649298787117,0.19064632058143616,0.7972780466079712,0.5727075338363647,0.8086249828338623,3.3195035457611084,0.5274149179458618,3.353414535522461,9.506559371948242,-3.5220041275024414,0.4463931918144226,-0.3118388056755066,0.18098393082618713,3.1663851737976074,-17.586505889892578,38.381866455078125,0.6866898536682129,-0.1211996078491211,-0.3450195789337158,2.666724681854248,9.627758979797363,-3.1769845485687256
2_20251106_213426,1762436030274,2,0.003897895570844412,0.19418296217918396,0.7994267344474792,0.5685021281242371,0.8200111985206604,3.321235418319702,0.513315737247467,3.779564142227173,9.428750991821289,-3.7255024909973145,0.5111448764801025,-0.4749397039413452,0.12295179814100266,3.299734115600586,-17.365764617919922,38.458839416503906,0.8902716636657715,-0.15920639038085938,-0.4388144016265869,2.8892924785614014,9.587957382202148,-3.2866880893707275
2_20251106_213426,1762436030294,2,0.005778526421636343,0.1979748159646988,0.80182284116745,0.5637843012809753,0.8350536227226257,3.3225343227386475,0.49683815240859985,4.091993808746338,9.445509910583496,-4.069056034088135,0.5001493096351624,-0.5195327997207642,0.04781544208526611,3.4344067573547363,-17.10843276977539,38.64472961425781,0.9621610641479492,-0.11395740509033203,-0.6258945465087891,3.1298327445983887,9.559467315673828,-3.4431614875793457
2_20251106_213426,1762436030313,2,0.008337609469890594,0.2014894187450409,0.804253101348877,0.5590254068374634,0.8507233262062073,3.3228719234466553,0.48076942563056946,4.270354270935059,9.245601654052734,-4.2474164962768555,0.4561670422554016,-0.5574064254760742,-0.06336193531751633,3.665652275085449,-16.869190216064453,38.766441345214844,0.9124174118041992,-0.25109291076660156,-0.6434040069580078,3.3579368591308594,9.496694564819336,-3.6040124893188477
2_20251106_213426,1762436030332,2,0.011890104040503502,0.20452891290187836,0.8065978288650513,0.5544605255126953,0.8686705827713013,3.3214805126190186,0.4626937508583069,4.172196388244629,8.866138458251953,-4.319239616394043,0.4103521704673767,-0.5470216870307922,-0.1769827902317047,3.9242868423461914,-16.57785415649414,38.86315155029297,0.6514074802398682,-0.5044450759887695,-0.5721817016601562,3.5207889080047607,9.370583534240723,-3.7470579147338867
2_20251106_213426,1762436030350,2,0.015998996794223785,0.20667476952075958,0.8088893890380859,0.5502067804336548,0.8686705827713013,3.3214805126190186,0.4626937508583069,4.172196388244629,8.866138458251953,-4.319239616394043,0.4103521704673767,-0.5470216870307922,-0.1769827902317047,4.134783744812012,-16.277278900146484,38.97168731689453,0.6514074802398682,-0.5044450759887695,-0.5721817016601562,3.5207889080047607,9.370583534240723,-3.7470579147338867
2_20251106_213426,1762436030370,2,0.020324116572737694,0.20765770971775055,0.8108433485031128,0.5468073487281799,0.9057223200798035,3.3109350204467773,0.42156079411506653,3.7101352214813232,8.202972412109375,-4.666383743286133,0.19654953479766846,-0.4810483455657959,-0.36146390438079834,4.4238433837890625,-16.084697723388672,39.135337829589844,0.08287620544433594,-0.7903642654418945,-0.6084790229797363,3.6272590160369873,8.99333667755127,-4.0579047203063965
2_20251106_213426,1762436030389,2,0.02525007724761963,0.20791983604431152,0.8124102354049683,0.5441703796386719,0.9217581152915955,3.3013226985931396,0.40081003308296204,3.3426408767700195,7.709787845611572,-4.496402740478516,0.19654953479766846,-0.4810483455657959,-0.36146390438079834,4.777344703674316,-15.836971282958984,39.2078857421875,-0.22769451141357422,-1.026838779449463,-0.3507986068725586,3.5703353881835938,8.736626625061035,-4.145604133605957
2_20251106_213426,1762436030410,2,0.031123660504817963,0.20829381048679352,0.8136433362960815,0.5418758988380432,0.935825526714325,3.2876462936401367,0.3808338940143585,3.145127773284912,7.080139636993408,-4.24143123626709,0.08964821696281433,-0.6856880187988281,-0.3486357629299164,5.15431547164917,-15.600482940673828,39.308189392089844,-0.3401660919189453,-1.3251891136169434,-0.07666158676147461,3.4852938652038574,8.405328750610352,-4.164769649505615
2_20251106_213426,1762436030428,2,0.03784440830349922,0.20966961979866028,0.814537525177002,0.5395693182945251,0.9485750198364258,3.2689549922943115,0.3612942695617676,3.0517578125,6.755739212036133,-4.02117395401001,0.08964821696281433,-0.6856880187988281,-0.3486357629299164,5.590200901031494,-15.39755630493164,39.396629333496094,-0.3468289375305176,-1.319671630859375,0.11487627029418945,3.3985867500305176,8.075410842895508,-4.136050224304199
2_20251106_213426,1762436030447,2,0.04571007937192917,0.21255287528038025,0.8152210712432861,0.5367927551269531,0.9588605761528015,3.2482094764709473,0.3448748290538788,2.9535999298095703,6.662369728088379,-3.6931819915771484,0.13607393205165863,-1.0796958208084106,-0.2392909973859787,6.158808708190918,-15.222484588623047,39.38154602050781,-0.3559894561767578,-1.1304326057434082,0.3542947769165039,3.309589385986328,7.792802333831787,-4.047476768493652
2_20251106_213426,1762436030467,2,0.05477691814303398,0.21673637628555298,0.8158457279205322,0.5333110094070435,0.9666101932525635,3.226398229598999,0.331011027097702,2.6974313259124756,6.517526626586914,-3.6764235496520996,0.1843322366476059,-1.164605975151062,-0.2808297872543335,6.655004978179932,-15.039623260498047,39.36377716064453,-0.48972630500793457,-1.0202207565307617,0.2968425750732422,3.18715763092041,7.537747383117676,-3.973266124725342
2_20251106_213426,1762436030484,2,0.0646243691444397,0.22104160487651825,0.8166149854660034,0.5292487144470215,0.9718160033226013,3.201828956604004,0.3177589178085327,2.252129077911377,6.554635047912598,-3.736276149749756,0.12996529042720795,-1.0632025003433228,-0.39200717210769653,7.317873001098633,-14.920581817626953,39.310752868652344,-0.7480230331420898,-0.7864899635314941,0.1895918846130371,3.000152111053467,7.341125011444092,-3.925868034362793
2_20251106_213426,1762436030504,2,0.07429251819849014,0.22376911342144012,0.8173487186431885,0.5256891250610352,0.9727354049682617,3.1746904850006104,0.30506131052970886,1.590160608291626,6.495979309082031,-3.7434582710266113,-0.03985510393977165,-0.8170239329338074,-0.5880947113037109,8.006720542907715,-14.77457046508789,39.232200622558594,-1.127993106842041,-0.6761164665222168,0.14592766761779785,2.718153715133667,7.172095775604248,-3.889385938644409
2_20251106_213426,1762436030523,2,0.0834694504737854,0.22358717024326324,0.817750871181488,0.5237606167793274,0.9685273170471191,3.1497809886932373,0.29517436027526855,0.6899795532226562,6.479220867156982,-3.495668888092041,-0.2487708479166031,-0.5335827469825745,-0.8287754058837891,8.781760215759277,-14.621784210205078,39.035430908203125,-1.6225395202636719,-0.5542998313903809,0.3149738311767578,2.312519073486328,7.033520698547363,-3.810642719268799
2_20251106_213426,1762436030542,2,0.09209519624710083,0.21973100304603577,0.817841112613678,0.5238059759140015,0.9685273170471191,3.1497809886932373,0.29517436027526855,0.6899795532226562,6.479220867156982,-3.495668888092041,-0.4143151640892029,-0.18905501067638397,-1.0095913410186768,9.532440185546875,-14.458972930908203,38.93256378173828,-1.6225395202636719,-0.5542998313903809,0.3149738311767578,2.312519073486328,7.033520698547363,-3.810642719268799
2_20251106_213426,1762436030560,2,0.09944578260183334,0.2124892622232437,0.8177091479301453,0.5256525278091431,0.9367368221282959,3.0978376865386963,0.278081476688385,-1.4527390003204346,6.509147644042969,-3.767399311065674,-0.4491344690322876,0.004589121323078871,-1.001650094985962,10.305971145629883,-14.331432342529297,38.74878692626953,-2.567584276199341,-0.3641362190246582,-0.0267181396484375,1.1148452758789062,6.873283863067627,-3.7406811714172363
2_20251106_213426,1762436030580,2,0.10540541261434555,0.20397228002548218,0.8175486922264099,0.5281089544296265,0.906624436378479,3.070486545562744,0.26868200302124023,-2.2739148139953613,6.371486663818359,-4.0894060134887695,-0.44180411100387573,-0.08093193173408508,-0.7670780420303345,11.031462669372559,-14.194515228271484,38.56330871582031,-2.711008071899414,-0.40143775939941406,-0.278980016708374,0.4370932877063751,6.772924423217773,-3.8104259967803955
2_20251106_213426,1762436030599,2,0.1109333336353302,0.1975332349538803,0.8169060945510864,0.530413806438446,0.8708803653717041,3.044240951538086,0.2598736584186554,-2.685699701309204,6.203899383544922,-3.9290008544921875,-0.42103469371795654,-0.3539884686470032,-0.36451825499534607,11.646377563476562,-14.077571868896484,38.400184631347656,-2.498234510421753,-0.45522022247314453,-0.09486007690429688,-0.18746525049209595,6.659119606018066,-3.8341407775878906
2_20251106_213426,1762436030620,2,0.11657585948705673,0.19545485079288483,0.8153684139251709,0.5323362350463867,0.8282257914543152,3.0173394680023193,0.2517230808734894,-2.4606544971466064,6.443309783935547,-3.6177682876586914,-0.3917132019996643,-0.5757323503494263,0.06186532974243164,12.279221534729004,-14.072185516357422,38.249183654785156,-1.8185514211654663,-0.17264795303344727,0.17309808731079102,-0.6421030759811401,6.615957736968994,-3.7908663749694824
2_20251106_213426,1762436030638,2,0.12172942608594894,0.19770479202270508,0.8129339218139648,0.5340722799301147,0.7861758470535278,2.9941766262054443,0.24574196338653564,-1.9375437498092651,7.02268123626709,-3.289776563644409,-0.4082065224647522,-0.6349862217903137,0.3214828372001648,12.279221534729004,-14.072185516357422,38.249183654785156,-1.036352515220642,0.3253788948059082,0.40087199211120605,-0.901191234588623,6.697302341461182,-3.6906485557556152
2_20251106_213426,1762436030657,2,0.1260121911764145,0.20226438343524933,0.8097675442695618,0.5361777544021606,0.7444130182266235,2.9748644828796387,0.2416786402463913,-1.5628674030303955,7.678664207458496,-3.100642681121826,-0.4491344690322876,-0.5170893669128418,0.3422522246837616,12.79251766204834,-14.036808013916016,38.067039489746094,-0.5293409824371338,0.7850894927978516,0.47200489044189453,-1.0335264205932617,6.8935747146606445,-3.5726475715637207
2_20251106_213426,1762436030675,2,0.12931972742080688,0.20644983649253845,0.806353747844696,0.538932740688324,0.7055407166481018,2.959979772567749,0.23956416547298431,-1.555685043334961,7.90730094909668,-2.946223497390747,-0.49800366163253784,-0.29839977622032166,0.2035859227180481,13.278511047363281,-14.064990997314453,37.80149841308594,-0.41772687435150146,0.810981273651123,0.5011391639709473,-1.1379581689834595,7.096319675445557,-3.4473626613616943
2_20251106_213426,1762436030694,2,0.13171465694904327,0.2084440290927887,0.8031312227249146,0.542385995388031,0.7055407166481018,2.959979772567749,0.23956416547298431,-1.555685043334961,7.90730094909668,-2.946223497390747,-0.5609227418899536,-0.04305832460522652,0.034987278282642365,13.635409355163574,-14.215343475341797,37.65032196044922,-0.41772687435150146,0.810981273651123,0.5011391639709473,-1.1379581689834595,7.096319675445557,-3.4473626613616943
2_20251106_213426,1762436030714,2,0.13313226401805878,0.2077092081308365,0.8002010583877563,0.5466359853744507,0.6235809922218323,2.9378550052642822,0.23838858306407928,-2.088371992111206,8.134740829467773,-3.183238983154297,-0.6409460306167603,0.17318777740001678,-0.06824886053800583,14.016963958740234,-14.375316619873047,37.36470031738281,-0.6513586044311523,0.6919784545898438,0.13935232162475586,-1.4370133876800537,7.44276237487793,-3.3225913047790527
2_20251106_213426,1762436030733,2,0.1336713582277298,0.20497624576091766,0.7973155379295349,0.5517287850379944,0.5800570845603943,2.9299042224884033,0.23771651089191437,-2.26194429397583,7.969547271728516,-3.435816526412964,-0.6409460306167603,0.17318777740001678,-0.06824886053800583,14.320283889770508,-14.61661148071289,37.196197509765625,-0.6599447727203369,0.42142820358276367,-0.09057998657226562,-1.6019995212554932,7.548119068145752,-3.3452365398406982
2_20251106_213426,1762436030752,2,0.13332335650920868,0.20135609805583954,0.7942768931388855,0.5574987530708313,0.5800570845603943,2.9299042224884033,0.23771651089191437,-2.26194429397583,7.969547271728516,-3.435816526412964,-0.7618972063064575,0.2819216847419739,0.09179769456386566,14.523393630981445,-14.914356231689453,37.00920104980469,-0.6599447727203369,0.42142820358276367,-0.09057998657226562,-1.6019995212554932,7.548119068145752,-3.3452365398406982
2_20251106_213426,1762436030772,2,0.13238756358623505,0.19896119832992554,0.7906264662742615,0.5637355446815491,0.4985255300998688,2.919400930404663,0.23317851126194,-1.6071581840515137,8.3897123336792,-3.7877492904663086,-0.8278706073760986,0.06262127310037613,0.3068220913410187,14.67312240600586,-15.30276870727539,36.77783966064453,0.07465028762817383,0.6213598251342773,-0.2901031970977783,-1.6818084716796875,7.768352508544922,-3.4976460933685303
2_20251106_213426,1762436030789,2,0.13204698264598846,0.19936135411262512,0.7859342694282532,0.5701981782913208,0.4670175611972809,2.918628215789795,0.23176045715808868,-1.130732536315918,8.911625862121582,-3.1102190017700195,-0.8706311583518982,-0.14446187019348145,0.38012585043907166,14.741975784301758,-15.621135711669922,36.517601013183594,0.4408607482910156,0.9146184921264648,0.30994176864624023,-1.5715932846069336,7.997007369995117,-3.4201607704162598
2_20251106_213426,1762436030810,2,0.13289101421833038,0.2015005201101303,0.7805255055427551,0.5766432285308838,0.43205726146698,2.922572135925293,0.23332570493221283,-0.9703279733657837,9.444313049316406,-2.456630229949951,-0.8840701580047607,-0.1053665280342102,0.27261364459991455,14.78183364868164,-16.016971588134766,36.308860778808594,0.481012225151062,1.1578445434570312,0.7708244323730469,-1.4513401985168457,8.286468505859375,-3.227454662322998
2_20251106_213426,1762436030828,2,0.13396146893501282,0.20257976651191711,0.7751426696777344,0.5832406282424927,0.40468263626098633,2.9296929836273193,0.23723524808883667,-1.0074365139007568,9.874053955078125,-2.157367706298828,-0.9121699333190918,0.1371467560529709,0.07225003093481064,14.844454765319824,-16.436603546142578,36.12760925292969,0.3551229238510132,1.2700681686401367,0.8560695648193359,-1.36255943775177,8.603985786437988,-3.013437271118164
2_20251106_213426,1762436030849,2,0.13438189029693604,0.2007492482662201,0.7701531648635864,0.5903434753417969,0.3767976462841034,2.9406919479370117,0.24356414377689362,-1.0301804542541504,9.749560356140137,-2.289043426513672,-0.923776388168335,0.36499929428100586,-0.056642428040504456,14.809476852416992,-16.874332427978516,35.86107635498047,0.2659032344818115,0.9164600372314453,0.5795152187347412,-1.296083688735962,8.833100318908691,-2.868558645248413
2_20251106_213426,1762436030866,2,0.13392546772956848,0.1967005878686905,0.7655236721038818,0.5977845788002014,0.3536638021469116,2.9526002407073975,0.25051140785217285,-1.0086334943771362,9.850112915039062,-2.2447524070739746,-0.9830302596092224,0.4541855454444885,-0.06275107711553574,14.660297393798828,-17.394962310791016,35.62908935546875,0.22996020317077637,0.8136100769042969,0.49904513359069824,-1.2385936975479126,9.036502838134766,-2.743797540664673
2_20251106_213426,1762436030886,2,0.13293923437595367,0.19202405214309692,0.7606543302536011,0.6056888103485107,0.33145788311958313,2.967654228210449,0.25973716378211975,-0.8769581317901611,10.170921325683594,-1.9203522205352783,-1.0490037202835083,0.3943208158016205,-0.024266598746180534,14.474843978881836,-17.929180145263672,35.26020050048828,0.28930842876434326,0.9075345993041992,0.6587562561035156,-1.1662665605545044,9.263386726379395,-2.579108476638794
2_20251106_213426,1762436030904,2,0.13225814700126648,0.18787914514541626,0.7551902532577515,0.6139192581176758,0.31123483180999756,2.985368251800537,0.27241089940071106,-0.8482288718223572,10.507292747497559,-1.154240608215332,-1.0349537134170532,0.27703478932380676,-0.011438440531492233,14.398584365844727,-18.445308685302734,35.058189392089844,0.2544301152229309,0.9951248168945312,1.1398942470550537,-1.102658987045288,9.512167930603027,-2.2941348552703857
2_20251106_213426,1762436030924,2,0.13229016959667206,0.1845272034406662,0.7495216131210327,0.6218250393867493,0.31123483180999756,2.985368251800537,0.27241089940071106,-0.8482288718223572,10.507292747497559,-1.154240608215332,-0.943324089050293,0.26787179708480835,0.007498365361243486,14.272466659545898,-18.989322662353516,34.813140869140625,0.2544301152229309,0.9951248168945312,1.1398942470550537,-1.102658987045288,9.512167930603027,-2.2941348552703857
2_20251106_213426,1762436030943,2,0.13207337260246277,0.18138526380062103,0.7441945672035217,0.6291506290435791,0.2900354266166687,3.0090909004211426,0.2921565771102905,-0.8183026909828186,10.664106369018555,-0.7161204814910889,-0.943324089050293,0.26787179708480835,0.007498365361243486,14.134657859802246,-19.533458709716797,34.500022888183594,0.22748512029647827,0.9215507507324219,1.2624115943908691,-1.0457878112792969,9.742555618286133,-1.978532075881958
2_20251106_213426,1762436030963,2,0.13101918995380402,0.177994966506958,0.7392377853393555,0.6361441016197205,0.27441853284835815,3.029810905456543,0.3111729621887207,-0.6962036490440369,10.668893814086914,-0.4886811375617981,-0.8736854791641235,0.3417864441871643,0.03193295747041702,13.959486961364746,-20.092670440673828,34.19867706298828,0.27966737747192383,0.7410707473754883,1.191880702972412,-0.9758710265159607,9.927823066711426,-1.680561900138855
2_20251106_213426,1762436030981,2,0.12911613285541534,0.17413580417633057,0.7345105409622192,0.6430396437644958,0.24839645624160767,3.0739853382110596,0.35666346549987793,-0.37539443373680115,10.658121109008789,-0.4599519670009613,-0.8150424957275391,0.4908374547958374,0.04415024816989899,13.711410522460938,-20.644763946533203,33.962242126464844,0.40269169211387634,0.48807621002197266,0.7698901891708374,-0.7780861258506775,10.170044898986816,-1.229842185974121
2_20251106_213426,1762436031001,2,0.12680232524871826,0.17008081078529358,0.7299277782440186,0.6497685313224792,0.23733305931091309,3.0991368293762207,0.383465051651001,-0.36821213364601135,10.915486335754395,-0.315108984708786,-0.8150424957275391,0.4908374547958374,0.04415024816989899,13.487817764282227,-21.183521270751953,33.808143615722656,0.32789918780326843,0.5963535308837891,0.7317866086959839,-0.6961113214492798,10.319132804870605,-1.0468956232070923
2_20251106_213426,1762436031020,2,0.12452533841133118,0.1660711169242859,0.7253744006156921,0.6563122868537903,0.22789326310157776,3.124112606048584,0.41024908423423767,-0.4974934756755829,11.148910522460938,-0.10083714127540588,-0.7643406987190247,0.513439416885376,0.044761113822460175,13.253844261169434,-21.69742202758789,33.60002136230469,0.15889427065849304,0.6638221740722656,0.7568467855453491,-0.6563877463340759,10.485088348388672,-0.8576838970184326
2_20251106_213426,1762436031040,2,0.12193327397108078,0.16194838285446167,0.7210402488708496,0.6625752449035645,0.21885280311107635,3.150636911392212,0.43898093700408936,-0.5250256061553955,10.994491577148438,-0.216950923204422,-0.6898151636123657,0.5714715719223022,0.1205083355307579,13.044960021972656,-22.185558319091797,33.48802185058594,0.10508966445922852,0.40752220153808594,0.5125863552093506,-0.630115270614624,10.586969375610352,-0.729537308216095
2_20251106_213426,1762436031060,2,0.1183604896068573,0.15801683068275452,0.7170652151107788,0.6684601306915283,0.21170464158058167,3.1753122806549072,0.466225802898407,-0.2616747319698334,10.855633735656738,-0.25046831369400024,-0.6342265009880066,0.5531455874443054,0.2756679654121399,12.716008186340332,-22.667598724365234,33.22270202636719,0.29475244879722595,0.21493148803710938,0.3832551836967468,-0.5564271807670593,10.640702247619629,-0.6337234973907471
2_20251106_213426,1762436031079,2,0.11384287476539612,0.15532587468624115,0.7131817936897278,0.674006998538971,0.20701327919960022,3.1997146606445312,0.49360331892967224,0.2087656706571579,10.990900993347168,-0.08886666595935822,-0.6116244792938232,0.5122177004814148,0.4234972596168518,12.409017562866211,-23.18613052368164,32.99812316894531,0.6121543049812317,0.28015899658203125,0.435885488986969,-0.4033886194229126,10.710741996765137,-0.524752140045166
2_20251106_213426,1762436031097,2,0.10859261453151703,0.15398135781288147,0.7091449499130249,0.6794195175170898,0.20568084716796875,3.2228941917419434,0.519743800163269,0.7701817750930786,11.205172538757324,0.08470549434423447,-0.5755834579467773,0.46212679147720337,0.4870271682739258,12.409017562866211,-23.18613052368164,32.99812316894531,0.9388563632965088,0.39554405212402344,0.48756611347198486,-0.1686745584011078,10.8096284866333,-0.4028606116771698
2_20251106_213426,1762436031115,2,0.10321804136037827,0.15355496108531952,0.7051084637641907,0.684535562992096,0.20568084716796875,3.2228941917419434,0.519743800163269,0.7701817750930786,11.205172538757324,0.08470549434423447,-0.5468728542327881,0.42242059111595154,0.42105376720428467,12.130541801452637,-23.616252899169922,32.884498596191406,0.9388563632965088,0.39554405212402344,0.48756611347198486,-0.1686745584011078,10.8096284866333,-0.4028606116771698
2_20251106_213426,1762436031134,2,0.09849312156438828,0.15311792492866516,0.701225996017456,0.6893011927604675,0.20846207439899445,3.250211477279663,0.5519671440124512,1.101764440536499,11.294951438903809,0.567116379737854,-0.5138861536979675,0.5360414385795593,0.2805548906326294,11.864252090454102,-24.045581817626953,32.7713623046875,1.0163512229919434,0.3882579803466797,0.775981605052948,0.08541321754455566,10.906693458557129,-0.208865225315094
2_20251106_213426,1762436031153,2,0.09391427785158157,0.1511143445968628,0.6977440118789673,0.693900465965271,0.22002536058425903,3.296657085418701,0.610104501247406,1.1304936408996582,11.342832565307617,0.4928993284702301,-0.45096707344055176,0.697920560836792,0.18037307262420654,11.573591232299805,-24.476497650146484,32.657249450683594,0.6688514947891235,0.2781705856323242,0.37654024362564087,0.46164214611053467,11.064661979675293,0.11635906994342804
2_20251106_213426,1762436031172,2,0.0888257771730423,0.14739368855953217,0.6948823928833008,0.6982288360595703,0.2283090353012085,3.3203818798065186,0.6396393179893494,1.040714979171753,11.293753623962402,0.327706515789032,-0.45096707344055176,0.697920560836792,0.18037307262420654,11.179302215576172,-24.801952362060547,32.58164978027344,0.4632582664489746,0.1832733154296875,0.16907796263694763,0.5774567127227783,11.110480308532715,0.15862855315208435
2_20251106_213426,1762436031192,2,0.08376815915107727,0.14339345693588257,0.6923235654830933,0.7022174000740051,0.2380192130804062,3.344059705734253,0.6704778075218201,1.0467002391815186,11.095043182373047,0.5874662399291992,-0.38377195596694946,0.6569926142692566,0.18892517685890198,10.758526802062988,-25.166667938232422,32.5042724609375,0.3753948211669922,-0.012350082397460938,0.3430701494216919,0.6713054180145264,11.107393264770508,0.24439609050750732
2_20251106_213426,1762436031211,2,0.07876712083816528,0.1400095671415329,0.6899377107620239,0.7058179974555969,0.2484300136566162,3.364758014678955,0.6994116902351379,1.2717454433441162,10.862815856933594,0.646121621131897,-0.2909204959869385,0.5940735936164856,0.2744462490081787,10.376226425170898,-25.491596221923828,32.45619201660156,0.4803520441055298,-0.1956615447998047,0.3213804364204407,0.7913933992385864,11.058477401733398,0.3247411847114563
2_20251106_213426,1762436031230,2,0.07349604368209839,0.1376728117465973,0.6879486441612244,0.7087814807891846,0.2601275146007538,3.383615255355835,0.7282699942588806,1.450105905532837,10.764657974243164,0.8244820833206177,-0.2909204959869385,0.5940735936164856,0.2744462490081787,10.020413398742676,-25.777263641357422,32.409881591796875,0.5269700288772583,-0.23505496978759766,0.39979273080825806,0.9231358766555786,10.999712944030762,0.4246893525123596
2_20251106_213426,1762436031249,2,0.06840081512928009,0.1364458203315735,0.6861995458602905,0.7112201452255249,0.2729388177394867,3.400904417037964,0.7572124600410461,1.5422786474227905,10.771841049194336,0.9812954664230347,-0.2280014455318451,0.5054981708526611,0.32942408323287964,9.697331428527832,-25.91079330444336,32.38124084472656,0.49531424045562744,-0.1822977066040039,0.445284903049469,1.046964406967163,10.95413875579834,0.5360105633735657
2_20251106_213426,1762436031269,2,0.06346948444843292,0.13549405336380005,0.6847781538963318,0.7132263779640198,0.286990225315094,3.417271852493286,0.7876905202865601,1.4548940658569336,10.650938034057617,1.0411479473114014,-0.10766108334064484,0.4951134920120239,0.2793331742286682,9.283506393432617,-26.150074005126953,32.32001495361328,0.3263437747955322,-0.24256134033203125,0.4041099548339844,1.1285502910614014,10.893499374389648,0.637037992477417
2_20251106_213426,1762436031288,2,0.05868333578109741,0.13416945934295654,0.6837940216064453,0.7148290276527405,0.286990225315094,3.417271852493286,0.7876905202865601,1.4548940658569336,10.650938034057617,1.0411479473114014,-0.10033071041107178,0.5806345343589783,0.23046398162841797,8.88338851928711,-26.351696014404297,32.34117889404297,0.3263437747955322,-0.24256134033203125,0.4041099548339844,1.1285502910614014,10.893499374389648,0.637037992477417
2_20251106_213426,1762436031307,2,0.053616221994161606,0.13185542821884155,0.6829600930213928,0.7164530158042908,0.31140071153640747,3.4417901039123535,0.8443896174430847,0.8791133165359497,10.091917037963867,0.9537633061408997,-0.09116774052381516,0.663712203502655,0.26222896575927734,8.525355339050293,-26.462223052978516,32.28456115722656,-0.20771324634552002,-0.5681734085083008,0.18470054864883423,1.0868265628814697,10.660090446472168,0.7690627574920654
2_20251106_213426,1762436031325,2,0.04784247651696205,0.12914103269577026,0.6821721196174622,0.7181050181388855,0.32092031836509705,3.4495739936828613,0.8700833320617676,0.7450437545776367,9.824974060058594,1.0028424263000488,-0.09116774052381516,0.663712203502655,0.26222896575927734,8.151922225952148,-26.624317169189453,32.28045654296875,-0.2734261751174927,-0.6680927276611328,0.18702375888824463,1.0184699296951294,10.493066787719727,0.8158186674118042
2_20251106_213426,1762436031344,2,0.04129987582564354,0.12734529376029968,0.6813531517982483,0.7196077704429626,0.3302285373210907,3.4550867080688477,0.8966373801231384,0.9317834377288818,9.657387733459473,1.1033945083618164,-0.07039833813905716,0.6539382934570312,0.3941757082939148,7.824321746826172,-26.60903549194336,32.36262512207031,-0.06934916973114014,-0.668543815612793,0.23006069660186768,1.001132607460022,10.325931549072266,0.8733338117599487
2_20251106_213426,1762436031363,2,0.033759526908397675,0.1267758458852768,0.6807330846786499,0.7206876277923584,0.3302285373210907,3.4550867080688477,0.8966373801231384,0.9317834377288818,9.657387733459473,1.1033945083618164,0.07376573979854584,0.533598005771637,0.6763952374458313,7.472349643707275,-26.595340728759766,32.443809509277344,-0.06934916973114014,-0.668543815612793,0.23006069660186768,1.001132607460022,10.325931549072266,0.8733338117599487
2_20251106_213426,1762436031383,2,0.025815706700086594,0.12757600843906403,0.6804332733154297,0.7211577296257019,0.35118359327316284,3.459857225418091,0.947364330291748,1.622480869293213,9.540077209472656,0.8759551644325256,0.07376573979854584,0.533598005771637,0.6763952374458313,7.104172706604004,-26.64590072631836,32.59075927734375,0.4486093521118164,-0.5199918746948242,-0.0017698407173156738,1.1738715171813965,10.06006908416748,0.8777250051498413
2_20251106_213426,1762436031402,2,0.01801115646958351,0.12939417362213135,0.6802864670753479,0.7212094068527222,0.36360058188438416,3.459926128387451,0.9697993993759155,1.983989953994751,9.625066757202148,0.7347033023834229,0.12080231308937073,0.481674462556839,0.7588619589805603,6.625418663024902,-26.716434478759766,32.76007080078125,0.6480947732925415,-0.34800243377685547,-0.11441737413406372,1.3358951807022095,9.973069190979004,0.8491206765174866
2_20251106_213426,1762436031420,2,0.00985803548246622,0.13131415843963623,0.6800934672355652,0.72120201587677,0.377559632062912,3.4590752124786377,0.9887070059776306,2.4664008617401123,9.602323532104492,0.327706515789032,0.1537889987230301,0.49267005920410156,0.7820748090744019,6.224913120269775,-26.694034576416016,32.907135009765625,0.9044045209884644,-0.2965965270996094,-0.41713136434555054,1.561996340751648,9.898920059204102,0.7448378801345825
2_20251106_213426,1762436031440,2,0.001380136818625033,0.13332603871822357,0.680065929889679,0.7209248542785645,0.3951488435268402,3.457493543624878,1.0059316158294678,2.8710036277770996,9.633445739746094,0.11223763227462769,0.16478456556797028,0.4395247995853424,0.7723009586334229,5.765987396240234,-26.637393951416016,32.99848175048828,1.047205924987793,-0.21237945556640625,-0.5060802102088928,1.8237977027893066,9.8458251953125,0.6183178424835205
2_20251106_213426,1762436031460,2,0.006629679352045059,-0.13582171499729156,-0.6801057457923889,-0.7203920483589172,0.4165438413619995,3.455437421798706,1.0221381187438965,3.0756988525390625,9.689708709716797,0.28341570496559143,0.12507836520671844,0.4456334412097931,0.681892991065979,5.179278373718262,-26.67794418334961,33.218231201171875,1.001521110534668,-0.1248931884765625,-0.26792171597480774,2.0741777420043945,9.81460189819336,0.5513374209403992
2_20251106_213426,1762436031480,2,0.013977274298667908,-0.13780346512794495,-0.6799526214599609,-0.7200550436973572,0.44120994210243225,3.4525465965270996,1.0383007526397705,3.066122531890869,9.564018249511719,0.5503576993942261,0.04810941591858864,0.5873540639877319,0.5328420400619507,4.696895599365234,-26.598453521728516,33.37670135498047,0.7935559749603271,-0.20046710968017578,-0.0007837414741516113,2.272566556930542,9.764485359191895,0.5511414408683777
2_20251106_213426,1762436031498,2,0.02118508517742157,-0.13780365884304047,-0.6793833374977112,-0.7204163074493408,0.4631519615650177,3.4495043754577637,1.0511651039123535,3.0266199111938477,9.485013008117676,0.43065276741981506,-0.0013706265017390251,0.7669482827186584,0.41127994656562805,4.696895599365234,-26.598453521728516,33.37670135498047,0.6032426357269287,-0.22357749938964844,-0.09639093279838562,2.423377275466919,9.708590507507324,0.5270437002182007
2_20251106_213426,1762436031517,2,0.028647586703300476,-0.13575920462608337,-0.6785150766372681,-0.7213640213012695,0.4631519615650177,3.4495043754577637,1.0511651039123535,3.0266199111938477,9.485013008117676,0.43065276741981506,-0.03374645859003067,0.8488041758537292,0.3611890375614166,4.205560684204102,-26.67032241821289,33.599586486816406,0.6032426357269287,-0.22357749938964844,-0.09639093279838562,2.423377275466919,9.708590507507324,0.5270437002182007
2_20251106_213426,1762436031535,2,0.036185722798109055,-0.13285867869853973,-0.6774427890777588,-0.7225720882415771,0.5091475248336792,3.4413890838623047,1.0731678009033203,2.9859204292297363,9.332986831665039,0.057173363864421844,-0.025805216282606125,0.8060436248779297,0.3990626633167267,3.717947483062744,-26.679134368896484,33.7967529296875,0.3615598678588867,-0.25379371643066406,-0.32657328248023987,2.6243605613708496,9.586780548095703,0.3837466537952423
2_20251106_213426,1762436031555,2,0.043645624071359634,-0.13051944971084595,-0.6763840317726135,-0.7235774993896484,0.5339358448982239,3.4367024898529053,1.0817837715148926,3.034999370574951,9.516136169433594,-0.21096569299697876,-0.006868408992886543,0.6918119192123413,0.5108509063720703,3.146540641784668,-26.668262481689453,33.977500915527344,0.32851099967956543,-0.05651569366455078,-0.47576987743377686,2.7064883708953857,9.572651863098145,0.2648041844367981
2_20251106_213426,1762436031574,2,0.05120435357093811,-0.1296149641275406,-0.6753660440444946,-0.7241953015327454,0.5339358448982239,3.4367024898529053,1.0817837715148926,3.034999370574951,9.516136169433594,-0.21096569299697876,-0.006868408992886543,0.6918119192123413,0.5108509063720703,2.648052215576172,-26.652889251708984,34.18822479248047,0.32851099967956543,-0.05651569366455078,-0.47576987743377686,2.7064883708953857,9.572651863098145,0.2648041844367981
2_20251106_213426,1762436031592,2,0.058214686810970306,-0.13105212152004242,-0.6745198965072632,-0.724195659160614,0.5821508765220642,3.430006980895996,1.0924066305160522,3.7651994228363037,9.852506637573242,-0.19779814779758453,0.04138990491628647,0.2635957598686218,0.7515316009521484,2.135164260864258,-26.67612075805664,34.41118621826172,0.741736888885498,0.20055866241455078,-0.27020925283432007,3.0234625339508057,9.651947975158691,0.07241109013557434
2_20251106_213426,1762436031612,2,0.06515076756477356,-0.13423843681812286,-0.6738347411155701,-0.7236588597297668,0.5821508765220642,3.430006980895996,1.0924066305160522,3.7651994228363037,9.852506637573242,-0.19779814779758453,0.0242856927216053,0.15486183762550354,0.7851291298866272,1.5971994400024414,-26.713497161865234,34.632896423339844,0.741736888885498,0.20055866241455078,-0.27020925283432007,3.0234625339508057,9.651947975158691,0.07241109013557434
2_20251106_213426,1762436031631,2,0.0710197389125824,-0.13899047672748566,-0.672863781452179,-0.7231128215789795,0.641325056552887,3.4301645755767822,1.103011965751648,4.604331016540527,10.52046012878418,0.6161954402923584,-0.016031380742788315,0.16524653136730194,0.6800604462623596,1.2095975875854492,-26.666133880615234,34.87559509277344,1.0617446899414062,0.5882158279418945,0.4382316470146179,3.542586326599121,9.932244300842285,0.17796379327774048
2_20251106_213426,1762436031650,2,0.07620672881603241,-0.14304985105991364,-0.6716557741165161,-0.7229161858558655,0.6731767654418945,3.4329094886779785,1.1107360124588013,4.769523620605469,10.539612770080566,0.9777043461799622,-0.020307432860136032,0.2892521023750305,0.5145161151885986,0.7331562042236328,-26.698726654052734,35.01866149902344,0.9815499782562256,0.48589515686035156,0.6397924423217773,3.787973642349243,10.053717613220215,0.3379119038581848
2_20251106_213426,1762436031669,2,0.08100651949644089,-0.145243301987648,-0.6704111695289612,-0.7231121063232422,0.7062274217605591,3.4366695880889893,1.1196781396865845,4.8054351806640625,10.473775863647461,0.9226400852203369,0.02184223383665085,0.3943208158016205,0.32942408323287964,0.2731170654296875,-26.666797637939453,35.068931579589844,0.8139691352844238,0.3360462188720703,0.46778255701065063,3.9914660453796387,10.13772964477539,0.4548575282096863
2_20251106_213426,1762436031689,2,0.08534502238035202,-0.145422101020813,-0.6695641279220581,-0.7233619689941406,0.74097740650177,3.4408652782440186,1.1296966075897217,4.550463676452637,10.281050682067871,0.8089203834533691,0.04627682641148567,0.44746604561805725,0.16449059545993805,-0.16817569732666016,-26.722126007080078,35.21294403076172,0.44719791412353516,0.11465740203857422,0.28325027227401733,4.103265762329102,10.166393280029297,0.5256701111793518
2_20251106_213426,1762436031707,2,0.08888565748929977,-0.14418891072273254,-0.6690642237663269,-0.7236449122428894,0.74097740650177,3.4408652782440186,1.1296966075897217,4.550463676452637,10.281050682067871,0.8089203834533691,0.061548441648483276,0.46823543310165405,0.08141299337148666,-0.5348567962646484,-26.759052276611328,35.25202941894531,0.44719791412353516,0.11465740203857422,0.28325027227401733,4.103265762329102,10.166393280029297,0.5256701111793518
2_20251106_213426,1762436031726,2,0.09195008873939514,-0.14225073158740997,-0.6687812805175781,-0.7239071130752563,0.8004575371742249,3.4462990760803223,1.1458293199539185,3.9435596466064453,9.763924598693848,0.10385829210281372,0.0914808139204979,0.3417864441871643,0.1101236417889595,-0.877659797668457,-26.795063018798828,35.35968017578125,-0.1374530792236328,-0.2958850860595703,-0.3371858596801758,4.081012725830078,10.059809684753418,0.4410441517829895
2_20251106_213426,1762436031745,2,0.09443899244070053,-0.14125248789787292,-0.6688377857208252,-0.7237299680709839,0.8282284140586853,3.4473609924316406,1.1523348093032837,3.9866535663604736,9.681328773498535,0.21877503395080566,0.10308724641799927,0.1310381144285202,0.2035859227180481,-1.2052602767944336,-26.779781341552734,35.44184875488281,-0.07548737525939941,-0.30278491973876953,-0.1778152883052826,4.062140941619873,9.984113693237305,0.39659032225608826
2_20251106_213426,1762436031764,2,0.09623454511165619,-0.14225509762763977,-0.6691131591796875,-0.7230421900749207,0.8550999164581299,3.4479892253875732,1.158385157585144,4.2404279708862305,9.845324516296387,0.34925341606140137,0.1275218278169632,-0.014958551153540611,0.26711589097976685,-1.4857234954833984,-26.78670883178711,35.55247497558594,0.14262962341308594,-0.11103153228759766,-0.037869542837142944,4.0977983474731445,9.956356048583984,0.3871229588985443
2_20251106_213426,1762436031784,2,0.09759322553873062,-0.14463026821613312,-0.6695743203163147,-0.7219611406326294,0.8829144239425659,3.4482617378234863,1.1641056537628174,4.408015251159668,9.839338302612305,0.27862751483917236,0.1684497594833374,-0.06810377538204193,0.23596176505088806,-1.811110496520996,-26.73361587524414,35.621917724609375,0.24817371368408203,-0.09361457824707031,-0.0867963433265686,4.159841537475586,9.932952880859375,0.36542385816574097
2_20251106_213426,1762436031803,2,0.09847675263881683,-0.14715541899204254,-0.6703671813011169,-0.7205938100814819,0.8829144239425659,3.4482617378234863,1.1641056537628174,4.408015251159668,9.839338302612305,0.27862751483917236,0.14584776759147644,-0.0491669699549675,0.16571232676506042,-1.987544059753418,-26.620899200439453,35.711814880371094,0.24817371368408203,-0.09361457824707031,-0.0867963433265686,4.159841537475586,9.932952880859375,0.36542385816574097
2_20251106_213426,1762436031822,2,0.09903053939342499,-0.14910472929477692,-0.6710883975028992,-0.719444990158081,0.9086946249008179,3.4479289054870605,1.168856143951416,4.40681791305542,9.722028732299805,0.21518388390541077,0.10308723896741867,-0.019845468923449516,0.10768017917871475,-2.159235954284668,-26.633502960205078,35.85362243652344,0.19758129119873047,-0.16873931884765625,-0.12019196152687073,4.2092366218566895,9.890768051147461,0.3353758454322815
2_20251106_213426,1762436031841,2,0.0992993637919426,-0.15053994953632355,-0.6715676188468933,-0.7186614871025085,0.9572510719299316,3.444624423980713,1.1767685413360596,4.299083709716797,9.476633071899414,0.2534894347190857,0.08964821696281433,-0.05894080922007561,0.08080213516950607,-2.3133134841918945,-26.55673599243164,35.93019104003906,0.05348014831542969,-0.27960205078125,-0.04340547323226929,4.245603561401367,9.756235122680664,0.296894907951355
2_20251106_213426,1762436031860,2,0.09908764809370041,-0.15209488570690155,-0.6720218062400818,-0.7179383635520935,0.9797630310058594,3.4415981769561768,1.1801897287368774,4.227260589599609,9.380868911743164,0.2355337142944336,0.10919588804244995,-0.09803614765405655,0.0691957026720047,-2.418436050415039,-26.464908599853516,36.076568603515625,-0.014674186706542969,-0.30029296875,-0.04908895492553711,4.241934776306152,9.681161880493164,0.2846226692199707
2_20251106_213426,1762436031879,2,0.09859281033277512,-0.15380412340164185,-0.6726482510566711,-0.7170551419258118,1.0011847019195557,3.4378368854522705,1.1827993392944336,4.254792213439941,9.358125686645508,0.051188111305236816,0.12141318619251251,-0.12735766172409058,0.05636754631996155,-2.499608039855957,-26.395259857177734,36.088233947753906,0.01028585433959961,-0.25842952728271484,-0.18674764037132263,4.244506359100342,9.616555213928223,0.23793575167655945
2_20251106_213426,1762436031899,2,0.09786093980073929,-0.1555858701467514,-0.6734048128128052,-0.716060221195221,1.0011847019195557,3.4378368854522705,1.1827993392944336,4.254792213439941,9.358125686645508,0.051188111305236816,0.10797415673732758,-0.18661154806613922,0.031932953745126724,-2.5688905715942383,-26.32522201538086,36.14094543457031,0.01028585433959961,-0.25842952728271484,-0.18674764037132263,4.244506359100342,9.616555213928223,0.23793575167655945
2_20251106_213426,1762436031919,2,0.09656275808811188,-0.15763865411281586,-0.674180805683136,-0.7150565981864929,1.0425351858139038,3.4278714656829834,1.1846575736999512,4.142270088195801,9.226449966430664,-0.14393094182014465,0.08842649310827255,-0.2764086425304413,0.004444041755050421,-2.612194061279297,-26.228214263916016,36.168128967285156,-0.07845497131347656,-0.2686290740966797,-0.24324554204940796,4.220725059509277,9.495079040527344,0.0993146002292633
2_20251106_213426,1762436031937,2,0.09451127797365189,-0.1601002961397171,-0.6749807000160217,-0.7140283584594727,1.0593410730361938,3.4226467609405518,1.1846837997436523,4.103964328765869,9.240814208984375,-0.039787642657756805,0.03100520372390747,-0.28312814235687256,0.005054906476289034,-2.612194061279297,-26.228214263916016,36.168128967285156,-0.09340858459472656,-0.20341205596923828,-0.11128179728984833,4.197372913360596,9.444226264953613,0.07149415463209152
2_20251106_213426,1762436031956,2,0.09236660599708557,-0.16261766850948334,-0.675388753414154,-0.7133540511131287,1.0593410730361938,3.4226467609405518,1.1846837997436523,4.103964328765869,9.240814208984375,-0.039787642657756805,-0.014809650368988514,-0.250752329826355,0.008109230548143387,-2.5992040634155273,-26.214725494384766,36.155364990234375,-0.09340858459472656,-0.20341205596923828,-0.11128179728984833,4.197372913360596,9.444226264953613,0.07149415463209152
2_20251106_213426,1762436031975,2,0.09038518369197845,-0.16495129466056824,-0.6754269003868103,-0.7130358219146729,1.0772696733474731,3.4165499210357666,1.1846351623535156,4.259580612182617,9.252784729003906,0.04639991372823715,-0.011755326762795448,-0.2757977843284607,0.0013897186145186424,-2.5750293731689453,-26.21340560913086,36.183380126953125,0.04976606369018555,-0.1531534194946289,-0.020075395703315735,4.209814548492432,9.405938148498535,0.06647530943155289
2_20251106_213426,1762436031994,2,0.0882183387875557,-0.16743575036525726,-0.6754852533340454,-0.712672770023346,1.09418785572052,3.4106109142303467,1.1843358278274536,4.478640556335449,9.24679946899414,-0.026620090007781982,0.028561744838953018,-0.3723143935203552,-0.004108063876628876,-2.4840879440307617,-26.10738754272461,36.188926696777344,0.21506071090698242,-0.12731075286865234,-0.07447631657123566,4.263579845428467,9.374110221862793,0.04785623028874397
2_20251106_213426,1762436032013,2,0.08543923497200012,-0.17059087753295898,-0.675884485244751,-0.7118841409683228,1.127396583557129,3.3981616497039795,1.1824703216552734,4.722838878631592,9.069636344909668,-0.12956634163856506,0.028561744838953018,-0.3723143935203552,-0.004108063876628876,-2.4069528579711914,-26.03915786743164,36.12560272216797,0.315185546875,-0.21037673950195312,-0.11182670295238495,4.407653331756592,9.280013084411621,-0.017739642411470413
2_20251106_213426,1762436032034,2,0.08215708285570145,-0.17432217299938202,-0.6764134764671326,-0.7108634114265442,1.1471034288406372,3.390446662902832,1.1807187795639038,4.9167609214782715,9.04090690612793,-0.1882217526435852,0.018787909299135208,-0.5122024416923523,0.00016798917204141617,-2.2964744567871094,-26.01932144165039,36.11676788330078,0.4072861671447754,-0.1912851333618164,-0.1363856941461563,4.509474754333496,9.232192039489746,-0.05183606222271919
2_20251106_213426,1762436032053,2,0.0789150819182396,-0.17814277112483978,-0.6769020557403564,-0.7098177075386047,1.1657274961471558,3.383366107940674,1.1786946058273315,5.123850345611572,9.068439483642578,-0.2408919334411621,-0.009922732599079609,-0.5610715746879578,-0.020601410418748856,-2.109553337097168,-25.932201385498047,36.13922119140625,0.4915003776550293,-0.13100242614746094,-0.15124469995498657,4.632349967956543,9.199441909790039,-0.08964723348617554
2_20251106_213426,1762436032070,2,0.07485324144363403,-0.1825391799211502,-0.677154541015625,-0.7088992595672607,1.1828031539916992,3.3771703243255615,1.1766023635864258,5.1992645263671875,9.118715286254883,-0.2588476538658142,-0.009922732599079609,-0.5610715746879578,-0.020601410418748856,-1.866537094116211,-25.928874969482422,36.148765563964844,0.45353174209594727,-0.06458187103271484,-0.13536033034324646,4.74573278427124,9.183297157287598,-0.12348732352256775
2_20251106_213426,1762436032090,2,0.0699901282787323,-0.18676118552684784,-0.6772994995117188,-0.708157479763031,1.2031718492507935,3.3700239658355713,1.1737579107284546,5.1681413650512695,9.110336303710938,-0.2899709641933441,-0.08628082275390625,-0.5873388051986694,-0.21058034896850586,-1.6486968994140625,-25.939830780029297,36.17058563232422,0.33792686462402344,-0.058368682861328125,-0.13318690657615662,4.830214500427246,9.168704986572266,-0.1567840576171875
2_20251106_213426,1762436032109,2,0.06435444951057434,-0.1902218759059906,-0.677316427230835,-0.7077546119689941,1.2222025394439697,3.3636341094970703,1.1707662343978882,5.066391944885254,9.19053840637207,-0.3115178644657135,-0.08628082275390625,-0.5873388051986694,-0.21058034896850586,-1.3963146209716797,-25.98593521118164,36.1795654296875,0.18894195556640625,0.01746654510498047,-0.1237870454788208,4.877449989318848,9.17307186126709,-0.1877308189868927
2_20251106_213426,1762436032129,2,0.058222446590662,-0.19274605810642242,-0.6770183444023132,-0.7078878879547119,1.2416183948516846,3.357192039489746,1.1679514646530151,5.004145622253418,9.155823707580566,-0.12956634163856506,-0.23166663944721222,-0.5293066501617432,-0.38528764247894287,-1.0852289199829102,-26.07748794555664,36.10884094238281,0.10135650634765625,-0.013798713684082031,0.04653158783912659,4.902789115905762,9.169622421264648,-0.17609792947769165
2_20251106_213426,1762436032149,2,0.051608771085739136,-0.1946502923965454,-0.6763172149658203,-0.7085497975349426,1.2601641416549683,3.3509645462036133,1.165724515914917,4.935914039611816,9.13427734375,-0.029014192521572113,-0.24205133318901062,-0.5696237087249756,-0.4366002678871155,-0.7482624053955078,-26.142200469970703,36.02611541748047,0.02649974822998047,-0.028276443481445312,0.11766699701547623,4.909414291381836,9.162553787231445,-0.14668118953704834
2_20251106_213426,1762436032167,2,0.04434673860669136,-0.19651231169700623,-0.6755894422531128,-0.7092215418815613,1.275546669960022,3.3455910682678223,1.1642487049102783,4.716853618621826,9.142656326293945,0.027247123420238495,-0.24205133318901062,-0.5696237087249756,-0.4366002678871155,-0.4147214889526367,-26.26956558227539,35.928550720214844,-0.15404844284057617,-0.01591777801513672,0.13914266228675842,4.870902061462402,9.158574104309082,-0.11189553141593933
2_20251106_213426,1762436032185,2,0.036336902529001236,-0.19862380623817444,-0.6749976277351379,-0.709652304649353,1.2891380786895752,3.340264320373535,1.163310170173645,4.455896377563477,9.068439483642578,0.0763261616230011,-0.21089722216129303,-0.7150095105171204,-0.49279987812042236,-0.018247604370117188,-26.36703872680664,35.75286865234375,-0.3320045471191406,-0.07210731506347656,0.1505773514509201,4.787900924682617,9.140546798706055,-0.074251189827919
2_20251106_213426,1762436032204,2,0.028318101540207863,-0.2034285068511963,-0.6738884449005127,-0.7097107172012329,1.3015607595443726,3.3347084522247314,1.1626113653182983,4.348162651062012,9.062454223632812,0.014079581946134567,-0.19012783467769623,-0.7632678151130676,-0.47813910245895386,0.37208080291748047,-26.577259063720703,35.54777526855469,-0.3517904281616211,-0.06247425079345703,0.07066461443901062,4.699953079223633,9.12492847442627,-0.05658503621816635
2_20251106_213426,1762436032224,2,0.020102165639400482,-0.20823392271995544,-0.6728909611701965,-0.7095437049865723,1.3126739263534546,3.329115629196167,1.1616616249084473,4.269157409667969,9.112730026245117,-0.1391427218914032,-0.16935841739177704,-0.8304629921913147,-0.4665326476097107,0.8009700775146484,-26.759166717529297,35.263587951660156,-0.3446364402770996,-0.009758949279785156,-0.06604614853858948,4.613793849945068,9.122488975524902,-0.07309657335281372
2_20251106_213426,1762436032243,2,0.01156153716146946,-0.21345162391662598,-0.6720452308654785,-0.7089851498603821,1.3213605880737305,3.323945999145508,1.1601996421813965,4.124313831329346,9.078015327453613,-0.293562114238739,-0.18463005125522614,-0.9092645049095154,-0.47386303544044495,1.2666149139404297,-26.938426971435547,34.953834533691406,-0.3915839195251465,-0.03557872772216797,-0.1763724386692047,4.515897750854492,9.113594055175781,-0.1171896755695343
2_20251106_213426,1762436032261,2,0.0023972559720277786,-0.21912704408168793,-0.6712139844894409,-0.7081308960914612,1.3278576135635376,3.3189756870269775,1.158437728881836,3.979471206665039,8.98464584350586,-0.2983503043651581,-0.2280014455318451,-0.9752379059791565,-0.4726412892341614,1.792992115020752,-27.11398696899414,34.67356872558594,-0.4291415214538574,-0.10315895080566406,-0.14492850005626678,4.4086127281188965,9.087804794311523,-0.1534218043088913
2_20251106_213426,1762436032282,2,0.0072210379876196384,0.2250671088695526,0.6702268719673157,0.7071694135665894,1.3333956003189087,3.31343412399292,1.1563241481781006,3.9124364852905273,9.078015327453613,-0.20138931274414062,-0.2280014455318451,-0.9752379059791565,-0.4726412892341614,2.3587470054626465,-27.236934661865234,34.395835876464844,-0.3969411849975586,-0.007831573486328125,-0.03837400674819946,4.309377670288086,9.085846900939941,-0.16301530599594116
2_20251106_213426,1762436032299,2,0.01727813109755516,0.2312203347682953,0.6688034534454346,0.7063572406768799,1.3366801738739014,3.3096415996551514,1.1547117233276367,3.8657515048980713,9.299469947814941,-0.1570984572172165,-0.3324592709541321,-1.0186094045639038,-0.5141801238059998,2.8829965591430664,-27.461780548095703,34.0198974609375,-0.3549010753631592,0.1708984375,0.004733487963676453,4.2206525802612305,9.128571510314941,-0.16183194518089294
2_20251106_213426,1762436032319,2,0.027677707374095917,0.2368788719177246,0.6669622659683228,0.7058920860290527,1.3386645317077637,3.3064937591552734,1.1529895067214966,3.665844202041626,9.487406730651855,-0.1355515718460083,-0.41064995527267456,-0.9874551892280579,-0.617416262626648,3.4932661056518555,-27.65689468383789,33.74253845214844,-0.4438464641571045,0.28706836700439453,0.021024301648139954,4.1096906661987305,9.200338363647461,-0.15657587349414825
2_20251106_213426,1762436032341,2,0.03871123865246773,0.24150916934013367,0.6647458672523499,0.705894947052002,1.3381333351135254,3.3042759895324707,1.152144432067871,3.3605968952178955,9.475435256958008,0.10385829210281372,-0.4790668487548828,-0.9587445259094238,-0.7237067222595215,4.122763156890869,-27.950199127197266,33.39646911621094,-0.5992751121520996,0.2200775146484375,0.20834732055664062,3.959872007369995,9.25535774230957,-0.1044890359044075
2_20251106_213426,1762436032359,2,0.05041996017098427,0.24489450454711914,0.6623591780662537,0.7062327861785889,1.3381333351135254,3.3042759895324707,1.152144432067871,3.3605968952178955,9.475435256958008,0.10385829210281372,-0.49250584840774536,-0.9740161299705505,-0.8141146898269653,4.122763156890869,-27.950199127197266,33.39646911621094,-0.5992751121520996,0.2200775146484375,0.20834732055664062,3.959872007369995,9.25535774230957,-0.1044890359044075
2_20251106_213426,1762436032376,2,0.06289530545473099,0.24733729660511017,0.6598910093307495,0.7066910862922668,1.3347718715667725,3.302774667739868,1.1526827812194824,3.0122551918029785,9.421567916870117,0.3241153657436371,-0.4857863187789917,-1.008224606513977,-0.8678708076477051,4.84651517868042,-28.08658218383789,32.989410400390625,-0.7580935955047607,0.13296794891357422,0.34288352727890015,3.7703487873077393,9.288599967956543,-0.01876816153526306
2_20251106_213426,1762436032396,2,0.07621416449546814,0.24848419427871704,0.6579073667526245,0.7068273425102234,1.319823980331421,3.299753189086914,1.1568456888198853,1.9576548337936401,9.113927841186523,0.5575400590896606,-0.49739277362823486,-1.0296049118041992,-0.8519883155822754,5.591931343078613,-28.25986099243164,32.66364288330078,-1.2417150735855103,-0.13209247589111328,0.3845425844192505,3.1993699073791504,9.246020317077637,0.17299748957157135
2_20251106_213426,1762436032415,2,0.08954247832298279,0.2496766597032547,0.6557081937789917,0.7068878412246704,1.319823980331421,3.299753189086914,1.1568456888198853,1.9576548337936401,9.113927841186523,0.5575400590896606,-0.4906732439994812,-1.0803066492080688,-0.7719650268554688,6.374202251434326,-28.430355072021484,32.298797607421875,-1.2417150735855103,-0.13209247589111328,0.3845425844192505,3.1993699073791504,9.246020317077637,0.17299748957157135
2_20251106_213426,1762436032435,2,0.10254206508398056,0.2514915466308594,0.6532572507858276,0.7067475318908691,1.303295373916626,3.297548770904541,1.1615320444107056,1.669165849685669,9.188143730163574,0.603027880191803,-0.4741799235343933,-1.1780450344085693,-0.7017155885696411,7.143977642059326,-28.613658905029297,31.87913703918457,-1.224163293838501,-0.04630088806152344,0.34402433037757874,2.89332914352417,9.234444618225098,0.25900354981422424
2_20251106_213426,1762436032452,2,0.11561466008424759,0.25431498885154724,0.6505534648895264,0.7062133550643921,1.2693655490875244,3.2946979999542236,1.1703702211380005,1.30765700340271,9.410795211791992,0.6975948214530945,-0.5004470944404602,-1.2794486284255981,-0.6620093584060669,7.899241924285889,-28.847309112548828,31.390344619750977,-1.0422186851501465,0.13891220092773438,0.3134496808052063,2.3498756885528564,9.271883010864258,0.3841451406478882
2_20251106_213426,1762436032472,2,0.1292545646429062,0.2581266760826111,0.6473088264465332,0.7054467797279358,1.2460135221481323,3.2943990230560303,1.17741858959198,1.1089468002319336,9.59514045715332,1.0028424263000488,-0.528546929359436,-1.267842173576355,-0.6949961185455322,8.718255996704102,-29.02676010131836,30.905061721801758,-0.9927430152893066,0.25860595703125,0.4949578046798706,2.1016898155212402,9.33653450012207,0.5078846216201782
2_20251106_213426,1762436032492,2,0.14278315007686615,0.2612493634223938,0.6439333558082581,0.7047776579856873,1.2200796604156494,3.294628143310547,1.1858339309692383,0.8683398962020874,9.505361557006836,1.0734683275222778,-0.5450402498245239,-1.1737689971923828,-0.7487521767616272,9.562333106994629,-29.203678131103516,30.326147079467773,-0.9866799116134644,0.13506126403808594,0.4524669647216797,1.8550198078155518,9.37030029296875,0.6210013628005981
2_20251106_213426,1762436032510,2,0.15609438717365265,0.2632664442062378,0.6405579447746277,0.7042803764343262,1.1949342489242554,3.2951507568359375,1.1944674253463745,0.6480827331542969,9.502967834472656,1.205143690109253,-0.5853573083877563,-1.1120716333389282,-0.7530282139778137,10.42392635345459,-29.291362762451172,29.695505142211914,-0.9655495882034302,0.10613441467285156,0.46731388568878174,1.613632321357727,9.396833419799805,0.7378298044204712
2_20251106_213426,1762436032531,2,0.16910849511623383,0.26468712091445923,0.636904239654541,0.7040568590164185,1.1949342489242554,3.2951507568359375,1.1944674253463745,0.6480827331542969,9.502967834472656,1.205143690109253,-0.6061267256736755,-1.0906914472579956,-0.7243175506591797,11.305068969726562,-29.453609466552734,29.145357131958008,-0.9655495882034302,0.10613441467285156,0.46731388568878174,1.613632321357727,9.396833419799805,0.7378298044204712
2_20251106_213426,1762436032549,2,0.18186692893505096,0.2660658657550812,0.6329353451728821,0.7039362192153931,1.134506106376648,3.2987136840820312,1.2193673849105835,0.25545060634613037,9.887221336364746,1.9868168830871582,-0.6061267256736755,-1.0906914472579956,-0.7243175506591797,12.141684532165527,-29.555309295654297,28.49995231628418,-0.9029451608657837,0.3536863327026367,0.8706001043319702,1.158395767211914,9.53353500366211,1.116216778755188
2_20251106_213426,1762436032569,2,0.1943480670452118,0.2673111855983734,0.6288998126983643,0.7037460803985596,1.134506106376648,3.2987136840820312,1.2193673849105835,0.25545060634613037,9.887221336364746,1.9868168830871582,-0.5041123032569885,-1.0515960454940796,-0.7261501550674438,13.013138771057129,-29.691753387451172,27.80116081237793,-0.9029451608657837,0.3536863327026367,0.8706001043319702,1.158395767211914,9.53353500366211,1.116216778755188
2_20251106_213426,1762436032588,2,0.20652195811271667,0.26836156845092773,0.6254082322120667,0.7029902338981628,1.0703678131103516,3.3055496215820312,1.251515507698059,-0.3909560739994049,9.909965515136719,2.2800941467285156,-0.42042380571365356,-1.009446382522583,-0.7206524014472961,13.848541259765625,-29.818294525146484,27.12819480895996,-1.0500012636184692,0.24512958526611328,0.7628850936889648,0.6590451598167419,9.664835929870605,1.5172090530395508
2_20251106_213426,1762436032606,2,0.21815451979637146,0.2692212462425232,0.6224481463432312,0.7017740607261658,1.0703678131103516,3.3055496215820312,1.251515507698059,-0.3909560739994049,9.909965515136719,2.2800941467285156,-0.41553688049316406,-0.8726126551628113,-0.7053807973861694,14.712644577026367,-29.86777114868164,26.444276809692383,-1.0500012636184692,0.24512958526611328,0.7628850936889648,0.6590451598167419,9.664835929870605,1.5172090530395508
2_20251106_213426,1762436032625,2,0.22879433631896973,0.26911741495132446,0.6197147369384766,0.7008442282676697,0.9961372017860413,3.315525770187378,1.2905446290969849,-1.1415060758590698,10.096704483032227,2.5218982696533203,-0.4027087688446045,-0.7296702861785889,-0.665063738822937,15.564067840576172,-29.918712615966797,25.827451705932617,-1.214599370956421,0.28846168518066406,0.6650269031524658,0.07309335470199585,9.808242797851562,1.8568713665008545
2_20251106_213426,1762436032645,2,0.23834949731826782,0.26829659938812256,0.6171929240226746,0.7001994848251343,0.9534348249435425,3.3215172290802,1.312577247619629,-1.4168273210525513,10.020092964172363,2.4871835708618164,-0.3733872175216675,-0.6142168641090393,-0.606420636177063,16.383161544799805,-29.89669418334961,25.210737228393555,-1.1919364929199219,0.1694803237915039,0.5042498111724854,-0.22489076852798462,9.85061264038086,1.982933759689331
2_20251106_213426,1762436032663,2,0.24673475325107574,0.2670004069805145,0.6149444580078125,0.6997685432434082,0.9534348249435425,3.3215172290802,1.312577247619629,-1.4168273210525513,10.020092964172363,2.4871835708618164,-0.3220745921134949,-0.5903931260108948,-0.5202887654304504,17.127742767333984,-29.892948150634766,24.6854305267334,-1.1919364929199219,0.1694803237915039,0.5042498111724854,-0.22489076852798462,9.85061264038086,1.982933759689331
2_20251106_213426,1762436032682,2,0.25427839159965515,0.26613476872444153,0.6128501296043396,0.6992349624633789,0.9085599184036255,3.3273749351501465,1.3351904153823853,-1.6418726444244385,9.905177116394043,2.5362627506256104,-0.25671207904815674,-0.5720672011375427,-0.38650935888290405,17.817428588867188,-29.792171478271484,24.1057186126709,-1.1335854530334473,0.043651580810546875,0.44266319274902344,-0.5082871317863464,9.861525535583496,2.093599557876587
2_20251106_213426,1762436032701,2,0.2606358528137207,0.2660256326198578,0.6108760833740234,0.6986628174781799,0.8227171301841736,3.3375203609466553,1.3770793676376343,-1.6670106649398804,9.844127655029297,2.493168830871582,-0.25671207904815674,-0.5720672011375427,-0.38650935888290405,18.42997932434082,-29.759624481201172,23.589326858520508,-0.7222387790679932,-0.01879596710205078,0.24748849868774414,-0.9447718858718872,9.862923622131348,2.245680332183838
2_20251106_213426,1762436032720,2,0.2655402719974518,0.2668597400188446,0.6090938448905945,0.6980536580085754,0.7795489430427551,3.3424839973449707,1.397381067276001,-1.3892951011657715,9.92672348022461,2.2465767860412598,-0.11865665018558502,-0.4773831367492676,-0.0902399867773056,19.04283905029297,-29.71506118774414,23.12726402282715,-0.35561859607696533,0.051039695739746094,0.0007171630859375,-1.0336765050888062,9.875683784484863,2.2458596229553223
2_20251106_213426,1762436032740,2,0.2690311372280121,0.26822933554649353,0.6074792146682739,0.697598934173584,0.7360056638717651,3.3476829528808594,1.4174593687057495,-1.1570676565170288,9.953058242797852,2.1723597049713135,-0.10888281464576721,-0.42790311574935913,-0.0260991919785738,19.596179962158203,-29.649349212646484,22.66327476501465,-0.09871292114257812,0.06189918518066406,-0.05879998207092285,-1.0583547353744507,9.891159057617188,2.2311596870422363
2_20251106_213426,1762436032760,2,0.2718135416507721,0.269815593957901,0.6058719158172607,0.6973063349723816,0.6946887969970703,3.3529083728790283,1.436660647392273,-1.0421509742736816,9.98537826538086,2.272911787033081,-0.11621318757534027,-0.33505165576934814,-0.02182314172387123,19.999774932861328,-29.644344329833984,22.286958694458008,0.012963056564331055,0.07537555694580078,0.0334017276763916,-1.0551140308380127,9.910002708435059,2.2395100593566895
2_20251106_213426,1762436032779,2,0.27403393387794495,0.2708622217178345,0.6044260859489441,0.6972863078117371,0.6946887969970703,3.3529083728790283,1.436660647392273,-1.0421509742736816,9.98537826538086,2.272911787033081,-0.08933514356613159,-0.19821797311306,-0.023655734956264496,19.999774932861328,-29.644344329833984,22.286958694458008,0.012963056564331055,0.07537555694580078,0.0334017276763916,-1.0551140308380127,9.910002708435059,2.2395100593566895
2_20251106_213426,1762436032798,2,0.27538326382637024,0.2710653245449066,0.6034986972808838,0.6974790692329407,0.6230968236923218,3.3615715503692627,1.4683648347854614,-0.7871794104576111,9.763924598693848,1.6516430377960205,-0.0630679577589035,-0.17317251861095428,0.009941824711859226,20.572723388671875,-29.687908172607422,21.605318069458008,0.1931208372116089,-0.10996150970458984,-0.44441890716552734,-0.98030024766922,9.873886108398438,2.096061944961548
2_20251106_213426,1762436032817,2,0.27629923820495605,0.27143165469169617,0.6027327179908752,0.697636604309082,0.5911855697631836,3.3656718730926514,1.4811357259750366,-0.6830360889434814,9.976999282836914,1.6839635372161865,-0.08444822579622269,-0.21532218158245087,0.06186532974243164,20.572723388671875,-29.687908172607422,21.605318069458008,0.23781132698059082,0.08249092102050781,-0.3296787738800049,-0.9208474159240723,9.894508361816406,2.0136423110961914
2_20251106_213426,1762436032836,2,0.2771638333797455,0.2724141776561737,0.6016228199005127,0.6978687047958374,0.5911855697631836,3.3656718730926514,1.4811357259750366,-0.6830360889434814,9.976999282836914,1.6839635372161865,-0.08444822579622269,-0.21532218158245087,0.06186532974243164,20.796262741088867,-29.633106231689453,21.33109474182129,0.23781132698059082,0.08249092102050781,-0.3296787738800049,-0.9208474159240723,9.894508361816406,2.0136423110961914
2_20251106_213426,1762436032854,2,0.2776873707771301,0.27348488569259644,0.6005901098251343,0.698131263256073,0.5366103649139404,3.3740994930267334,1.5024577379226685,-0.33589184284210205,10.012910842895508,1.628899097442627,-0.020307432860136032,-0.17195077240467072,0.09790634363889694,20.949424743652344,-29.734310150146484,21.18641471862793,0.4103788733482361,0.07079792022705078,-0.2787954807281494,-0.7462707161903381,9.942112922668457,1.9076945781707764
2_20251106_213426,1762436032874,2,0.2778805196285248,0.2745831608772278,0.5998886227607727,0.6982263922691345,0.5114902853965759,3.3785626888275146,1.5116630792617798,-0.2748422920703888,9.986576080322266,1.5893964767456055,-0.008701003156602383,-0.16828559339046478,0.07713694125413895,21.018905639648438,-29.804080963134766,21.10667610168457,0.3771427571773529,0.03557014465332031,-0.25463855266571045,-0.6519850492477417,9.951005935668945,1.844035029411316
2_20251106_213426,1762436032892,2,0.27804380655288696,0.2755591869354248,0.5993743538856506,0.6982185244560242,0.5114902853965759,3.3785626888275146,1.5116630792617798,-0.2748422920703888,9.986576080322266,1.5893964767456055,-0.03191386163234711,-0.10475566238164902,0.05209149420261383,21.052927017211914,-29.86313247680664,20.97166633605957,0.3771427571773529,0.03557014465332031,-0.25463855266571045,-0.6519850492477417,9.951005935668945,1.844035029411316
2_20251106_213426,1762436032912,2,0.2784233093261719,0.27623024582862854,0.5987993478775024,0.698295533657074,0.4715878367424011,3.3867604732513428,1.525223970413208,-0.13957569003105164,10.040443420410156,1.5427114963531494,-0.03191386163234711,-0.10475566238164902,0.05209149420261383,21.11273193359375,-29.89548110961914,20.838163375854492,0.34326425194740295,0.060878753662109375,-0.1909317970275879,-0.4828399419784546,9.979564666748047,1.7336432933807373
2_20251106_213426,1762436032930,2,0.27836719155311584,0.2760384976863861,0.5983335971832275,0.6987928152084351,0.4715878367424011,3.3867604732513428,1.525223970413208,-0.13957569003105164,10.040443420410156,1.5427114963531494,-0.09116774052381516,0.029634574428200722,0.006887501105666161,21.198823928833008,-29.888843536376953,20.73346519470215,0.34326425194740295,0.060878753662109375,-0.1909317970275879,-0.4828399419784546,9.979564666748047,1.7336432933807373
2_20251106_213426,1762436032950,2,0.27822795510292053,0.27527013421058655,0.5979148149490356,0.6995094418525696,0.4526711106300354,3.3909494876861572,1.531409502029419,-0.06775273382663727,9.914752960205078,1.559470295906067,-0.11682405322790146,0.03391062840819359,-0.00899498164653778,21.196399688720703,-29.938533782958984,20.678342819213867,0.3320697546005249,-0.051849365234375,-0.13933837413787842,-0.39982250332832336,9.966602325439453,1.6988086700439453
2_20251106_213426,1762436032969,2,0.2782517373561859,0.27435094118118286,0.5973575711250305,0.7003366947174072,0.4366273283958435,3.3943381309509277,1.536582350730896,-0.04740290343761444,9.834550857543945,1.559470295906067,-0.0887242779135704,-0.0491669736802578,0.01971565932035446,21.26830291748047,-29.958614349365234,20.65372657775879,0.2819356918334961,-0.10564136505126953,-0.11147069931030273,-0.32933858036994934,9.940192222595215,1.6709409952163696
2_20251106_213426,1762436032988,2,0.2783961892127991,0.27416011691093445,0.5967231392860413,0.7008946537971497,0.4116091728210449,3.3997530937194824,1.5467430353164673,-0.015082582831382751,9.97939395904541,1.9305555820465088,-0.05085066705942154,-0.027175843715667725,0.05148062855005264,21.3470516204834,-30.077953338623047,20.586938858032227,0.21587149798870087,0.04366779327392578,0.17438912391662598,-0.23095408082008362,9.935726165771484,1.7561664581298828
2_20251106_213426,1762436033007,2,0.27813467383384705,0.27407148480415344,0.5962697267532349,0.7014187574386597,0.4007840156555176,3.4028632640838623,1.551978588104248,0.15370139479637146,10.07994556427002,1.754589319229126,-0.030081268399953842,0.02658025175333023,0.05025889724493027,21.333740234375,-30.115070343017578,20.45049476623535,0.30772438645362854,0.11537551879882812,-0.0012617111206054688,-0.15402299165725708,9.964570045471191,1.7558510303497314
2_20251106_213426,1762436033026,2,0.2775774896144867,0.27374035120010376,0.5960640907287598,0.7019433975219727,0.39155787229537964,3.406006336212158,1.5567452907562256,0.23150959610939026,10.033260345458984,1.6803722381591797,-0.03374645859003067,0.07911462336778641,0.028267765417695045,21.36655044555664,-30.198970794677734,20.28792381286621,0.3084260821342468,0.05495262145996094,-0.06038308143615723,-0.07691647857427597,9.978307723999023,1.740755319595337
2_20251106_213426,1762436033046,2,0.2768673002719879,0.2729874849319458,0.5960410237312317,0.702536404132843,0.3832111060619354,3.4091200828552246,1.5610846281051636,0.2123568207025528,9.968620300292969,1.6001698970794678,-0.03985510393977165,0.09133192151784897,0.022159118205308914,21.32756805419922,-30.251041412353516,20.231332778930664,0.231418639421463,-0.007750511169433594,-0.11246824264526367,-0.019061822444200516,9.976370811462402,1.7126381397247314
2_20251106_213426,1762436033064,2,0.2760969400405884,0.27209579944610596,0.5960429310798645,0.703183650970459,0.3832111060619354,3.4091200828552246,1.5610846281051636,0.2123568207025528,9.968620300292969,1.6001698970794678,-0.04657461494207382,0.08155808597803116,0.048426300287246704,21.32706069946289,-30.263324737548828,20.20403480529785,0.231418639421463,-0.007750511169433594,-0.11246824264526367,-0.019061822444200516,9.976370811462402,1.7126381397247314
2_20251106_213426,1762436033084,2,0.27520883083343506,0.2713940441608429,0.5959245562553406,0.7039029002189636,0.3706209063529968,3.4140987396240234,1.56870698928833,0.32009124755859375,9.918344497680664,1.677978277206421,-0.028248675167560577,0.0998840257525444,0.07652608305215836,21.251434326171875,-30.30630111694336,20.254365921020508,0.232380211353302,-0.035030364990234375,-0.030418038368225098,0.08771104365587234,9.953374862670898,1.708396315574646
2_20251106_213426,1762436033103,2,0.27405300736427307,0.27082449197769165,0.5958553552627563,0.7046314477920532,0.366184264421463,3.416090726852417,1.5715224742889404,0.4529637098312378,9.860885620117188,1.4672974348068237,-0.028248675167560577,0.0998840257525444,0.07652608305215836,21.215877532958984,-30.295719146728516,20.212610244750977,0.2922021448612213,-0.07399177551269531,-0.1928790807723999,0.16076156497001648,9.934877395629883,1.6601765155792236
2_20251106_213426,1762436033122,2,0.27265068888664246,0.270448237657547,0.5958482027053833,0.7053256630897522,0.366184264421463,3.416090726852417,1.5715224742889404,0.4529637098312378,9.860885620117188,1.4672974348068237,-0.012977056205272675,0.021693333983421326,0.11256710439920425,21.103679656982422,-30.35268783569336,20.166593551635742,0.2922021448612213,-0.07399177551269531,-0.1928790807723999,0.16076156497001648,9.934877395629883,1.6601765155792236
2_20251106_213426,1762436033140,2,0.2716030180454254,0.27069756388664246,0.5956157445907593,0.7058303952217102,0.36283013224601746,3.418170928955078,1.5737760066986084,0.5499247312545776,9.931511878967285,1.4505388736724854,-0.032524727284908295,0.02352592721581459,0.08813250809907913,20.993906021118164,-30.359973907470703,20.175695419311523,0.31133052706718445,-0.0026922225952148438,-0.1677100658416748,0.2385942041873932,9.9342041015625,1.6182489395141602
2_20251106_213426,1762436033160,2,0.2707483768463135,0.27076253294944763,0.5953177809715271,0.7063849568367004,0.35975685715675354,3.4217586517333984,1.5783483982086182,0.5750628113746643,9.968620300292969,1.691145658493042,-0.01786397397518158,0.11210131645202637,0.05148062855005264,20.9202823638916,-30.377025604248047,20.145456314086914,0.21629756689071655,0.020111083984375,0.028075695037841797,0.35876524448394775,9.948509216308594,1.6630699634552002
2_20251106_213426,1762436033181,2,0.26962023973464966,0.27003663778305054,0.5953815579414368,0.7070402503013611,0.35922884941101074,3.423401355743408,1.5800457000732422,0.5834420919418335,9.850112915039062,1.4182184934616089,-0.013587920926511288,0.12126428633928299,0.04415024816989899,20.874963760375977,-30.317554473876953,20.1583309173584,0.1797415018081665,-0.07871723175048828,-0.19588124752044678,0.403700590133667,9.92883014678955,1.6140997409820557
2_20251106_213426,1762436033199,2,0.2685391306877136,0.2692851126194,0.5955095887184143,0.7076302766799927,0.35922971367836,3.4247515201568604,1.580957293510437,0.5786539316177368,9.933905601501465,1.4230066537857056,-0.013587920926511288,0.12126428633928299,0.04415024816989899,20.882722854614258,-30.39236831665039,20.18427085876465,0.13996267318725586,0.0040607452392578125,-0.15287446975708008,0.43869125843048096,9.929844856262207,1.5758811235427856
2_20251106_213426,1762436033219,2,0.267707496881485,0.2692759931087494,0.5953094959259033,0.7081170082092285,0.35986417531967163,3.4262216091156006,1.5817770957946777,0.669629693031311,9.972211837768555,1.54151451587677,-0.00809013843536377,-0.021067196503281593,0.10706932097673416,20.77063751220703,-30.43759536743164,20.219614028930664,0.1847507357597351,0.033893585205078125,-0.02749323844909668,0.4848789572715759,9.938318252563477,1.5690077543258667
2_20251106_213426,1762436033236,2,0.26696425676345825,0.2698574960231781,0.5950027704238892,0.708433985710144,0.35986417531967163,3.4262216091156006,1.5817770957946777,0.669629693031311,9.972211837768555,1.54151451587677,-0.006868408992886543,-0.023510657250881195,0.09363029152154922,20.77063751220703,-30.43759536743164,20.219614028930664,0.1847507357597351,0.033893585205078125,-0.02749323844909668,0.4848789572715759,9.938318252563477,1.5690077543258667
2_20251106_213426,1762436033256,2,0.26628026366233826,0.27030614018440247,0.5946720838546753,0.7087979316711426,0.3614824116230011,3.4279801845550537,1.5825715065002441,0.8084874153137207,10.0332612991333,1.5606672763824463,-0.018474839627742767,-0.0033521200530231,0.03681987151503563,20.730852127075195,-30.502361297607422,20.1762752532959,0.25888675451278687,0.07595443725585938,-0.006672382354736328,0.5496006608009338,9.957306861877441,1.5673396587371826
2_20251106_213426,1762436033275,2,0.2658673822879791,0.2704925835132599,0.594353437423706,0.7091489434242249,0.36567071080207825,3.431629180908203,1.5849586725234985,0.6456886529922485,10.006925582885742,1.6636135578155518,-0.02091829851269722,0.07667116075754166,-0.02548833005130291,20.677978515625,-30.580745697021484,20.159212112426758,0.03698074817657471,0.022371292114257812,0.050315141677856445,0.6087079048156738,9.984554290771484,1.6132984161376953
2_20251106_213426,1762436033294,2,0.2653868496417999,0.2695910334587097,0.5942468047142029,0.709761381149292,0.3675917983055115,3.4331777095794678,1.5855472087860107,0.5618952512741089,9.903980255126953,1.3847010135650635,-0.03374645859003067,0.10965786129236221,-0.04503600299358368,20.62883758544922,-30.584461212158203,20.21131706237793,-0.03745013475418091,-0.06445980072021484,-0.1828780174255371,0.5993453860282898,9.968440055847168,1.5675790309906006
2_20251106_213426,1762436033313,2,0.2648986577987671,0.26811662316322327,0.5943819880485535,0.7103887796401978,0.36917614936828613,3.434297800064087,1.5858607292175293,0.5116191506385803,9.840536117553711,1.4780709743499756,-0.06001363694667816,0.06689732521772385,-0.016325360164046288,20.625213623046875,-30.647380828857422,20.223512649536133,-0.07018095254898071,-0.10232257843017578,-0.07160639762878418,0.581800103187561,9.942858695983887,1.5496773719787598
2_20251106_213426,1762436033332,2,0.2648507356643677,0.26738959550857544,0.5943738222122192,0.7106873989105225,0.3706595003604889,3.435107469558716,1.5866385698318481,0.5738657116889954,9.850112915039062,1.7246630191802979,-0.04657461494207382,-0.006406442727893591,0.027656901627779007,20.610530853271484,-30.67477035522461,20.371171951293945,-0.006347537040710449,-0.07419681549072266,0.13998854160308838,0.5802132487297058,9.924309730529785,1.5846744775772095
2_20251106_213426,1762436033352,2,0.2647463083267212,0.26715031266212463,0.5941565632820129,0.7109979391098022,0.3706595003604889,3.435107469558716,1.5866385698318481,0.5738657116889954,9.850112915039062,1.7246630191802979,-0.04657461494207382,-0.006406442727893591,0.027656901627779007,20.605499267578125,-30.762805938720703,20.382841110229492,-0.006347537040710449,-0.07419681549072266,0.13998854160308838,0.5802132487297058,9.924309730529785,1.5846744775772095
2_20251106_213426,1762436033371,2,0.26448118686676025,0.26723042130470276,0.5939033627510071,0.7112780213356018,0.37387341260910034,3.4367661476135254,1.5888413190841675,0.6816002130508423,9.927921295166016,1.5271499156951904,0.019398774951696396,-0.04183659702539444,0.034987278282642365,20.60610580444336,-30.750385284423828,20.39661979675293,0.07714545726776123,-0.00017833709716796875,-0.07071614265441895,0.604454755783081,9.928099632263184,1.5978660583496094
2_20251106_213426,1762436033390,2,0.2642563283443451,0.2673054039478302,0.5937544703483582,0.7114577293395996,0.37551170587539673,3.437495470046997,1.5895906686782837,0.6265358924865723,9.92193603515625,1.5534850358963013,-0.020307432860136032,-0.017402008175849915,0.0020005833357572556,20.60338592529297,-30.800479888916016,20.382047653198242,0.01766490936279297,-0.0049304962158203125,-0.035504817962646484,0.6088709831237793,9.92686653137207,1.5889898538589478
2_20251106_213426,1762436033410,2,0.2642485499382019,0.2672899663448334,0.5936191082000732,0.7115793228149414,0.3767881393432617,3.438122272491455,1.5905203819274902,0.5068309307098389,9.902782440185547,1.6684017181396484,-0.048407211899757385,0.029634572565555573,-0.02182314172387123,20.602272033691406,-30.825191497802734,20.340970993041992,-0.08163201808929443,-0.01926708221435547,0.06352949142456055,0.5884629487991333,9.922049522399902,1.604872226715088
2_20251106_213426,1762436033429,2,0.26420772075653076,0.2666344940662384,0.5934985876083374,0.7119408249855042,0.3776388466358185,3.438589334487915,1.5917224884033203,0.4565548896789551,9.875250816345215,1.7210719585418701,-0.049018073827028275,0.06323213875293732,-0.01876881718635559,20.56753158569336,-30.79030990600586,20.380842208862305,-0.10552644729614258,-0.03743934631347656,0.09295988082885742,0.5620813369750977,9.912690162658691,1.6281120777130127
2_20251106_213426,1762436033446,2,0.26401302218437195,0.2655029594898224,0.5934205055236816,0.712500810623169,0.37811514735221863,3.4387259483337402,1.5927797555923462,0.44458436965942383,9.797442436218262,1.6181256771087646,-0.026416080072522163,0.05590175837278366,0.008720095269382,20.61365509033203,-30.837093353271484,20.35471534729004,-0.09399759769439697,-0.09219837188720703,-0.007989048957824707,0.5385819673538208,9.889640808105469,1.6261147260665894
2_20251106_213426,1762436033465,2,0.26352590322494507,0.26443496346473694,0.593430757522583,0.7130695581436157,0.37848594784736633,3.4384686946868896,1.5935848951339722,0.49964866042137146,9.745969772338867,1.533135175704956,-0.026416080072522163,0.05590175837278366,0.008720095269382,20.54153823852539,-30.828899383544922,20.311487197875977,-0.03114667534828186,-0.11493682861328125,-0.07438361644744873,0.5307953357696533,9.860906600952148,1.6075187921524048
2_20251106_213426,1762436033484,2,0.2631928026676178,0.26419714093208313,0.5933640003204346,0.7133362293243408,0.37898921966552734,3.438260316848755,1.5942966938018799,0.5858362317085266,9.874053955078125,1.588199496269226,-0.010533597320318222,-0.010071631520986557,0.04659371078014374,20.491174697875977,-30.869075775146484,20.241151809692383,0.04403269290924072,0.010518074035644531,-0.015455365180969238,0.5418035387992859,9.86353588104248,1.6036548614501953
2_20251106_213426,1762436033504,2,0.262959748506546,0.264658123254776,0.5931089520454407,0.7134634256362915,0.37898921966552734,3.438260316848755,1.5942966938018799,0.5858362317085266,9.874053955078125,1.588199496269226,-0.014809650368988514,-0.059551674872636795,0.06491965055465698,20.47777557373047,-30.894718170166016,20.213102340698242,0.04403269290924072,0.010518074035644531,-0.015455365180969238,0.5418035387992859,9.86353588104248,1.6036548614501953
2_20251106_213426,1762436033524,2,0.2627459764480591,0.2650846838951111,0.5928049683570862,0.7136363983154297,0.38150906562805176,3.438387870788574,1.5959382057189941,0.7665907144546509,9.965028762817383,1.674386978149414,-0.014809650368988514,-0.059551674872636795,0.06491965055465698,20.41814422607422,-30.885318756103516,20.12981605529785,0.15382325649261475,0.07338237762451172,0.054270386695861816,0.6127674579620361,9.891646385192871,1.6201165914535522
2_20251106_213426,1762436033542,2,0.26262661814689636,0.2651526629924774,0.5924153327941895,0.7139785885810852,0.38311225175857544,3.4386816024780273,1.5970797538757324,0.7378615140914917,9.94108772277832,1.771347999572754,-0.04046596586704254,-0.017402010038495064,0.025824306532740593,20.415620803833008,-30.93514633178711,20.088212966918945,0.10007524490356445,0.03955268859863281,0.12098503112792969,0.6377862691879272,9.901535034179688,1.6503629684448242
2_20251106_213426,1762436033562,2,0.26256805658340454,0.26469168066978455,0.5919978618621826,0.7145172357559204,0.3846724331378937,3.439049243927002,1.5982617139816284,0.6528710126876831,9.937498092651367,1.6899486780166626,-0.06245709955692291,0.06323213875293732,-0.03587302565574646,20.427001953125,-30.947040557861328,20.101957321166992,0.012067794799804688,0.02877044677734375,0.03166854381561279,0.6408032178878784,9.908727645874023,1.6582801342010498
2_20251106_213426,1762436033581,2,0.26243284344673157,0.26375865936279297,0.5916745066642761,0.715179443359375,0.3862358629703522,3.439357280731201,1.5994527339935303,0.6133683919906616,9.88243293762207,1.6396725177764893,-0.06245709955692291,0.06323213875293732,-0.03587302565574646,20.471208572387695,-31.03122329711914,20.048006057739258,-0.021947860717773438,-0.021036148071289062,-0.014886140823364258,0.6353162527084351,9.90346908569336,1.6545586585998535
2_20251106_213426,1762436033600,2,0.26251327991485596,0.2634647786617279,0.5913712978363037,0.7155089378356934,0.3878036141395569,3.4397315979003906,1.6012340784072876,0.6624473333358765,9.930315017700195,1.8683090209960938,-0.01786397397518158,-0.08337539434432983,0.03193295747041702,20.49356460571289,-31.06717300415039,20.034677505493164,0.02170485258102417,0.02147674560546875,0.17100036144256592,0.6407424807548523,9.908838272094727,1.6973086595535278
2_20251106_213426,1762436033619,2,0.2626993954181671,0.2639414668083191,0.5910417437553406,0.7155372500419617,0.3894718289375305,3.4403419494628906,1.6034882068634033,0.7330732941627502,10.008123397827148,1.9329497814178467,0.0016836971044540405,-0.08154279738664627,0.0331546813249588,20.49195671081543,-31.09255599975586,20.061182022094727,0.0738646388053894,0.07942771911621094,0.18851280212402344,0.6592086553573608,9.928695678710938,1.7444369792938232
2_20251106_213426,1762436033640,2,0.2627449929714203,0.2642998695373535,0.590617835521698,0.7157382369041443,0.39163148403167725,3.44152569770813,1.6062060594558716,0.7809552550315857,10.090719223022461,1.849156141281128,-0.000759761780500412,-0.02900843694806099,0.014217877760529518,20.49195671081543,-31.09255599975586,20.061182022094727,0.09739726781845093,0.12961959838867188,0.08377528190612793,0.6835579872131348,9.961099624633789,1.765380859375
2_20251106_213426,1762436033657,2,0.2625565528869629,0.2642146050930023,0.590285062789917,0.716113269329071,0.3936062157154083,3.442783832550049,1.6083356142044067,0.8264431357383728,10.1194486618042,1.7833185195922852,-0.000759761780500412,-0.023510657250881195,0.008109230548143387,20.47995376586914,-31.104694366455078,19.938779830932617,0.11430811882019043,0.1266794204711914,0.014350056648254395,0.7121350169181824,9.992769241333008,1.7689684629440308
2_20251106_213426,1762436033676,2,0.26248303055763245,0.26430627703666687,0.5900165438652039,0.7163276672363281,0.395990252494812,3.444615125656128,1.6110169887542725,0.8168667554855347,10.17331600189209,1.9221763610839844,-0.000759761780500412,-0.023510657250881195,0.008109230548143387,20.47995376586914,-31.104694366455078,19.938779830932617,0.08378535509109497,0.1444377899169922,0.12256622314453125,0.7330814003944397,10.028878211975098,1.7996101379394531
2_20251106_213426,1762436033695,2,0.2624872326850891,0.2646041214466095,0.589888870716095,0.7163212895393372,0.39836999773979187,3.4469614028930664,1.6137856245040894,0.7749700546264648,10.249926567077637,1.880279541015625,0.05421806126832962,-0.025954116135835648,-0.011438440531492233,20.47884178161621,-31.129405975341797,19.897703170776367,0.03351092338562012,0.17683887481689453,0.06453561782836914,0.7414591312408447,10.073087692260742,1.8157439231872559
2_20251106_213426,1762436033714,2,0.26238733530044556,0.26470664143562317,0.5899676084518433,0.7162551879882812,0.40090006589889526,3.449967622756958,1.6158769130706787,0.8396106958389282,10.356464385986328,1.6193227767944336,0.05421806126832962,-0.025954116135835648,-0.011438440531492233,20.458091735839844,-31.068073272705078,19.8845272064209,0.0785212516784668,0.2267007827758789,-0.1571369171142578,0.7610894441604614,10.12976360321045,1.7764596939086914
2_20251106_213426,1762436033733,2,0.26217716932296753,0.26488715410232544,0.5902384519577026,0.7160422801971436,0.4035617411136627,3.4536361694335938,1.6175343990325928,0.855172336101532,10.425893783569336,1.6564311981201172,0.07437659800052643,-0.030230168253183365,0.00016798917204141617,20.467458724975586,-31.117504119873047,19.883962631225586,0.07526630163192749,0.23690414428710938,-0.09602272510528564,0.7799060344696045,10.188989639282227,1.7524539232254028
2_20251106_213426,1762436033752,2,0.26233023405075073,0.2661033868789673,0.5905899405479431,0.7152449488639832,0.40647417306900024,3.4580206871032715,1.6192396879196167,0.9198130369186401,10.516868591308594,1.800077199935913,0.09209167957305908,-0.10903171449899673,0.015439607203006744,20.494848251342773,-31.065418243408203,19.85896873474121,0.11192560195922852,0.26230335235595703,0.038098692893981934,0.8078874349594116,10.254565238952637,1.7619785070419312
2_20251106_213426,1762436033772,2,0.26278963685035706,0.2677581012248993,0.5909425020217896,0.7141667604446411,0.40647417306900024,3.4580206871032715,1.6192396879196167,0.9198130369186401,10.516868591308594,1.800077199935913,0.137295663356781,-0.1407966911792755,-0.024877464398741722,20.495044708251953,-31.06515121459961,19.831937789916992,0.11192560195922852,0.26230335235595703,0.038098692893981934,0.8078874349594116,10.254565238952637,1.7619785070419312
2_20251106_213426,1762436033792,2,0.2632179856300354,0.26895660161972046,0.5913842916488647,0.713192343711853,0.4100196957588196,3.4638407230377197,1.6215109825134277,0.953330397605896,10.617420196533203,1.905417561531067,0.137295663356781,-0.1407966911792755,-0.024877464398741722,20.55527114868164,-31.073734283447266,19.83412742614746,0.11635434627532959,0.2902841567993164,0.11475121974945068,0.8369760513305664,10.327136039733887,1.7906663417816162
2_20251106_213426,1762436033810,2,0.2636220455169678,0.26934993267059326,0.5920630693435669,0.7123309373855591,0.4166867733001709,3.4748728275299072,1.6249796152114868,0.8958719968795776,10.46419906616211,1.70670747756958,0.14462603628635406,-0.07604501396417618,-0.1268918812274933,20.595563888549805,-30.996685028076172,19.90476417541504,0.0237119197845459,0.07124900817871094,-0.06522548198699951,0.8721600770950317,10.392950057983398,1.7719329595565796
2_20251106_213426,1762436033830,2,0.26428091526031494,0.26963505148887634,0.5929135084152222,0.7112707495689392,0.41973868012428284,3.48056960105896,1.6263842582702637,0.7677876949310303,10.415120124816895,1.700722098350525,0.16539543867111206,-0.12552505731582642,-0.13972003757953644,20.616214752197266,-31.058155059814453,19.931455612182617,-0.08349794149398804,0.01773548126220703,-0.05696868896484375,0.8512856364250183,10.397384643554688,1.7576907873153687
2_20251106_213426,1762436033849,2,0.26530706882476807,0.27017489075660706,0.5938723683357239,0.7098825573921204,0.4218238592147827,3.4856905937194824,1.6276565790176392,0.6073830723762512,10.389982223510742,1.7593774795532227,0.1989929974079132,-0.177448570728302,-0.1305570751428604,20.70534896850586,-30.977794647216797,19.990537643432617,-0.19512206315994263,-0.0059223175048828125,0.0013494491577148438,0.8025051355361938,10.395904541015625,1.7580280303955078
2_20251106_213426,1762436033868,2,0.26644453406333923,0.27092623710632324,0.5949713587760925,0.7082481384277344,0.4230726659297943,3.49017596244812,1.6285250186920166,0.5475306510925293,10.345691680908203,1.6456577777862549,0.2307579666376114,-0.16889646649360657,-0.11956150084733963,20.804656982421875,-30.93417739868164,20.035802841186523,-0.20397961139678955,-0.04017066955566406,-0.08989620208740234,0.7515102624893188,10.385862350463867,1.7355539798736572
2_20251106_213426,1762436033886,2,0.26749470829963684,0.27149608731269836,0.5962526202201843,0.7065544724464417,0.4237915575504303,3.4942777156829834,1.6285316944122314,0.5571070313453674,10.241548538208008,1.4206125736236572,0.22770364582538605,-0.15423570573329926,-0.11284198611974716,20.859844207763672,-30.817852020263672,20.02662467956543,-0.15552258491516113,-0.11545085906982422,-0.251953125,0.7126296162605286,10.356999397277832,1.6725656986236572
2_20251106_213426,1762436033906,2,0.26842716336250305,0.2719840705394745,0.5976262092590332,0.7048506736755371,0.4237915575504303,3.4942777156829834,1.6285316944122314,0.5571070313453674,10.241548538208008,1.4206125736236572,0.2093776911497116,-0.16828559339046478,-0.09512690454721451,20.98653793334961,-30.72214126586914,20.046892166137695,-0.15552258491516113,-0.11545085906982422,-0.251953125,0.7126296162605286,10.356999397277832,1.6725656986236572
2_20251106_213426,1762436033925,2,0.26941752433776855,0.2728717029094696,0.5989075899124146,0.703039824962616,0.42418259382247925,3.5004968643188477,1.6268482208251953,0.6385064125061035,10.151769638061523,1.5271499156951904,0.21059943735599518,-0.18600066006183624,-0.08901826292276382,21.07718276977539,-30.616527557373047,20.092985153198242,-0.0365217924118042,-0.13651752471923828,-0.07621169090270996,0.6750282049179077,10.288287162780762,1.6033616065979004
2_20251106_213426,1762436033943,2,0.27048224210739136,0.27395009994506836,0.6000462174415588,0.7012383341789246,0.42418259382247925,3.5004968643188477,1.6268482208251953,0.6385064125061035,10.151769638061523,1.5271499156951904,0.21059943735599518,-0.18600066006183624,-0.08901826292276382,21.208417892456055,-30.433460235595703,20.169164657592773,-0.0365217924118042,-0.13651752471923828,-0.07621169090270996,0.6750282049179077,10.288287162780762,1.6033616065979004
2_20251106_213426,1762436033963,2,0.27145397663116455,0.27517780661582947,0.6012528538703918,0.6993460655212402,0.42466026544570923,3.5040252208709717,1.6242700815200806,0.7211028337478638,10.02129077911377,1.3727306127548218,0.2918444275856018,-0.22509601712226868,-0.10856593400239944,21.31386947631836,-30.277095794677734,20.243837356567383,0.03274369239807129,-0.1827526092529297,-0.17556703090667725,0.6883591413497925,10.2040433883667,1.548297643661499
2_20251106_213426,1762436033982,2,0.2724531292915344,0.27656033635139465,0.6025822162628174,0.6972648501396179,0.42491769790649414,3.504601240158081,1.6218589544296265,0.678009033203125,9.933906555175781,1.267390251159668,0.26802074909210205,-0.1939419060945511,-0.14582869410514832,21.43372344970703,-30.08212661743164,20.306276321411133,-0.00828009843826294,-0.2161092758178711,-0.22472596168518066,0.6862891316413879,10.150015830993652,1.4921162128448486
2_20251106_213426,1762436034001,2,0.27358976006507874,0.2776528298854828,0.6039993762969971,0.6951562762260437,0.42449015378952026,3.504183292388916,1.6190105676651,0.4457814395427704,9.808216094970703,1.2470403909683228,0.24114267528057098,-0.13835321366786957,-0.20691516995429993,21.4775390625,-29.94229507446289,20.378232955932617,-0.19240614771842957,-0.2734403610229492,-0.19606077671051025,0.6381875872612,10.081656455993652,1.443101167678833
2_20251106_213426,1762436034021,2,0.27485257387161255,0.2779577672481537,0.6056077480316162,0.693134069442749,0.42266279458999634,3.5024712085723877,1.6154217720031738,0.12018401175737381,9.602322578430176,1.1213502883911133,0.21304288506507874,-0.08398625999689102,-0.2282954305410385,21.609577178955078,-29.746532440185547,20.441160202026367,-0.41440290212631226,-0.3834676742553711,-0.2574007511138916,0.5345869064331055,9.985790252685547,1.3787510395050049
2_20251106_213426,1762436034039,2,0.2761087119579315,0.2773807644844055,0.6073296070098877,0.6913570761680603,0.42266279458999634,3.5024712085723877,1.6154217720031738,0.12018401175737381,9.602322578430176,1.1213502883911133,0.21670807898044586,-0.12247073650360107,-0.17453932762145996,21.705663681030273,-29.540729522705078,20.51639747619629,-0.41440290212631226,-0.3834676742553711,-0.2574007511138916,0.5345869064331055,9.985790252685547,1.3787510395050049
2_20251106_213426,1762436034059,2,0.277410626411438,0.2770295739173889,0.6090713739395142,0.6894418001174927,0.4129178822040558,3.494050979614258,1.605603575706482,-0.36102983355522156,9.27193832397461,0.9968571066856384,0.2197623997926712,-0.16339868307113647,-0.056642428040504456,21.835994720458984,-29.370487213134766,20.619348526000977,-0.6000086069107056,-0.47314453125,-0.24613600969314575,0.238978773355484,9.74508285522461,1.2429931163787842
2_20251106_213426,1762436034079,2,0.2782900631427765,0.27721652388572693,0.6106670498847961,0.6875982880592346,0.4061613082885742,3.48803973197937,1.5995829105377197,-0.24850720167160034,9.23243522644043,0.8149056434631348,0.2405318170785904,-0.18355722725391388,0.07286088913679123,21.941547393798828,-29.213985443115234,20.680505752563477,-0.3899887800216675,-0.41011810302734375,-0.3424699306488037,0.14148157835006714,9.642553329467773,1.1573755741119385
2_20251106_213426,1762436034097,2,0.27849313616752625,0.2780771255493164,0.6120626926422119,0.6859256029129028,0.39924731850624084,3.481318712234497,1.5927529335021973,-0.03902354836463928,9.274331092834473,0.7526590824127197,0.23992092907428741,-0.22020910680294037,0.16326886415481567,21.941547393798828,-29.213985443115234,20.680505752563477,-0.1444041132926941,-0.29457759857177734,-0.3237731456756592,0.10538055747747421,9.56890869140625,1.076432228088379
2_20251106_213426,1762436034115,2,0.27799415588378906,0.2808472812175751,0.6127390265464783,0.6843938827514648,0.39330288767814636,3.474886417388916,1.5858234167099,0.21834206581115723,9.413189888000488,0.7586443424224854,0.21243201196193695,-0.20677007734775543,0.1883143186569214,22.007709503173828,-29.121707916259766,20.644258499145508,0.09036920964717865,-0.12457466125488281,-0.254230260848999,0.12797285616397858,9.537764549255371,1.0128746032714844
2_20251106_213426,1762436034134,2,0.27736011147499084,0.28368818759918213,0.6131631135940552,0.6830983757972717,0.38801026344299316,3.4683735370635986,1.5778355598449707,0.3715643882751465,9.514938354492188,0.6341511011123657,0.19105175137519836,-0.1579008847475052,0.15288415551185608,22.142868041992188,-29.088260650634766,20.69072914123535,0.19487322866916656,-0.018260955810546875,-0.3029788136482239,0.17669115960597992,9.533199310302734,0.9371299147605896
2_20251106_213426,1762436034154,2,0.2767091393470764,0.28599146008491516,0.6136403679847717,0.6819725036621094,0.38801026344299316,3.4683735370635986,1.5778355598449707,0.3715643882751465,9.514938354492188,0.6341511011123657,0.13363046944141388,-0.10536652058362961,0.09790634363889694,22.295135498046875,-28.977733612060547,20.6446590423584,0.19487322866916656,-0.018260955810546875,-0.3029788136482239,0.17669115960597992,9.533199310302734,0.9371299147605896
2_20251106_213426,1762436034173,2,0.27631959319114685,0.28758013248443604,0.6140027046203613,0.6811357140541077,0.380306601524353,3.456693172454834,1.5598481893539429,0.4409932494163513,9.626264572143555,0.6724567413330078,0.13363046944141388,-0.10536652058362961,0.09790634363889694,22.409347534179688,-28.883220672607422,20.704984664916992,0.16264137625694275,0.059945106506347656,-0.15330249071121216,0.27835187315940857,9.566319465637207,0.82575923204422
2_20251106_213426,1762436034192,2,0.27636975049972534,0.2886996865272522,0.6142957210540771,0.6803771257400513,0.37704142928123474,3.4516263008117676,1.5512229204177856,0.2506623864173889,9.596338272094727,0.7227327823638916,0.10553070157766342,-0.10842084139585495,0.016050472855567932,22.467853546142578,-28.928936004638672,20.652315139770508,-0.022151589393615723,0.024015426635742188,-0.0824211835861206,0.27281397581100464,9.572322845458984,0.8051539659500122
2_20251106_213426,1762436034211,2,0.27651742100715637,0.2896779179573059,0.6147105693817139,0.6795260906219482,0.3736882507801056,3.447147846221924,1.54232656955719,0.18123352527618408,9.694496154785156,0.5491606593132019,0.11652626097202301,-0.11452949792146683,0.048426300287246704,22.541278839111328,-28.912151336669922,20.709585189819336,-0.07326436042785645,0.09773826599121094,-0.20479464530944824,0.2544978857040405,9.596757888793945,0.7539553046226501
2_20251106_213426,1762436034230,2,0.2765674293041229,0.2909410893917084,0.6150619983673096,0.678647518157959,0.3708534836769104,3.4435951709747314,1.5329585075378418,0.3823378086090088,9.852506637573242,0.41987931728363037,0.09392426908016205,-0.12552505731582642,0.09668461233377457,22.517105102539062,-28.913471221923828,20.681570053100586,0.10227194428443909,0.20459938049316406,-0.2672607898712158,0.2800658643245697,9.647907257080078,0.6871401071548462
2_20251106_213426,1762436034249,2,0.27636241912841797,0.29242944717407227,0.6151672005653381,0.6779956817626953,0.36909133195877075,3.4411263465881348,1.5236934423446655,0.6193536520004272,9.97819709777832,0.5539488792419434,0.09392426908016205,-0.12552505731582642,0.09668461233377457,22.533817291259766,-28.836933135986328,20.643095016479492,0.27143022418022156,0.26423168182373047,-0.10655301809310913,0.3479234278202057,9.71396541595459,0.6605018973350525
2_20251106_213426,1762436034269,2,0.2763918340206146,0.2942456901073456,0.6150457262992859,0.6773077249526978,0.36909133195877075,3.4411263465881348,1.5236934423446655,0.6193536520004272,9.97819709777832,0.5539488792419434,0.07132227718830109,-0.1469053328037262,0.05636754631996155,22.52334976196289,-28.800594329833984,20.69746208190918,0.27143022418022156,0.26423168182373047,-0.10655301809310913,0.3479234278202057,9.71396541595459,0.6605018973350525
2_20251106_213426,1762436034290,2,0.27663296461105347,0.2956885099411011,0.6150000691413879,0.6766220927238464,0.3695584535598755,3.440645933151245,1.5058832168579102,0.8779162764549255,10.332523345947266,0.6628803014755249,0.04688768461346626,-0.08459711819887161,-0.026710057631134987,22.52495765686035,-28.775211334228516,20.670957565307617,0.35221928358078003,0.41751956939697266,0.00573575496673584,0.5256969928741455,9.915003776550293,0.6571445465087891
2_20251106_213426,1762436034307,2,0.2770432233810425,0.29615163803100586,0.6151907444000244,0.6760781407356262,0.3711856007575989,3.442376136779785,1.4982370138168335,0.8779162168502808,10.430681228637695,0.6281659603118896,0.04383336380124092,-0.04611264914274216,-0.10367900878190994,22.44903564453125,-28.818592071533203,20.761838912963867,0.28177541494369507,0.41254234313964844,-0.02318286895751953,0.5961408019065857,10.018138885498047,0.6513488292694092
2_20251106_213426,1762436034325,2,0.27778565883636475,0.29597777128219604,0.6156405210494995,0.6754398345947266,0.37357065081596375,3.445883274078369,1.490203857421875,0.8707339763641357,10.664106369018555,0.5180373787879944,0.05482892692089081,-0.03572795167565346,-0.15315906703472137,22.49626922607422,-28.84066390991211,20.77678871154785,0.21967452764511108,0.5167741775512695,-0.10664916038513184,0.6510594487190247,10.147332191467285,0.6246865391731262
2_20251106_213426,1762436034345,2,0.27865445613861084,0.2953936457633972,0.616372287273407,0.6746698617935181,0.37357065081596375,3.445883274078369,1.490203857421875,0.8707339763641357,10.664106369018555,0.5180373787879944,0.06093757599592209,-0.09742528200149536,-0.1525481939315796,22.487621307373047,-28.76706314086914,20.872495651245117,0.21967452764511108,0.5167741775512695,-0.10664916038513184,0.6510594487190247,10.147332191467285,0.6246865391731262
2_20251106_213426,1762436034365,2,0.2799217700958252,0.295295774936676,0.6169642806053162,0.6736462712287903,0.37699344754219055,3.4527957439422607,1.4806008338928223,0.8683398962020874,10.977733612060547,0.41628819704055786,0.1171371340751648,-0.20982439815998077,-0.09757036715745926,22.53717041015625,-28.75119400024414,20.861204147338867,0.17382436990737915,0.6643218994140625,-0.16671866178512573,0.6945155262947083,10.313411712646484,0.5830068588256836
2_20251106_213426,1762436034383,2,0.2813256084918976,0.2963946759700775,0.6174778342247009,0.6721065640449524,0.3838052451610565,3.471726894378662,1.4666481018066406,1.0383208990097046,11.856367111206055,0.7562502026557922,0.1171371340751648,-0.20982439815998077,-0.09757036715745926,22.55207633972168,-28.700305938720703,20.876264572143555,0.24531710147857666,1.0600805282592773,0.13022011518478394,0.7930037975311279,10.796286582946777,0.6260300874710083
2_20251106_213426,1762436034403,2,0.28259551525115967,0.2983080744743347,0.6182190179824829,0.6700427532196045,0.38926735520362854,3.4871716499328613,1.4598475694656372,1.3052629232406616,12.100564956665039,0.6748508810997009,0.20143644511699677,-0.26724568009376526,-0.057864151895046234,22.63475799560547,-28.744701385498047,20.85161018371582,0.40980732440948486,1.0434226989746094,0.039056599140167236,0.8954555988311768,11.05714225769043,0.6357942819595337
2_20251106_213426,1762436034421,2,0.2835890054702759,0.3004857301712036,0.6194472312927246,0.6675108075141907,0.39534449577331543,3.503255844116211,1.4540379047393799,1.4668645858764648,12.226255416870117,0.637742280960083,0.3651481866836548,-0.3112279176712036,-0.08352047950029373,22.78712272644043,-28.634037017822266,20.792024612426758,0.4571272134780884,0.9352912902832031,0.0015583634376525879,1.0097373723983765,11.290964126586914,0.6361839175224304
2_20251106_213426,1762436034440,2,0.2848125100135803,0.3030700981616974,0.6210876107215881,0.6642895340919495,0.4030244052410126,3.5219802856445312,1.4477664232254028,1.5877665281295776,12.237029075622559,0.47374653816223145,0.3651481866836548,-0.3112279176712036,-0.08352047950029373,22.854705810546875,-28.50503158569336,20.85118293762207,0.46242332458496094,0.7568521499633789,-0.1299499273300171,1.1253432035446167,11.48017692565918,0.6036964654922485
2_20251106_213426,1762436034459,2,0.28627288341522217,0.3059435188770294,0.6231931447982788,0.6603610515594482,0.41155290603637695,3.5412309169769287,1.4414849281311035,1.5745989084243774,12.013179779052734,0.4857170581817627,0.5013710260391235,-0.4040793776512146,-0.16476550698280334,22.984813690185547,-28.358287811279297,20.791410446166992,0.3594045639038086,0.42640209197998047,-0.09438353776931763,1.2151943445205688,11.586777687072754,0.5801005959510803
2_20251106_213426,1762436034479,2,0.28803932666778564,0.3089776337146759,0.6256409883499146,0.6558502316474915,0.41155290603637695,3.5412309169769287,1.4414849281311035,1.5745989084243774,12.013179779052734,0.4857170581817627,0.5013710260391235,-0.4040793776512146,-0.16476550698280334,22.984813690185547,-28.358287811279297,20.791410446166992,0.3594045639038086,0.42640209197998047,-0.09438353776931763,1.2151943445205688,11.586777687072754,0.5801005959510803
2_20251106_213426,1762436034499,2,0.2901417016983032,0.31199800968170166,0.628313422203064,0.6509203314781189,0.43036746978759766,3.578329563140869,1.4283565282821655,1.3184304237365723,11.244674682617188,0.48811113834381104,0.5368011593818665,-0.4285139739513397,-0.20935863256454468,23.23175811767578,-28.067081451416016,20.820051193237305,0.029680848121643066,-0.2863636016845703,-0.056383371353149414,1.2887495756149292,11.531038284301758,0.5444945096969604
2_20251106_213426,1762436034520,2,0.29257291555404663,0.31462034583091736,0.6312647461891174,0.6456933617591858,0.43844422698020935,3.5928947925567627,1.4210166931152344,0.9569215178489685,10.67009162902832,0.2882038950920105,0.5649009346961975,-0.4334008991718292,-0.32969897985458374,23.23175811767578,-28.067081451416016,20.820051193237305,-0.2654624581336975,-0.6887569427490234,-0.20503246784210205,1.222383975982666,11.358848571777344,0.49323636293411255
2_20251106_213426,1762436034536,2,0.2953401505947113,0.31692278385162354,0.6343814730644226,0.6402298808097839,0.4433964788913727,3.6007649898529053,1.4152096509933472,0.7629995346069336,9.985379219055176,0.23912487924098969,0.5649009346961975,-0.4334008991718292,-0.32969897985458374,23.439619064331055,-27.828075408935547,20.80561637878418,-0.36750757694244385,-1.098775863647461,-0.203289195895195,1.1305071115493774,11.084155082702637,0.4424140751361847
2_20251106_213426,1762436034556,2,0.29836663603782654,0.31928977370262146,0.6373307108879089,0.6346975564956665,0.4478835165500641,3.6052205562591553,1.409053087234497,0.6720237731933594,9.47543716430664,0.6856243014335632,0.5496293306350708,-0.4553920030593872,-0.3321424126625061,23.73078155517578,-27.609432220458984,20.875185012817383,-0.3667867183685303,-1.2869739532470703,0.19456815719604492,1.0388104915618896,10.762411117553711,0.4910561442375183
2_20251106_213426,1762436034576,2,0.30174511671066284,0.32195189595222473,0.6401898860931396,0.6288511753082275,0.4478835165500641,3.6052205562591553,1.409053087234497,0.6720237731933594,9.47543716430664,0.6856243014335632,0.6663044691085815,-0.5134242177009583,-0.40727877616882324,23.968963623046875,-27.256366729736328,20.91817283630371,-0.3667867183685303,-1.2869739532470703,0.19456815719604492,1.0388104915618896,10.762411117553711,0.4910561442375183
2_20251106_213426,1762436034593,2,0.3051682710647583,0.3243628442287445,0.6437844634056091,0.6222561001777649,0.44946491718292236,3.5988664627075195,1.398261547088623,-0.2461131066083908,8.489067077636719,0.12181402742862701,0.6663044691085815,-0.5134242177009583,-0.40727877616882324,24.214706420898438,-26.978382110595703,21.014131546020508,-0.920030415058136,-1.5338497161865234,-0.3106277585029602,0.673917293548584,10.022916793823242,0.4324418008327484
2_20251106_213426,1762436034613,2,0.3086889386177063,0.32562461495399475,0.6478127837181091,0.6156446933746338,0.44946491718292236,3.5988664627075195,1.398261547088623,-0.2461131066083908,8.489067077636719,0.12181402742862701,0.5410772562026978,-0.3258886933326721,-0.5410581827163696,24.574539184570312,-26.629253387451172,20.994176864624023,-0.920030415058136,-1.5338497161865234,-0.3106277585029602,0.673917293548584,10.022916793823242,0.4324418008327484
2_20251106_213426,1762436034633,2,0.31220313906669617,0.3256305754184723,0.651650607585907,0.6097913384437561,0.43366771936416626,3.5715415477752686,1.3812888860702515,-1.5736408233642578,7.823507308959961,-0.4527696967124939,0.4512801170349121,-0.23670245707035065,-0.4824151396751404,24.987865447998047,-26.17770767211914,21.099943161010742,-1.5441606044769287,-1.4484176635742188,-0.6065647006034851,-0.029480189085006714,9.27192497253418,0.1537950038909912
2_20251106_213426,1762436034650,2,0.31510668992996216,0.32507407665252686,0.6551270484924316,0.6048496961593628,0.41983938217163086,3.553649663925171,1.3704583644866943,-1.9147999286651611,7.667890548706055,-0.9172248244285583,0.43845194578170776,-0.2086026817560196,-0.30770784616470337,25.415971755981445,-25.69863510131836,21.044530868530273,-1.5082558393478394,-1.2832279205322266,-0.8568158745765686,-0.40654411911964417,8.951118469238281,-0.06040894240140915
2_20251106_213426,1762436034669,2,0.3168807029724121,0.3252585530281067,0.6581510901451111,0.6005253195762634,0.40154558420181274,3.5322234630584717,1.3558545112609863,-2.0201401710510254,7.681058406829834,-1.4247736930847168,0.42440205812454224,-0.250752329826355,-0.08229874819517136,25.815391540527344,-25.285015106201172,21.09494972229004,-1.290876865386963,-1.0160479545593262,-1.0914918184280396,-0.7292633056640625,8.69710636138916,-0.33328187465667725
2_20251106_213426,1762436034690,2,0.3177717626094818,0.327131062746048,0.6602849960327148,0.596682608127594,0.3787848949432373,3.5066897869110107,1.3360998630523682,-1.789109706878662,7.791187286376953,-1.652213215827942,0.3645373582839966,-0.3203909397125244,0.147386372089386,26.12790298461914,-24.902332305908203,21.168439865112305,-0.8478771448135376,-0.7247352600097656,-1.055145025253296,-0.9412325620651245,8.515922546386719,-0.5970681309700012
2_20251106_213426,1762436034709,2,0.31796368956565857,0.33068665862083435,0.6612034440040588,0.5935953259468079,0.3787848949432373,3.5066897869110107,1.3360998630523682,-1.789109706878662,7.791187286376953,-1.652213215827942,0.24175353348255157,-0.3405494689941406,0.31903940439224243,26.39145851135254,-24.534717559814453,21.1721248626709,-0.8478771448135376,-0.7247352600097656,-1.055145025253296,-0.9412325620651245,8.515922546386719,-0.5970681309700012
2_20251106_213426,1762436034728,2,0.31767043471336365,0.33513331413269043,0.6608038544654846,0.5917004942893982,0.3574702739715576,3.482621908187866,1.3151062726974487,-1.178614616394043,8.1981840133667,-1.6234838962554932,0.0908699482679367,-0.30756276845932007,0.332478404045105,26.66257667541504,-24.242183685302734,21.22878074645996,-0.18990564346313477,-0.25419044494628906,-0.8211326599121094,-0.9887089729309082,8.452374458312988,-0.8023512363433838
