session_id,timestamp,label,quaternion_w,quaternion_x,quaternion_y,quaternion_z,position_x,position_y,position_z,accelerometer_x,accelerometer_y,accelerometer_z,gyroscope_x,gyroscope_y,gyroscope_z,magnetometer_x,magnetometer_y,magnetometer_z,linear_acceleration_x,linear_acceleration_y,linear_acceleration_z,gravity_x,gravity_y,gravity_z
3_20251106_182757,1762424840075,3,0.21506962180137634,0.4446184039115906,0.7123565077781677,0.49860575795173645,0.7657437920570374,1.7673938274383545,-2.137683153152466,1.9504725933074951,8.958311080932617,-4.110952377319336,0.01091157179325819,-0.03579285740852356,0.08430314809083939,22.16515350341797,-10.533714294433594,22.526905059814453,-0.026639819145202637,0.06305217742919922,-0.017805099487304688,1.9771124124526978,8.895258903503418,-4.093147277832031
3_20251106_182757,1762424840093,3,0.21412032842636108,0.44590964913368225,0.7117207646369934,0.4987691640853882,0.7657437920570374,1.7673938274383545,-2.137683153152466,1.9504725933074951,8.958311080932617,-4.110952377319336,0.004192059859633446,-0.008914806880056858,0.061701156198978424,22.13917350769043,-10.560684204101562,22.55242919921875,-0.026639819145202637,0.06305217742919922,-0.017805099487304688,1.9771124124526978,8.895258903503418,-4.093147277832031
3_20251106_182757,1762424840113,3,0.21317991614341736,0.4467952251434326,0.7111854553222656,0.4991428852081299,0.7728958129882812,1.7713481187820435,-2.1398613452911377,1.912166953086853,8.990631103515625,-4.1037702560424805,-0.018409933894872665,0.01979583501815796,0.03604483604431152,22.12607192993164,-10.585914611816406,22.483829498291016,-0.0434802770614624,0.06065559387207031,-0.008905410766601562,1.9556472301483154,8.929975509643555,-4.094864845275879
3_20251106_182757,1762424840132,3,0.21234829723834991,0.44726142287254333,0.7107194662094116,0.49974319338798523,0.7757313847541809,1.7733708620071411,-2.1407577991485596,1.841541051864624,8.979856491088867,-4.058282852172852,-0.018409933894872665,0.01979583501815796,0.03604483604431152,22.122238159179688,-10.660720825195312,22.428180694580078,-0.09128499031066895,0.03990459442138672,0.029265880584716797,1.932826042175293,8.93995189666748,-4.087548732757568
3_20251106_182757,1762424840151,3,0.2116210162639618,0.44762393832206726,0.7102541923522949,0.5003882050514221,0.7757313847541809,1.7733708620071411,-2.1407577991485596,1.841541051864624,8.979856491088867,-4.058282852172852,-0.0165773406624794,0.011243728920817375,0.04948386177420616,22.14741325378418,-10.646438598632812,22.415908813476562,-0.09128499031066895,0.03990459442138672,0.029265880584716797,1.932826042175293,8.93995189666748,-4.087548732757568
3_20251106_182757,1762424840171,3,0.21092620491981506,0.4481014609336853,0.7097910642623901,0.5009110569953918,0.7802400588989258,1.7773716449737549,-2.1417672634124756,1.834358811378479,8.939157485961914,-3.9816713333129883,0.012133301235735416,-0.009525671601295471,0.08491401374340057,22.1339168548584,-10.672210693359375,22.40137481689453,-0.06014597415924072,-0.004914283752441406,0.07216691970825195,1.8945047855377197,8.944071769714355,-4.05383825302124
3_20251106_182757,1762424840190,3,0.2101263850927353,0.4488665461540222,0.7092981934547424,0.5012602210044861,0.7822745442390442,1.779183268547058,-2.141798973083496,1.9337137937545776,8.951128005981445,-3.9445624351501465,0.012133301235735416,-0.009525671601295471,0.08491401374340057,22.15707778930664,-10.695465087890625,22.374794006347656,0.03136718273162842,0.005644798278808594,0.08742046356201172,1.9023466110229492,8.945483207702637,-4.031982898712158
3_20251106_182757,1762424840209,3,0.2092636674642563,0.4498833417892456,0.7087669372558594,0.5014610290527344,0.7845954895019531,1.7808672189712524,-2.141369104385376,2.043842315673828,8.931975364685059,-3.8643603324890137,0.04450913146138191,-0.03579285740852356,0.103850819170475,22.168657302856445,-10.70709228515625,22.36150360107422,0.11319661140441895,-0.010806083679199219,0.13409805297851562,1.9306457042694092,8.942781448364258,-3.9984583854675293
3_20251106_182757,1762424840227,3,0.20836369693279266,0.45097866654396057,0.7082080245018005,0.501641571521759,0.7845954895019531,1.7808672189712524,-2.141369104385376,2.043842315673828,8.931975364685059,-3.8643603324890137,0.06833285093307495,-0.03273852914571762,0.0781945064663887,22.179630279541016,-10.73114013671875,22.334434509277344,0.11319661140441895,-0.010806083679199219,0.13409805297851562,1.9306457042694092,8.942781448364258,-3.9984583854675293
3_20251106_182757,1762424840246,3,0.20737232267856598,0.45192950963974,0.7077921628952026,0.5017834901809692,0.7894703149795532,1.7837531566619873,-2.14060115814209,1.9768075942993164,8.906837463378906,-4.098982334136963,0.07932841777801514,-0.01991037093102932,0.045207805931568146,22.14026641845703,-10.772132873535156,22.42678451538086,0.018626689910888672,-0.0262603759765625,-0.0871272087097168,1.9581809043884277,8.933097839355469,-4.011855125427246
3_20251106_182757,1762424840264,3,0.20642927289009094,0.45269596576690674,0.7076297402381897,0.5017105340957642,0.7894703149795532,1.7837531566619873,-2.14060115814209,1.9768075942993164,8.906837463378906,-4.098982334136963,0.05978074669837952,0.017963239923119545,0.021994948387145996,22.1173038482666,-10.748603820800781,22.42633056640625,0.018626689910888672,-0.0262603759765625,-0.0871272087097168,1.9581809043884277,8.933097839355469,-4.011855125427246
3_20251106_182757,1762424840284,3,0.20541419088840485,0.453021377325058,0.7077370882034302,0.5016819834709167,0.7937812805175781,1.785412311553955,-2.1421172618865967,1.93012273311615,8.807482719421387,-4.327618598937988,0.03168097138404846,0.021628430113196373,0.009166788309812546,22.11871337890625,-10.723487854003906,22.426856994628906,-0.016425013542175293,-0.08115863800048828,-0.21607017517089844,1.9465477466583252,8.888641357421875,-4.11154842376709
3_20251106_182757,1762424840303,3,0.20464330911636353,0.453374981880188,0.707831084728241,0.5015450119972229,0.7955318689346313,1.7857816219329834,-2.1434502601623535,1.9013935327529907,8.795511245727539,-4.245022296905518,0.01396589633077383,-0.01685604825615883,0.003058140631765127,22.10703468322754,-10.711997985839844,22.453662872314453,-0.03612339496612549,-0.07450389862060547,-0.10677909851074219,1.9375169277191162,8.870015144348145,-4.138243198394775
3_20251106_182757,1762424840324,3,0.204237163066864,0.45392706990242004,0.7078112363815308,0.5012391209602356,0.7971063256263733,1.7859772443771362,-2.144876480102539,1.8283734321594238,8.806285858154297,-4.122922897338867,0.01885281130671501,-0.038236312568187714,0.008555922657251358,22.164045333862305,-10.771354675292969,22.508861541748047,-0.08731484413146973,-0.050983428955078125,0.012256145477294922,1.9156882762908936,8.857269287109375,-4.135179042816162
3_20251106_182757,1762424840342,3,0.2039499133825302,0.4544689953327179,0.7077646255493164,0.5009307265281677,0.7982003092765808,1.7861270904541016,-2.1459996700286865,1.8211911916732788,8.850576400756836,-4.097785472869873,0.023739732801914215,-0.03273852914571762,0.013442840427160263,22.21209716796875,-10.769119262695312,22.605438232421875,-0.07559764385223389,-0.0053539276123046875,0.02991485595703125,1.8967888355255127,8.85593032836914,-4.127700328826904
3_20251106_182757,1762424840362,3,0.20371747016906738,0.45485639572143555,0.7077113389968872,0.5007489323616028,0.7982003092765808,1.7861270904541016,-2.1459996700286865,1.8211911916732788,8.850576400756836,-4.097785472869873,0.037178754806518555,-0.037625446915626526,0.01099938154220581,22.21209716796875,-10.769119262695312,22.605438232421875,-0.07559764385223389,-0.0053539276123046875,0.02991485595703125,1.8967888355255127,8.85593032836914,-4.127700328826904
3_20251106_182757,1762424840380,3,0.20339655876159668,0.4550558924674988,0.707812488079071,0.500555157661438,0.7993516325950623,1.786285400390625,-2.1476995944976807,1.7445800304412842,8.880502700805664,-4.095390796661377,0.0451199971139431,-0.022353829815983772,0.006112464237958193,22.186922073364258,-10.783401489257812,22.61771011352539,-0.10584092140197754,0.024728775024414062,0.016655921936035156,1.8504209518432617,8.85577392578125,-4.112046718597412
3_20251106_182757,1762424840400,3,0.2025960385799408,0.4545598030090332,0.7083690762519836,0.5005431771278381,0.7992746829986572,1.7865568399429321,-2.1483914852142334,1.7014862298965454,8.905641555786133,-4.077435493469238,0.031070105731487274,-0.007082212716341019,-0.0024396413937211037,22.17544174194336,-10.771636962890625,22.61748504638672,-0.11914777755737305,0.03989410400390625,0.027688980102539062,1.8206340074539185,8.865747451782227,-4.105124473571777
3_20251106_182757,1762424840419,3,0.20202532410621643,0.45405885577201843,0.7088257074356079,0.5005820989608765,0.7992746829986572,1.7865568399429321,-2.1483914852142334,1.7014862298965454,8.905641555786133,-4.077435493469238,0.03168097510933876,0.010021999478340149,0.010388517752289772,22.166767120361328,-10.721260070800781,22.5234375,-0.11914777755737305,0.03989410400390625,0.027688980102539062,1.8206340074539185,8.865747451782227,-4.105124473571777
3_20251106_182757,1762424840438,3,0.20179618895053864,0.4541319012641907,0.7088696360588074,0.5005460977554321,0.7980114817619324,1.7872071266174316,-2.149243116378784,1.6799393892288208,8.948734283447266,-4.051100254058838,0.02923751249909401,0.006967675872147083,0.025660134851932526,22.176738739013672,-10.758270263671875,22.536651611328125,-0.08870375156402588,0.06670951843261719,0.03591585159301758,1.7686431407928467,8.882024765014648,-4.0870161056518555
3_20251106_182757,1762424840456,3,0.20123721659183502,0.4538387358188629,0.709137499332428,0.5006575584411621,0.7980114817619324,1.7872071266174316,-2.149243116378784,1.6799393892288208,8.948734283447266,-4.051100254058838,0.031070109456777573,0.012465458363294601,0.03971002250909805,22.190433502197266,-10.732223510742188,22.524154663085938,-0.08870375156402588,0.06670951843261719,0.03591585159301758,1.7686431407928467,8.882024765014648,-4.0870161056518555
3_20251106_182757,1762424840476,3,0.2009887546300888,0.45411962270736694,0.7089933753013611,0.5007067918777466,0.7962902188301086,1.7888343334197998,-2.1486332416534424,1.7541563510894775,9.020557403564453,-3.9098479747772217,0.07993929088115692,-0.00036270078271627426,0.05009472742676735,22.204227447509766,-10.706047058105469,22.49814224243164,-0.0014189481735229492,0.09364128112792969,0.11434531211853027,1.7555752992630005,8.926916122436523,-4.024193286895752
3_20251106_182757,1762424840495,3,0.20015324652194977,0.4538757801055908,0.7093303203582764,0.5007852911949158,0.7962902188301086,1.7888343334197998,-2.1486332416534424,1.7541563510894775,9.020557403564453,-3.9098479747772217,0.11781288683414459,-0.018077777698636055,0.05009472370147705,22.14933204650879,-10.609024047851562,22.443737030029297,-0.0014189481735229492,0.09364128112792969,0.11434531211853027,1.7555752992630005,8.926916122436523,-4.024193286895752
3_20251106_182757,1762424840515,3,0.19949422776699066,0.4541460871696472,0.7095478773117065,0.5004949569702148,0.7945276498794556,1.7922841310501099,-2.1469509601593018,1.713456630706787,9.179764747619629,-3.907454013824463,0.11659117043018341,0.030791400000452995,0.03604483604431152,22.09765625,-10.674179077148438,22.359355926513672,-0.03174424171447754,0.17063331604003906,0.07892680168151855,1.7452008724212646,9.00913143157959,-3.9863808155059814
3_20251106_182757,1762424840533,3,0.1986154466867447,0.45399466156959534,0.7099382281303406,0.500428318977356,0.7945276498794556,1.7922841310501099,-2.1469509601593018,1.713456630706787,9.179764747619629,-3.907454013824463,0.11964549124240875,0.07782798260450363,0.039099160581827164,22.135425567626953,-10.646949768066406,22.388385772705078,-0.03174424171447754,0.17063331604003906,0.07892680168151855,1.7452008724212646,9.00913143157959,-3.9863808155059814
3_20251106_182757,1762424840553,3,0.19751474261283875,0.4536171853542328,0.7103800773620605,0.5005791783332825,0.7935525178909302,1.7951714992523193,-2.145921230316162,1.7397918701171875,9.252784729003906,-3.9780800342559814,0.1330845057964325,0.06255636364221573,0.061090290546417236,22.10985565185547,-10.661766052246094,22.454723358154297,-0.004327178001403809,0.19492244720458984,0.00664067268371582,1.7441190481185913,9.057862281799316,-3.9847207069396973
3_20251106_182757,1762424840573,3,0.19630838930606842,0.45343971252441406,0.7108151912689209,0.500596821308136,0.7926712036132812,1.8032549619674683,-2.1423659324645996,1.937304973602295,9.57838249206543,-3.60819149017334,0.14896699786186218,0.04972820729017258,0.09224439412355423,22.0833683013916,-10.701026916503906,22.45294952392578,0.14528167247772217,0.36416053771972656,0.27679443359375,1.7920233011245728,9.214221954345703,-3.88498592376709
3_20251106_182757,1762424840590,3,0.19498679041862488,0.45337849855422974,0.7110662460327148,0.5008122324943542,0.793285071849823,1.8082349300384521,-2.1396498680114746,2.1324241161346436,9.74716567993164,-3.4920778274536133,0.19600357115268707,0.04545215517282486,0.11728984862565994,21.988204956054688,-10.657829284667969,22.517662048339844,0.27232062816619873,0.42635536193847656,0.31432652473449707,1.8601034879684448,9.320810317993164,-3.8064043521881104
3_20251106_182757,1762424840610,3,0.19337448477745056,0.45340800285339355,0.7112146615982056,0.5011997818946838,0.7957451939582825,1.8159011602401733,-2.135272979736328,2.4436569213867188,10.011714935302734,-3.3651905059814453,0.2656421661376953,0.0026916228234767914,0.135004922747612,22.02496337890625,-11.638534545898438,23.354772567749023,0.46684277057647705,0.5527238845825195,0.35297107696533203,1.9768141508102417,9.458991050720215,-3.7181615829467773
3_20251106_182757,1762424840630,3,0.1914973258972168,0.4537335932254791,0.7114158272743225,0.5013403296470642,0.8005822896957397,1.826054334640503,-2.12924861907959,2.799180507659912,10.403149604797363,-3.104233741760254,0.3322264552116394,-0.01929950900375843,0.13256146013736725,21.991336822509766,-11.578941345214844,23.43571662902832,0.657893180847168,0.7553262710571289,0.49114227294921875,2.141287326812744,9.647823333740234,-3.5953760147094727
3_20251106_182757,1762424840649,3,0.18937644362449646,0.45434191823005676,0.711564302444458,0.5013842582702637,0.8005822896957397,1.826054334640503,-2.12924861907959,2.799180507659912,10.403149604797363,-3.104233741760254,0.4452364146709442,0.011243728920817375,0.114235520362854,22.002225875854492,-11.591514587402344,23.51704216003418,0.657893180847168,0.7553262710571289,0.49114227294921875,2.141287326812744,9.647823333740234,-3.5953760147094727
3_20251106_182757,1762424840667,3,0.1864301562309265,0.4546101689338684,0.7120678424835205,0.5015304088592529,0.8172102570533752,1.8502460718154907,-2.1176185607910156,3.506636619567871,10.665302276611328,-3.622556447982788,0.5503051280975342,-0.030295072123408318,0.09468784928321838,21.99539566040039,-11.480644226074219,23.654088973999023,0.9243869781494141,0.6728286743164062,-0.06106400489807129,2.582249641418457,9.992473602294922,-3.561492443084717
3_20251106_182757,1762424840685,3,0.1836450695991516,0.45619723200798035,0.7140640616416931,0.49826809763908386,0.8172102570533752,1.8502460718154907,-2.1176185607910156,3.506636619567871,10.665302276611328,-3.622556447982788,0.5936765074729919,-0.04190149903297424,0.09590958058834076,21.977380752563477,-11.35760498046875,23.7503604888916,0.9243869781494141,0.6728286743164062,-0.06106400489807129,2.582249641418457,9.992473602294922,-3.561492443084717
3_20251106_182757,1762424840704,3,0.18067672848701477,0.45792335271835327,0.7162209153175354,0.49466127157211304,0.8298954963684082,1.8644448518753052,-2.1126697063446045,3.7987167835235596,10.600662231445312,-3.730290651321411,0.650486946105957,-0.06022743880748749,0.114235520362854,22.00509262084961,-11.281890869140625,23.874570846557617,0.9731738567352295,0.48655128479003906,-0.1350386142730713,2.82554292678833,10.114110946655273,-3.59525203704834
3_20251106_182757,1762424840723,3,0.17743417620658875,0.45995238423347473,0.7185004353523254,0.49063023924827576,0.8616864085197449,1.8921194076538086,-2.1065499782562256,4.141072750091553,10.1876802444458,-4.140878677368164,0.7121843099594116,-0.12925514578819275,0.14111356437206268,22.024452209472656,-11.132164001464844,24.05394172668457,0.8633899688720703,0.00035190582275390625,-0.38501691818237305,3.2776827812194824,10.187328338623047,-3.755861759185791
3_20251106_182757,1762424840744,3,0.17426079511642456,0.462655246257782,0.7207621932029724,0.48588600754737854,0.8834242224693298,1.9055229425430298,-2.105013370513916,4.331403732299805,9.857294082641602,-4.04990291595459,0.7579991221427917,-0.26731058955192566,0.15943948924541473,22.077945709228516,-11.029747009277344,24.179662704467773,0.8429765701293945,-0.26402759552001953,-0.23523283004760742,3.48842716217041,10.121321678161621,-3.8146700859069824
3_20251106_182757,1762424840763,3,0.17168493568897247,0.466180682182312,0.7229105234146118,0.4802085757255554,0.9038727879524231,1.9154274463653564,-2.104541778564453,4.604331016540527,9.711254119873047,-4.131302833557129,0.8105334639549255,-0.38704007863998413,0.1869284063577652,22.12720489501953,-10.789726257324219,24.280763626098633,0.8927230834960938,-0.32805442810058594,-0.25330615043640137,3.7116079330444336,10.039308547973633,-3.8779966831207275
3_20251106_182757,1762424840782,3,0.16953375935554504,0.47052422165870667,0.7249029874801636,0.47368866205215454,0.9275335669517517,1.922958493232727,-2.104888677597046,4.861696720123291,9.164203643798828,-4.176790237426758,0.854515790939331,-0.46767422556877136,0.18815013766288757,22.15521240234375,-10.713607788085938,24.36442756652832,0.9200711250305176,-0.7000846862792969,-0.23903465270996094,3.9416255950927734,9.864288330078125,-3.937755584716797
3_20251106_182757,1762424840800,3,0.16769744455814362,0.47533151507377625,0.7268552184104919,0.4664965271949768,0.953540563583374,1.926615834236145,-2.1073355674743652,5.227993965148926,8.589619636535645,-4.709477424621582,0.871009111404419,-0.47866976261138916,0.18387408554553986,22.15521240234375,-10.713607788085938,24.36442756652832,1.0290946960449219,-1.019735336303711,-0.617377758026123,4.198899269104004,9.609354972839355,-4.092099666595459
3_20251106_182757,1762424840820,3,0.16580872237682343,0.4802185595035553,0.7287872433662415,0.4590934216976166,0.9840770363807678,1.9250916242599487,-2.114021062850952,5.6888580322265625,7.9049072265625,-5.486362457275391,0.8581808805465698,-0.5678560733795166,0.1875392645597458,22.276573181152344,-10.493392944335938,24.413877487182617,1.1919670104980469,-1.3635587692260742,-1.115410327911377,4.496891021728516,9.268465995788574,-4.370952129364014
3_20251106_182757,1762424840839,3,0.16450035572052002,0.48564496636390686,0.7303892970085144,0.4512428045272827,1.0155140161514282,1.9177449941635132,-2.1239688396453857,5.910311698913574,7.092110633850098,-5.797595024108887,0.806868314743042,-0.7798261046409607,0.15882863104343414,22.385648727416992,-10.27410888671875,24.476354598999023,1.1307363510131836,-1.741084098815918,-1.1413145065307617,4.779575347900391,8.833194732666016,-4.656280517578125
3_20251106_182757,1762424840859,3,0.16482269763946533,0.4917525053024292,0.7315365672111511,0.4425688683986664,1.0155140161514282,1.9177449941635132,-2.1239688396453857,5.910311698913574,7.092110633850098,-5.797595024108887,0.806868314743042,-0.7798261046409607,0.15882863104343414,22.541650772094727,-10.088912963867188,24.499452590942383,1.1307363510131836,-1.741084098815918,-1.1413145065307617,4.779575347900391,8.833194732666016,-4.656280517578125
3_20251106_182757,1762424840877,3,0.16681265830993652,0.4972245395183563,0.7327183485031128,0.43366479873657227,1.054003119468689,1.9014276266098022,-2.13987135887146,5.842080116271973,6.594138145446777,-6.004684925079346,0.5765722990036011,-0.8818404674530029,-0.2309030443429947,22.712743759155273,-9.864173889160156,24.415700912475586,0.850003719329834,-1.791245460510254,-1.078723430633545,4.992076396942139,8.385383605957031,-4.925961494445801
3_20251106_182757,1762424840897,3,0.17041552066802979,0.5008143186569214,0.7343705892562866,0.4252569079399109,1.1140700578689575,1.857376217842102,-2.173165798187256,5.013721466064453,5.04395866394043,-6.4703369140625,0.45806455612182617,-0.8818405270576477,-0.4886879324913025,23.03832244873047,-9.704048156738281,24.296194076538086,-0.05318164825439453,-2.2635793685913086,-1.0349411964416504,5.066903114318848,7.307538032531738,-5.43539571762085
3_20251106_182757,1762424840915,3,0.17559237778186798,0.502384603023529,0.7367522716522217,0.41710078716278076,1.1400281190872192,1.8263342380523682,-2.193039894104004,4.334994792938232,4.368823051452637,-6.610391616821289,0.4036976099014282,-0.9917961359024048,-0.7366990447044373,23.555679321289062,-10.43914794921875,24.787227630615234,-0.5855269432067871,-2.3509721755981445,-0.9399967193603516,4.9205217361450195,6.719795227050781,-5.6703948974609375
3_20251106_182757,1762424840934,3,0.1827792376279831,0.5026201605796814,0.7398388981819153,0.4081704914569855,1.1400281190872192,1.8263342380523682,-2.193039894104004,4.334994792938232,4.368823051452637,-6.610391616821289,0.48066651821136475,-1.1970466375350952,-0.9205693006515503,24.044301986694336,-10.19281005859375,24.62161636352539,-0.5855269432067871,-2.3509721755981445,-0.9399967193603516,4.9205217361450195,6.719795227050781,-5.6703948974609375
3_20251106_182757,1762424840953,3,0.19174285233020782,0.5023898482322693,0.7436936497688293,0.3971886932849884,1.1627988815307617,1.7847795486450195,-2.2178072929382324,3.397705078125,3.828953742980957,-6.916836261749268,0.5228161811828613,-1.4163471460342407,-0.9950947761535645,24.736543655395508,-9.794425964355469,24.345108032226562,-1.2182531356811523,-2.312673568725586,-0.9971532821655273,4.615958213806152,6.141627311706543,-5.91968297958374
3_20251106_182757,1762424840973,3,0.2023565173149109,0.5023860931396484,0.7475713491439819,0.38444390892982483,1.1772196292877197,1.7365180253982544,-2.245335578918457,2.2437496185302734,3.2519760131835938,-7.235251426696777,0.38231736421585083,-1.545850396156311,-0.9523342847824097,25.41710662841797,-9.384552001953125,24.09540557861328,-1.8977670669555664,-2.311720848083496,-1.052454948425293,4.14151668548584,5.56369686126709,-6.182796478271484
3_20251106_182757,1762424840992,3,0.21447288990020752,0.5027596950531006,0.750324547290802,0.3718159794807434,1.1786006689071655,1.6342769861221313,-2.300598382949829,0.31290894746780396,2.853358745574951,-7.2819366455078125,0.11414770781993866,-1.5342439413070679,-0.8698675632476807,26.71427345275879,-9.824668884277344,24.53360939025879,-2.5910820960998535,-1.734041690826416,-0.6978960037231445,2.9039909839630127,4.587400436401367,-6.584040641784668
3_20251106_182757,1762424841010,3,0.22749148309230804,0.5028261542320251,0.7516844868659973,0.3610871434211731,1.1672683954238892,1.5812503099441528,-2.327666759490967,-0.3311035931110382,2.821038246154785,-7.041329383850098,-0.19372810423374176,-1.4957596063613892,-0.7922877073287964,27.754436492919922,-9.313720703125,24.029386520385742,-2.588075637817383,-1.4130897521972656,-0.3658313751220703,2.256972074508667,4.234127998352051,-6.675498008728027
3_20251106_182757,1762424841030,3,0.24149519205093384,0.5024405717849731,0.7515398859977722,0.3527340888977051,1.145797610282898,1.5207817554473877,-2.3555750846862793,-0.8709728717803955,2.7552006244659424,-6.457169532775879,-0.19372810423374176,-1.4957596063613892,-0.7922877073287964,28.8597469329834,-8.735069274902344,23.434324264526367,-2.5023560523986816,-1.1831419467926025,0.17466259002685547,1.6313830614089966,3.938342571258545,-6.631832122802734
3_20251106_182757,1762424841050,3,0.2564709484577179,0.5017889738082886,0.7498974800109863,0.3465317487716675,1.1181819438934326,1.4624340534210205,-2.3784899711608887,-1.3713394403457642,2.5624756813049316,-5.803580284118652,-0.7001349925994873,-1.4077950716018677,-0.6511780023574829,30.098222732543945,-8.3519287109375,22.984220504760742,-2.4021780490875244,-1.1006934642791748,0.6626014709472656,1.0308386087417603,3.6631691455841064,-6.466181755065918
3_20251106_182757,1762424841069,3,0.27185747027397156,0.5005255937576294,0.74724280834198,0.3423387408256531,1.1181819438934326,1.4624340534210205,-2.3784899711608887,-1.3713394403457642,2.5624756813049316,-5.803580284118652,-0.8565163612365723,-1.4077950716018677,-0.5729873180389404,31.205015182495117,-7.7712554931640625,22.186410903930664,-2.4021780490875244,-1.1006934642791748,0.6626014709472656,1.0308386087417603,3.6631691455841064,-6.466181755065918
3_20251106_182757,1762424841088,3,0.2877451479434967,0.4991661310195923,0.7435407638549805,0.3393861949443817,1.0383398532867432,1.3374559879302979,-2.4111337661743164,-3.0124940872192383,1.94240403175354,-4.634063720703125,-0.8565163612365723,-1.4077950716018677,-0.5729873180389404,32.37694549560547,-7.347442626953125,21.225919723510742,-2.7421045303344727,-1.1099083423614502,1.2759804725646973,-0.270389586687088,3.0523123741149902,-5.910044193267822
3_20251106_182757,1762424841105,3,0.30469751358032227,0.49931657314300537,0.7381494045257568,0.3361218273639679,0.9934908151626587,1.2843098640441895,-2.4176025390625,-4.192784309387207,2.4990320205688477,-3.751837730407715,-0.9035528898239136,-1.6057151556015015,-0.39827996492385864,33.497806549072266,-6.976356506347656,20.1948299407959,-3.137915849685669,-0.4426243305206299,1.7265653610229492,-1.054868459701538,2.9416563510894775,-5.478403091430664
3_20251106_182757,1762424841125,3,0.32213374972343445,0.5009234547615051,0.7316992878913879,0.33154430985450745,0.9300014972686768,1.2238750457763672,-2.4189612865448,-5.450883865356445,2.600781202316284,-3.5471420288085938,-0.6708134412765503,-1.6246520280838013,-0.28954604268074036,34.60133743286133,-6.705848693847656,19.093557357788086,-3.516812324523926,-0.27270007133483887,1.545008659362793,-1.9340715408325195,2.873481273651123,-5.092150688171387
3_20251106_182757,1762424841144,3,0.33805495500564575,0.5019290447235107,0.726026713848114,0.3266056478023529,0.9300014972686768,1.2238750457763672,-2.4189612865448,-5.450883865356445,2.600781202316284,-3.5471420288085938,-0.6708134412765503,-1.6246520280838013,-0.28954604268074036,35.5472412109375,-6.444587707519531,17.877775192260742,-3.516812324523926,-0.27270007133483887,1.545008659362793,-1.9340715408325195,2.873481273651123,-5.092150688171387
3_20251106_182757,1762424841163,3,0.3513897955417633,0.5016078948974609,0.7212783098220825,0.32353103160858154,0.7813344597816467,1.1159918308258057,-2.4175190925598145,-7.177029132843018,2.934757947921753,-5.102109909057617,-0.909050703048706,-0.9716376066207886,-0.02504163607954979,36.44893264770508,-6.323707580566406,16.644102096557617,-3.452214479446411,0.09667563438415527,-0.12799406051635742,-3.7248146533966064,2.8380823135375977,-4.97411584854126
3_20251106_182757,1762424841183,3,0.36320796608924866,0.5011244416236877,0.7156609892845154,0.32370299100875854,0.6919538378715515,1.067777395248413,-2.41692852973938,-7.344615936279297,4.188068389892578,-4.936916351318359,-1.1973788738250732,-0.9123837351799011,0.28100159764289856,37.35844039916992,-6.715980529785156,15.867378234863281,-2.895841121673584,1.079988956451416,0.02975940704345703,-4.448774814605713,3.108079433441162,-4.966675758361816
3_20251106_182757,1762424841203,3,0.3750225901603699,0.501563310623169,0.7077640295028687,0.32689812779426575,0.604436457157135,1.0301138162612915,-2.413850784301758,-6.945998668670654,5.240274906158447,-4.039129734039307,-1.3989641666412354,-0.8299170136451721,0.5424516797065735,38.08137893676758,-6.7448883056640625,14.678001403808594,-1.997779369354248,1.705756425857544,0.7420368194580078,-4.948219299316406,3.5345184803009033,-4.7811665534973145
3_20251106_182757,1762424841222,3,0.3863847553730011,0.5025516152381897,0.698113739490509,0.33284518122673035,0.5128836631774902,1.0016932487487793,-2.405813455581665,-6.275650978088379,6.574985027313232,-3.149721622467041,-1.5125850439071655,-0.6472684144973755,0.7251002788543701,38.08137893676758,-6.7448883056640625,14.678001403808594,-1.0619454383850098,2.432373523712158,1.3051557540893555,-5.213705539703369,4.142611503601074,-4.4548773765563965
3_20251106_182757,1762424841240,3,0.3963613212108612,0.50334632396698,0.6877477765083313,0.34138423204421997,0.4381735622882843,0.9865075349807739,-2.394153356552124,-5.569391250610352,7.677467346191406,-2.101106643676758,-1.4997568130493164,-0.506158709526062,0.7965713739395142,38.69736862182617,-6.943794250488281,13.521820068359375,-0.284548282623291,2.8278846740722656,1.883016586303711,-5.2848429679870605,4.849582672119141,-3.9841232299804688
3_20251106_182757,1762424841259,3,0.40501174330711365,0.5039691925048828,0.677311897277832,0.3510400056838989,0.4381735622882843,0.9865075349807739,-2.394153356552124,-5.569391250610352,7.677467346191406,-2.101106643676758,-1.380027413368225,-0.4365200996398926,0.7104394435882568,39.1712760925293,-7.278358459472656,12.492765426635742,-0.284548282623291,2.8278846740722656,1.883016586303711,-5.2848429679870605,4.849582672119141,-3.9841232299804688
3_20251106_182757,1762424841280,3,0.4129240810871124,0.5042145848274231,0.6675377488136292,0.3600759506225586,0.2772657573223114,0.989096999168396,-2.344463348388672,-5.104936599731445,10.015305519104004,-0.9483481049537659,-1.2254786491394043,-0.3259536027908325,0.48625215888023376,39.529178619384766,-7.721473693847656,11.551799774169922,0.09388065338134766,3.522489547729492,1.9856069087982178,-5.198817253112793,6.492815971374512,-2.933954954147339
3_20251106_182757,1762424841298,3,0.42006370425224304,0.5030461549758911,0.6595908999443054,0.36800941824913025,0.20874108374118805,1.00702965259552,-2.316850185394287,-5.940476894378662,10.984915733337402,-1.4307589530944824,-1.090477466583252,-0.1830112338066101,0.25045835971832275,39.84994125366211,-8.156166076660156,10.78533935546875,-0.5933279991149902,3.593679428100586,1.2025566101074219,-5.347148895263672,7.391236305236816,-2.6333155632019043
3_20251106_182757,1762424841317,3,0.4263516962528229,0.500078022480011,0.6538379788398743,0.3750227689743042,0.13447356224060059,1.0353906154632568,-2.285299301147461,-7.370951175689697,11.174049377441406,-1.2260637283325195,-1.0153411626815796,-0.2495955228805542,0.125231072306633,40.102230072021484,-8.7210693359375,10.081367492675781,-1.619041919708252,3.0262508392333984,1.1258015632629395,-5.751909255981445,8.147798538208008,-2.351865291595459
3_20251106_182757,1762424841336,3,0.43307074904441833,0.4966754615306854,0.6487629413604736,0.38061776757240295,0.049378007650375366,1.0721908807754517,-2.2470617294311523,-9.313762664794922,10.923866271972656,-0.15231025218963623,-1.0153411626815796,-0.2495955228805542,0.125231072306633,40.22975540161133,-9.332664489746094,9.479829788208008,-2.849482536315918,2.220853805541992,1.7596440315246582,-6.464280128479004,8.703012466430664,-1.9119542837142944
3_20251106_182757,1762424841355,3,0.4393477141857147,0.4936201274394989,0.6439917087554932,0.38547036051750183,-0.0330834835767746,1.108489990234375,-2.2087771892547607,-10.405470848083496,10.666500091552734,0.3588298261165619,-0.9481460452079773,0.3203412890434265,0.4844195544719696,40.35295867919922,-9.795181274414062,8.962066650390625,-3.152952194213867,1.5707902908325195,1.8166273832321167,-7.252518653869629,9.095709800720215,-1.4577975273132324
3_20251106_182757,1762424841374,3,0.441453218460083,0.4900379776954651,0.6398949027061462,0.39435556530952454,-0.12099574506282806,1.1500763893127441,-2.165480852127075,-9.155752182006836,10.986112594604492,0.3301006257534027,-1.0800927877426147,0.7833767533302307,1.1691988706588745,40.36025619506836,-10.366111755371094,8.518875122070312,-1.5225868225097656,1.5123224258422852,1.4303185939788818,-7.63316535949707,9.473790168762207,-1.1002179384231567
3_20251106_182757,1762424841393,3,0.4388335049152374,0.48796045780181885,0.6341072916984558,0.4089348018169403,-0.19974353909492493,1.1960086822509766,-2.115278720855713,-5.894989013671875,11.815668106079102,2.2058770656585693,-1.0959752798080444,0.8976083993911743,1.8839106559753418,40.31772232055664,-10.941703796386719,8.222400665283203,1.3905410766601562,1.8735027313232422,2.644876003265381,-7.285530090332031,9.94216537475586,-0.4389989376068115
3_20251106_182757,1762424841412,3,0.432432621717453,0.4896043837070465,0.6251810789108276,0.42712780833244324,-0.263863742351532,1.2495578527450562,-2.0546200275421143,-2.4738218784332275,12.447710037231445,3.000718116760254,-0.7355651259422302,1.0423833131790161,2.147193193435669,40.070281982421875,-11.671096801757812,8.212533950805664,3.8493664264678955,2.0044355392456055,2.7517735958099365,-6.323188304901123,10.44327449798584,0.2489444613456726
3_20251106_182757,1762424841431,3,0.42190369963645935,0.4934934675693512,0.6164364814758301,0.44549694657325745,-0.263863742351532,1.2495578527450562,-2.0546200275421143,-2.4738218784332275,12.447710037231445,3.000718116760254,-0.2884121239185333,1.256796956062317,1.9675991535186768,39.64380645751953,-12.5390625,8.382389068603516,3.8493664264678955,2.0044355392456055,2.7517735958099365,-6.323188304901123,10.44327449798584,0.2489444613456726
3_20251106_182757,1762424841451,3,0.40811488032341003,0.49713823199272156,0.6107020974159241,0.46188613772392273,-0.3070424795150757,1.3105697631835938,-1.986992359161377,-0.1228170245885849,12.709863662719727,2.3734641075134277,0.0451199933886528,1.5915507078170776,1.5589306354522705,39.08993148803711,-13.515296936035156,8.53171157836914,4.960297107696533,1.8132705688476562,1.699615716934204,-5.083114147186279,10.89659309387207,0.6738483905792236
3_20251106_182757,1762424841470,3,0.39203888177871704,0.49832791090011597,0.6092419028282166,0.4762342572212219,-0.32681897282600403,1.367693543434143,-1.9278241395950317,1.235834002494812,12.603326797485352,1.0531184673309326,0.0451199933886528,1.5915507078170776,1.5589306354522705,38.47506332397461,-14.460800170898438,8.97673225402832,5.055158615112305,1.365386962890625,0.30341607332229614,-3.8193247318267822,11.237939834594727,0.7497023940086365
3_20251106_182757,1762424841488,3,0.37509626150131226,0.49701178073883057,0.6109804511070251,0.4888608753681183,-0.32838568091392517,1.4272359609603882,-1.8748188018798828,2.170729637145996,12.033530235290527,-1.2775366306304932,0.14102575182914734,1.7564842700958252,0.9272964596748352,37.53685760498047,-15.505393981933594,9.718292236328125,4.792043685913086,0.6364727020263672,-1.6217912435531616,-2.6213138103485107,11.39705753326416,0.34425458312034607
3_20251106_182757,1762424841508,3,0.359688401222229,0.4946031868457794,0.6131038069725037,0.5000956058502197,-0.29444631934165955,1.5286548137664795,-1.8040920495986938,3.0002849102020264,11.66723346710205,-2.23757004737854,0.03412443399429321,1.687456488609314,0.7098286151885986,36.52934646606445,-17.074851989746094,11.118328094482422,3.648003578186035,0.15395164489746094,-1.6458559036254883,-0.6477187275886536,11.51328182220459,-0.5917142033576965
3_20251106_182757,1762424841526,3,0.3459785282611847,0.4908914268016815,0.615363359451294,0.5105412602424622,-0.2630811929702759,1.576438069343567,-1.7789689302444458,3.4838929176330566,11.735466003417969,-2.7008283138275146,0.007857249118387699,1.6495829820632935,0.5723840594291687,35.40315628051758,-18.18482208251953,12.175865173339844,3.3052892684936523,0.1777477264404297,-1.6872913837432861,0.17860352993011475,11.557718276977539,-1.0135369300842285
3_20251106_182757,1762424841546,3,0.33316120505332947,0.4863317906856537,0.6178253889083862,0.520362138748169,-0.22024187445640564,1.6251800060272217,-1.7586712837219238,4.329010009765625,11.858760833740234,-2.7977893352508545,0.007857249118387699,1.6495829820632935,0.5723840594291687,34.2227897644043,-19.173599243164062,13.274139404296875,3.3203253746032715,0.24083423614501953,-1.4274019002914429,1.008684754371643,11.617926597595215,-1.3703874349594116
3_20251106_182757,1762424841564,3,0.32116448879241943,0.4819350242614746,0.6201246380805969,0.5291856527328491,-0.16813263297080994,1.6724936962127686,-1.7438958883285522,5.1681413650512695,11.985649108886719,-3.0132579803466797,-0.003749181516468525,1.4559388160705566,0.37873995304107666,32.999412536621094,-19.852012634277344,14.336009979248047,3.3275651931762695,0.2941780090332031,-1.3142964839935303,1.8405760526657104,11.691471099853516,-1.6989614963531494
3_20251106_182757,1762424841584,3,0.310196191072464,0.4771440625190735,0.6224440932273865,0.5372850298881531,-0.10843525826931,1.7184524536132812,-1.7331302165985107,5.555985450744629,12.059865951538086,-2.8911590576171875,-0.024518582969903946,1.3557569980621338,0.2119738608598709,31.863386154174805,-20.47840118408203,15.63722038269043,2.972327709197998,0.29471588134765625,-0.9537580013275146,2.583657741546631,11.76515007019043,-1.9374010562896729
3_20251106_182757,1762424841603,3,0.3005475699901581,0.47178375720977783,0.62498939037323,0.5444993376731873,-0.043643414974212646,1.7624390125274658,-1.7255523204803467,5.528453350067139,11.883899688720703,-2.9031295776367188,-0.011690422892570496,1.3117746114730835,0.0934661254286766,30.766401290893555,-20.84857177734375,16.736875534057617,2.3558363914489746,0.0950002670288086,-0.7725827693939209,3.172616958618164,11.788899421691895,-2.130546808242798
3_20251106_182757,1762424841623,3,0.291608601808548,0.46589285135269165,0.627888023853302,0.5510579943656921,0.03260079026222229,1.8078199625015259,-1.719767689704895,5.623020172119141,11.548725128173828,-2.7786364555358887,-0.0013057226315140724,1.198764681816101,0.1411135494709015,29.659616470336914,-21.204681396484375,17.60652732849121,1.960322618484497,-0.1921396255493164,-0.5184717178344727,3.6626975536346436,11.740864753723145,-2.260164737701416
3_20251106_182757,1762424841642,3,0.28303587436676025,0.46085357666015625,0.6302289962768555,0.557060182094574,0.03260079026222229,1.8078199625015259,-1.719767689704895,5.623020172119141,11.548725128173828,-2.7786364555358887,0.09032398462295532,0.961749255657196,0.3103230893611908,29.659616470336914,-21.204681396484375,17.60652732849121,1.960322618484497,-0.1921396255493164,-0.5184717178344727,3.6626975536346436,11.740864753723145,-2.260164737701416
3_20251106_182757,1762424841661,3,0.274661660194397,0.4584004878997803,0.6315050721168518,0.5618107318878174,0.1809750497341156,1.8797460794448853,-1.7086434364318848,6.696773529052734,11.007658958435059,-1.8904259204864502,0.32062000036239624,0.6893035769462585,0.44593507051467896,28.73007583618164,-21.436256408691406,18.44487190246582,2.031635284423828,-0.5069818496704102,0.2785775661468506,4.665138244628906,11.514640808105469,-2.169003486633301
3_20251106_182757,1762424841680,3,0.2660178244113922,0.4586268961429596,0.6326492428779602,0.5644916296005249,0.2589245140552521,1.9098354578018188,-1.7027451992034912,6.894286632537842,10.685652732849121,-2.0580127239227295,0.5533594489097595,0.48283129930496216,0.4801435172557831,27.85259246826172,-21.613754272460938,19.218652725219727,1.7833185195922852,-0.6631908416748047,0.08879256248474121,5.110968112945557,11.348843574523926,-2.1468052864074707
3_20251106_182757,1762424841700,3,0.25731393694877625,0.4607127904891968,0.6342676877975464,0.5650113224983215,0.3420587182044983,1.9363913536071777,-1.698629379272461,6.816478729248047,10.186483383178711,-2.7331485748291016,0.6510977745056152,0.3875364065170288,0.46731534600257874,27.093427658081055,-21.644760131835938,19.878103256225586,1.3644084930419922,-0.9298877716064453,-0.46907472610473633,5.452070236206055,11.116371154785156,-2.2640738487243652
3_20251106_182757,1762424841719,3,0.24881115555763245,0.46349334716796875,0.6361612677574158,0.5644162893295288,0.41687843203544617,1.9556750059127808,-1.6968048810958862,6.970897674560547,9.72681713104248,-2.9522087574005127,0.6272740364074707,0.2708612382411957,0.48747387528419495,26.37948226928711,-21.735374450683594,20.53819465637207,1.215062141418457,-1.111642837524414,-0.5505077838897705,5.75583553314209,10.838459968566895,-2.401700973510742
3_20251106_182757,1762424841738,3,0.2410000115633011,0.4670141041278839,0.6375732421875,0.5633091330528259,0.4915239214897156,1.970558524131775,-1.6967130899429321,7.204322338104248,9.443116188049316,-3.0683224201202393,0.6065046787261963,0.15235349535942078,0.4691479504108429,25.80499839782715,-21.74028778076172,21.04306983947754,1.1587891578674316,-1.1162748336791992,-0.533297061920166,6.045533180236816,10.559391021728516,-2.5350253582000732
3_20251106_182757,1762424841756,3,0.23418986797332764,0.4711681306362152,0.6385321021080017,0.5616337656974792,0.5742393732070923,1.9816709756851196,-1.6991617679595947,7.335997581481934,9.046892166137695,-3.372373104095459,0.5606898069381714,0.04484128952026367,0.3921789824962616,25.226482391357422,-21.820274353027344,21.519330978393555,1.0323715209960938,-1.2099990844726562,-0.6698780059814453,6.30362606048584,10.256891250610352,-2.7024950981140137
3_20251106_182757,1762424841775,3,0.22854283452033997,0.47525548934936523,0.6393515467643738,0.5595801472663879,0.6515418291091919,1.987572193145752,-1.7034623622894287,7.27016019821167,8.752418518066406,-3.464545726776123,0.5606898069381714,0.04484128952026367,0.3921789824962616,24.725399017333984,-21.831634521484375,21.891721725463867,0.7732272148132324,-1.203577995300293,-0.6096405982971191,6.4969329833984375,9.9559965133667,-2.854905128479004
3_20251106_182757,1762424841794,3,0.22431355714797974,0.47945064306259155,0.6401342749595642,0.5568111538887024,0.6515418291091919,1.987572193145752,-1.7034623622894287,7.27016019821167,8.752418518066406,-3.464545726776123,0.5417529940605164,-0.27891701459884644,0.18448494374752045,24.41013526916504,-21.768966674804688,22.34037208557129,0.7732272148132324,-1.203577995300293,-0.6096405982971191,6.4969329833984375,9.9559965133667,-2.854905128479004
3_20251106_182757,1762424841814,3,0.2217680960893631,0.48393839597702026,0.6410749554634094,0.5528520941734314,0.8016226291656494,1.9867948293685913,-1.71766197681427,6.590235710144043,8.315495491027832,-3.59263014793396,0.5417529940605164,-0.27891701459884644,0.18448494374752045,24.160709381103516,-21.637657165527344,22.603567123413086,-0.009619712829589844,-1.0830554962158203,-0.4681217670440674,6.599855422973633,9.398550987243652,-3.1245083808898926
3_20251106_182757,1762424841832,3,0.22075694799423218,0.48852261900901794,0.6421681046485901,0.5479344129562378,0.8016226291656494,1.9867948293685913,-1.71766197681427,6.590235710144043,8.315495491027832,-3.59263014793396,0.5160967111587524,-0.5134891271591187,-0.010991749353706837,24.046232223510742,-21.484779357910156,22.845388412475586,-0.009619712829589844,-1.0830554962158203,-0.4681217670440674,6.599855422973633,9.398550987243652,-3.1245083808898926
3_20251106_182757,1762424841852,3,0.22083139419555664,0.49283528327941895,0.6434169411659241,0.5425509810447693,0.871038556098938,1.9807627201080322,-1.7266647815704346,6.020440101623535,8.177834510803223,-3.59263014793396,0.5160967111587524,-0.5134891271591187,-0.010991749353706837,23.907060623168945,-21.35712432861328,22.937021255493164,-0.4635324478149414,-0.9765729904174805,-0.3744971752166748,6.483972549438477,9.154407501220703,-3.218132972717285
3_20251106_182757,1762424841871,3,0.22154349088668823,0.49712398648262024,0.6445621252059937,0.5369598269462585,0.9831363558769226,1.96173894405365,-1.7467517852783203,5.261510848999023,7.889345169067383,-3.967306613922119,0.4269104599952698,-0.6894180774688721,-0.020154718309640884,23.85671615600586,-21.16112518310547,23.03340721130371,-0.8383016586303711,-0.8257274627685547,-0.5049440860748291,6.0998125076293945,8.715072631835938,-3.46236252784729
3_20251106_182757,1762424841890,3,0.22327874600887299,0.5019519329071045,0.6450518369674683,0.5311298966407776,0.9831363558769226,1.96173894405365,-1.7467517852783203,5.261510848999023,7.889345169067383,-3.967306613922119,0.4269104599952698,-0.6894180774688721,-0.020154718309640884,24.02260398864746,-21.00146484375,23.17811393737793,-0.8383016586303711,-0.8257274627685547,-0.5049440860748291,6.0998125076293945,8.715072631835938,-3.46236252784729
3_20251106_182757,1762424841910,3,0.22614017128944397,0.5075072646141052,0.6447493433952332,0.5249716639518738,1.0767027139663696,1.933112382888794,-1.7685695886611938,4.636651039123535,7.5948710441589355,-3.6345267295837402,0.36032623052597046,-0.9643072485923767,0.05986855924129486,24.350818634033203,-20.779762268066406,23.18157386779785,-0.977409839630127,-0.750063419342041,-0.11899518966674805,5.614060878753662,8.344934463500977,-3.515531539916992
3_20251106_182757,1762424841929,3,0.2294507473707199,0.513740599155426,0.6439698934555054,0.5183876156806946,1.1139767169952393,1.9167206287384033,-1.7793909311294556,4.457094192504883,7.531427383422852,-3.8069019317626953,0.36154794692993164,-1.1445122957229614,0.10995946824550629,24.652236938476562,-20.609336853027344,23.128931045532227,-0.9255733489990234,-0.6508054733276367,-0.23309612274169922,5.382667541503906,8.182232856750488,-3.573805809020996
3_20251106_182757,1762424841946,3,0.2336268573999405,0.5211145877838135,0.6424927711486816,0.5109413862228394,1.1431612968444824,1.9010505676269531,-1.7887566089630127,4.245216369628906,7.3913726806640625,-3.650088310241699,0.3334481716156006,-1.252024531364441,0.10323996096849442,25.00279426574707,-20.435195922851562,23.02418327331543,-0.9099612236022949,-0.6326885223388672,-0.06102585792541504,5.155177593231201,8.02406120300293,-3.589062452316284
3_20251106_182757,1762424841966,3,0.2386164665222168,0.5288321375846863,0.6406015157699585,0.5030192732810974,1.1720924377441406,1.8810640573501587,-1.7995514869689941,3.9423625469207764,7.210618019104004,-3.6967735290527344,0.2796920835971832,-1.2300333976745605,0.020162353292107582,25.483747482299805,-20.338470458984375,22.747270584106445,-0.970252275466919,-0.650754451751709,-0.08616900444030762,4.912614822387695,7.861372470855713,-3.6106045246124268
3_20251106_182757,1762424841984,3,0.2441171258687973,0.5356756448745728,0.6388484835624695,0.49530911445617676,1.1931512355804443,1.8615832328796387,-1.8095149993896484,3.4192521572113037,6.8898091316223145,-3.908651351928711,0.2796920835971832,-1.2300333976745605,0.020162353292107582,26.001754760742188,-20.238685607910156,22.40424919128418,-1.1946899890899658,-0.7772507667541504,-0.23843741416931152,4.6139421463012695,7.667059898376465,-3.6702139377593994
3_20251106_182757,1762424842004,3,0.25047141313552856,0.5418230891227722,0.6371269226074219,0.48760753870010376,1.2095756530761719,1.837998628616333,-1.8203785419464111,2.70461368560791,6.67314338684082,-3.7841579914093018,0.18745146691799164,-1.2856221199035645,-0.12888865172863007,26.567602157592773,-20.14855194091797,22.0899600982666,-1.5274629592895508,-0.795133113861084,-0.0911552906036377,4.232076644897461,7.468276500701904,-3.693002700805664
3_20251106_182757,1762424842023,3,0.2575283646583557,0.5476887822151184,0.6354172229766846,0.47954264283180237,1.2180075645446777,1.813254475593567,-1.8309682607650757,1.9025905132293701,6.207490921020508,-3.9792771339416504,0.17706677317619324,-1.3222739696502686,-0.132553830742836,27.19386100769043,-20.078346252441406,21.655946731567383,-1.8635890483856201,-1.0086283683776855,-0.2290196418762207,3.7661795616149902,7.216119289398193,-3.7502574920654297
3_20251106_182757,1762424842044,3,0.26492080092430115,0.5534964799880981,0.6335632801055908,0.47122839093208313,1.2180075645446777,1.813254475593567,-1.8309682607650757,1.9025905132293701,6.207490921020508,-3.9792771339416504,0.13674969971179962,-1.428564429283142,-0.040313251316547394,27.906705856323242,-20.000831604003906,21.049654006958008,-1.8635890483856201,-1.0086283683776855,-0.2290196418762207,3.7661795616149902,7.216119289398193,-3.7502574920654297
3_20251106_182757,1762424842063,3,0.27277427911758423,0.5601055026054382,0.6307591199874878,0.46262186765670776,1.211665153503418,1.7531696557998657,-1.855361819267273,0.7725759148597717,5.747823715209961,-4.0726470947265625,0.02923751249909401,-1.5226376056671143,0.13378317654132843,27.906705856323242,-20.000831604003906,21.049654006958008,-1.9858143329620361,-0.9603943824768066,-0.18123936653137207,2.758390188217163,6.708218097686768,-3.8914077281951904
3_20251106_182757,1762424842081,3,0.28106454014778137,0.567846417427063,0.6261888742446899,0.45435741543769836,1.200616478919983,1.7244231700897217,-1.8656457662582397,0.6684326529502869,5.813661575317383,-3.830842971801758,0.02923751249909401,-1.5226376056671143,0.13378317654132843,28.594968795776367,-19.936782836914062,20.374536514282227,-1.6719660758972168,-0.7156453132629395,0.048451900482177734,2.3403987884521484,6.529306888580322,-3.8792948722839355
3_20251106_182757,1762424842100,3,0.28961360454559326,0.576155424118042,0.6200125813484192,0.4469376504421234,1.184926986694336,1.6942672729492188,-1.8748630285263062,0.6600532531738281,6.044692039489746,-3.480107545852661,-0.2474842071533203,-1.4792662858963013,0.3445315361022949,29.365800857543945,-19.92888641357422,19.593400955200195,-1.3442764282226562,-0.3876914978027344,0.319350004196167,2.0043296813964844,6.4323835372924805,-3.799457550048828
3_20251106_182757,1762424842122,3,0.2982606589794159,0.5839267373085022,0.6129148602485657,0.44091445207595825,1.184926986694336,1.6942672729492188,-1.8748630285263062,0.6600532531738281,6.044692039489746,-3.480107545852661,-0.2474842071533203,-1.4792662858963013,0.3445315361022949,30.07398223876953,-19.96208953857422,18.75495719909668,-1.3442764282226562,-0.3876914978027344,0.319350004196167,2.0043296813964844,6.4323835372924805,-3.799457550048828
3_20251106_182757,1762424842141,3,0.30714893341064453,0.5904987454414368,0.6055573225021362,0.43620073795318604,1.1423439979553223,1.6315698623657227,-1.8888676166534424,0.7270880937576294,6.272130966186523,-2.9821348190307617,-0.3873721957206726,-1.3790844678878784,0.318264365196228,30.827173233032227,-20.06678009033203,17.84930992126465,-0.8258618116378784,-0.08302593231201172,0.5933773517608643,1.5529499053955078,6.355156898498535,-3.575512170791626
3_20251106_182757,1762424842158,3,0.31697237491607666,0.5963799357414246,0.597818911075592,0.43182405829429626,1.1423439979553223,1.6315698623657227,-1.8888676166534424,0.7270880937576294,6.272130966186523,-2.9821348190307617,-0.5877358913421631,-1.33449125289917,0.17471112310886383,31.55125617980957,-20.260696411132812,16.913801193237305,-0.8258618116378784,-0.08302593231201172,0.5933773517608643,1.5529499053955078,6.355156898498535,-3.575512170791626
3_20251106_182757,1762424842176,3,0.32721421122550964,0.6010373830795288,0.5903189778327942,0.42802858352661133,1.098914384841919,1.5842082500457764,-1.8935279846191406,0.001676127314567566,6.504359245300293,-3.009666919708252,-0.5877358913421631,-1.33449125289917,0.17471112310886383,32.11631774902344,-20.73357391357422,16.360811233520508,-1.0646382570266724,0.09050989151000977,0.34030675888061523,1.0663143396377563,6.413849353790283,-3.349973678588867
3_20251106_182757,1762424842196,3,0.3375321924686432,0.6045990586280823,0.5833006501197815,0.4246084690093994,1.0693309307098389,1.5591273307800293,-1.8943990468978882,-0.5477695465087891,6.349939346313477,-3.007272958755493,-0.6304963827133179,-1.2666853666305542,0.10079649835824966,32.77350997924805,-21.05554962158203,15.27153205871582,-1.2912671566009521,-0.051128387451171875,0.27416062355041504,0.7434976100921631,6.401067733764648,-3.281433582305908
3_20251106_182757,1762424842214,3,0.34781983494758606,0.6077250242233276,0.5760393738746643,0.42174670100212097,1.0401588678359985,1.5374864339828491,-1.893725872039795,-0.831470251083374,6.321210861206055,-2.7056164741516113,-0.7526693344116211,-1.1836076974868774,0.23091067373752594,33.35585021972656,-21.43103790283203,14.029577255249023,-1.2599742412567139,-0.06388568878173828,0.46065378189086914,0.4285040497779846,6.385096549987793,-3.1662702560424805
3_20251106_182757,1762424842234,3,0.35786229372024536,0.6110594272613525,0.5679029226303101,0.41955605149269104,1.0401588678359985,1.5374864339828491,-1.893725872039795,-0.831470251083374,6.321210861206055,-2.7056164741516113,-0.7771039009094238,-1.1927706003189087,0.3909572660923004,33.90052032470703,-21.8336181640625,12.745073318481445,-1.2599742412567139,-0.06388568878173828,0.46065378189086914,0.4285040497779846,6.385096549987793,-3.1662702560424805
3_20251106_182757,1762424842253,3,0.36751705408096313,0.6151458621025085,0.55850750207901,0.41784706711769104,0.9707497358322144,1.4964196681976318,-1.88469660282135,-0.7512679100036621,7.005922317504883,-2.050830602645874,-0.8589597940444946,-1.1836076974868774,0.5546690225601196,34.37930679321289,-22.34893035888672,11.745943069458008,-0.7192383408546448,0.47030067443847656,0.7512292861938477,-0.03202955424785614,6.535621643066406,-2.8020598888397217
3_20251106_182757,1762424842272,3,0.3769359886646271,0.6195712089538574,0.5477453470230103,0.4171639382839203,0.937480092048645,1.4814296960830688,-1.8772543668746948,-0.32631540298461914,7.517063140869141,-2.036465883255005,-1.012286901473999,-1.120688557624817,0.6078141927719116,34.837772369384766,-22.7698974609375,10.484773635864258,-0.23542869091033936,0.7851533889770508,0.6124751567840576,-0.09088671952486038,6.73190975189209,-2.6489410400390625
3_20251106_182757,1762424842292,3,0.38662993907928467,0.6232881546020508,0.536142885684967,0.41782766580581665,0.9041606783866882,1.470042109489441,-1.86698579788208,-0.10725536942481995,7.916877746582031,-1.7192480564117432,-1.0807037353515625,-1.057769536972046,0.5497820377349854,35.1348876953125,-23.263168334960938,9.134811401367188,-0.01309492439031601,0.9479742050170898,0.7437543869018555,-0.09416044503450394,6.968903541564941,-2.4630024433135986
3_20251106_182757,1762424842311,3,0.39645400643348694,0.6260190010070801,0.5247436761856079,0.41900891065597534,0.8744218349456787,1.4634625911712646,-1.8545514345169067,0.026814155280590057,8.316692352294922,-1.3086600303649902,-1.0807037353515625,-1.057769536972046,0.5497820377349854,35.367576599121094,-23.800933837890625,7.775005340576172,0.09677968174219131,1.078230857849121,0.9234738349914551,-0.06996552646160126,7.238461494445801,-2.2321338653564453
3_20251106_182757,1762424842330,3,0.40628403425216675,0.6271932125091553,0.5144482851028442,0.4206007421016693,0.8744218349456787,1.4634625911712646,-1.8545514345169067,0.026814155280590057,8.316692352294922,-1.3086600303649902,-1.1625595092773438,-0.7059114575386047,0.21563903987407684,35.56638717651367,-24.324859619140625,6.339494705200195,0.09677968174219131,1.078230857849121,0.9234738349914551,-0.06996552646160126,7.238461494445801,-2.2321338653564453
3_20251106_182757,1762424842349,3,0.4161745309829712,0.6263479590415955,0.5056285262107849,0.422879159450531,0.8212013840675354,1.4610568284988403,-1.8251179456710815,0.18243058025836945,8.629122734069824,-1.3086600303649902,-1.2267003059387207,-0.7040788531303406,0.12034416943788528,35.75865173339844,-24.749122619628906,4.905605316162109,0.16076740622520447,0.9143476486206055,0.6115167140960693,0.021663177758455276,7.714775085449219,-1.9201767444610596
3_20251106_182757,1762424842368,3,0.4267115294933319,0.6247411966323853,0.49699831008911133,0.4249804615974426,0.7975152730941772,1.464490532875061,-1.8067396879196167,0.25664764642715454,8.817058563232422,-0.5509276986122131,-1.3061127662658691,-0.7260700464248657,0.0525381863117218,35.79208755493164,-25.19586181640625,3.424528121948242,0.1879875808954239,0.8818268775939941,1.0953991413116455,0.06866006553173065,7.935231685638428,-1.6463268995285034
3_20251106_182757,1762424842387,3,0.4379708468914032,0.6224095225334167,0.48832249641418457,0.42700010538101196,0.7750169038772583,1.4700241088867188,-1.784665822982788,0.06990794092416763,8.763191223144531,0.03562647104263306,-1.3152756690979004,-0.6949158906936646,-0.04886535927653313,35.86017608642578,-25.7431640625,2.224508285522461,0.0009983032941818237,0.6623678207397461,1.3455626964569092,0.06890963762998581,8.100823402404785,-1.309936285018921
3_20251106_182757,1762424842405,3,0.4496285021305084,0.6193556189537048,0.48003169894218445,0.4287218153476715,0.7537155747413635,1.4768799543380737,-1.7612000703811646,-0.35863572359085083,8.862546920776367,0.15174025297164917,-1.2358633279800415,-0.6881964206695557,-0.12461257725954056,35.87448501586914,-26.091575622558594,0.7986259460449219,-0.34203630685806274,0.6093788146972656,1.1693413257598877,-0.01659943163394928,8.253168106079102,-1.0176010131835938
3_20251106_182757,1762424842424,3,0.4610317349433899,0.6160308718681335,0.4724901616573334,0.4297775328159332,0.7299519181251526,1.4864251613616943,-1.7348812818527222,-0.8925197124481201,9.226449966430664,-0.0014820471405982971,-1.2358633279800415,-0.6881964206695557,-0.12461257725954056,35.905208587646484,-26.363853454589844,-0.62518310546875,-0.7007362246513367,0.77862548828125,0.8128951787948608,-0.19178347289562225,8.447824478149414,-0.8143772482872009
3_20251106_182757,1762424842444,3,0.4716928005218506,0.6128179430961609,0.4659273624420166,0.42996713519096375,0.7029371857643127,1.499374508857727,-1.7057820558547974,-1.2612109184265137,9.567608833312988,0.10026714205741882,-1.0336670875549316,-0.5861819982528687,-0.20524674654006958,35.92264175415039,-26.43707275390625,-2.0187158584594727,-0.8555419445037842,0.8958272933959961,0.7317155599594116,-0.4056689739227295,8.671781539916992,-0.6314483880996704
3_20251106_182757,1762424842463,3,0.4816995859146118,0.6093522310256958,0.4601397216320038,0.4300311207771301,0.6771404147148132,1.5125459432601929,-1.678074598312378,-1.5018178224563599,9.524515151977539,0.5168402791023254,-1.0397757291793823,-0.5006609559059143,-0.13377556204795837,35.93212890625,-26.42413330078125,-3.316277503967285,-0.8769190907478333,0.6821870803833008,0.9186309576034546,-0.6248987317085266,8.842328071594238,-0.40179067850112915
3_20251106_182757,1762424842482,3,0.4911707937717438,0.6058350801467896,0.4541171193122864,0.4306887090206146,0.6476085782051086,1.5284247398376465,-1.644128441810608,-1.382112979888916,9.492195129394531,1.1440942287445068,-0.9560872316360474,-0.46461987495422363,0.025049272924661636,35.94574737548828,-26.335983276367188,-4.5987396240234375,-0.6057714223861694,0.5198936462402344,1.2367079257965088,-0.7763415575027466,8.972301483154297,-0.09261372685432434
3_20251106_182757,1762424842503,3,0.4992987811565399,0.6030632257461548,0.4477137625217438,0.43193501234054565,0.6169587969779968,1.5472620725631714,-1.607967734336853,-1.131929636001587,9.866870880126953,0.5934514403343201,-0.7361760139465332,-0.4756154417991638,0.1655481457710266,35.94879913330078,-26.211631774902344,-5.813319206237793,-0.28447049856185913,0.7156553268432617,0.5488521456718445,-0.8474591374397278,9.151215553283691,0.04459930211305618
3_20251106_182757,1762424842522,3,0.5056158900260925,0.6018493175506592,0.44127771258354187,0.4329017400741577,0.5907569527626038,1.567712426185608,-1.5762150287628174,-0.7955588102340698,10.703608512878418,0.28940093517303467,-0.6402702331542969,-0.5263172388076782,0.24740402400493622,35.94879913330078,-26.211631774902344,-5.813319206237793,0.04152023792266846,1.2419147491455078,0.19584131240844727,-0.8370790481567383,9.46169376373291,0.0935596227645874
3_20251106_182757,1762424842540,3,0.5110997557640076,0.6017038822174072,0.4345318078994751,0.4334877133369446,0.5692207217216492,1.588225245475769,-1.547611951828003,-0.502281665802002,10.886756896972656,0.8280731439590454,-0.6921937465667725,-0.5165433883666992,0.25717785954475403,35.890132904052734,-26.092330932617188,-6.922220230102539,0.26783788204193115,1.1400508880615234,0.5876108407974243,-0.7701195478439331,9.746706008911133,0.2404623180627823
3_20251106_182757,1762424842559,3,0.5168042778968811,0.6014470458030701,0.4273665249347687,0.43420344591140747,0.5474643707275391,1.6151483058929443,-1.5120961666107178,-0.009097322821617126,11.06152629852295,1.407444953918457,-0.7349542379379272,-0.42613542079925537,0.20525436103343964,35.73649978637695,-25.92955780029297,-7.993440628051758,0.6088178157806396,1.0518560409545898,0.9335861206054688,-0.617915153503418,10.00967025756836,0.4738588333129883
3_20251106_182757,1762424842579,3,0.5225551724433899,0.6002698540687561,0.42071202397346497,0.43544644117355347,0.5301597118377686,1.6433405876159668,-1.476752758026123,0.23150959610939026,11.429020881652832,1.6731899976730347,-0.7618323564529419,-0.28319305181503296,-0.001828775741159916,35.536659240722656,-25.708526611328125,-8.930139541625977,0.6795397996902466,1.1354808807373047,0.959464967250824,-0.4480302333831787,10.293540000915527,0.7137250304222107
3_20251106_182757,1762424842596,3,0.5286175608634949,0.5973774790763855,0.4158398509025574,0.43678462505340576,0.5143929719924927,1.6708552837371826,-1.4442641735076904,-0.5262226462364197,11.163275718688965,0.9896748065948486,-0.7471715211868286,-0.1634635627269745,-0.2608354091644287,35.28373336791992,-25.5777587890625,-9.951745986938477,-0.06255394220352173,0.6957883834838867,0.22075986862182617,-0.46366870403289795,10.467487335205078,0.7689149379730225
3_20251106_182757,1762424842616,3,0.5348760485649109,0.5927384495735168,0.4134058952331543,0.43779483437538147,0.49420496821403503,1.7002050876617432,-1.410460352897644,-1.6299021244049072,10.568342208862305,0.6078161001205444,-0.7654975056648254,-0.2538715600967407,-0.20158155262470245,35.00909423828125,-25.363784790039062,-10.661611557006836,-0.9329867362976074,0.08068370819091797,-0.12887907028198242,-0.6969153881072998,10.487658500671387,0.7366951704025269
3_20251106_182757,1762424842635,3,0.5416398048400879,0.588985800743103,0.40974876284599304,0.4379817843437195,0.49420496821403503,1.7002050876617432,-1.410460352897644,-1.6299021244049072,10.568342208862305,0.6078161001205444,-0.7520585060119629,-0.26303452253341675,0.058035966008901596,34.74461364746094,-25.198165893554688,-11.480173110961914,-0.9329867362976074,0.08068370819091797,-0.12887907028198242,-0.6969153881072998,10.487658500671387,0.7366951704025269
3_20251106_182757,1762424842655,3,0.5423701405525208,0.5817500352859497,0.41132083535194397,0.4452153146266937,0.44979092478752136,1.7539256811141968,-1.3446747064590454,-1.469497561454773,10.683258056640625,1.542711615562439,-0.695248007774353,-0.11520526558160782,0.20036743581295013,36.6521110534668,-30.83086395263672,-8.680649757385254,-0.44695377349853516,0.1529541015625,0.5696698427200317,-1.0225437879562378,10.530303955078125,0.9730417728424072
3_20251106_182757,1762424842674,3,0.5463200211524963,0.5789946913719177,0.406849205493927,0.44807735085487366,0.44979092478752136,1.7539256811141968,-1.3446747064590454,-1.469497561454773,10.683258056640625,1.542711615562439,-0.7294564843177795,0.041176095604896545,0.1612720936536789,36.29902648925781,-30.71009063720703,-9.341240882873535,-0.44695377349853516,0.1529541015625,0.5696698427200317,-1.0225437879562378,10.530303955078125,0.9730417728424072
3_20251106_182757,1762424842694,3,0.5499411821365356,0.5751683115959167,0.403240829706192,0.4518217444419861,0.40565064549446106,1.8039616346359253,-1.2827938795089722,-1.6526460647583008,10.751490592956543,0.9609456658363342,-0.8308600187301636,0.19022709131240845,0.11179206520318985,35.98695373535156,-30.48809814453125,-9.836052894592285,-0.43965578079223633,0.12183189392089844,-0.07822376489639282,-1.2129902839660645,10.629658699035645,1.039169430732727
3_20251106_182757,1762424842712,3,0.5536450743675232,0.5699615478515625,0.40029457211494446,0.45649227499961853,0.3837547302246094,1.8278155326843262,-1.2551615238189697,-1.4910444021224976,10.820919036865234,0.7335062026977539,-0.8308600187301636,0.19022709131240845,0.11179206520318985,35.686065673828125,-30.278274536132812,-10.290090560913086,-0.2224433422088623,0.15300846099853516,-0.2445305585861206,-1.2686010599136353,10.6679105758667,0.9780367612838745
3_20251106_182757,1762424842732,3,0.5575089454650879,0.5636246800422668,0.39676937460899353,0.46269330382347107,0.3837547302246094,1.8278155326843262,-1.2551615238189697,-1.4910444021224976,10.820919036865234,0.7335062026977539,-1.0135085582733154,0.31423261761665344,0.1869284063577652,35.40943908691406,-30.07861328125,-10.824508666992188,-0.2224433422088623,0.15300846099853516,-0.2445305585861206,-1.2686010599136353,10.6679105758667,0.9780367612838745
3_20251106_182757,1762424842751,3,0.5611881613731384,0.5570019483566284,0.392316609621048,0.4700046479701996,0.346591591835022,1.8763353824615479,-1.1975722312927246,-0.5633312463760376,11.391912460327148,2.555415391921997,-1.1265184879302979,0.41136011481285095,0.29810580611228943,35.14492416381836,-29.855056762695312,-11.15516471862793,0.5071072578430176,0.5028162002563477,1.1803653240203857,-1.0704385042190552,10.8890962600708,1.3750500679016113
3_20251106_182757,1762424842769,3,0.5645889639854431,0.5499639511108398,0.388027548789978,0.4777170717716217,0.33097854256629944,1.9006532430648804,-1.165859580039978,-0.8135145306587219,11.287769317626953,2.5362625122070312,-1.1265184879302979,0.41136011481285095,0.29810580611228943,34.959468841552734,-29.73882293701172,-11.498278617858887,0.20553916692733765,0.3189382553100586,0.9289699792861938,-1.0190536975860596,10.968831062316895,1.6072925329208374
3_20251106_182757,1762424842789,3,0.567022442817688,0.5426619648933411,0.3852253258228302,0.48539161682128906,0.3153025507926941,1.9252456426620483,-1.1335026025772095,-1.0397567749023438,11.059131622314453,1.819230079650879,-0.8326926231384277,0.6147780418395996,0.2877211272716522,34.75055694580078,-29.59973907470703,-11.774264335632324,-0.016562461853027344,0.07223987579345703,0.16954994201660156,-1.0231943130493164,10.986891746520996,1.6496801376342773
3_20251106_182757,1762424842808,3,0.5679793953895569,0.5358994007110596,0.3834387958049774,0.4931388199329376,0.3015660345554352,1.948121190071106,-1.1040618419647217,-0.8733669519424438,11.235098838806152,1.736633539199829,-0.8326926231384277,0.6147780418395996,0.2877211272716522,34.54104995727539,-29.461463928222656,-11.969152450561523,0.119861900806427,0.19856548309326172,0.06956267356872559,-0.9932288527488708,11.03653335571289,1.6670708656311035
3_20251106_182757,1762424842826,3,0.5682401061058044,0.5292790532112122,0.3812805414199829,0.5015894770622253,0.29062727093696594,1.9693838357925415,-1.0756016969680786,-0.41489702463150024,11.31051254272461,2.464439868927002,-0.852851152420044,0.6868600845336914,0.4031745493412018,34.38059997558594,-29.30799102783203,-12.107749938964844,0.4626654386520386,0.21918392181396484,0.6378952264785767,-0.8775624632835388,11.091328620910645,1.8265446424484253
3_20251106_182757,1762424842845,3,0.5682986974716187,0.5219972729682922,0.3791104555130005,0.510715901851654,0.28203096985816956,1.9910409450531006,-1.044169545173645,-0.012688472867012024,11.21355152130127,2.8810129165649414,-0.9169919490814209,0.7656616568565369,0.42577654123306274,34.2279167175293,-29.217727661132812,-12.125531196594238,0.6918991804122925,0.0977783203125,0.8435745239257812,-0.7045876383781433,11.11577320098877,2.03743839263916
3_20251106_182757,1762424842864,3,0.5681768655776978,0.5137327909469604,0.377693772315979,0.520193338394165,0.2757759392261505,2.0117554664611816,-1.0126513242721558,-0.007900252938270569,11.166866302490234,2.6416029930114746,-0.9053854942321777,0.9128800630569458,0.32681646943092346,34.1077766418457,-29.18853759765625,-12.075578689575195,0.5573499202728271,0.040874481201171875,0.48333168029785156,-0.5652501583099365,11.125991821289062,2.158271312713623
3_20251106_182757,1762424842883,3,0.5677503943443298,0.505113422870636,0.3767496943473816,0.5296977162361145,0.271796315908432,2.0318024158477783,-0.9814257025718689,0.15011024475097656,11.260236740112305,2.6260414123535156,-0.9035528898239136,0.9507536888122559,0.4184461534023285,33.97465896606445,-29.161216735839844,-11.917985916137695,0.5722883343696594,0.10739517211914062,0.37421607971191406,-0.42217808961868286,11.152841567993164,2.2518253326416016
3_20251106_182757,1762424842902,3,0.5665889978408813,0.49664098024368286,0.3755505681037903,0.5397095680236816,0.2708929181098938,2.052117109298706,-0.9504587650299072,0.6265358924865723,11.615760803222656,2.726593494415283,-0.8320817947387695,0.9806860685348511,0.5265691876411438,33.84134292602539,-29.134170532226562,-11.73336124420166,0.8389711976051331,0.3703346252441406,0.37981462478637695,-0.2124353051185608,11.245426177978516,2.3467788696289062
3_20251106_182757,1762424842922,3,0.5642934441566467,0.4887572228908539,0.37431102991104126,0.5500732064247131,0.2739773988723755,2.0744199752807617,-0.9175001978874207,1.0993703603744507,11.899460792541504,3.0019149780273438,-0.7587779760360718,0.9898489713668823,0.5039672255516052,33.84134292602539,-29.134170532226562,-11.73336124420166,1.049444556236267,0.5232276916503906,0.52410888671875,0.049925804138183594,11.376233100891113,2.4778060913085938
3_20251106_182757,1762424842941,3,0.5615840554237366,0.48113706707954407,0.3735083043575287,0.5600196719169617,0.2739773988723755,2.0744199752807617,-0.9175001978874207,1.0993703603744507,11.899460792541504,3.0019149780273438,-0.6647047996520996,1.0344421863555908,0.3457532823085785,33.65464401245117,-29.197792053222656,-11.593094825744629,1.049444556236267,0.5232276916503906,0.52410888671875,0.049925804138183594,11.376233100891113,2.4778060913085938
3_20251106_182757,1762424842960,3,0.5590384006500244,0.4732235372066498,0.37401294708251953,0.5689023733139038,0.286215603351593,2.116090774536133,-0.8543790578842163,0.6265358924865723,11.426626205444336,3.016279458999634,-0.5834597945213318,1.1010264158248901,0.19425879418849945,33.4539680480957,-29.27625274658203,-11.304903984069824,0.29395154118537903,-0.029420852661132812,0.315319299697876,0.33258435130119324,11.456047058105469,2.700960159301758
3_20251106_182757,1762424842979,3,0.5566176176071167,0.4647604525089264,0.3759433925151825,0.5769238471984863,0.29228419065475464,2.1343870162963867,-0.8235816955566406,0.30452960729599,11.122575759887695,3.1012699604034424,-0.5956771373748779,1.1388999223709106,0.175932839512825,33.2597541809082,-29.442893981933594,-10.909939765930176,-0.022443771362304688,-0.26677703857421875,0.3202476501464844,0.3269733786582947,11.389352798461914,2.781022310256958
3_20251106_182757,1762424842999,3,0.5540805459022522,0.45582816004753113,0.37817463278770447,0.5849781632423401,0.29228419065475464,2.1343870162963867,-0.8235816955566406,0.30452960729599,11.122575759887695,3.1012699604034424,-0.6085052490234375,1.1486738920211792,0.26511910557746887,33.092620849609375,-29.56946563720703,-10.594300270080566,-0.022443771362304688,-0.26677703857421875,0.3202476501464844,0.3269733786582947,11.389352798461914,2.781022310256958
3_20251106_182757,1762424843018,3,0.5510448813438416,0.4470120072364807,0.37994495034217834,0.5934405326843262,0.30573275685310364,2.17069935798645,-0.7572407126426697,0.7450437545776367,11.798908233642578,4.013421535491943,-0.5474188327789307,1.171886682510376,0.2932188808917999,32.9345703125,-29.734268188476562,-10.143799781799316,0.30874353647232056,0.3138275146484375,0.8542377948760986,0.43630021810531616,11.48508071899414,3.1591837406158447
3_20251106_182757,1762424843036,3,0.5475193858146667,0.43846774101257324,0.3818751275539398,0.6017806529998779,0.3127555847167969,2.1871514320373535,-0.7254656553268433,0.7629995346069336,11.683992385864258,4.038559436798096,-0.42096975445747375,1.171886682510376,0.28588852286338806,32.78841018676758,-29.89867401123047,-9.652259826660156,0.26135945320129395,0.15912914276123047,0.703500509262085,0.5016400814056396,11.524863243103027,3.3350589275360107
3_20251106_182757,1762424843055,3,0.5431779623031616,0.430355429649353,0.384612113237381,0.6097749471664429,0.3201274573802948,2.204437255859375,-0.6915835738182068,0.6217476725578308,11.812076568603516,4.070879936218262,-0.3012402653694153,1.1969321966171265,0.2938297688961029,32.6889762878418,-30.097442626953125,-9.173067092895508,0.09608608484268188,0.22977066040039062,0.5886569023132324,0.5256615877151489,11.582305908203125,3.4822230339050293
3_20251106_182757,1762424843075,3,0.5381084680557251,0.42269548773765564,0.38807937502861023,0.6173833608627319,0.3281007409095764,2.2226436138153076,-0.6555153131484985,0.7234969139099121,11.885096549987793,4.201358318328857,-0.20777800679206848,1.282453179359436,0.32315126061439514,32.601219177246094,-30.307708740234375,-8.720680236816406,0.1582682728767395,0.2422323226928711,0.5753083229064941,0.5652286410331726,11.642864227294922,3.6260499954223633
3_20251106_182757,1762424843093,3,0.5321409106254578,0.4150823950767517,0.3923491835594177,0.6249758005142212,0.33631864190101624,2.2381227016448975,-0.6231158375740051,1.134084939956665,11.607381820678711,4.260013580322266,-0.06911170482635498,1.33804190158844,0.37324216961860657,32.43947219848633,-30.51233673095703,-8.054710388183594,0.45508503913879395,-0.02838611602783203,0.5071709156036377,0.6789999008178711,11.635767936706543,3.752842664718628
3_20251106_182757,1762424843113,3,0.5250680446624756,0.4080031216144562,0.3974008858203888,0.6323840022087097,0.33631864190101624,2.2381227016448975,-0.6231158375740051,1.134084939956665,11.607381820678711,4.260013580322266,0.09032398462295532,1.3233811855316162,0.38301602005958557,32.3193359375,-30.827880859375,-7.281025409698486,0.45508503913879395,-0.02838611602783203,0.5071709156036377,0.6789999008178711,11.635767936706543,3.752842664718628
3_20251106_182757,1762424843133,3,0.5171449780464172,0.4017677903175354,0.4032036364078522,0.6391952037811279,0.3485252559185028,2.253939151763916,-0.5840315818786621,1.4034209251403809,11.049556732177734,4.1510820388793945,0.09032398462295532,1.3233811855316162,0.38301602005958557,32.20100021362305,-31.117767333984375,-6.560877323150635,0.5795367956161499,-0.46896934509277344,0.3185913562774658,0.823884129524231,11.518526077270508,3.8324906826019287
3_20251106_182757,1762424843151,3,0.5091183185577393,0.3960362672805786,0.40942439436912537,0.6452329158782959,0.36025503277778625,2.264348268508911,-0.5518656969070435,1.448908805847168,10.582706451416016,3.8685786724090576,0.1843971461057663,1.276955485343933,0.33903375267982483,32.008663177490234,-31.41363525390625,-5.722025394439697,0.5000197291374207,-0.7486553192138672,0.028870344161987305,0.9488890767097473,11.331361770629883,3.8397083282470703
3_20251106_182757,1762424843170,3,0.5013942718505859,0.3902004361152649,0.4156424105167389,0.6508370041847229,0.3841573894023895,2.2757771015167236,-0.4977855086326599,1.6129045486450195,10.409133911132812,3.669868230819702,0.16240601241588593,1.2286971807479858,0.24557143449783325,31.802318572998047,-31.74756622314453,-4.925004959106445,0.44144129753112793,-0.5768184661865234,-0.11501812934875488,1.1714632511138916,10.985952377319336,3.784886360168457
3_20251106_182757,1762424843190,3,0.4940533936023712,0.38424918055534363,0.42166927456855774,0.6560935974121094,0.3998872637748718,2.280144214630127,-0.468142569065094,1.690712809562683,10.68924331665039,3.7452826499938965,0.11781288683414459,1.245801329612732,0.12767453491687775,31.571590423583984,-32.094696044921875,-4.223842620849609,0.4153996706008911,-0.2373676300048828,-0.03168296813964844,1.275313138961792,10.926610946655273,3.776965618133545
3_20251106_182757,1762424843209,3,0.48740363121032715,0.37745001912117004,0.42787787318229675,0.6609763503074646,0.4140019714832306,2.283128499984741,-0.44250762462615967,1.4920024871826172,10.646150588989258,3.833864212036133,0.06344594061374664,1.298946499824524,-0.04153498262166977,31.24015998840332,-32.49894714355469,-3.4735946655273438,0.17335140705108643,-0.22436904907226562,0.04551887512207031,1.3186510801315308,10.870519638061523,3.7883453369140625
3_20251106_182757,1762424843228,3,0.48181840777397156,0.3694121241569519,0.4344528913497925,0.6653092503547668,0.42590880393981934,2.28462815284729,-0.41950979828834534,0.9952270984649658,10.388784408569336,3.7584500312805176,0.06344594061374664,1.298946499824524,-0.04153498262166977,30.994848251342773,-32.87333679199219,-2.6382884979248047,-0.2587392330169678,-0.3853883743286133,-0.023916244506835938,1.2539663314819336,10.77417278289795,3.7823662757873535
3_20251106_182757,1762424843246,3,0.47663506865501404,0.36087340116500854,0.4410812556743622,0.6693554520606995,0.43661338090896606,2.2852518558502197,-0.39556455612182617,0.8036991953849792,10.453426361083984,4.104396820068359,0.04084394499659538,1.264127254486084,-0.022598177194595337,30.87733268737793,-33.13892364501953,-1.8365144729614258,-0.3602136969566345,-0.25659656524658203,0.25762462615966797,1.1639128923416138,10.710022926330566,3.8467721939086914
3_20251106_182757,1762424843266,3,0.4710318148136139,0.3528117537498474,0.4472165107727051,0.6735356450080872,0.4466975927352905,2.2856364250183105,-0.37128543853759766,1.132887840270996,10.634180068969727,4.4048566818237305,0.11353684961795807,1.2494665384292603,0.1398918330669403,30.76544189453125,-33.31566619873047,-1.127507209777832,-0.02482008934020996,-0.06067466735839844,0.44646739959716797,1.157707929611206,10.694854736328125,3.9583892822265625
3_20251106_182757,1762424843285,3,0.4641149342060089,0.34571409225463867,0.4531317353248596,0.6780492067337036,0.45813286304473877,2.286604404449463,-0.3461112082004547,1.6021311283111572,10.886756896972656,4.25283145904541,0.2699182331562042,1.2134255170822144,0.24496056139469147,30.62444305419922,-33.581626892089844,-0.4483604431152344,0.35553860664367676,0.15352153778076172,0.23555374145507812,1.2465925216674805,10.733235359191895,4.017277717590332
3_20251106_182757,1762424843304,3,0.45608487725257874,0.3399829864501953,0.4593872129917145,0.6821741461753845,0.4697045087814331,2.2877414226531982,-0.3242395222187042,1.7026833295822144,10.829298973083496,3.7081737518310547,0.36704573035240173,1.1694432497024536,0.23579758405685425,30.49622344970703,-33.845985412597656,0.1501789093017578,0.3648725748062134,0.07684993743896484,-0.2472829818725586,1.337810754776001,10.752449035644531,3.9554567337036133
3_20251106_182757,1762424843323,3,0.4479145109653473,0.3350120186805725,0.46598148345947266,0.6855660676956177,0.48159027099609375,2.2886745929718018,-0.3050331771373749,1.6631805896759033,10.698820114135742,3.3825764656066895,0.36704573035240173,1.1694432497024536,0.23579758405685425,30.406578063964844,-34.07041931152344,0.7644977569580078,0.2602958679199219,-0.04290294647216797,-0.45830440521240234,1.4028847217559814,10.74172306060791,3.840880870819092
3_20251106_182757,1762424843343,3,0.4403077960014343,0.3302368223667145,0.4719676375389099,0.6887083649635315,0.49371084570884705,2.28910493850708,-0.2876701354980469,1.7050774097442627,10.57552433013916,3.519040107727051,0.20089049637317657,1.0387182235717773,0.23946277797222137,30.317550659179688,-34.27082061767578,1.4874744415283203,0.2417541742324829,-0.13295936584472656,-0.25747251510620117,1.4633232355117798,10.708483695983887,3.776512622833252
3_20251106_182757,1762424843362,3,0.4331507682800293,0.32552334666252136,0.47683021426200867,0.692132830619812,0.5068538188934326,2.2893059253692627,-0.2708241641521454,1.7996442317962646,10.63298225402832,3.6064248085021973,0.11781288683414459,0.9696904420852661,0.26023221015930176,30.317550659179688,-34.27082061767578,1.4874744415283203,0.2690567970275879,-0.060400962829589844,-0.13607025146484375,1.5305874347686768,10.69338321685791,3.742495059967041
3_20251106_182757,1762424843380,3,0.4263935387134552,0.3209720849990845,0.4807065725326538,0.695763349533081,0.5190660357475281,2.2899508476257324,-0.25519663095474243,1.9265315532684326,10.885560989379883,4.239663600921631,0.14408007264137268,0.9574731588363647,0.16310468316078186,30.278268814086914,-34.45508575439453,2.1721277236938477,0.3167552947998047,0.15374183654785156,0.3977346420288086,1.609776258468628,10.731819152832031,3.8419289588928223
3_20251106_182757,1762424843400,3,0.4202345013618469,0.31615787744522095,0.4849225580692291,0.6987826824188232,0.532865047454834,2.29118275642395,-0.23863808810710907,1.9085757732391357,10.913091659545898,3.862593412399292,0.27480512857437134,1.0289443731307983,-0.007326558232307434,30.179962158203125,-34.617530822753906,2.7872753143310547,0.23903965950012207,0.1450176239013672,0.01653146743774414,1.6695361137390137,10.768074035644531,3.846061944961548
3_20251106_182757,1762424843418,3,0.41448134183883667,0.31055015325546265,0.49064409732818604,0.7007368803024292,0.544965922832489,2.2928614616394043,-0.22458131611347198,1.7924619913101196,11.022024154663086,3.8051352500915527,0.3059592545032501,0.9562514424324036,-0.13072124123573303,30.05536651611328,-34.8189697265625,3.373617172241211,0.09834074974060059,0.20316028594970703,-0.032741546630859375,1.694121241569519,10.818863868713379,3.837876796722412
3_20251106_182757,1762424843438,3,0.4097681939601898,0.3050144612789154,0.496634304523468,0.7017197012901306,0.5572556257247925,2.2949817180633545,-0.20938462018966675,1.5350964069366455,10.933442115783691,3.955963373184204,0.3474980592727661,0.924486517906189,-0.2351791113615036,29.95665168762207,-34.993568420410156,3.9479522705078125,-0.1272197961807251,0.09166240692138672,0.09446930885314941,1.6623162031173706,10.841779708862305,3.8614940643310547
3_20251106_182757,1762424843457,3,0.4057963788509369,0.29936492443084717,0.5030228495597839,0.7019101977348328,0.5670489072799683,2.2972681522369385,-0.19644823670387268,1.1891491413116455,10.977733612060547,3.577695846557617,0.4085845351219177,0.9489210844039917,-0.3066502511501312,29.923912048339844,-35.064544677734375,4.607948303222656,-0.37853360176086426,0.10876274108886719,-0.22703838348388672,1.5676827430725098,10.86897087097168,3.804734230041504
3_20251106_182757,1762424843475,3,0.4019942581653595,0.2933582067489624,0.5100479125976562,0.7015644311904907,0.5741525888442993,2.2992961406707764,-0.1857418417930603,0.8731280565261841,10.856830596923828,3.424473285675049,0.4085845351219177,0.9489210844039917,-0.3066502511501312,29.942834854125977,-35.08198547363281,5.2574462890625,-0.5556437969207764,-0.00971221923828125,-0.30420875549316406,1.4287718534469604,10.86654281616211,3.728682041168213
3_20251106_182757,1762424843496,3,0.3979211747646332,0.2873609662055969,0.5171688199043274,0.7011553645133972,0.5796233415603638,2.3009231090545654,-0.1759331375360489,0.7618024945259094,10.697624206542969,3.2377336025238037,0.47455790638923645,0.9452558755874634,-0.16126447916030884,29.942419052124023,-35.012977600097656,5.894294738769531,-0.5335754752159119,-0.13513469696044922,-0.392758846282959,1.2953779697418213,10.832758903503418,3.6304924488067627
3_20251106_182757,1762424843514,3,0.3930239975452423,0.28230348229408264,0.5241794586181641,0.70076584815979,0.5832313895225525,2.301764726638794,-0.16843751072883606,0.810881495475769,10.604253768920898,3.135984420776367,0.557635486125946,0.8456849455833435,3.816559910774231e-06,29.983198165893555,-34.854095458984375,6.575010299682617,-0.3875972032546997,-0.18280410766601562,-0.39560627937316895,1.1984786987304688,10.787057876586914,3.531590700149536
3_20251106_182757,1762424843533,3,0.38725417852401733,0.2789674997329712,0.530912458896637,0.7002451419830322,0.5832313895225525,2.301764726638794,-0.16843751072883606,0.810881495475769,10.604253768920898,3.135984420776367,0.6675911545753479,0.768105149269104,0.07758363336324692,30.046939849853516,-34.71873474121094,7.2561798095703125,-0.3875972032546997,-0.18280410766601562,-0.39560627937316895,1.1984786987304688,10.787057876586914,3.531590700149536
3_20251106_182757,1762424843553,3,0.3810487389564514,0.27694910764694214,0.5378097891807556,0.6991864442825317,0.5860214233398438,2.3023853302001953,-0.16309794783592224,0.9293894171714783,10.71438217163086,2.822357654571533,0.7030212879180908,0.8120874166488647,0.005501599982380867,30.112104415893555,-34.54664611816406,8.032754898071289,-0.21527141332626343,-0.05814075469970703,-0.5673863887786865,1.1446608304977417,10.772522926330566,3.3897440433502197
3_20251106_182757,1762424843571,3,0.37500014901161194,0.2744671404361725,0.545231819152832,0.6976854205131531,0.5899543166160583,2.3017823696136475,-0.16228385269641876,1.0263503789901733,10.358858108520508,1.911402702331543,0.7030212879180908,0.8120874166488647,0.005501599982380867,30.154220581054688,-34.33955383300781,8.91727066040039,-0.07571876049041748,-0.3068819046020508,-1.0210261344909668,1.1020691394805908,10.665740013122559,2.9324288368225098
3_20251106_182757,1762424843591,3,0.3694390058517456,0.27131691575050354,0.5528857111930847,0.6958587169647217,0.5909807085990906,2.2992851734161377,-0.16732598841190338,0.8360195159912109,10.114660263061523,1.7102985382080078,0.6914148330688477,0.8414088487625122,-0.08979330211877823,30.209228515625,-34.119110107421875,9.802541732788086,-0.21283972263336182,-0.44086360931396484,-0.9777042865753174,1.0488592386245728,10.555523872375488,2.688002824783325
3_20251106_182757,1762424843610,3,0.36448073387145996,0.26830267906188965,0.5600351691246033,0.693922221660614,0.5909807085990906,2.2992851734161377,-0.16732598841190338,0.8360195159912109,10.114660263061523,1.7102985382080078,0.5704636573791504,0.719846785068512,-0.10506491363048553,30.169862747192383,-33.85438537597656,10.64439582824707,-0.21283972263336182,-0.44086360931396484,-0.9777042865753174,1.0488592386245728,10.555523872375488,2.688002824783325
3_20251106_182757,1762424843629,3,0.359906405210495,0.26542341709136963,0.5664576292037964,0.6922019720077515,0.5891567468643188,2.2914228439331055,-0.18364104628562927,0.5211955308914185,10.18887710571289,1.8024712800979614,0.48982951045036316,0.73939448595047,-0.09223675727844238,30.170480728149414,-33.524627685546875,11.502557754516602,-0.34996265172958374,-0.21607494354248047,-0.5489281415939331,0.8711581826210022,10.404952049255371,2.3513994216918945
3_20251106_182757,1762424843649,3,0.35529640316963196,0.2621050477027893,0.5723622441291809,0.6909897923469543,0.5869016647338867,2.2867531776428223,-0.19356298446655273,0.6205506324768066,10.248729705810547,2.008363962173462,0.48982951045036316,0.73939448595047,-0.09223675727844238,30.166067123413086,-33.28290557861328,12.372386932373047,-0.20048600435256958,-0.12497806549072266,-0.2744283676147461,0.8210366368293762,10.37370777130127,2.282792329788208
3_20251106_182757,1762424843667,3,0.35076773166656494,0.2592962980270386,0.5776697993278503,0.6899456977844238,0.5850715041160583,2.2826762199401855,-0.20091569423675537,0.8168667554855347,10.234365463256836,2.5829477310180664,0.5264813899993896,0.5988956093788147,0.008555922657251358,30.09659194946289,-33.120361328125,13.224664688110352,-0.003335893154144287,-0.11147403717041016,0.24012422561645508,0.820202648639679,10.345839500427246,2.3428235054016113
3_20251106_182757,1762424843686,3,0.34612923860549927,0.2575071156024933,0.5829417705535889,0.6885226964950562,0.5830450057983398,2.276932954788208,-0.20956793427467346,0.8264431953430176,9.955451965332031,2.1998918056488037,0.7091299295425415,0.5408633947372437,-0.0012179119512438774,30.03647804260254,-32.7943115234375,14.053340911865234,0.004992425441741943,-0.31230926513671875,-0.11434531211853027,0.8214507699012756,10.26776123046875,2.314237117767334
3_20251106_182757,1762424843706,3,0.3413425087928772,0.2565442621707916,0.5891023874282837,0.6860238313674927,0.5809886455535889,2.27048397064209,-0.21939007937908173,0.6899795532226562,9.643022537231445,1.329636812210083,0.8019813895225525,0.40158626437187195,0.0030581410974264145,29.95017433166504,-32.507118225097656,14.83969497680664,-0.10517698526382446,-0.49979114532470703,-0.7876803874969482,0.7951565384864807,10.142813682556152,2.1173171997070312
3_20251106_182757,1762424843725,3,0.3371364176273346,0.25689563155174255,0.5953624248504639,0.6825593113899231,0.5780397653579712,2.261775255203247,-0.2329421192407608,0.5391513109207153,9.517333030700684,1.0698771476745605,0.7421166300773621,0.2543678879737854,0.020162353292107582,29.88953971862793,-32.20496368408203,15.546197891235352,-0.2048041820526123,-0.5003843307495117,-0.8379520177841187,0.7439554929733276,10.017717361450195,1.9078291654586792
3_20251106_182757,1762424843744,3,0.333802193403244,0.25816383957862854,0.6007859110832214,0.6789578795433044,0.5748225450515747,2.252652168273926,-0.24666912853717804,0.46134307980537415,9.336578369140625,1.0387537479400635,0.6156676411628723,0.31973040103912354,-0.017711259424686432,29.766170501708984,-31.93243408203125,16.30378532409668,-0.22608992457389832,-0.5449113845825195,-0.6952602863311768,0.6874330043792725,9.881489753723145,1.7340140342712402
3_20251106_182757,1762424843762,3,0.330484002828598,0.2582210898399353,0.6057528257369995,0.676140308380127,0.5748225450515747,2.252652168273926,-0.24666912853717804,0.46134307980537415,9.336578369140625,1.0387537479400635,0.5600789785385132,0.37531912326812744,-0.047032762318849564,29.63018226623535,-31.24712371826172,18.307968139648438,-0.22608992457389832,-0.5449113845825195,-0.6952602863311768,0.6874330043792725,9.881489753723145,1.7340140342712402
3_20251106_182757,1762424843783,3,0.3271178901195526,0.2574933171272278,0.6105927228927612,0.6736969351768494,0.563839852809906,2.2236199378967285,-0.28678980469703674,0.09265187382698059,8.49984073638916,-0.06731977313756943,0.46539491415023804,0.3117891550064087,0.015275435522198677,29.527252197265625,-31.047950744628906,19.024404525756836,-0.39962121844291687,-0.9252424240112305,-1.2463191747665405,0.49227309226989746,9.42508316040039,1.178999423980713
3_20251106_182757,1762424843800,3,0.32402053475379944,0.2572689354419708,0.6145089268684387,0.6717158555984497,0.5578445792198181,2.207595109939575,-0.3079328238964081,0.17764237523078918,8.434003829956055,0.19483405351638794,0.27419427037239075,0.24764838814735413,0.08674661070108414,29.527252197265625,-31.047950744628906,19.024404525756836,-0.2517045736312866,-0.7928638458251953,-0.7873323559761047,0.4293469488620758,9.22686767578125,0.9821664094924927
3_20251106_182757,1762424843820,3,0.32130903005599976,0.257309228181839,0.6168977618217468,0.6708126664161682,0.5514388680458069,2.18868088722229,-0.3305951654911041,0.4038847088813782,8.569269180297852,0.8687728643417358,0.11353684961795807,0.33011510968208313,0.08430314809083939,29.356733322143555,-30.76483154296875,19.658647537231445,-0.020369797945022583,-0.5260782241821289,-0.09071487188339233,0.42425450682640076,9.09534740447998,0.9594877362251282
3_20251106_182757,1762424843839,3,0.31843796372413635,0.2562199532985687,0.6184872984886169,0.671134889125824,0.545913815498352,2.170696258544922,-0.34957587718963623,0.517604410648346,8.761995315551758,1.496026635169983,0.11353684961795807,0.33011510968208313,0.08430314809083939,29.235143661499023,-30.48987579345703,20.172943115234375,0.07467994093894958,-0.2666816711425781,0.42923104763031006,0.44292446970939636,9.028676986694336,1.0667955875396729
3_20251106_182757,1762424843859,3,0.315346896648407,0.2537941336631775,0.6202816367149353,0.6718598008155823,0.5403610467910767,2.152031898498535,-0.36788854002952576,0.4338109493255615,8.80508804321289,1.2865430116653442,0.1483561247587204,0.5671305656433105,-0.06719129532575607,29.13399314880371,-30.28827667236328,20.64608383178711,-0.0072908103466033936,-0.17887115478515625,0.1757979393005371,0.4411017596721649,8.983959197998047,1.1107450723648071
3_20251106_182757,1762424843878,3,0.31202033162117004,0.25038665533065796,0.6228952407836914,0.6722732782363892,0.5403610467910767,2.152031898498535,-0.36788854002952576,0.4338109493255615,8.80508804321289,1.2865430116653442,0.2149403840303421,0.5396417379379272,-0.08551724255084991,29.045635223388672,-30.073455810546875,21.133495330810547,-0.0072908103466033936,-0.17887115478515625,0.1757979393005371,0.4411017596721649,8.983959197998047,1.1107450723648071
3_20251106_182757,1762424843896,3,0.3087707757949829,0.2472086101770401,0.6259261965751648,0.6721345782279968,0.533953845500946,2.132385015487671,-0.38728755712509155,0.06871089339256287,8.353801727294922,0.45219966769218445,0.19111664593219757,0.36004745960235596,0.041542619466781616,28.92081642150879,-29.860885620117188,21.60592269897461,-0.29791268706321716,-0.5041265487670898,-0.5268362760543823,0.36662358045578003,8.857928276062012,0.9790359735488892
3_20251106_182757,1762424843916,3,0.30594271421432495,0.24595192074775696,0.6280767321586609,0.671882688999176,0.5191484689712524,2.092428207397461,-0.4277614653110504,-0.18386653065681458,7.943212509155273,-0.05894041806459427,0.11475857347249985,0.15296435356140137,0.24129536747932434,28.83515167236328,-29.61919403076172,21.91815185546875,-0.35556966066360474,-0.5928878784179688,-0.6694762110710144,0.17170311510562897,8.536100387573242,0.6105358004570007
3_20251106_182757,1762424843935,3,0.3032160699367523,0.24693149328231812,0.6287639141082764,0.6721166372299194,0.5191484689712524,2.092428207397461,-0.4277614653110504,-0.18386653065681458,7.943212509155273,-0.05894041806459427,0.11475857347249985,0.15296435356140137,0.24129536747932434,28.679901123046875,-29.532432556152344,22.251792907714844,-0.35556966066360474,-0.5928878784179688,-0.6694762110710144,0.17170311510562897,8.536100387573242,0.6105358004570007
3_20251106_182757,1762424843953,3,0.3007054030895233,0.24979016184806824,0.628533661365509,0.6724035739898682,0.5033473372459412,2.0513551235198975,-0.469029039144516,0.12976041436195374,8.156288146972656,0.4569878578186035,0.10009782016277313,-0.010136536322534084,0.37812909483909607,28.525651931762695,-29.432708740234375,22.545150756835938,0.0020773857831954956,-0.2359933853149414,-0.05709218978881836,0.12768302857875824,8.392281532287598,0.5140800476074219
3_20251106_182757,1762424843973,3,0.29816123843193054,0.25329679250717163,0.6279741525650024,0.6727473735809326,0.4961952865123749,2.0305705070495605,-0.4897876977920532,0.36557912826538086,8.422033309936523,0.4857170581817627,0.10131955146789551,-0.04006890952587128,0.45143285393714905,28.41742706298828,-29.379898071289062,22.825897216796875,0.19031688570976257,0.023801803588867188,-0.02269035577774048,0.1752622425556183,8.398231506347656,0.5084074139595032
3_20251106_182757,1762424843992,3,0.2952568531036377,0.2566855847835541,0.6273970603942871,0.6732821464538574,0.4961952865123749,2.0305705070495605,-0.4897876977920532,0.36557912826538086,8.422033309936523,0.4857170581817627,0.10131955146789551,-0.04006890952587128,0.45143285393714905,28.28391456604004,-29.353118896484375,23.037555694580078,0.19031688570976257,0.023801803588867188,-0.02269035577774048,0.1752622425556183,8.398231506347656,0.5084074139595032
3_20251106_182757,1762424844011,3,0.29232725501060486,0.2590997815132141,0.62713623046875,0.6738784909248352,0.48570960760116577,1.9965593814849854,-0.5279349684715271,0.40029358863830566,8.633910179138184,-0.002679109573364258,0.030459243804216385,0.08576922863721848,0.28100159764289856,28.08877944946289,-29.331253051757812,23.341373443603516,0.13884881138801575,0.15179157257080078,-0.3652094602584839,0.2614447772502899,8.482118606567383,0.36253035068511963
3_20251106_182757,1762424844030,3,0.28994908928871155,0.2605622410774231,0.6268583536148071,0.6746001839637756,0.48109909892082214,1.9804420471191406,-0.5485814809799194,0.38952013850212097,8.681792259216309,0.04041466489434242,0.030459243804216385,0.08576922863721848,0.28100159764289856,27.924352645874023,-29.419349670410156,23.576705932617188,0.10246029496192932,0.15973854064941406,-0.2576925456523895,0.28705984354019165,8.522053718566895,0.29810720682144165
3_20251106_182757,1762424844050,3,0.2883203327655792,0.26188161969184875,0.6262780427932739,0.6753259897232056,0.48109909892082214,1.9804420471191406,-0.5485814809799194,0.38952013850212097,8.681792259216309,0.04041466489434242,-0.02940550073981285,-0.07610992342233658,0.19486965239048004,27.720521926879883,-29.583282470703125,23.619754791259766,0.10246029496192932,0.15973854064941406,-0.2576925456523895,0.28705984354019165,8.522053718566895,0.29810720682144165
3_20251106_182757,1762424844069,3,0.2875753343105316,0.2636594772338867,0.6254327893257141,0.6757351160049438,0.4765082895755768,1.9648431539535522,-0.5710961222648621,0.34882044792175293,8.860153198242188,0.04280877113342285,-0.09293542802333832,-0.15979838371276855,0.15882863104343414,27.54358673095703,-29.69580078125,23.70539093017578,0.04940849542617798,0.2704792022705078,-0.20423875749111176,0.29941195249557495,8.58967399597168,0.2470475286245346
3_20251106_182757,1762424844087,3,0.2877281606197357,0.2655731439590454,0.6240450739860535,0.6762034893035889,0.4699479937553406,1.9459547996520996,-0.6033180952072144,0.35959386825561523,9.425159454345703,0.7059741020202637,-0.15402190387248993,-0.15613320469856262,0.14172442257404327,27.366750717163086,-29.808189392089844,23.777511596679688,0.04521989822387695,0.582209587097168,0.3682173788547516,0.3143739700317383,8.842949867248535,0.3377567231655121
3_20251106_182757,1762424844106,3,0.288153737783432,0.26718059182167053,0.6222862005233765,0.6770094633102417,0.4668704569339752,1.9397276639938354,-0.6174682378768921,0.3679732382297516,9.704072952270508,0.8711669445037842,-0.12714384496212006,-0.10482057183980942,0.07086412608623505,27.202396392822266,-29.91938018798828,23.809574127197266,0.04287943243980408,0.6888980865478516,0.42672818899154663,0.3250938057899475,9.015174865722656,0.44443875551223755
3_20251106_182757,1762424844125,3,0.2885711193084717,0.2679751515388489,0.6209936141967773,0.6777041554450989,0.4633517563343048,1.9359055757522583,-0.6303542852401733,0.10821352154016495,9.778289794921875,0.6473187208175659,-0.1039309948682785,-0.030905934050679207,-0.010991747491061687,27.10881996154785,-30.08696746826172,23.68106460571289,-0.17350426316261292,0.6104917526245117,0.16230398416519165,0.28171777725219727,9.167798042297363,0.48501473665237427
3_20251106_182757,1762424844144,3,0.28900977969169617,0.2678455710411072,0.6202491521835327,0.6782500147819519,0.4589943587779999,1.9342713356018066,-0.6423116326332092,-0.08810257911682129,9.895600318908691,0.5886632800102234,-0.16868264973163605,-0.01502345409244299,-0.030539415776729584,27.09068489074707,-30.200233459472656,23.624134063720703,-0.2958562970161438,0.5822420120239258,0.08291882276535034,0.20775370299816132,9.313358306884766,0.505744457244873
3_20251106_182757,1762424844164,3,0.28974688053131104,0.26736530661582947,0.6192097067832947,0.6790742874145508,0.45387890934944153,1.9344772100448608,-0.6528229117393494,-0.1479550451040268,9.954255104064941,0.8149056434631348,-0.1601305454969406,-0.053507931530475616,-0.014656935818493366,27.085540771484375,-30.300018310546875,23.554439544677734,-0.2845669984817505,0.5127172470092773,0.24732893705368042,0.1366119533777237,9.441537857055664,0.5675767064094543
3_20251106_182757,1762424844183,3,0.290640264749527,0.26725345849990845,0.618095874786377,0.679750919342041,0.4474107325077057,1.9365147352218628,-0.6623421311378479,-0.30835965275764465,10.044034957885742,0.893910825252533,-0.1045418530702591,-0.06144917011260986,-0.008548288606107235,27.036176681518555,-30.327232360839844,23.44382095336914,-0.35597729682922363,0.4819974899291992,0.26106733083724976,0.04761763662099838,9.562037467956543,0.6328434944152832
3_20251106_182757,1762424844203,3,0.2913239598274231,0.2672702372074127,0.6173127889633179,0.6801631450653076,0.4403502345085144,1.9399091005325317,-0.6702202558517456,-0.3981383740901947,10.129024505615234,0.8927137851715088,-0.07155515998601913,-0.06389263272285461,0.023216675966978073,27.047348022460938,-30.35101318359375,23.38971710205078,-0.35660481452941895,0.45358943939208984,0.20789623260498047,-0.04153355956077576,9.675435066223145,0.6848175525665283
3_20251106_182757,1762424844221,3,0.29172423481941223,0.2675167918205261,0.6166720986366272,0.6804757714271545,0.432460755109787,1.9441746473312378,-0.6775150299072266,-0.472355455160141,10.054807662963867,0.7538561224937439,-0.0318489596247673,-0.06939040869474411,0.0781945064663887,27.047348022460938,-30.35101318359375,23.38971710205078,-0.3446575403213501,0.3034982681274414,0.05523085594177246,-0.1276979297399521,9.751309394836426,0.6986252665519714
3_20251106_182757,1762424844240,3,0.29169753193855286,0.2682030498981476,0.6161495447158813,0.6806904077529907,0.432460755109787,1.9441746473312378,-0.6775150299072266,-0.472355455160141,10.054807662963867,0.7538561224937439,-0.0318489596247673,-0.06939040869474411,0.0781945064663887,27.040695190429688,-30.476043701171875,23.333011627197266,-0.3446575403213501,0.3034982681274414,0.05523085594177246,-0.1276979297399521,9.751309394836426,0.6986252665519714
3_20251106_182757,1762424844260,3,0.2912377715110779,0.2691277861595154,0.6156477928161621,0.6809762120246887,0.4152212142944336,1.9557896852493286,-0.6916581988334656,-0.3239213228225708,10.28344440460205,0.6748508214950562,-0.03856847062706947,-0.021132102236151695,0.16249381005764008,27.0615291595459,-30.548851013183594,23.237796783447266,-0.10528102517127991,0.3633584976196289,-0.012917280197143555,-0.2186402976512909,9.920085906982422,0.6877681016921997
3_20251106_182757,1762424844279,3,0.290412962436676,0.2699926793575287,0.6150397658348083,0.6815353035926819,0.4152212142944336,1.9557896852493286,-0.6916581988334656,-0.3239213228225708,10.28344440460205,0.6748508214950562,-0.03856847062706947,-0.021132102236151695,0.16249381005764008,27.06745719909668,-30.67254638671875,23.127517700195312,-0.10528102517127991,0.3633584976196289,-0.012917280197143555,-0.2186402976512909,9.920085906982422,0.6877681016921997
3_20251106_182757,1762424844299,3,0.28939101099967957,0.2709559500217438,0.6146270036697388,0.6819599270820618,0.39970436692237854,1.9695512056350708,-0.7038248777389526,-0.10845242440700531,10.221197128295898,0.7430826425552368,0.024961460381746292,-0.05534052848815918,0.21075212955474854,27.052946090698242,-30.72289276123047,23.058391571044922,0.08507637679576874,0.2040119171142578,0.02927243709564209,-0.19352880120277405,10.01718521118164,0.7138102054595947
3_20251106_182757,1762424844316,3,0.28833284974098206,0.2725825309753418,0.6141495108604431,0.6821900606155396,0.39970436692237854,1.9695512056350708,-0.7038248777389526,-0.10845242440700531,10.221197128295898,0.7430826425552368,0.040843941271305084,-0.050453610718250275,0.2180825024843216,26.98919677734375,-30.77709197998047,23.054882049560547,0.08507637679576874,0.2040119171142578,0.02927243709564209,-0.19352880120277405,10.01718521118164,0.7138102054595947
3_20251106_182757,1762424844335,3,0.28712961077690125,0.27425917983055115,0.6137760877609253,0.6823616027832031,0.3935774862766266,1.976194977760315,-0.7089203596115112,-0.04740290343761444,10.194862365722656,0.7347033023834229,0.05367210507392883,0.018574105575680733,0.18387408554553986,26.946887969970703,-30.891677856445312,22.96993637084961,0.1169007271528244,0.14214134216308594,0.01671445369720459,-0.16430363059043884,10.05272102355957,0.7179888486862183
3_20251106_182757,1762424844355,3,0.28571969270706177,0.2753356695175171,0.6137543320655823,0.6825394630432129,0.3833266794681549,1.9890223741531372,-0.7189732193946838,0.05913449823856354,9.962635040283203,0.5838750600814819,0.043287403881549835,0.07904971390962601,0.1551634520292282,26.943252563476562,-30.966209411621094,22.887256622314453,0.14874623715877533,-0.0831289291381836,-0.10613477230072021,-0.08961173892021179,10.045763969421387,0.6900098323822021
3_20251106_182757,1762424844374,3,0.2841883897781372,0.2758530378341675,0.613890528678894,0.6828473210334778,0.3791459798812866,1.9950333833694458,-0.7243608832359314,0.13574565947055817,9.962635040283203,0.6281659603118896,0.011522439308464527,0.09187787026166916,0.14905479550361633,26.915849685668945,-31.0299072265625,22.81737518310547,0.18028591573238373,-0.06650352478027344,-0.04947507381439209,-0.04454025998711586,10.029138565063477,0.6776410341262817
3_20251106_182757,1762424844393,3,0.2827436625957489,0.27621787786483765,0.61386638879776,0.6833211183547974,0.3791459798812866,1.9950333833694458,-0.7243608832359314,0.13574565947055817,9.962635040283203,0.6281659603118896,-0.031238093972206116,0.08882354944944382,0.1502765268087387,26.81362533569336,-31.12389373779297,22.78457260131836,0.18028591573238373,-0.06650352478027344,-0.04947507381439209,-0.04454025998711586,10.029138565063477,0.6776410341262817
3_20251106_182757,1762424844413,3,0.28140702843666077,0.2764914929866791,0.6135429739952087,0.6840522885322571,0.3735015392303467,2.005643367767334,-0.732825517654419,0.22073614597320557,9.954256057739258,0.9561574459075928,-0.009857828728854656,0.0796605721116066,0.15943948924541473,26.700834274291992,-31.181678771972656,22.819652557373047,0.17590579390525818,-0.057501792907714844,0.20563894510269165,0.04483035206794739,10.011757850646973,0.7505185008049011
3_20251106_182757,1762424844432,3,0.2799602448940277,0.2768784165382385,0.613304078578949,0.6847034096717834,0.3735015392303467,2.005643367767334,-0.732825517654419,0.22073614597320557,9.954256057739258,0.9561574459075928,0.043898265808820724,0.07049760967493057,0.18387408554553986,26.612712860107422,-31.237464904785156,22.815162658691406,0.17590579390525818,-0.057501792907714844,0.20563894510269165,0.04483035206794739,10.011757850646973,0.7505185008049011
3_20251106_182757,1762424844451,3,0.2782003581523895,0.2775321900844574,0.6133241653442383,0.6851378679275513,0.3719574511051178,2.0103631019592285,-0.7359223365783691,0.31290894746780396,9.944679260253906,0.9298223853111267,0.09032398462295532,0.053393393754959106,0.20830868184566498,26.488245010375977,-31.28375244140625,22.87704849243164,0.21446287631988525,-0.05366230010986328,0.14344310760498047,0.0984460711479187,9.99834156036377,0.7863792777061462
3_20251106_182757,1762424844470,3,0.27631786465644836,0.2786361575126648,0.6135042309761047,0.6852903366088867,0.37144532799720764,2.017469644546509,-0.741611897945404,0.4421902894973755,9.840536117553711,0.6556980609893799,0.09032398462295532,0.053393393754959106,0.20830868184566498,26.336978912353516,-31.381317138671875,22.882831573486328,0.23129644989967346,-0.10597515106201172,-0.10259723663330078,0.21089383959770203,9.946511268615723,0.7582952976226807
3_20251106_182757,1762424844489,3,0.2743758261203766,0.279930055141449,0.6137654185295105,0.6853095293045044,0.3724948465824127,2.0205235481262207,-0.744939923286438,0.5451365113258362,9.892009735107422,0.5910574197769165,0.06100247800350189,0.044230423867702484,0.2333541363477707,26.21360969543457,-31.414512634277344,22.890914916992188,0.26739412546157837,-0.043601036071777344,-0.1337902545928955,0.2777423858642578,9.9356107711792,0.724847674369812
3_20251106_182757,1762424844509,3,0.27246811985969543,0.2812163531780243,0.6136775612831116,0.6856226325035095,0.37496861815452576,2.023925304412842,-0.7486164569854736,0.7462408542633057,10.050020217895508,0.6102101802825928,0.037178754806518555,0.03567831963300705,0.22968892753124237,26.03847885131836,-31.501380920410156,22.923015594482422,0.3747987747192383,0.09152793884277344,-0.09170997142791748,0.3714420795440674,9.958492279052734,0.7019201517105103
3_20251106_182757,1762424844527,3,0.27079588174819946,0.28278788924217224,0.6136099100112915,0.6856992244720459,0.37835440039634705,2.0272507667541504,-0.7520328760147095,0.8874926567077637,10.127828598022461,0.5910573601722717,0.04756345599889755,0.017352376133203506,0.17959803342819214,25.898101806640625,-31.61151885986328,23.01012420654297,0.41284045577049255,0.1354694366455078,-0.08869022130966187,0.4746522009372711,9.992359161376953,0.6797475814819336
3_20251106_182757,1762424844545,3,0.26943743228912354,0.2844320237636566,0.6135615110397339,0.6855976581573486,0.37835440039634705,2.0272507667541504,-0.7520328760147095,0.8874926567077637,10.127828598022461,0.5910573601722717,0.029848378151655197,0.05461512506008148,0.09224439412355423,25.794776916503906,-31.718597412109375,23.03112030029297,0.41284045577049255,0.1354694366455078,-0.08869022130966187,0.4746522009372711,9.992359161376953,0.6797475814819336
3_20251106_182757,1762424844565,3,0.2684043347835541,0.28545066714286804,0.6136617660522461,0.68548983335495,0.3830704987049103,2.030834197998047,-0.7564181685447693,0.8503841161727905,10.016502380371094,0.42347046732902527,-0.01046869345009327,0.052782535552978516,0.029325325042009354,25.691253662109375,-31.825950622558594,23.079151153564453,0.3005855083465576,0.01931476593017578,-0.2050217092037201,0.5497986078262329,9.997187614440918,0.6284921765327454
3_20251106_182757,1762424844584,3,0.267985463142395,0.28612545132637024,0.6138122081756592,0.6852376461029053,0.3925175964832306,2.036663055419922,-0.7644559144973755,0.7294821739196777,10.026078224182129,0.5994367599487305,-0.03245982527732849,0.03628918528556824,0.028103593736886978,25.603540420532227,-31.869583129882812,23.115474700927734,0.10465496778488159,0.030173301696777344,-0.0023155808448791504,0.6248272061347961,9.995904922485352,0.6017523407936096
3_20251106_182757,1762424844602,3,0.26765474677085876,0.2865680754184723,0.6137905716896057,0.6852012872695923,0.3974747359752655,2.039970636367798,-0.7678394913673401,0.6947677135467529,10.149374961853027,0.7969498634338379,-0.025740310549736023,0.02590448223054409,0.026271000504493713,25.52609634399414,-31.94982147216797,23.124465942382812,0.05595242977142334,0.12277603149414062,0.15615803003311157,0.6388152837753296,10.026598930358887,0.6407918334007263
3_20251106_182757,1762424844623,3,0.2674625515937805,0.28690868616104126,0.613736093044281,0.6851825714111328,0.4026064872741699,2.0433576107025146,-0.7713022232055664,0.6169595122337341,10.000940322875977,0.6676685214042664,-0.025129446759819984,0.07049760967493057,0.0024472763761878014,25.428312301635742,-31.956581115722656,23.161090850830078,-0.017484605312347412,-0.020526885986328125,0.02150130271911621,0.6344441175460815,10.021467208862305,0.6461672186851501
3_20251106_182757,1762424844643,3,0.26714468002319336,0.28654417395591736,0.6137381792068481,0.6854572296142578,0.40691977739334106,2.0462067127227783,-0.7744753360748291,0.5259837508201599,9.950664520263672,0.6329541206359863,-0.041622795164585114,0.099819116294384,-0.014656935818493366,25.375450134277344,-32.023353576660156,23.238906860351562,-0.08676832914352417,-0.05664253234863281,-0.010570526123046875,0.6127520799636841,10.007307052612305,0.6435246467590332
3_20251106_182757,1762424844660,3,0.266830176115036,0.28583794832229614,0.6139239072799683,0.685708224773407,0.41016221046447754,2.048617124557495,-0.7766717076301575,0.5032398104667664,10.057201385498047,0.8101174235343933,-0.05994873493909836,0.06072377413511276,0.02138408273458481,25.375450134277344,-32.023353576660156,23.238906860351562,-0.08760982751846313,0.03991508483886719,0.13327419757843018,0.5908496379852295,10.01728630065918,0.6768432259559631
3_20251106_182757,1762424844680,3,0.26664024591445923,0.28547412157058716,0.6138768196105957,0.6859757900238037,0.41016221046447754,2.048617124557495,-0.7766717076301575,0.5032398104667664,10.057201385498047,0.8101174235343933,-0.004360046237707138,0.011854593642055988,0.07025326043367386,25.372940063476562,-32.061561584472656,23.292179107666016,-0.08760982751846313,0.03991508483886719,0.13327419757843018,0.5908496379852295,10.01728630065918,0.6768432259559631
3_20251106_182757,1762424844699,3,0.26626458764076233,0.2856263220310211,0.6138102412223816,0.6861178874969482,0.4162036180496216,2.0541820526123047,-0.7799132466316223,0.5020427703857422,10.083538055419922,0.7478708624839783,-0.004360046237707138,0.011854593642055988,0.07025326043367386,25.346960067749023,-32.088531494140625,23.317703247070312,-0.05262279510498047,0.04527473449707031,0.020750582218170166,0.5546655654907227,10.038263320922852,0.7271202802658081
3_20251106_182757,1762424844719,3,0.26552602648735046,0.28593331575393677,0.6138890385627747,0.6862057447433472,0.4162036180496216,2.0541820526123047,-0.7799132466316223,0.5020427703857422,10.083538055419922,0.7478708624839783,0.028015784919261932,0.030180534347891808,0.12339849025011063,25.33649253845215,-32.05219268798828,23.3720703125,-0.05262279510498047,0.04527473449707031,0.020750582218170166,0.5546655654907227,10.038263320922852,0.7271202802658081
3_20251106_182757,1762424844738,3,0.2646183669567108,0.28634628653526306,0.6140120625495911,0.6862740516662598,0.42212116718292236,2.059624433517456,-0.7829475402832031,0.7510290145874023,10.059596061706543,0.6556980609893799,0.028015784919261932,0.030180534347891808,0.12339849025011063,25.312515258789062,-32.053245544433594,23.31702423095703,0.15152889490127563,0.011354446411132812,-0.05662727355957031,0.5995001196861267,10.04824161529541,0.7123253345489502
3_20251106_182757,1762424844756,3,0.2635636329650879,0.28673893213272095,0.6141117215156555,0.6864268183708191,0.4251694977283478,2.061826229095459,-0.7843273878097534,0.8001080751419067,10.046428680419922,0.6784420013427734,0.017020221799612045,0.06499982625246048,0.0788053646683693,25.275251388549805,-32.06818389892578,23.315288543701172,0.1604863405227661,-0.0014505386352539062,-0.027106642723083496,0.6396217346191406,10.047879219055176,0.7055486440658569
3_20251106_182757,1762424844775,3,0.26268884539604187,0.28708380460739136,0.6142674088478088,0.6864787340164185,0.4289296865463257,2.064042568206787,-0.7858755588531494,0.7558172345161438,9.967423439025879,0.7035800218582153,0.014576761983335018,0.09859738498926163,0.02749273180961609,25.25107765197754,-32.06950378417969,23.287273406982422,0.09295636415481567,-0.06436443328857422,-0.0015749335289001465,0.6628608703613281,10.031787872314453,0.7051549553871155
3_20251106_182757,1762424844795,3,0.2619626522064209,0.28696906566619873,0.6145586371421814,0.6865435242652893,0.43243876099586487,2.0657594203948975,-0.7871182560920715,0.6420975923538208,9.903979301452637,0.7801912426948547,0.018241949379444122,0.11875592172145844,0.018329758197069168,25.234859466552734,-32.14537048339844,23.258167266845703,-0.01661062240600586,-0.10224723815917969,0.060029029846191406,0.6587082147598267,10.006226539611816,0.7201622128486633
3_20251106_182757,1762424844813,3,0.26121580600738525,0.28659993410110474,0.6149340867996216,0.6866461038589478,0.43243876099586487,2.0657594203948975,-0.7871182560920715,0.6420975923538208,9.903979301452637,0.7801912426948547,0.04634172469377518,0.1102038100361824,0.061701152473688126,25.13515853881836,-32.18952941894531,23.2669677734375,-0.01661062240600586,-0.10224723815917969,0.060029029846191406,0.6587082147598267,10.006226539611816,0.7201622128486633
3_20251106_182757,1762424844833,3,0.2601633369922638,0.2862909436225891,0.6153780221939087,0.686776876449585,0.43528425693511963,2.0668511390686035,-0.7883180975914001,0.5415453910827637,9.839339256286621,0.6916095614433289,0.04634172469377518,0.1102038100361824,0.061701152473688126,25.04834747314453,-32.2203369140625,23.27652359008789,-0.09373027086257935,-0.13350963592529297,-0.022842109203338623,0.635275661945343,9.972848892211914,0.7144516706466675
3_20251106_182757,1762424844853,3,0.2588978111743927,0.28665637969970703,0.6158328056335449,0.6866949796676636,0.44032782316207886,2.067713499069214,-0.7912192344665527,0.6875854730606079,9.859688758850098,0.6090130805969238,0.07260891050100327,-0.018688643351197243,0.2180825024843216,24.95126724243164,-32.21453857421875,23.313411712646484,0.05224800109863281,-0.06380367279052734,-0.07150280475616455,0.6353374719619751,9.923492431640625,0.6805158853530884
3_20251106_182757,1762424844870,3,0.25758346915245056,0.28809601068496704,0.6158822774887085,0.6865423917770386,0.4431237280368805,2.0681874752044678,-0.792805016040802,0.8420047760009766,10.003334045410156,0.5970426201820374,0.07260891050100327,-0.018688643351197243,0.2180825024843216,24.888532638549805,-32.244163513183594,23.364498138427734,0.16533386707305908,0.063873291015625,-0.06677860021591187,0.6766709089279175,9.939460754394531,0.6638212203979492
3_20251106_182757,1762424844890,3,0.2560980021953583,0.29027414321899414,0.6157365441322327,0.6863113045692444,0.4471161663532257,2.0691769123077393,-0.7947328686714172,1.0191681385040283,10.100296020507812,0.5802839398384094,0.056726425886154175,-0.027240747585892677,0.23763017356395721,24.864667892456055,-32.23346710205078,23.390811920166016,0.27399778366088867,0.12866783142089844,-0.0668298602104187,0.7451703548431396,9.971628189086914,0.6471138000488281
3_20251106_182757,1762424844910,3,0.2546651065349579,0.2921295762062073,0.6154869198799133,0.686281144618988,0.4520949125289917,2.0703041553497314,-0.7964945435523987,1.1352819204330444,10.033262252807617,0.6700626015663147,0.056726425886154175,-0.027240747585892677,0.23763017356395721,24.73828125,-32.31715393066406,23.42487335205078,0.3120892643928528,0.04930686950683594,0.018359005451202393,0.8231926560401917,9.983955383300781,0.6517035961151123
3_20251106_182757,1762424844929,3,0.25341683626174927,0.2933054566383362,0.6152704358100891,0.6864357590675354,0.4573196768760681,2.0711448192596436,-0.7980538010597229,1.0897940397262573,9.919541358947754,0.6628803014755249,0.03778962045907974,0.054004259407520294,0.11240292340517044,24.623586654663086,-32.400718688964844,23.52700424194336,0.21328109502792358,-0.05153179168701172,0.008941352367401123,0.8765129446983337,9.971073150634766,0.6539389491081238
3_20251106_182757,1762424844948,3,0.25223997235298157,0.2941257059574127,0.6151860952377319,0.6865938901901245,0.46279940009117126,2.0716640949249268,-0.7998915314674377,1.0646559000015259,9.869264602661133,0.5240225791931152,0.03778962045907974,0.054004259407520294,0.11240292340517044,24.54545021057129,-32.481903076171875,23.63060760498047,0.1505143642425537,-0.08144664764404297,-0.10393309593200684,0.9141415357589722,9.950711250305176,0.6279556751251221
3_20251106_182757,1762424844965,3,0.25105810165405273,0.29488906264305115,0.6153268218040466,0.6865735054016113,0.4679376184940338,2.0718817710876465,-0.8020999431610107,1.132887840270996,9.848915100097656,0.3336917757987976,0.0658893957734108,0.05094993859529495,0.10751601308584213,24.446157455444336,-32.51390838623047,23.680221557617188,0.17499709129333496,-0.0814371109008789,-0.2354111671447754,0.9578907489776611,9.930352210998535,0.569102942943573
3_20251106_182757,1762424844985,3,0.24994145333766937,0.2960301339626312,0.6155290603637695,0.6863085031509399,0.47433969378471375,2.072030544281006,-0.8056076765060425,1.174784541130066,9.899191856384277,0.22715437412261963,0.05061778053641319,-0.034571126103401184,0.14661134779453278,24.307783126831055,-32.598121643066406,23.68675994873047,0.17351508140563965,-0.02492809295654297,-0.2735588550567627,1.0012694597244263,9.92411994934082,0.5007132291793823
3_20251106_182757,1762424845003,3,0.2491038590669632,0.2978350520133972,0.6155075430870056,0.6858513355255127,0.47433969378471375,2.072030544281006,-0.8056076765060425,1.174784541130066,9.899191856384277,0.22715437412261963,0.0029703304171562195,-0.053507931530475616,0.13622663915157318,24.147336959838867,-32.65760040283203,23.571197509765625,0.17351508140563965,-0.02492809295654297,-0.2735588550567627,1.0012694597244263,9.92411994934082,0.5007132291793823
3_20251106_182757,1762424845024,3,0.24863983690738678,0.2997402250766754,0.6152123808860779,0.6854544281959534,0.4877929091453552,2.0731000900268555,-0.8124848008155823,1.3351891040802002,10.07396125793457,0.5072639584541321,0.0029703304171562195,-0.053507931530475616,0.13622663915157318,23.998693466186523,-32.70520782470703,23.60506820678711,0.22520029544830322,0.10624122619628906,0.027367353439331055,1.109988808631897,9.967720031738281,0.479896605014801
3_20251106_182757,1762424845042,3,0.24835486710071564,0.30093124508857727,0.6146365404129028,0.6855524182319641,0.4877929091453552,2.0731000900268555,-0.8124848008155823,1.3351891040802002,10.07396125793457,0.5072639584541321,-0.06972257047891617,-0.00341702438890934,0.03421224281191826,23.89899253845215,-32.749366760253906,23.613868713378906,0.22520029544830322,0.10624122619628906,0.027367353439331055,1.109988808631897,9.967720031738281,0.479896605014801
