session_id,timestamp,label,quaternion_w,quaternion_x,quaternion_y,quaternion_z,position_x,position_y,position_z,accelerometer_x,accelerometer_y,accelerometer_z,gyroscope_x,gyroscope_y,gyroscope_z,magnetometer_x,magnetometer_y,magnetometer_z,linear_acceleration_x,linear_acceleration_y,linear_acceleration_z,gravity_x,gravity_y,gravity_z
1_20251106_212538,1762435500870,1,0.2833171784877777,0.5869638919830322,0.5722743272781372,0.49770158529281616,0.8879560828208923,2.7832069396972656,0.8833675384521484,3.0481669902801514,8.988236427307129,-3.308929443359375,0.031299181282520294,0.17589086294174194,-0.08004236221313477,26.8531436920166,-26.396446228027344,20.11134910583496,0.058974266052246094,0.9848041534423828,-0.41159558296203613,2.9891927242279053,8.003432273864746,-2.897333860397339
1_20251106_212538,1762435500890,1,0.28175070881843567,0.5852800011634827,0.5741804838180542,0.49837803840637207,0.911345362663269,2.7955663204193115,0.8048803210258484,2.814742088317871,8.771571159362793,-4.441338539123535,0.08810960501432419,0.20582324266433716,-0.10081176459789276,26.766319274902344,-26.438865661621094,20.026025772094727,-0.1304183006286621,0.48586368560791016,-1.0538573265075684,2.945160388946533,8.285707473754883,-3.387481212615967
1_20251106_212538,1762435500909,1,0.2805419862270355,0.5844148993492126,0.575268030166626,0.4988207221031189,0.9216012358665466,2.8040518760681152,0.7637351751327515,2.817136287689209,8.997814178466797,-4.502388000488281,0.047181665897369385,0.12274563312530518,-0.030562326312065125,26.631542205810547,-26.48339080810547,19.830610275268555,-0.10241937637329102,0.5696849822998047,-0.8919253349304199,2.9195556640625,8.428129196166992,-3.6104626655578613
1_20251106_212538,1762435500929,1,0.27988097071647644,0.5845224261283875,0.5750353932380676,0.4993340075016022,0.9317859411239624,2.815099000930786,0.7208210825920105,2.896141529083252,9.270740509033203,-4.192352294921875,-0.11103229969739914,-0.044020432978868484,0.15452969074249268,26.532434463500977,-26.52674102783203,19.75831413269043,-0.018731117248535156,0.6740884780883789,-0.4655115604400635,2.914872646331787,8.596652030944824,-3.7268407344818115
1_20251106_212538,1762435500948,1,0.2797083854675293,0.585209310054779,0.5738014578819275,0.5000451803207397,0.9407424926757812,2.8264753818511963,0.6841004490852356,3.0158467292785645,9.380868911743164,-3.7386703491210938,-0.18250347673892975,-0.03730092570185661,0.18812723457813263,26.433523178100586,-26.56982421875,19.65898323059082,0.0807790756225586,0.6273736953735352,-0.00946354866027832,2.935067653656006,8.753495216369629,-3.7292068004608154
1_20251106_212538,1762435500966,1,0.2796667516231537,0.5856893658638,0.5721510648727417,0.5013957619667053,0.9504579305648804,2.8397457599639893,0.6484111547470093,3.2025861740112305,9.432342529296875,-3.3161115646362305,-0.20388373732566833,-3.817921970039606e-05,0.19729021191596985,26.298152923583984,-26.615158081054688,19.54466438293457,0.21401476860046387,0.5430774688720703,0.3304762840270996,2.9885714054107666,8.889265060424805,-3.64658784866333
1_20251106_212538,1762435500985,1,0.2795279622077942,0.5859419703483582,0.5703949928283691,0.5031755566596985,0.9607246518135071,2.854111909866333,0.6161782741546631,3.366581916809082,9.530500411987305,-3.037199020385742,-0.1959424912929535,0.029894191771745682,0.16735783219337463,26.184236526489258,-26.709266662597656,19.443788528442383,0.30240821838378906,0.5129880905151367,0.48751115798950195,3.064173698425293,9.017512321472168,-3.524710178375244
1_20251106_212538,1762435501004,1,0.2793295979499817,0.5858714580535889,0.5688768625259399,0.505082905292511,0.9607246518135071,2.854111909866333,0.6161782741546631,3.366581916809082,9.530500411987305,-3.037199020385742,-0.1647883951663971,0.038446299731731415,0.10566051304340363,26.05772590637207,-26.816314697265625,19.301610946655273,0.30240821838378906,0.5129880905151367,0.48751115798950195,3.064173698425293,9.017512321472168,-3.524710178375244
1_20251106_212538,1762435501023,1,0.27921825647354126,0.5854949355125427,0.5678290128707886,0.5067573189735413,0.9827852249145508,2.8848297595977783,0.5609036684036255,3.4216461181640625,9.542470932006836,-2.961784839630127,-0.1183626726269722,0.02012035623192787,0.024415500462055206,25.988929748535156,-26.97016143798828,19.214895248413086,0.2195889949798584,0.3336753845214844,0.3529942035675049,3.202057123184204,9.208795547485352,-3.314779043197632
1_20251106_212538,1762435501043,1,0.27932989597320557,0.5848863124847412,0.567391037940979,0.5078880190849304,0.9933713674545288,2.9001927375793457,0.5372467637062073,3.210965633392334,9.431144714355469,-2.8396859169006348,-0.12447132170200348,0.019509492442011833,-0.03544924408197403,25.883167266845703,-27.13854217529297,19.085893630981445,0.007126808166503906,0.17787933349609375,0.38007450103759766,3.20383882522583,9.253265380859375,-3.2197604179382324
1_20251106_212538,1762435501061,1,0.27974361181259155,0.5839157104492188,0.567295491695404,0.5088828802108765,1.0029780864715576,2.915262460708618,0.5162686705589294,3.039787530899048,9.42635726928711,-2.6744933128356934,-0.16723185777664185,0.06715694069862366,-0.0421687550842762,25.78639030456543,-27.34528350830078,19.105268478393555,-0.1312410831451416,0.1384735107421875,0.43621349334716797,3.1710286140441895,9.287883758544922,-3.1107068061828613
1_20251106_212538,1762435501080,1,0.2802479863166809,0.5825969576835632,0.5671132802963257,0.5103179812431335,1.0116064548492432,2.929978132247925,0.49774977564811707,2.989511489868164,9.433539390563965,-2.5966849327087402,-0.1537928283214569,0.08853720873594284,-0.02201021835207939,25.642562866210938,-27.541297912597656,18.987783432006836,-0.14521384239196777,0.11652469635009766,0.41121745109558105,3.134725332260132,9.317014694213867,-3.0079023838043213
1_20251106_212538,1762435501100,1,0.28044480085372925,0.5812300443649292,0.5670068264007568,0.511884331703186,1.0116064548492432,2.929978132247925,0.49774977564811707,2.989511489868164,9.433539390563965,-2.5966849327087402,-0.0774347335100174,0.04883100092411041,0.006700423080474138,25.600860595703125,-27.643463134765625,18.9166202545166,-0.14521384239196777,0.11652469635009766,0.41121745109558105,3.134725332260132,9.317014694213867,-3.0079023838043213
1_20251106_212538,1762435501119,1,0.2803112268447876,0.5804134011268616,0.5669983625411987,0.5128925442695618,1.0270460844039917,2.959334373474121,0.46511271595954895,3.0266201496124268,9.494588851928711,-2.7977890968322754,0.014805832877755165,-0.005535961594432592,0.02013944834470749,25.51282501220703,-27.710731506347656,18.803735733032227,-0.06554841995239258,0.11671257019042969,0.10727548599243164,3.0921685695648193,9.377876281738281,-2.905064582824707
1_20251106_212538,1762435501139,1,0.2798923850059509,0.5801835060119629,0.5672235488891602,0.5131323337554932,1.0270460844039917,2.959334373474121,0.46511271595954895,3.0266201496124268,9.494588851928711,-2.7977890968322754,0.05390118062496185,-0.03852265328168869,0.015863394364714622,25.48573112487793,-27.762413024902344,18.788183212280273,-0.06554841995239258,0.11671257019042969,0.10727548599243164,3.0921685695648193,9.377876281738281,-2.905064582824707
1_20251106_212538,1762435501159,1,0.2795020639896393,0.580281138420105,0.5675191879272461,0.5129078030586243,1.0403188467025757,2.987924575805664,0.4338489770889282,2.9835262298583984,9.514938354492188,-3.1569042205810547,0.030688317492604256,-0.0379117876291275,0.0012026410549879074,25.484718322753906,-27.7869873046875,18.733591079711914,-0.07393622398376465,0.0902090072631836,-0.17975568771362305,3.057462453842163,9.424729347229004,-2.9771485328674316
1_20251106_212538,1762435501178,1,0.27927926182746887,0.5802434086799622,0.5678207874298096,0.5127379894256592,1.0456100702285767,3.0001087188720703,0.4202110469341278,3.0110583305358887,9.475436210632324,-3.105431079864502,-0.018180862069129944,-0.005535961594432592,-0.03300578519701958,25.484718322753906,-27.7869873046875,18.733591079711914,-0.03712344169616699,0.04056549072265625,-0.10262608528137207,3.0481817722320557,9.434870719909668,-3.00280499458313
1_20251106_212538,1762435501196,1,0.27935922145843506,0.5797913074493408,0.5681202411651611,0.5128740668296814,1.0507582426071167,3.0124149322509766,0.40656566619873047,2.990708589553833,9.467056274414062,-2.991711139678955,-0.018180862069129944,-0.005535961594432592,-0.03300578519701958,25.471332550048828,-27.801010131835938,18.800416946411133,-0.045978546142578125,0.025748252868652344,0.008875131607055664,3.036687135696411,9.44130802154541,-3.0005862712860107
1_20251106_212538,1762435501216,1,0.27954164147377014,0.5785702466964722,0.5688034892082214,0.5133960843086243,1.0550729036331177,3.0241897106170654,0.3936630189418793,2.8267126083374023,9.471844673156738,-2.978543758392334,-0.06277398765087128,0.06593520939350128,-0.14784835278987885,25.449792861938477,-27.740760803222656,18.895368576049805,-0.16797947883605957,0.0244293212890625,0.017633914947509766,2.994692087173462,9.447415351867676,-2.9961776733398438
1_20251106_212538,1762435501235,1,0.2799323797225952,0.5768954157829285,0.569813072681427,0.5139480233192444,1.0550729036331177,3.0241897106170654,0.3936630189418793,2.8267126083374023,9.471844673156738,-2.978543758392334,-0.04200458526611328,0.045165810734033585,-0.16922861337661743,25.42491340637207,-27.754638671875,18.867090225219727,-0.16797947883605957,0.0244293212890625,0.017633914947509766,2.994692087173462,9.447415351867676,-2.9961776733398438
1_20251106_212538,1762435501253,1,0.2805222272872925,0.575330376625061,0.5709140300750732,0.5141589045524597,1.0598044395446777,3.0455129146575928,0.36911678314208984,2.504706382751465,9.396430969238281,-3.2011947631835938,-0.013904809020459652,0.014622574672102928,-0.1405179798603058,25.47537612915039,-27.714332580566406,18.92391014099121,-0.32776379585266113,-0.027650833129882812,-0.15994000434875488,2.832470178604126,9.424081802368164,-3.041254758834839
1_20251106_212538,1762435501273,1,0.28095635771751404,0.5740869045257568,0.5719893574714661,0.514116644859314,1.0606956481933594,3.0558419227600098,0.35661113262176514,2.5561795234680176,9.622673034667969,-3.3807525634765625,-0.005963567644357681,-0.040355246514081955,-0.12707895040512085,25.435604095458984,-27.767478942871094,18.975446701049805,-0.22103261947631836,0.1588726043701172,-0.27159810066223145,2.777212142944336,9.463800430297852,-3.109154462814331
1_20251106_212538,1762435501292,1,0.2818690836429596,0.5735422968864441,0.5725782513618469,0.5135690569877625,1.0607486963272095,3.066573143005371,0.34436658024787903,2.487947702407837,9.798639297485352,-3.2418947219848633,-0.04994582384824753,-0.06295724213123322,-0.16311997175216675,25.585670471191406,-27.683143615722656,19.0369815826416,-0.23141169548034668,0.2678709030151367,-0.10619235038757324,2.7193593978881836,9.530768394470215,-3.13570237159729
1_20251106_212538,1762435501311,1,0.2830576002597809,0.5725244283676147,0.5733747482299805,0.5131623148918152,1.0595122575759888,3.078129529953003,0.3330219089984894,2.295222759246826,9.802230834960938,-2.8396859169006348,-0.04994582384824753,-0.06295724213123322,-0.16311997175216675,25.661407470703125,-27.62841796875,19.06801414489746,-0.3393092155456543,0.21716976165771484,0.23681306838989258,2.6345319747924805,9.585061073303223,-3.0764989852905273
1_20251106_212538,1762435501331,1,0.2845301032066345,0.5707565546035767,0.5743401050567627,0.5132377743721008,1.0570878982543945,3.0890586376190186,0.3239942193031311,2.2233996391296387,9.568805694580078,-2.5009212493896484,-0.08843030035495758,0.07265472412109375,-0.24375411868095398,25.747638702392578,-27.586807250976562,19.234434127807617,-0.3289060592651367,-0.013004302978515625,0.4604623317718506,2.5523056983947754,9.581809997558594,-2.961383581161499
1_20251106_212538,1762435501349,1,0.2856254577636719,0.5684038400650024,0.57575923204422,0.5136501789093018,1.0543230772018433,3.0974926948547363,0.3170645236968994,2.2712817192077637,9.212085723876953,-2.6409757137298584,0.010529780760407448,0.07448732107877731,-0.211989164352417,25.838565826416016,-27.492408752441406,19.14510154724121,-0.22481918334960938,-0.2957792282104492,0.25632643699645996,2.496100902557373,9.507864952087402,-2.8973021507263184
1_20251106_212538,1762435501368,1,0.2859594225883484,0.5663763284683228,0.577544629573822,0.5136995315551758,1.051193118095398,3.1042354106903076,0.3098335862159729,2.3658485412597656,8.882896423339844,-3.0000905990600586,0.12415061891078949,-0.011644607409834862,-0.12158116698265076,25.96172523498535,-27.471099853515625,19.06917381286621,-0.1042017936706543,-0.49997520446777344,-0.08223080635070801,2.47005033493042,9.382871627807617,-2.9178597927093506
1_20251106_212538,1762435501387,1,0.28574445843696594,0.565710186958313,0.5790723562240601,0.5128325819969177,1.0484461784362793,3.108711004257202,0.30167776346206665,2.55258846282959,8.679397583007812,-3.38673734664917,0.17118719220161438,-0.11182641983032227,-0.004295142367482185,26.103538513183594,-27.3126220703125,19.17234992980957,0.06603050231933594,-0.562779426574707,-0.37510204315185547,2.486557960510254,9.24217700958252,-3.0116353034973145
1_20251106_212538,1762435501406,1,0.2852627635002136,0.566457211971283,0.5798577666282654,0.5113867521286011,1.0484461784362793,3.108711004257202,0.30167776346206665,2.55258846282959,8.679397583007812,-3.38673734664917,0.12720493972301483,-0.1826867163181305,0.08428024500608444,26.168994903564453,-27.23290252685547,19.135835647583008,0.06603050231933594,-0.562779426574707,-0.37510204315185547,2.486557960510254,9.24217700958252,-3.0116353034973145
1_20251106_212538,1762435501426,1,0.2846628427505493,0.5684370398521423,0.5797144174575806,0.5096838474273682,1.0474461317062378,3.112924337387085,0.28302162885665894,3.2217390537261963,8.767979621887207,-3.2179534435272217,0.04534906893968582,-0.1814649999141693,0.07023035734891891,26.29598617553711,-27.13678741455078,19.115556716918945,0.5187809467315674,-0.28931331634521484,-0.09029054641723633,2.702958106994629,9.057292938232422,-3.1276628971099854
1_20251106_212538,1762435501445,1,0.28427377343177795,0.5705119371414185,0.5788891315460205,0.5085193514823914,1.0496960878372192,3.1135871410369873,0.27513355016708374,3.365385055541992,8.787132263183594,-2.886370897293091,-0.024289509281516075,-0.06784415990114212,-0.028118867427110672,26.345645904541016,-27.109169006347656,19.18562889099121,0.5299415588378906,-0.21612834930419922,0.19303345680236816,2.8354434967041016,9.003260612487793,-3.079404354095459
1_20251106_212538,1762435501463,1,0.2838859260082245,0.5711245536804199,0.5783212780952454,0.5086944699287415,1.053196907043457,3.1133360862731934,0.26815587282180786,3.434813976287842,8.659048080444336,-3.0300168991088867,-0.026732968166470528,0.06837867200374603,-0.15273526310920715,26.373641967773438,-27.044662475585938,19.174413681030273,0.4794962406158447,-0.27536964416503906,0.03951001167297363,2.955317735671997,8.934417724609375,-3.0695269107818604
1_20251106_212538,1762435501482,1,0.2832318842411041,0.5700353384017944,0.5786901712417603,0.5098599195480347,1.053196907043457,3.1133360862731934,0.26815587282180786,3.434813976287842,8.659048080444336,-3.0300168991088867,-0.027954697608947754,0.12763255834579468,-0.2321476936340332,26.449861526489258,-27.000877380371094,19.042985916137695,0.4794962406158447,-0.27536964416503906,0.03951001167297363,2.955317735671997,8.934417724609375,-3.0695269107818604
1_20251106_212538,1762435501502,1,0.2834337055683136,0.5679218769073486,0.5802741050720215,0.5103058218955994,1.0626521110534668,3.109312057495117,0.25123584270477295,3.1415367126464844,8.360982894897461,-3.484895706176758,-0.027954697608947754,0.12763255834579468,-0.2321476936340332,26.526811599731445,-26.921310424804688,19.10157585144043,0.0929408073425293,-0.3984088897705078,-0.27886009216308594,3.048595905303955,8.759391784667969,-3.206035614013672
1_20251106_212538,1762435501520,1,0.28403887152671814,0.5660398602485657,0.5815004110336304,0.5106643438339233,1.0626521110534668,3.109312057495117,0.25123584270477295,3.1415367126464844,8.360982894897461,-3.484895706176758,-0.06888263672590256,-0.04157697781920433,-0.10569868981838226,26.62792205810547,-26.852035522460938,19.09330177307129,0.0929408073425293,-0.3984088897705078,-0.27886009216308594,3.048595905303955,8.759391784667969,-3.206035614013672
1_20251106_212538,1762435501539,1,0.2847588360309601,0.5653834939002991,0.5818050503730774,0.5106435418128967,1.0671802759170532,3.1050660610198975,0.2420802265405655,3.0098609924316406,8.224519729614258,-3.416663646697998,-0.027954697608947754,-0.23277762532234192,0.05862392485141754,26.701519012451172,-26.85820770263672,18.933786392211914,-0.030987977981567383,-0.42789745330810547,-0.1685023307800293,3.040848970413208,8.652417182922363,-3.2481613159179688
1_20251106_212538,1762435501560,1,0.2856146991252899,0.5667605996131897,0.5808199644088745,0.5097596049308777,1.0761979818344116,3.0953269004821777,0.22560672461986542,3.288773775100708,8.447171211242676,-3.2502739429473877,0.0031994031742215157,-0.37938520312309265,0.1588057279586792,26.790346145629883,-26.78986358642578,18.938539505004883,0.18606042861938477,-0.10741615295410156,0.010139703750610352,3.1027133464813232,8.554587364196777,-3.260413646697998
1_20251106_212538,1762435501579,1,0.28663456439971924,0.569490909576416,0.579006552696228,0.5082048177719116,1.0814096927642822,3.091015100479126,0.21826694905757904,3.36777925491333,8.691368103027344,-3.1628894805908203,-0.014515673741698265,-0.42031311988830566,0.14719930291175842,26.853378295898438,-26.75983428955078,18.846906661987305,0.212052583694458,0.10942459106445312,0.07801938056945801,3.155726671218872,8.58194351196289,-3.2409088611602783
1_20251106_212538,1762435501598,1,0.2879158854484558,0.5721738934516907,0.5771432518959045,0.5065838098526001,1.0871330499649048,3.0875871181488037,0.21177424490451813,3.4372079372406006,8.825438499450684,-3.0659282207489014,-0.014515673741698265,-0.42031311988830566,0.14719930291175842,26.853378295898438,-26.75983428955078,18.846906661987305,0.22518491744995117,0.19479656219482422,0.1399846076965332,3.2120230197906494,8.63064193725586,-3.2059128284454346
1_20251106_212538,1762435501616,1,0.28967615962028503,0.5739050507545471,0.5756601095199585,0.5053079128265381,1.092523217201233,3.085052251815796,0.20630498230457306,3.3091235160827637,8.854167938232422,-3.053957939147949,-0.1336342990398407,-0.2529361844062805,-0.09653571248054504,26.939163208007812,-26.765213012695312,18.68787956237793,0.07768034934997559,0.17882061004638672,0.12156391143798828,3.231443166732788,8.675347328186035,-3.1755218505859375
1_20251106_212538,1762435501635,1,0.2919257879257202,0.5741305351257324,0.5749120712280273,0.5046082735061646,1.0972645282745361,3.08245587348938,0.20112448930740356,2.989511489868164,8.65545654296875,-3.0647313594818115,-0.1794491410255432,-0.1826867312192917,-0.21809780597686768,27.052940368652344,-26.706085205078125,18.517637252807617,-0.19354534149169922,-0.015913009643554688,0.08863234519958496,3.1830568313598633,8.671369552612305,-3.1533637046813965
1_20251106_212538,1762435501654,1,0.2946450114250183,0.5732187628746033,0.5748026967048645,0.5041888356208801,1.100301742553711,3.079883098602295,0.1962655633687973,2.6483523845672607,8.632713317871094,-3.1305689811706543,-0.1996077001094818,-0.1771889477968216,-0.26513436436653137,27.155139923095703,-26.635330200195312,18.360685348510742,-0.4277637004852295,-0.03092479705810547,0.01823568344116211,3.0761160850524902,8.6636381149292,-3.1488046646118164
1_20251106_212538,1762435501674,1,0.2977081537246704,0.5719702243804932,0.5748772025108337,0.5037222504615784,1.1013071537017822,3.0770745277404785,0.1913783699274063,2.407745361328125,8.586029052734375,-3.1581010818481445,-0.19349904358386993,-0.22483637928962708,-0.24680843949317932,27.226707458496094,-26.690650939941406,18.091981887817383,-0.5346965789794922,-0.062087059020996094,-0.007437229156494141,2.942441940307617,8.648116111755371,-3.1506638526916504
1_20251106_212538,1762435501692,1,0.30094653367996216,0.5710512399673462,0.5747730135917664,0.5029588937759399,1.1003402471542358,3.0743610858917236,0.1872493028640747,2.200655937194824,8.521387100219727,-3.1305689811706543,-0.19349904358386993,-0.22483637928962708,-0.24680843949317932,27.32256317138672,-26.73291015625,17.932653427124023,-0.5934288501739502,-0.10138320922851562,0.016076087951660156,2.7940847873687744,8.622770309448242,-3.1466450691223145
1_20251106_212538,1762435501712,1,0.30430611968040466,0.5709724426269531,0.5740736126899719,0.5018243789672852,1.1003402471542358,3.0743610858917236,0.1872493028640747,2.200655937194824,8.521387100219727,-3.1305689811706543,-0.1794491559267044,-0.33723554015159607,-0.09409226477146149,27.435638427734375,-26.68633270263672,17.762147903442383,-0.5934288501739502,-0.10138320922851562,0.016076087951660156,2.7940847873687744,8.622770309448242,-3.1466450691223145
1_20251106_212538,1762435501731,1,0.3073539137840271,0.5713919401168823,0.572949230670929,0.5007734298706055,1.092580795288086,3.067995548248291,0.18015509843826294,2.091724395751953,8.499841690063477,-2.9557995796203613,-0.17150790989398956,-0.3787743151187897,-0.001240817829966545,27.560165405273438,-26.67475128173828,17.40211296081543,-0.4449138641357422,-0.08097171783447266,0.13152599334716797,2.5366382598876953,8.58081340789795,-3.0873255729675293
1_20251106_212538,1762435501750,1,0.3101501166820526,0.5724961757659912,0.5712466239929199,0.49973222613334656,1.0873901844024658,3.0652239322662354,0.17776033282279968,2.1934735774993896,8.665033340454102,-2.8779916763305664,-0.16112321615219116,-0.41115012764930725,0.043963171541690826,27.73525619506836,-26.622726440429688,17.08538246154785,-0.27453184127807617,0.06737613677978516,0.1674671173095703,2.468005418777466,8.597657203674316,-3.0454587936401367
1_20251106_212538,1762435501770,1,0.312881737947464,0.5740699768066406,0.5691872835159302,0.4985724687576294,1.0816401243209839,3.063107490539551,0.17628303170204163,2.169532537460327,8.785935401916504,-2.754695415496826,-0.16112321615219116,-0.41115012764930725,0.043963171541690826,27.871070861816406,-26.62317657470703,16.752607345581055,-0.23877835273742676,0.15062236785888672,0.23261070251464844,2.408310890197754,8.635313034057617,-2.9873061180114746
1_20251106_212538,1762435501789,1,0.31577256321907043,0.5754438638687134,0.567202091217041,0.49742716550827026,1.0746546983718872,3.061394214630127,0.17589497566223145,2.0019454956054688,8.767980575561523,-2.6290054321289062,-0.20877066254615784,-0.35006365180015564,-0.047666534781455994,28.030254364013672,-26.63500213623047,16.461095809936523,-0.3250923156738281,0.10613441467285156,0.28664064407348633,2.327037811279297,8.661846160888672,-2.9156460762023926
1_20251106_212538,1762435501807,1,0.31889715790748596,0.5760719180107117,0.5655322074890137,0.4966075122356415,1.0746546983718872,3.061394214630127,0.17589497566223145,2.0019454956054688,8.767980575561523,-2.6290054321289062,-0.24542254209518433,-0.2688186466693878,-0.1038660854101181,28.13998794555664,-26.662559509277344,16.167360305786133,-0.3250923156738281,0.10613441467285156,0.28664064407348633,2.327037811279297,8.661846160888672,-2.9156460762023926
1_20251106_212538,1762435501827,1,0.32204365730285645,0.5758346319198608,0.5642808079719543,0.4962756335735321,1.0665791034698486,3.0601110458374023,0.17595738172531128,1.8535114526748657,8.775161743164062,-2.773848295211792,-0.29551345109939575,-0.2285015881061554,-0.1600656509399414,28.30117416381836,-26.648460388183594,15.795282363891602,-0.3788212537765503,0.0906524658203125,0.11343836784362793,2.232332706451416,8.68450927734375,-2.88728666305542
1_20251106_212538,1762435501846,1,0.3255213499069214,0.5749675631523132,0.5632305145263672,0.4962051808834076,1.049022912979126,3.060363292694092,0.17566612362861633,1.645224928855896,9.09357738494873,-2.9222824573516846,-0.37431496381759644,-0.2028452605009079,-0.2278716266155243,28.379074096679688,-26.602386474609375,15.434076309204102,-0.3929864168167114,0.2782754898071289,-0.017417430877685547,2.0382113456726074,8.815301895141602,-2.904865026473999
1_20251106_212538,1762435501864,1,0.3296598494052887,0.5734298825263977,0.5622124075889587,0.49640679359436035,1.0391845703125,3.0620648860931396,0.17575128376483917,1.496790885925293,9.28630256652832,-2.806168556213379,-0.46105778217315674,-0.16741511225700378,-0.2791842520236969,28.464111328125,-26.655166625976562,14.990152359008789,-0.43313634395599365,0.376800537109375,0.07895731925964355,1.9299272298812866,8.909502029418945,-2.8851258754730225
1_20251106_212538,1762435501884,1,0.33427608013153076,0.5711013674736023,0.5612271428108215,0.4971185028553009,1.0391845703125,3.0620648860931396,0.17575128376483917,1.496790885925293,9.28630256652832,-2.806168556213379,-0.5264202952384949,-0.14847829937934875,-0.29812106490135193,28.588134765625,-26.655868530273438,14.602819442749023,-0.43313634395599365,0.376800537109375,0.07895731925964355,1.9299272298812866,8.909502029418945,-2.8851258754730225
1_20251106_212538,1762435501902,1,0.33932095766067505,0.5684117674827576,0.560003399848938,0.498162180185318,1.025555968284607,3.0661091804504395,0.1768098920583725,1.3304009437561035,9.471844673156738,-2.6242170333862305,-0.5264202952384949,-0.14847829937934875,-0.29812106490135193,28.72634506225586,-26.629859924316406,14.135408401489258,-0.4796210527420044,0.4498739242553711,0.20872712135314941,1.810021996498108,9.021970748901367,-2.83294415473938
1_20251106_212538,1762435501922,1,0.3442234694957733,0.565809965133667,0.5586188435554504,0.4993138313293457,1.0010405778884888,3.0747618675231934,0.18225295841693878,1.306459903717041,9.33059310913086,-2.144200325012207,-0.48121631145477295,-0.166804239153862,-0.1814459264278412,28.8637638092041,-26.60492706298828,13.776128768920898,-0.30561673641204834,0.18142986297607422,0.47144031524658203,1.6120766401290894,9.149163246154785,-2.615640640258789
1_20251106_212538,1762435501940,1,0.34863775968551636,0.5639196038246155,0.5568386912345886,0.5003769397735596,0.9890376925468445,3.079373359680176,0.18671363592147827,1.5315051078796387,9.285104751586914,-2.114274024963379,-0.41890811920166016,-0.2278907150030136,-0.09592484682798386,29.00228500366211,-26.56689453125,13.363046646118164,-0.06445717811584473,0.10875320434570312,0.4010934829711914,1.5959622859954834,9.176351547241211,-2.5153675079345703
1_20251106_212538,1762435501960,1,0.35254019498825073,0.5629004240036011,0.5547282099723816,0.5011338591575623,0.976863443851471,3.085073947906494,0.19275790452957153,1.7589446306228638,9.450298309326172,-2.0759687423706055,-0.3804236352443695,-0.29630759358406067,-0.0525534525513649,29.12710952758789,-26.554908752441406,12.962461471557617,0.1303858757019043,0.21915721893310547,0.3515191078186035,1.6285587549209595,9.231141090393066,-2.427487850189209
1_20251106_212538,1762435501980,1,0.3563527464866638,0.5626044869422913,0.5522843599319458,0.5014687776565552,0.9663849472999573,3.0912864208221436,0.19947613775730133,1.8140088319778442,9.620279312133789,-1.9670369625091553,-0.3804236352443695,-0.29630759358406067,-0.0525534525513649,29.287181854248047,-26.565521240234375,12.54930305480957,0.14836013317108154,0.3113107681274414,0.3683607578277588,1.6656486988067627,9.308968544006348,-2.335397720336914
1_20251106_212538,1762435502000,1,0.36038464307785034,0.5622826218605042,0.5499498844146729,0.5015140175819397,0.9562592506408691,3.0980448722839355,0.20776179432868958,1.7816885709762573,9.488603591918945,-1.8198001384735107,-0.3486586809158325,-0.2859228849411011,-0.17839159071445465,29.409683227539062,-26.60308837890625,12.080080032348633,0.09283196926116943,0.1437082290649414,0.412477970123291,1.688856601715088,9.344895362854004,-2.2322781085968018
1_20251106_212538,1762435502018,1,0.3645547032356262,0.5614124536514282,0.5482675433158875,0.5013168454170227,0.946938693523407,3.1041576862335205,0.21600672602653503,1.6224809885025024,9.349746704101562,-1.9526724815368652,-0.33216530084609985,-0.18024326860904694,-0.2584148645401001,29.618783950805664,-26.621726989746094,11.533456802368164,-0.05310046672821045,0.0038814544677734375,0.22368454933166504,1.675581455230713,9.345865249633789,-2.1763570308685303
1_20251106_212538,1762435502037,1,0.368442177772522,0.5596458911895752,0.547455906867981,0.5013370513916016,0.9375312328338623,3.110175848007202,0.22349083423614502,1.4740468263626099,9.422765731811523,-2.303407907485962,-0.3511021137237549,-0.11182641983032227,-0.29140153527259827,29.618783950805664,-26.621726989746094,11.533456802368164,-0.16122770309448242,0.06152057647705078,-0.10164070129394531,1.6352745294570923,9.361245155334473,-2.2017672061920166
1_20251106_212538,1762435502056,1,0.37237030267715454,0.5574938654899597,0.5468136072158813,0.5015335083007812,0.9283373951911926,3.1159913539886475,0.22999688982963562,1.3399773836135864,9.523317337036133,-2.2950286865234375,-0.3956952691078186,-0.1258763074874878,-0.29140153527259827,29.79014015197754,-26.644371032714844,11.147558212280273,-0.2362377643585205,0.12965774536132812,-0.07460927963256836,1.576215147972107,9.393659591674805,-2.220419406890869
1_20251106_212538,1762435502076,1,0.3764796257019043,0.5551746487617493,0.5460503101348877,0.5018697381019592,0.917481541633606,3.1226587295532227,0.23784209787845612,1.19752836227417,9.567608833312988,-1.8988052606582642,-0.4384557604789734,-0.1405370533466339,-0.2779625356197357,29.925148010253906,-26.657516479492188,10.828035354614258,-0.3029494285583496,0.1391592025756836,0.25729143619537354,1.5004777908325195,9.428449630737305,-2.1560966968536377
1_20251106_212538,1762435502094,1,0.38085246086120605,0.5528525114059448,0.5449314117431641,0.5023496747016907,0.906370222568512,3.1291463375091553,0.24600598216056824,1.0215622186660767,9.599929809570312,-1.7611446380615234,-0.417075514793396,-0.11060468852519989,-0.2480301558971405,30.064163208007812,-26.618812561035156,10.347372055053711,-0.3831324577331543,0.13718414306640625,0.3159615993499756,1.404694676399231,9.462745666503906,-2.077106237411499
1_20251106_212538,1762435502113,1,0.38487887382507324,0.5505860447883606,0.543802797794342,0.5029928088188171,0.8945958018302917,3.136063814163208,0.25495368242263794,0.960512638092041,9.737589836120605,-1.642636775970459,-0.3773692846298218,-0.05501600354909897,-0.20893481373786926,30.227970123291016,-26.55475616455078,10.003379821777344,-0.3553457260131836,0.21987533569335938,0.3475755453109741,1.3158583641052246,9.517714500427246,-1.990212321281433
1_20251106_212538,1762435502132,1,0.3881465196609497,0.5482653975486755,0.5429636836051941,0.5039223432540894,0.8826519250869751,3.1434290409088135,0.2642039954662323,1.039517879486084,9.807018280029297,-1.7168538570404053,-0.3773692846298218,-0.05501600354909897,-0.20893481373786926,30.391273498535156,-26.50298309326172,9.632091522216797,-0.22107243537902832,0.2314434051513672,0.21868681907653809,1.2605903148651123,9.57557487487793,-1.9355406761169434
1_20251106_212538,1762435502152,1,0.3909437954425812,0.5459186434745789,0.5421190857887268,0.5052154660224915,0.8709679841995239,3.1510674953460693,0.2736443281173706,1.1376760005950928,9.809412956237793,-1.6977009773254395,-0.3749258518218994,-0.040355246514081955,-0.13746365904808044,30.49585723876953,-26.417373657226562,9.245626449584961,-0.09833145141601562,0.1870708465576172,0.19027185440063477,1.2360074520111084,9.622342109680176,-1.8879728317260742
1_20251106_212538,1762435502170,1,0.3937571942806244,0.5439119935035706,0.5409442186355591,0.506452739238739,0.8594539761543274,3.1590607166290283,0.2838999032974243,1.0850058794021606,9.890811920166016,-1.4187885522842407,-0.3846997022628784,-0.13442841172218323,-0.09959003329277039,30.708209991455078,-26.35041046142578,8.93062973022461,-0.12080121040344238,0.21477603912353516,0.375347375869751,1.205807089805603,9.67603588104248,-1.7941359281539917
1_20251106_212538,1762435502189,1,0.3969678580760956,0.5426101684570312,0.5390743613243103,0.5073357820510864,0.8480167388916016,3.1674766540527344,0.29512572288513184,1.023956298828125,9.97580337524414,-1.2535957098007202,-0.3846997022628784,-0.13442841172218323,-0.09959003329277039,30.824695587158203,-26.25279998779297,8.680082321166992,-0.14548063278198242,0.23981380462646484,0.43243229389190674,1.1694369316101074,9.735989570617676,-1.686028003692627
1_20251106_212538,1762435502209,1,0.40019962191581726,0.5417132377624512,0.5369898080825806,0.5079655051231384,0.8358388543128967,3.176668882369995,0.30758970975875854,0.925798237323761,9.991364479064941,-1.278733730316162,-0.31200677156448364,-0.19612574577331543,-0.06110556051135063,30.95547103881836,-26.128334045410156,8.335939407348633,-0.1949109435081482,0.2042999267578125,0.3258354663848877,1.1207091808319092,9.787064552307129,-1.6045691967010498
1_20251106_212538,1762435502228,1,0.40320825576782227,0.5411204695701599,0.5349931716918945,0.5083247423171997,0.824057400226593,3.1855781078338623,0.3194631040096283,0.8324283957481384,10.010517120361328,-1.376891851425171,-0.32300233840942383,-0.13687187433242798,-0.02934059500694275,31.032962799072266,-26.094406127929688,7.933921813964844,-0.23062461614608765,0.17876243591308594,0.18214190006256104,1.063053011894226,9.831754684448242,-1.559033751487732
1_20251106_212538,1762435502247,1,0.40576329827308655,0.540298342704773,0.5330750942230225,0.50918048620224,0.8124030232429504,3.1947293281555176,0.33142319321632385,0.8946749567985535,10.082340240478516,-1.311053991317749,-0.39325177669525146,-0.10388517379760742,0.027469824999570847,31.11138153076172,-26.024429321289062,7.694890975952148,-0.1347023844718933,0.2004690170288086,0.19838380813598633,1.0293773412704468,9.881871223449707,-1.5094377994537354
1_20251106_212538,1762435502266,1,0.40831702947616577,0.5394306778907776,0.5305755138397217,0.5106675624847412,0.801569402217865,3.204521417617798,0.34397000074386597,1.1161291599273682,10.282247543334961,-1.0776294469833374,-0.43967750668525696,-0.0947222113609314,0.0763390064239502,31.146381378173828,-26.09375,7.329839706420898,0.06940150260925293,0.3203010559082031,0.34544670581817627,1.0467276573181152,9.961946487426758,-1.4230761528015137
1_20251106_212538,1762435502284,1,0.4107363820075989,0.5385037064552307,0.5276983380317688,0.5126830339431763,0.7923584580421448,3.2145121097564697,0.356584370136261,1.2657603025436401,10.440258026123047,-0.8861015439033508,-0.43967750668525696,-0.0947222113609314,0.0763390064239502,31.246734619140625,-26.08348846435547,6.941791534423828,0.175226092338562,0.38264942169189453,0.42957979440689087,1.0905342102050781,10.057608604431152,-1.3156813383102417
1_20251106_212538,1762435502305,1,0.41317036747932434,0.5377073884010315,0.5249124765396118,0.5144199728965759,0.7923584580421448,3.2145121097564697,0.356584370136261,1.2657603025436401,10.440258026123047,-0.8861015439033508,-0.36698460578918457,-0.1044960469007492,0.003035235218703747,31.31940460205078,-26.125717163085938,6.619287490844727,0.175226092338562,0.38264942169189453,0.42957979440689087,1.0905342102050781,10.057608604431152,-1.3156813383102417
1_20251106_212538,1762435502324,1,0.4156249463558197,0.5367504954338074,0.522614061832428,0.5157803297042847,0.7822861075401306,3.2275242805480957,0.3734232485294342,1.259774923324585,10.441454887390137,-0.7197116613388062,-0.343771755695343,-0.07578539848327637,-0.06110556051135063,31.32337188720703,-26.10871124267578,6.173515319824219,0.13539254665374756,0.30707645416259766,0.47677576541900635,1.1243823766708374,10.134378433227539,-1.1964874267578125
1_20251106_212538,1762435502342,1,0.4181491732597351,0.5354180932044983,0.5208423733711243,0.5169157981872559,0.7671722173690796,3.2492339611053467,0.40278419852256775,1.1125379800796509,10.443849563598633,-0.6790120005607605,-0.3303326964378357,-0.017753256484866142,-0.11669424921274185,31.299270629882812,-26.13312530517578,5.942230224609375,-0.016390681266784668,0.20342350006103516,0.3219909071922302,1.1289286613464355,10.240426063537598,-1.0010029077529907
1_20251106_212538,1762435502361,1,0.4206332564353943,0.5335946679115295,0.5196149945259094,0.5180199146270752,0.7671722173690796,3.2492339611053467,0.40278419852256775,1.1125379800796509,10.443849563598633,-0.6790120005607605,-0.2949025630950928,0.03355938196182251,-0.1906088888645172,31.335887908935547,-26.165451049804688,5.645551681518555,-0.016390681266784668,0.20342350006103516,0.3219909071922302,1.1289286613464355,10.240426063537598,-1.0010029077529907
1_20251106_212538,1762435502381,1,0.4229704439640045,0.5312363505363464,0.5192192196846008,0.5189367532730103,0.7516489028930664,3.2716825008392334,0.4337504208087921,0.9389657974243164,10.188878059387207,-1.0189740657806396,-0.28024178743362427,0.07082213461399078,-0.25291708111763,31.384296417236328,-26.19751739501953,5.40342903137207,-0.14570879936218262,-0.06114482879638672,-0.05076479911804199,1.084674596786499,10.250022888183594,-0.9682092666625977
1_20251106_212538,1762435502400,1,0.425357460975647,0.5284894108772278,0.5193406939506531,0.5196684002876282,0.7433710098266602,3.2812840938568115,0.44754043221473694,0.7043440937995911,10.105083465576172,-0.9902448654174805,-0.333997905254364,0.024396410211920738,-0.24192151427268982,31.396949768066406,-26.219276428222656,5.146581649780273,-0.3042643666267395,-0.1159515380859375,-0.017628490924835205,1.0086084604263306,10.22103500366211,-0.9726163744926453
1_20251106_212538,1762435502419,1,0.428236722946167,0.5259092450141907,0.5189129114151001,0.5203481316566467,0.7348327040672302,3.289607524871826,0.46141719818115234,0.5666834115982056,10.091917037963867,-0.37735557556152344,-0.3804236352443695,-0.04218784347176552,-0.17411553859710693,31.485836029052734,-26.185638427734375,4.853185653686523,-0.3535400629043579,-0.10329437255859375,0.4762086272239685,0.9202234745025635,10.195211410522461,-0.8535642027854919
1_20251106_212538,1762435502439,1,0.43130409717559814,0.5237295031547546,0.5177154541015625,0.5212052464485168,0.7348327040672302,3.289607524871826,0.46141719818115234,0.5666834115982056,10.091917037963867,-0.37735557556152344,-0.31750455498695374,-0.050129082053899765,-0.10814213752746582,31.527191162109375,-26.130332946777344,4.58538818359375,-0.3535400629043579,-0.10329437255859375,0.4762086272239685,0.9202234745025635,10.195211410522461,-0.8535642027854919
1_20251106_212538,1762435502459,1,0.43385040760040283,0.5220971703529358,0.5164016485214233,0.5220323204994202,0.7144255638122559,3.3060874938964844,0.497793972492218,0.7294821739196777,10.127828598022461,-0.18343357741832733,-0.2154901623725891,-0.04096611216664314,-0.055607784539461136,31.527191162109375,-26.130332946777344,4.58538818359375,-0.10675221681594849,-0.030101776123046875,0.40455955266952515,0.8362343907356262,10.157930374145508,-0.5879931449890137
1_20251106_212538,1762435502476,1,0.43558356165885925,0.5210539698600769,0.5153394341468811,0.5226805806159973,0.7144255638122559,3.3060874938964844,0.497793972492218,0.7294821739196777,10.127828598022461,-0.18343357741832733,-0.16112321615219116,-0.0635681077837944,-0.01406897883862257,31.616191864013672,-26.084945678710938,4.37335205078125,-0.10675221681594849,-0.030101776123046875,0.40455955266952515,0.8362343907356262,10.157930374145508,-0.5879931449890137
1_20251106_212538,1762435502495,1,0.4369194805622101,0.5205899477005005,0.5142504572868347,0.5231003165245056,0.697714626789093,3.318499803543091,0.529312014579773,0.8312313556671143,9.98178768157959,-0.34264111518859863,-0.16112321615219116,-0.0635681077837944,-0.01406897883862257,31.67790985107422,-26.07989501953125,4.267673492431641,0.0031185150146484375,-0.13609790802001953,0.16602712869644165,0.8281128406524658,10.11788558959961,-0.5086682438850403
1_20251106_212538,1762435502515,1,0.4380277693271637,0.5206434726715088,0.5130448937416077,0.5233039259910583,0.6893736124038696,3.324125051498413,0.5464080572128296,0.9054483771324158,9.945876121520996,-0.29954734444618225,-0.11164316534996033,-0.07456366717815399,0.04274144023656845,31.767810821533203,-26.02167510986328,4.02886962890625,0.061868369579315186,-0.13760757446289062,0.16729670763015747,0.8435800075531006,10.083483695983887,-0.4668440520763397
1_20251106_212538,1762435502534,1,0.43886807560920715,0.5207775235176086,0.5118627548217773,0.5236240029335022,0.6893736124038696,3.324125051498413,0.5464080572128296,0.9054483771324158,9.945876121520996,-0.29954734444618225,-0.11164316534996033,-0.07456366717815399,0.04274144023656845,31.83173370361328,-25.990432739257812,3.8155899047851562,0.061868369579315186,-0.13760757446289062,0.16729670763015747,0.8435800075531006,10.083483695983887,-0.4668440520763397
1_20251106_212538,1762435502553,1,0.43938976526260376,0.520537793636322,0.5108389258384705,0.5244240760803223,0.6758861541748047,3.3322603702545166,0.5770339369773865,1.079020619392395,9.911161422729492,-0.5569129586219788,-0.1544037014245987,0.03722456842660904,0.05618046596646309,31.824764251708984,-25.914535522460938,3.681520462036133,0.1675364375114441,-0.09668731689453125,-0.09116148948669434,0.9114841818809509,10.007848739624023,-0.4657514691352844
1_20251106_212538,1762435502571,1,0.4397009611129761,0.5199243426322937,0.509932816028595,0.5256522297859192,0.6708039045333862,3.335157632827759,0.590000331401825,1.1364789009094238,9.801033020019531,-0.5808539390563965,-0.1544037014245987,0.03722456842660904,0.05618046596646309,31.862098693847656,-25.922691345214844,3.4799842834472656,0.17999577522277832,-0.1654529571533203,-0.0920819640159607,0.9564831256866455,9.966485977172852,-0.4887719750404358
1_20251106_212538,1762435502590,1,0.4403003454208374,0.5195355415344238,0.5088640451431274,0.5265697836875916,0.6661159992218018,3.3376286029815674,0.6030226945877075,1.1053557395935059,9.808216094970703,-0.4814988672733307,-0.13180169463157654,-0.04096611216664314,0.040297981351614,31.85201644897461,-25.897430419921875,3.385408401489258,0.11909812688827515,-0.1266155242919922,0.005818486213684082,0.9862576127052307,9.934831619262695,-0.48731735348701477
1_20251106_212538,1762435502610,1,0.4409058094024658,0.5196496248245239,0.5076112151145935,0.5271595120429993,0.6616628170013428,3.3399112224578857,0.6159462928771973,1.0634589195251465,9.872856140136719,-0.5198044776916504,-0.12141700088977814,-0.04768562316894531,0.038465388119220734,31.813133239746094,-25.949371337890625,3.3152999877929688,0.06176102161407471,-0.04958057403564453,-0.02598971128463745,1.0016978979110718,9.922436714172363,-0.49381476640701294
1_20251106_212538,1762435502629,1,0.44153207540512085,0.5196647644042969,0.5064318776130676,0.5277543663978577,0.6578263640403748,3.341996192932129,0.6273972988128662,1.0682470798492432,9.931510925292969,-0.5712775588035583,-0.13974294066429138,-0.04279870539903641,0.038465388119220734,31.76819610595703,-25.900970458984375,3.179231643676758,0.05323934555053711,0.007259368896484375,-0.06197023391723633,1.015007734298706,9.924251556396484,-0.509307324886322
1_20251106_212538,1762435502651,1,0.44226735830307007,0.5196157097816467,0.5052415728569031,0.5283275842666626,0.6542245745658875,3.3442416191101074,0.6391547918319702,1.0921880006790161,9.976999282836914,-0.40847882628440857,-0.18128174543380737,-0.04157697781920433,0.037854522466659546,31.72124481201172,-25.890106201171875,3.0288543701171875,0.06174421310424805,0.04219818115234375,0.0806628167629242,1.030443787574768,9.93480110168457,-0.48914164304733276
1_20251106_212538,1762435502671,1,0.4432394504547119,0.5195239782333374,0.5038345456123352,0.5289464592933655,0.6507890820503235,3.346919298171997,0.6530811190605164,1.119720220565796,10.024881362915039,-0.04337877407670021,-0.22465313971042633,-0.00309250270947814,0.03052414581179619,31.68497085571289,-25.903701782226562,2.891956329345703,0.07142114639282227,0.07206439971923828,0.3566102981567383,1.0482990741729736,9.9528169631958,-0.3999890685081482
1_20251106_212538,1762435502687,1,0.4442680776119232,0.5188320279121399,0.5023891925811768,0.5301361680030823,0.6486476063728333,3.3490352630615234,0.6636948585510254,1.1676021814346313,10.089522361755371,0.10984353721141815,-0.2106032520532608,0.038446299731731415,0.004256964661180973,31.634593963623047,-25.955490112304688,2.726743698120117,0.09544253349304199,0.10936450958251953,0.40786612033843994,1.0721596479415894,9.980157852172852,-0.2980225682258606
1_20251106_212538,1762435502705,1,0.44523128867149353,0.5174563527107239,0.5011979341506958,0.5317975878715515,0.6465083956718445,3.351492404937744,0.6759483218193054,1.132887840270996,10.059595108032227,0.07153795659542084,-0.2106032520532608,0.038446299731731415,0.004256964661180973,31.644046783447266,-26.016403198242188,2.6177845001220703,0.04858255386352539,0.06354999542236328,0.2956484258174896,1.0843052864074707,9.996045112609863,-0.2241104692220688
1_20251106_212538,1762435502725,1,0.4460781514644623,0.5161029100418091,0.5003817677497864,0.5331699252128601,0.6441760659217834,3.3542027473449707,0.6895192861557007,1.0598677396774292,10.03445816040039,-0.01464959979057312,-0.12386045604944229,0.031726788729429245,-0.028118867427110672,31.680789947509766,-26.025367736816406,2.497344970703125,-0.019549965858459473,0.030730247497558594,0.16756869852542877,1.0794177055358887,10.003727912902832,-0.1822182983160019
1_20251106_212538,1762435502744,1,0.4467615783214569,0.5149006247520447,0.49977222084999084,0.5343305468559265,0.6418730020523071,3.3565590381622314,0.7018162608146667,1.0071974992752075,9.971014976501465,-0.16428078711032867,-0.11164315789937973,0.02012035623192787,-0.015290706418454647,31.645122528076172,-26.026535034179688,2.374227523803711,-0.05777609348297119,-0.026169776916503906,0.014350011944770813,1.0649735927581787,9.997184753417969,-0.1786307990550995
1_20251106_212538,1762435502763,1,0.447441041469574,0.5140054225921631,0.49917352199554443,0.5351828336715698,0.6418730020523071,3.3565590381622314,0.7018162608146667,1.0071974992752075,9.971014976501465,-0.16428078711032867,-0.10370191931724548,-0.007368555758148432,0.004867829382419586,31.623851776123047,-25.989105224609375,2.2388763427734375,-0.05777609348297119,-0.026169776916503906,0.014350011944770813,1.0649735927581787,9.997184753417969,-0.1786307990550995
1_20251106_212538,1762435502782,1,0.4480992257595062,0.5135703682899475,0.49850115180015564,0.5356763601303101,0.6372466683387756,3.3602652549743652,0.7234340906143188,1.0095916986465454,9.974605560302734,-0.3151090145111084,-0.12691478431224823,-0.02141844481229782,0.02258290722966194,31.60773468017578,-26.064842224121094,2.1962528228759766,-0.03391218185424805,-0.0027675628662109375,-0.0980716347694397,1.0435038805007935,9.977373123168945,-0.2170373797416687
1_20251106_212538,1762435502800,1,0.4488452970981598,0.5133571028709412,0.49757784605026245,0.5361143946647644,0.6349114775657654,3.361982583999634,0.7334887981414795,1.0107886791229248,9.965028762817383,-0.22772440314292908,-0.12691478431224823,-0.02141844481229782,0.02258290722966194,31.632797241210938,-26.06230926513672,2.102619171142578,-0.026172161102294922,-0.009875297546386719,-0.008549615740776062,1.0369608402252197,9.97490406036377,-0.21917478740215302
1_20251106_212538,1762435502820,1,0.4496871531009674,0.5131528377532959,0.49650025367736816,0.5366033315658569,0.6326168179512024,3.3637170791625977,0.7437576651573181,1.0502914190292358,9.9805908203125,-0.14871911704540253,-0.18250347673892975,-0.023861903697252274,0.03724366053938866,31.64377212524414,-26.08635711669922,2.0755481719970703,0.01066446304321289,0.0045490264892578125,0.05636453628540039,1.039626955986023,9.976041793823242,-0.20508365333080292
1_20251106_212538,1762435502839,1,0.45063284039497375,0.5128200650215149,0.49522891640663147,0.5373024940490723,0.6307689547538757,3.3651010990142822,0.7537809610366821,1.1209173202514648,9.909965515136719,0.07034090906381607,-0.18250347673892975,-0.023861903697252274,0.03724366053938866,31.631881713867188,-26.086746215820312,2.0345096588134766,0.0650322437286377,-0.05286121368408203,0.22033965587615967,1.0558850765228271,9.9628267288208,-0.149998739361763
1_20251106_212538,1762435502859,1,0.45147913694381714,0.5125168561935425,0.49385395646095276,0.5381461977958679,0.6307689547538757,3.3651010990142822,0.7537809610366821,1.1209173202514648,9.909965515136719,0.07034090906381607,-0.15501455962657928,-0.029359685257077217,0.06656517088413239,31.596511840820312,-26.087509155273438,1.8708438873291016,0.0650322437286377,-0.05286121368408203,0.22033965587615967,1.0558850765228271,9.9628267288208,-0.149998739361763
1_20251106_212538,1762435502879,1,0.45212945342063904,0.5122241973876953,0.49240440130233765,0.5392060875892639,0.6283515691757202,3.368669271469116,0.7758129239082336,1.228651762008667,10.067975997924805,0.18406060338020325,-0.15501455962657928,-0.029359685257077217,0.06656517088413239,31.52318572998047,-26.104156494140625,1.8000564575195312,0.11804032325744629,0.0678701400756836,0.22375744581222534,1.1106114387512207,10.000105857849121,-0.0396968349814415
1_20251106_212538,1762435502896,1,0.4525660574436188,0.5120628476142883,0.4911624789237976,0.5401250123977661,0.6280064582824707,3.37032151222229,0.7850379347801208,1.3016718626022339,10.065581321716309,0.05956745892763138,-0.08537597954273224,-0.019585849717259407,0.03968711942434311,31.52318572998047,-26.104156494140625,1.8000564575195312,0.15284836292266846,0.05238056182861328,0.07941143959760666,1.1488234996795654,10.013200759887695,-0.01984397880733013
1_20251106_212538,1762435502916,1,0.4528995156288147,0.5118386149406433,0.4901881515979767,0.5409425497055054,0.6281072497367859,3.3723745346069336,0.7953057885169983,1.3088539838790894,10.081143379211426,-0.033802397549152374,-0.0872085690498352,-0.04218784347176552,0.0012026410549879074,31.48389434814453,-26.168243408203125,1.6891345977783203,0.12802445888519287,0.05435371398925781,-0.011166736483573914,1.1808295249938965,10.026789665222168,-0.02263566106557846
1_20251106_212538,1762435502935,1,0.4534793496131897,0.5118206143379211,0.4892546236515045,0.5413188338279724,0.6282867193222046,3.374159812927246,0.8050608038902283,1.2130900621414185,10.002138137817383,0.15533140301704407,-0.0872085690498352,-0.04218784347176552,0.0012026410549879074,31.481060028076172,-26.230087280273438,1.59320068359375,0.02580845355987549,-0.019721031188964844,0.14237365126609802,1.187281608581543,10.021859169006348,0.012957748025655746
1_20251106_212538,1762435502954,1,0.45431259274482727,0.5116787552833557,0.48843997716903687,0.5414898991584778,0.6283867955207825,3.3759396076202393,0.8149452805519104,1.1616170406341553,10.052413940429688,0.23792780935764313,-0.12569305300712585,0.014622574672102928,-0.06171642616391182,31.40903091430664,-26.233367919921875,1.441579818725586,-0.020531654357910156,0.024443626403808594,0.17997604608535767,1.1821486949920654,10.027970314025879,0.057951755821704865
1_20251106_212538,1762435502973,1,0.4552276134490967,0.5107863545417786,0.4879002273082733,0.5420502424240112,0.6283532977104187,3.3775036334991455,0.8249409794807434,1.1352819204330444,9.98178768157959,0.27862748503685,-0.12569305300712585,0.014622574672102928,-0.06171642616391182,31.360782623291016,-26.235870361328125,1.3720359802246094,-0.037493348121643066,-0.03694629669189453,0.1765405833721161,1.1727752685546875,10.018733978271484,0.10208690166473389
1_20251106_212538,1762435502992,1,0.4559468924999237,0.5094789266586304,0.4878542125225067,0.5427171587944031,0.6282646059989929,3.3788585662841797,0.8345633149147034,1.1520404815673828,9.971014022827148,0.14814910292625427,-0.0872085690498352,0.07754164189100266,-0.09287051856517792,31.32440948486328,-26.249595642089844,1.2486553192138672,-0.01658785343170166,-0.03817558288574219,0.03684975951910019,1.1686283349990845,10.00918960571289,0.11129934340715408
1_20251106_212538,1762435503011,1,0.4564666450023651,0.5080275535583496,0.48807743191719055,0.5434396266937256,0.6280757188796997,3.380031108856201,0.8436939716339111,1.1304937601089478,9.967422485351562,0.10744943469762802,-0.0872085690498352,0.07754164189100266,-0.09287051856517792,31.252986907958984,-26.240455627441406,1.1108131408691406,-0.030507683753967285,-0.03341388702392578,-0.003079928457736969,1.161001443862915,10.000836372375488,0.11052936315536499
1_20251106_212538,1762435503031,1,0.4571878910064697,0.5072264075279236,0.48800140619277954,0.5436499118804932,0.6280757188796997,3.380031108856201,0.8436939716339111,1.1304937601089478,9.967422485351562,0.10744943469762802,-0.06338485330343246,-0.02202931046485901,-0.08737273514270782,31.301616668701172,-26.2490234375,1.0314140319824219,-0.030507683753967285,-0.03341388702392578,-0.003079928457736969,1.161001443862915,10.000836372375488,0.11052936315536499
1_20251106_212538,1762435503052,1,0.4581415057182312,0.5068789124488831,0.48776090145111084,0.5433869957923889,0.6258957982063293,3.3822176456451416,0.8628888726234436,0.8623546361923218,9.936300277709961,0.20800158381462097,-0.043837182223796844,-0.007368555758148432,-0.09287051856517792,31.29043197631836,-26.236854553222656,0.9906387329101562,-0.21335113048553467,-0.052028656005859375,0.06123305857181549,1.0757057666778564,9.98832893371582,0.14676852524280548
1_20251106_212538,1762435503070,1,0.45907145738601685,0.5062734484672546,0.48779478669166565,0.5431361198425293,0.624147891998291,3.382702589035034,0.8702643513679504,0.8156697154045105,9.86567497253418,0.11223763227462769,-0.046891503036022186,0.04638754203915596,-0.07759889960289001,31.355281829833984,-26.1695556640625,0.9403457641601562,-0.2080288529396057,-0.09812259674072266,-0.027624711394309998,1.0236985683441162,9.963797569274902,0.13986234366893768
1_20251106_212538,1762435503089,1,0.45969507098197937,0.5052970051765442,0.48816198110580444,0.5431880950927734,0.6216852068901062,3.3826231956481934,0.8775400519371033,0.8025021553039551,9.74716567993164,-0.06253157556056976,-0.07560214400291443,0.06837867200374603,-0.04827740415930748,31.397972106933594,-26.0660400390625,0.8763484954833984,-0.1769571304321289,-0.17330551147460938,-0.1619151383638382,0.979459285736084,9.92047119140625,0.09938356280326843
1_20251106_212538,1762435503107,1,0.4602397382259369,0.5043817162513733,0.488355815410614,0.5434032082557678,0.618965208530426,3.3820950984954834,0.884093165397644,0.8408077359199524,9.755546569824219,-0.03140830248594284,-0.13057997822761536,0.03172678500413895,-0.005516870878636837,31.438945770263672,-25.999656677246094,0.7574939727783203,-0.11092120409011841,-0.13193988800048828,-0.10463349521160126,0.9517289400100708,9.887486457824707,0.07322519272565842
1_20251106_212538,1762435503126,1,0.4609838128089905,0.5039100646972656,0.4879259467124939,0.5435962080955505,0.6163590550422668,3.3815042972564697,0.8905527591705322,0.8874926567077637,9.840536117553711,0.30137142539024353,-0.1745622456073761,-0.017142392694950104,0.02624809369444847,31.44125747680664,-25.961715698242188,0.7312526702880859,-0.05138903856277466,-0.037560462951660156,0.18251699209213257,0.9388816952705383,9.878096580505371,0.11885443329811096
1_20251106_212538,1762435503145,1,0.4620322585105896,0.5037242770195007,0.48680779337882996,0.5438807010650635,0.6163590550422668,3.3815042972564697,0.8905527591705322,0.8874926567077637,9.840536117553711,0.30137142539024353,-0.14096467196941376,-0.020196717232465744,0.02930241823196411,31.493328094482422,-25.896018981933594,0.761566162109375,-0.05138903856277466,-0.037560462951660156,0.18251699209213257,0.9388816952705383,9.878096580505371,0.11885443329811096
1_20251106_212538,1762435503165,1,0.4628072679042816,0.5031989216804504,0.48583632707595825,0.5445763468742371,0.6106062531471252,3.3803184032440186,0.9060117602348328,0.8599605560302734,9.901586532592773,0.2738392949104309,-0.09392808377742767,-0.016531527042388916,0.017695989459753036,31.579448699951172,-25.86615753173828,0.8466243743896484,-0.05836224555969238,0.019438743591308594,0.0777391791343689,0.9183228015899658,9.882147789001465,0.196100115776062
1_20251106_212538,1762435503183,1,0.4633770287036896,0.5026863813400269,0.4851602017879486,0.5451675653457642,0.6080406308174133,3.3799655437469482,0.9122799038887024,0.819260835647583,9.919541358947754,0.23313961923122406,-0.10919970273971558,0.01767689734697342,0.01341993547976017,31.608951568603516,-25.776397705078125,0.8224201202392578,-0.0792495608329773,0.02991485595703125,0.0296315997838974,0.8985103964805603,9.889626502990723,0.20350801944732666
1_20251106_212538,1762435503203,1,0.463907390832901,0.5020919442176819,0.4846615791320801,0.5457075834274292,0.6047400832176208,3.3791983127593994,0.9199516773223877,0.8120785355567932,9.78427505493164,0.29778027534484863,-0.13180169463157654,0.04699840396642685,0.02319376915693283,31.623043060302734,-25.74981689453125,0.7558574676513672,-0.06914550065994263,-0.08428096771240234,0.07541780173778534,0.8812240362167358,9.868556022644043,0.2223624736070633
1_20251106_212538,1762435503222,1,0.46447184681892395,0.5014232397079468,0.4841042757034302,0.5463366508483887,0.6020296216011047,3.3784337043762207,0.9264050722122192,0.8719310164451599,9.811807632446289,0.3061596155166626,-0.13180169463157654,0.04699840396642685,0.02319376915693283,31.635921478271484,-25.748077392578125,0.6617336273193359,-0.007434427738189697,-0.045398712158203125,0.06703770160675049,0.8793654441833496,9.857206344604492,0.2391219139099121
1_20251106_212538,1762435503241,1,0.46483299136161804,0.5006240606307983,0.4833085536956787,0.5474656820297241,0.5996984839439392,3.3776705265045166,0.9332015514373779,1.0203651189804077,9.858490943908691,0.35763275623321533,-0.19349904358386993,0.05005273222923279,0.10382791608572006,31.64568328857422,-25.796974182128906,0.6071033477783203,0.1127997636795044,0.0010280609130859375,0.0948086678981781,0.9075653553009033,9.857462882995605,0.26282408833503723
1_20251106_212538,1762435503260,1,0.4652208983898163,0.500058114528656,0.48201411962509155,0.5487930178642273,0.5979613661766052,3.376957893371582,0.940875768661499,1.102961540222168,9.874053955078125,0.5515547394752502,-0.19349904358386993,0.05005273222923279,0.10382791608572006,31.667938232421875,-25.833053588867188,0.6072921752929688,0.15631699562072754,0.013272285461425781,0.23098450899124146,0.9466445446014404,9.8607816696167,0.3205702304840088
1_20251106_212538,1762435503280,1,0.465597540140152,0.49985721707344055,0.48034268617630005,0.5501205325126648,0.5979613661766052,3.376957893371582,0.940875768661499,1.102961540222168,9.874053955078125,0.5515547394752502,-0.1947207748889923,0.007292197551578283,0.12093213200569153,31.667938232421875,-25.833053588867188,0.6072921752929688,0.15631699562072754,0.013272285461425781,0.23098450899124146,0.9466445446014404,9.8607816696167,0.3205702304840088
1_20251106_212538,1762435503299,1,0.4659503102302551,0.4997093081474304,0.47866496443748474,0.5514170527458191,0.5964741110801697,3.3760104179382324,0.9574099183082581,1.1532375812530518,9.92073917388916,0.5611311197280884,-0.14279726147651672,-0.0012599086621776223,0.08428025245666504,31.711299896240234,-25.964767456054688,0.28196144104003906,0.13241112232208252,0.04239463806152344,0.13365700840950012,1.0208264589309692,9.878344535827637,0.42747411131858826
1_20251106_212538,1762435503319,1,0.46627122163772583,0.4993135333061218,0.47724613547325134,0.552732527256012,0.5962408781051636,3.3756346702575684,0.964815616607666,1.0969762802124023,9.862083435058594,0.4845200181007385,-0.15501457452774048,0.004237873945385218,0.057402197271585464,31.66021728515625,-26.02911376953125,0.11648368835449219,0.060919880867004395,-0.013009071350097656,0.04563671350479126,1.036056399345398,9.875092506408691,0.43888330459594727
1_20251106_212538,1762435503337,1,0.46678292751312256,0.49895021319389343,0.475951224565506,0.553744375705719,0.5962408781051636,3.3756346702575684,0.964815616607666,1.0969762802124023,9.862083435058594,0.4845200181007385,-0.17822742462158203,0.028672462329268456,0.028691552579402924,31.66021728515625,-26.02911376953125,0.11648368835449219,0.060919880867004395,-0.013009071350097656,0.04563671350479126,1.036056399345398,9.875092506408691,0.43888330459594727
1_20251106_212538,1762435503355,1,0.46745750308036804,0.4983070492744446,0.47488096356391907,0.5546725392341614,0.5956236124038696,3.3743512630462646,0.9798707365989685,0.9437539577484131,9.802230834960938,0.45219966769218445,-0.17395135760307312,0.054328784346580505,0.010976476594805717,31.549827575683594,-26.06043243408203,0.016927719116210938,-0.07439577579498291,-0.04720592498779297,-0.002777665853500366,1.018149733543396,9.84943675994873,0.4549773335456848
1_20251106_212538,1762435503375,1,0.4681604504585266,0.49742841720581055,0.47405385971069336,0.5555750727653503,0.5956236124038696,3.3743512630462646,0.9798707365989685,0.9437539577484131,9.802230834960938,0.45219966769218445,-0.17639482021331787,0.04699840769171715,0.031745877116918564,31.563507080078125,-26.046005249023438,-0.09044837951660156,-0.07439577579498291,-0.04720592498779297,-0.002777665853500366,1.018149733543396,9.84943675994873,0.4549773335456848
1_20251106_212538,1762435503394,1,0.46882718801498413,0.4966932237148285,0.47323793172836304,0.5563656687736511,0.594789981842041,3.373462438583374,0.9870733022689819,0.9030542969703674,9.804624557495117,0.3169330656528473,-0.21243584156036377,0.011568250134587288,0.0971084013581276,31.46430206298828,-26.089492797851562,-0.1492290496826172,-0.0920763611793518,-0.035849571228027344,-0.11043542623519897,0.9951306581497192,9.840474128723145,0.42736849188804626
1_20251106_212538,1762435503412,1,0.46950361132621765,0.4964717924594879,0.47185856103897095,0.5571638941764832,0.593909502029419,3.3726625442504883,0.9930760860443115,0.9353746175765991,9.82736873626709,0.3588297963142395,-0.21243584156036377,0.011568250134587288,0.0971084013581276,31.380393981933594,-26.08155059814453,-0.2470111846923828,-0.047804832458496094,-0.010483741760253906,-0.054830968379974365,0.9831794500350952,9.837852478027344,0.41366076469421387
1_20251106_212538,1762435503431,1,0.4700416326522827,0.49652299284935,0.4699820876121521,0.5582495927810669,0.5934746861457825,3.3716583251953125,1.0058040618896484,1.2621691226959229,9.976999282836914,0.8388466238975525,-0.20877066254615784,-0.030581412836909294,0.16491438448429108,31.331947326660156,-26.084320068359375,-0.2895221710205078,0.20594191551208496,0.10801506042480469,0.29720908403396606,1.056227207183838,9.86898422241211,0.5416375398635864
1_20251106_212538,1762435503452,1,0.47045114636421204,0.49653661251068115,0.4679030776023865,0.559637188911438,0.5934746861457825,3.3716583251953125,1.0058040618896484,1.2621691226959229,9.976999282836914,0.8388466238975525,-0.20877066254615784,-0.030581412836909294,0.16491438448429108,31.248340606689453,-26.075973510742188,-0.4278545379638672,0.20594191551208496,0.10801506042480469,0.29720908403396606,1.056227207183838,9.86898422241211,0.5416375398635864
1_20251106_212538,1762435503471,1,0.47064584493637085,0.49642616510391235,0.4661595821380615,0.5610247850418091,0.5947082042694092,3.3719749450683594,1.0143507719039917,1.3292038440704346,10.044034004211426,0.656895101070404,-0.19166645407676697,0.011568250134587288,0.07756073772907257,31.12566375732422,-26.10822296142578,-0.5143852233886719,0.21838128566741943,0.14004039764404297,0.09220606088638306,1.1108225584030151,9.903993606567383,0.564689040184021
1_20251106_212538,1762435503490,1,0.4711274206638336,0.4962323307991028,0.4646127223968506,0.5620742440223694,0.5975959300994873,3.37398099899292,1.0275747776031494,1.2310458421707153,10.17570972442627,0.8867285251617432,-0.19166645407676697,0.011568250134587288,0.07756073772907257,31.013763427734375,-26.16478729248047,-0.6009521484375,0.06276977062225342,0.1809854507446289,0.24019724130630493,1.168276071548462,9.99472427368164,0.6465312838554382
1_20251106_212538,1762435503510,1,0.4718922972679138,0.49542689323425293,0.46325424313545227,0.5632631182670593,0.5990579724311829,3.3758623600006104,1.0362797975540161,1.1137349605560303,10.168527603149414,1.0830447673797607,-0.21793362498283386,0.06532435119152069,0.015863394364714622,30.984642028808594,-26.26561737060547,-0.7256908416748047,-0.0436328649520874,0.13904285430908203,0.34921079874038696,1.1573678255081177,10.029484748840332,0.7338339686393738
1_20251106_212538,1762435503528,1,0.47265973687171936,0.49419912695884705,0.46222224831581116,0.5645445585250854,0.5990579724311829,3.3758623600006104,1.0362797975540161,1.1137349605560303,10.168527603149414,1.0830447673797607,-0.15501455962657928,0.05555051192641258,0.05007181689143181,30.883811950683594,-26.346099853515625,-0.85284423828125,-0.0436328649520874,0.13904285430908203,0.34921079874038696,1.1573678255081177,10.029484748840332,0.7338339686393738
1_20251106_212538,1762435503547,1,0.4731687009334564,0.49316832423210144,0.4613344967365265,0.5657445192337036,0.6004043817520142,3.379605531692505,1.0553557872772217,0.96170973777771,9.990167617797852,1.275769591331482,-0.05971965938806534,0.019509492442011833,0.11665607243776321,30.858314514160156,-26.384010314941406,-0.9897804260253906,-0.13326537609100342,-0.047763824462890625,0.35890501737594604,1.0949751138687134,10.037931442260742,0.9168645739555359
1_20251106_212538,1762435503565,1,0.47308847308158875,0.49277809262275696,0.4605962932109833,0.5667522549629211,0.6006591320037842,3.3807098865509033,1.0647838115692139,1.0443060398101807,9.851309776306152,1.123744249343872,-0.05971965938806534,0.019509492442011833,0.11665607243776321,30.81741714477539,-26.473487854003906,-1.074197769165039,-0.04053521156311035,-0.14929676055908203,0.16550374031066895,1.084841251373291,10.000606536865234,0.9582405090332031
1_20251106_212538,1762435503584,1,0.47222843766212463,0.49302300810813904,0.45985525846481323,0.5678571462631226,0.6014306545257568,3.3814501762390137,1.0737462043762207,1.2729425430297852,9.866870880126953,0.7789941430091858,0.028244858607649803,-0.0018707733834162354,0.29502859711647034,30.681339263916016,-26.53137969970703,-1.1887779235839844,0.1504809856414795,-0.10698890686035156,-0.14339715242385864,1.1224615573883057,9.973859786987305,0.9223912954330444
1_20251106_212538,1762435503606,1,0.47085559368133545,0.4940077066421509,0.45868581533432007,0.5690858364105225,0.6037400960922241,3.382298231124878,1.0822628736495972,1.5698107481002808,9.994955062866211,0.6556980609893799,-0.02978729084134102,-0.014088068157434464,0.32984787225723267,30.55715560913086,-26.58887481689453,-1.262319564819336,0.3578794002532959,0.016876220703125,-0.21335458755493164,1.2119313478469849,9.978078842163086,0.8690526485443115
1_20251106_212538,1762435503623,1,0.4694490134716034,0.4956032335758209,0.45692044496536255,0.5702795386314392,0.6037400960922241,3.382298231124878,1.0822628736495972,1.5698107481002808,9.994955062866211,0.6556980609893799,-0.07560214400291443,0.006070468109101057,0.27853521704673767,30.51828384399414,-26.629196166992188,-1.2375507354736328,0.3578794002532959,0.016876220703125,-0.21335458755493164,1.2119313478469849,9.978078842163086,0.8690526485443115
1_20251106_212538,1762435503643,1,0.4682970941066742,0.4970950782299042,0.4550229012966156,0.5714442133903503,0.6120181679725647,3.3841347694396973,1.0945606231689453,1.9085757732391357,9.96383285522461,0.5802839398384094,-0.11775180697441101,0.06593520939350128,0.17163389921188354,30.47577667236328,-26.744056701660156,-1.2954635620117188,0.4627070426940918,-0.027887344360351562,-0.20051723718643188,1.445868730545044,9.991720199584961,0.7808011770248413
1_20251106_212538,1762435503660,1,0.4674164950847626,0.4976823329925537,0.45358413457870483,0.5727962255477905,0.6175093054771423,3.384481191635132,1.0994013547897339,1.873861312866211,9.814201354980469,0.6245747208595276,-0.11775180697441101,0.06593520939350128,0.17163389921188354,30.33609390258789,-26.853248596191406,-1.3029708862304688,0.3423941135406494,-0.1420154571533203,-0.12498116493225098,1.5314671993255615,9.956216812133789,0.7495558857917786
1_20251106_212538,1762435503681,1,0.4672514498233795,0.4975394308567047,0.45227670669555664,0.5740874409675598,0.6241790056228638,3.384516954421997,1.1050662994384766,1.8187971115112305,9.847719192504883,0.932216465473175,-0.27474403381347656,0.11236093193292618,0.01525252964347601,30.220680236816406,-26.96099090576172,-1.295980453491211,0.22986388206481934,-0.08679771423339844,0.14612847566604614,1.5889332294464111,9.934516906738281,0.7860879898071289
1_20251106_212538,1762435503698,1,0.46777841448783875,0.4967489540576935,0.45082345604896545,0.5754842162132263,0.6241790056228638,3.384516954421997,1.1050662994384766,1.8187971115112305,9.847719192504883,0.932216465473175,-0.26069414615631104,0.08792634308338165,-0.026897136121988297,30.09478759765625,-27.04400634765625,-1.3295001983642578,0.22986388206481934,-0.08679771423339844,0.14612847566604614,1.5889332294464111,9.934516906738281,0.7860879898071289
1_20251106_212538,1762435503720,1,0.4685918390750885,0.4954971671104431,0.44957292079925537,0.5768781900405884,0.6368792653083801,3.3829257488250732,1.1182430982589722,1.5638254880905151,9.686117172241211,1.171626329421997,-0.24297907948493958,0.061048295348882675,-0.04277962073683739,29.96879768371582,-27.127159118652344,-1.3495044708251953,-0.04192543029785156,-0.16893482208251953,0.2509581446647644,1.6057509183883667,9.85505199432373,0.9206681847572327
1_20251106_212538,1762435503738,1,0.46965089440345764,0.4941185414791107,0.4483524560928345,0.5781478881835938,0.6368792653083801,3.3829257488250732,1.1182430982589722,1.5638254880905151,9.686117172241211,1.171626329421997,-0.24297907948493958,0.061048295348882675,-0.04277962073683739,29.96576690673828,-27.18927001953125,-1.418405532836914,-0.04192543029785156,-0.16893482208251953,0.2509581446647644,1.6057509183883667,9.85505199432373,0.9206681847572327
1_20251106_212538,1762435503757,1,0.4708622097969055,0.4929063618183136,0.44712015986442566,0.5791507959365845,0.6465533375740051,3.3790760040283203,1.1334078311920166,1.353144884109497,9.647810935974121,1.346395492553711,-0.22282055020332336,-0.0018707733834162354,-0.01101465430110693,29.96576690673828,-27.18927001953125,-1.418405532836914,-0.17813920974731445,-0.1242074966430664,0.2887454032897949,1.5312840938568115,9.772018432617188,1.057650089263916
1_20251106_212538,1762435503776,1,0.47210946679115295,0.49182960391044617,0.44580939412117004,0.580060601234436,0.6500256061553955,3.3768928050994873,1.141150712966919,1.3363862037658691,9.647811889648438,1.3260457515716553,-0.2209879457950592,0.026229003444314003,0.004256964195519686,29.98691177368164,-27.25006103515625,-1.4592933654785156,-0.15591835975646973,-0.099365234375,0.21471655368804932,1.4923045635223389,9.747177124023438,1.111329197883606
1_20251106_212538,1762435503795,1,0.47324422001838684,0.49050554633140564,0.44464388489723206,0.5811505913734436,0.653355062007904,3.374115228652954,1.1500674486160278,1.3818740844726562,9.59154987335205,1.3559719324111938,-0.24236822128295898,0.061659157276153564,0.02013944834470749,29.91437530517578,-27.26563262939453,-1.6382122039794922,-0.08834445476531982,-0.12450218200683594,0.19571423530578613,1.470218539237976,9.716052055358887,1.1602576971054077
1_20251106_212538,1762435503814,1,0.47425714135169983,0.4890466332435608,0.4434709846973419,0.582449197769165,0.6563999652862549,3.371040105819702,1.1587897539138794,1.4848202466964722,9.508953094482422,1.4062479734420776,-0.24236822128295898,0.061659157276153564,0.02013944834470749,29.89402198791504,-27.203758239746094,-1.705453872680664,0.011681318283081055,-0.1656789779663086,0.19679224491119385,1.4731389284133911,9.67463207244873,1.2094557285308838
1_20251106_212538,1762435503833,1,0.47513261437416077,0.48766738176345825,0.44207847118377686,0.5839487314224243,0.6592870354652405,3.3681211471557617,1.167283535003662,1.5327022075653076,9.613096237182617,1.470888614654541,-0.2576398551464081,0.05738310515880585,0.04396316781640053,29.93509292602539,-27.137245178222656,-1.8378257751464844,0.04765057563781738,-0.049228668212890625,0.20914626121520996,1.4850516319274902,9.662324905395508,1.261742353439331
1_20251106_212538,1762435503853,1,0.4760575294494629,0.4867312014102936,0.4403687119483948,0.5852668881416321,0.6624211668968201,3.3650357723236084,1.176659345626831,1.5135494470596313,9.660978317260742,1.3966715335845947,-0.2368704378604889,0.0036270092241466045,0.03602192923426628,29.949874877929688,-27.109718322753906,-1.999002456665039,0.02279818058013916,-0.0010766983032226562,0.10794329643249512,1.4907512664794922,9.662055015563965,1.2887282371520996
1_20251106_212538,1762435503871,1,0.4769054353237152,0.4857308864593506,0.43882638216018677,0.5865646600723267,0.6651381850242615,3.362274646759033,1.1853679418563843,1.450105905532837,9.670555114746094,1.3787157535552979,-0.2637484669685364,0.004848738666623831,0.02013944834470749,29.96265411376953,-27.108116149902344,-2.079608917236328,-0.03251636028289795,0.0067996978759765625,0.0719900131225586,1.4826222658157349,9.663755416870117,1.3067257404327393
1_20251106_212538,1762435503891,1,0.4780948758125305,0.4847753047943115,0.43718746304512024,0.5876098275184631,0.6675453186035156,3.359217643737793,1.1943790912628174,1.3806769847869873,9.566411972045898,1.4062479734420776,-0.2894047796726227,0.009124791249632835,0.01525252964347601,30.013290405273438,-27.09076690673828,-2.2395782470703125,-0.08155632019042969,-0.07787418365478516,0.07961785793304443,1.462233304977417,9.644286155700684,1.3266301155090332
1_20251106_212538,1762435503910,1,0.47943323850631714,0.483671635389328,0.43555748462677,0.588638424873352,0.669418454170227,3.3565011024475098,1.2030354738235474,1.353144884109497,9.659782409667969,1.517573595046997,-0.32178062200546265,0.014622574672102928,0.034800197929143906,30.012670516967773,-27.11479949951172,-2.348236083984375,-0.08727073669433594,0.012396812438964844,0.1527547836303711,1.440415620803833,9.647385597229004,1.364818811416626
1_20251106_212538,1762435503929,1,0.48085257411003113,0.48244473338127136,0.43372130393981934,0.5898421406745911,0.6711358428001404,3.353997230529785,1.2121083736419678,1.4177855253219604,9.67534351348877,1.674386978149414,-0.3382739722728729,0.03050505556166172,0.06534343957901001,29.953632354736328,-27.104591369628906,-2.5126190185546875,-0.018104076385498047,0.02236652374267578,0.24765455722808838,1.4358896017074585,9.652976989746094,1.4267324209213257
1_20251106_212538,1762435503948,1,0.48212701082229614,0.4810608923435211,0.43177714943885803,0.5913564562797546,0.6730625033378601,3.3518965244293213,1.2214399576187134,1.5434757471084595,9.754348754882812,1.6863574981689453,-0.3382739722728729,0.03050505556166172,0.06534343957901001,29.928936004638672,-27.12981414794922,-2.6628074645996094,0.08606898784637451,0.08109760284423828,0.20770013332366943,1.457406759262085,9.673251152038574,1.4786573648452759
1_20251106_212538,1762435503967,1,0.48315706849098206,0.4799378216266632,0.4296591877937317,0.5929687023162842,0.6730625033378601,3.3518965244293213,1.2214399576187134,1.5434757471084595,9.754348754882812,1.6863574981689453,-0.2887939214706421,-0.011644609272480011,0.10993656516075134,29.88127899169922,-27.131507873535156,-2.813447952270508,0.08606898784637451,0.08109760284423828,0.20770013332366943,1.457406759262085,9.673251152038574,1.4786573648452759
1_20251106_212538,1762435503986,1,0.48405271768569946,0.47929874062538147,0.427402138710022,0.5943846106529236,0.6783176064491272,3.349241018295288,1.2418485879898071,1.7421859502792358,9.864477157592773,1.9916051626205444,-0.28451788425445557,-0.012866338714957237,0.10443878173828125,29.857685089111328,-27.143630981445312,-3.017436981201172,0.19719791412353516,0.12889671325683594,0.3535681962966919,1.5449880361557007,9.735580444335938,1.6380369663238525
1_20251106_212538,1762435504006,1,0.48485127091407776,0.4785703122615814,0.425133615732193,0.5959455370903015,0.6820234656333923,3.3486826419830322,1.2536418437957764,1.811614751815796,9.902782440185547,2.05385160446167,-0.28451788425445557,-0.012866338714957237,0.10443878173828125,29.832386016845703,-27.1812744140625,-3.1814041137695312,0.213301420211792,0.13376140594482422,0.3326517343521118,1.598313331604004,9.769021034240723,1.721199870109558
1_20251106_212538,1762435504024,1,0.48578447103500366,0.4778667688369751,0.4228360950946808,0.5973829627037048,0.6858793497085571,3.3486642837524414,1.264703392982483,1.8774524927139282,9.955452919006348,2.118492364883423,-0.24603340029716492,-0.03241400793194771,0.05862392485141754,29.80587387084961,-27.243759155273438,-3.3729324340820312,0.22331130504608154,0.14914512634277344,0.3178340196609497,1.6541411876678467,9.806307792663574,1.8006583452224731
1_20251106_212538,1762435504043,1,0.48669007420539856,0.47721800208091736,0.4207308888435364,0.5986495018005371,0.6858793497085571,3.3486642837524414,1.264703392982483,1.8774524927139282,9.955452919006348,2.118492364883423,-0.22282055020332336,-0.027527092024683952,0.02380463480949402,29.757919311523438,-27.24585723876953,-3.4830245971679688,0.22331130504608154,0.14914512634277344,0.3178340196609497,1.6541411876678467,9.806307792663574,1.8006583452224731
1_20251106_212538,1762435504063,1,0.48762115836143494,0.47652870416641235,0.418901264667511,0.5997230410575867,0.6949947476387024,3.3497514724731445,1.2875291109085083,1.8846347332000732,9.9434814453125,1.9724524021148682,-0.21671190857887268,-0.026305362582206726,-0.01956675946712494,29.68457794189453,-27.27411651611328,-3.648691177368164,0.1457921266555786,0.08434391021728516,0.09711575508117676,1.7388426065444946,9.859137535095215,1.8753366470336914
1_20251106_212538,1762435504081,1,0.48871394991874695,0.4758235514163971,0.4173681437969208,0.6004618406295776,0.7000635266304016,3.3503928184509277,1.299139142036438,1.8307676315307617,9.845324516296387,1.897038221359253,-0.23564870655536652,-0.03424660116434097,-0.05988383665680885,29.68627166748047,-27.260215759277344,-3.783590316772461,0.0735400915145874,-0.011050224304199219,0.01736128330230713,1.7572275400161743,9.856374740600586,1.8796769380569458
1_20251106_212538,1762435504101,1,0.4901847839355469,0.4750947952270508,0.41589418053627014,0.6008625626564026,0.7045804262161255,3.3510234355926514,1.31022310256958,1.7362006902694702,9.875249862670898,2.100536823272705,-0.28696131706237793,-0.030581416562199593,-0.08126409351825714,29.700054168701172,-27.245651245117188,-3.904481887817383,-0.01682150363922119,0.015100479125976562,0.1766878366470337,1.7530221939086914,9.860149383544922,1.9238489866256714
1_20251106_212538,1762435504119,1,0.4920622706413269,0.47416430711746216,0.4142688512802124,0.6011857390403748,0.7087826132774353,3.3516147136688232,1.321855068206787,1.7206391096115112,9.857295036315918,2.3255820274353027,-0.324224054813385,0.009735655970871449,-0.09714657813310623,29.751083374023438,-27.227760314941406,-4.11851692199707,-0.02590644359588623,-0.0022840499877929688,0.32138633728027344,1.7465455532073975,9.859579086303711,2.0041956901550293
1_20251106_212538,1762435504140,1,0.49407893419265747,0.4724638760089874,0.412750780582428,0.6019141674041748,0.7128834128379822,3.351918935775757,1.3355751037597656,1.65360426902771,9.765121459960938,2.4536662101745605,-0.2887939214706421,0.024396410211920738,-0.12035943567752838,29.777965545654297,-27.187965393066406,-4.170808792114258,-0.07435297966003418,-0.07556629180908203,0.3595764636993408,1.7279572486877441,9.84068775177002,2.0940897464752197
1_20251106_212538,1762435504160,1,0.49603304266929626,0.47053366899490356,0.4115197956562042,0.6026613712310791,0.7128834128379822,3.351918935775757,1.3355751037597656,1.65360426902771,9.765121459960938,2.4536662101745605,-0.22709660232067108,0.012789979577064514,-0.14601576328277588,29.770278930664062,-27.13623809814453,-4.400020599365234,-0.07435297966003418,-0.07556629180908203,0.3595764636993408,1.7279572486877441,9.84068775177002,2.0940897464752197
1_20251106_212538,1762435504179,1,0.4978940784931183,0.46867305040359497,0.4107153117656708,0.6031252145767212,0.7176538109779358,3.350874185562134,1.3613821268081665,1.371100664138794,9.546062469482422,2.320793867111206,-0.20693805813789368,0.011568250134587288,-0.14173971116542816,29.770278930664062,-27.13623809814453,-4.400020599365234,-0.24485957622528076,-0.21154403686523438,0.1355142593383789,1.6159602403640747,9.757606506347656,2.185279607772827
1_20251106_212538,1762435504197,1,0.4998304843902588,0.4669932425022125,0.4101109206676483,0.6032378077507019,0.7176538109779358,3.350874185562134,1.3613821268081665,1.371100664138794,9.546062469482422,2.320793867111206,-0.20693805813789368,-0.007368554826825857,-0.10508781671524048,29.81557846069336,-26.99437713623047,-4.53080940246582,-0.24485957622528076,-0.21154403686523438,0.1355142593383789,1.6159602403640747,9.757606506347656,2.185279607772827
1_20251106_212538,1762435504215,1,0.5015921592712402,0.46554845571517944,0.4093933403491974,0.6033796668052673,0.7200006246566772,3.3477225303649902,1.3838251829147339,1.5973429679870605,9.586761474609375,2.3183999061584473,-0.20266200602054596,-0.017142390832304955,-0.08798360824584961,29.85675048828125,-26.92772674560547,-4.67669677734375,0.011642813682556152,-0.09535884857177734,0.09879541397094727,1.5857001543045044,9.682120323181152,2.2196044921875
1_20251106_212538,1762435504235,1,0.5031486749649048,0.46447011828422546,0.40854713320732117,0.6034883260726929,0.7212070822715759,3.346003532409668,1.395140528678894,1.6021311283111572,9.669357299804688,2.302838087081909,-0.22220967710018158,0.004237873945385218,-0.12707895040512085,29.948877334594727,-26.820091247558594,-4.833347320556641,0.013144731521606445,-0.010210990905761719,0.06658673286437988,1.5889863967895508,9.67956829071045,2.2362513542175293
1_20251106_212538,1762435504254,1,0.5048586130142212,0.4631611108779907,0.40766698122024536,0.6036614775657654,0.7219886183738708,3.344355583190918,1.4067362546920776,1.456091046333313,9.67414665222168,2.5446419715881348,-0.2839069962501526,0.028672462329268456,-0.16800689697265625,30.012107849121094,-26.789794921875,-4.95201301574707,-0.1063162088394165,-0.004337310791015625,0.24671244621276855,1.5624072551727295,9.678483963012695,2.297929525375366
1_20251106_212538,1762435504273,1,0.5069587230682373,0.46138685941696167,0.4067458510398865,0.6038814783096313,0.7220721244812012,3.3421595096588135,1.4197479486465454,1.3327951431274414,9.498180389404297,2.763701915740967,-0.3144502639770508,0.06593520939350128,-0.17350468039512634,30.080257415771484,-26.683212280273438,-5.16370964050293,-0.18368971347808838,-0.1442432403564453,0.3726179599761963,1.5164848566055298,9.642423629760742,2.3910839557647705
1_20251106_212538,1762435504291,1,0.5090648531913757,0.4587950110435486,0.4059758186340332,0.6046021580696106,0.7213433980941772,3.339567184448242,1.431469202041626,1.1915432214736938,9.352139472961426,2.63322377204895,-0.2839069962501526,0.06043742969632149,-0.14173971116542816,30.148815155029297,-26.564476013183594,-5.334592819213867,-0.2599533796310425,-0.23222732543945312,0.1937119960784912,1.4514966011047363,9.584366798400879,2.439511775970459
1_20251106_212538,1762435504310,1,0.5110787153244019,0.45625409483909607,0.40508630871772766,0.6054220199584961,0.7195972800254822,3.336251735687256,1.4436131715774536,1.0814146995544434,9.323410987854004,2.5817506313323975,-0.28024181723594666,0.015844302251935005,-0.05988383665680885,30.229759216308594,-26.444671630859375,-5.532018661499023,-0.2960655689239502,-0.20876407623291016,0.11379098892211914,1.3774802684783936,9.532175064086914,2.4679596424102783
1_20251106_212538,1762435504330,1,0.5128538012504578,0.45441120862960815,0.40380069613456726,0.60616534948349,0.7168383002281189,3.332603693008423,1.4566234350204468,1.0443061590194702,9.422765731811523,2.7529287338256836,-0.29123738408088684,-0.008590285666286945,0.018917717039585114,30.33428192138672,-26.324363708496094,-5.620333671569824,-0.2665393352508545,-0.08752727508544922,0.22797536849975586,1.3108454942703247,9.510293006896973,2.5249533653259277
1_20251106_212538,1762435504349,1,0.5143915414810181,0.4529958963394165,0.40212899446487427,0.6070324182510376,0.7168383002281189,3.332603693008423,1.4566234350204468,1.0443061590194702,9.422765731811523,2.7529287338256836,-0.29123738408088684,-0.008590285666286945,0.018917717039585114,30.390457153320312,-26.206687927246094,-5.764675140380859,-0.2665393352508545,-0.08752727508544922,0.22797536849975586,1.3108454942703247,9.510293006896973,2.5249533653259277
1_20251106_212538,1762435504370,1,0.51551753282547,0.4514031708240509,0.4004017412662506,0.6084038615226746,0.7106541395187378,3.325315237045288,1.4836331605911255,1.260972023010254,9.407204627990723,2.85587477684021,-0.2729114294052124,0.05066359415650368,0.1019953191280365,30.434123992919922,-26.113441467285156,-6.058713912963867,-0.01372385025024414,-0.0757436752319336,0.20929980278015137,1.274695873260498,9.482948303222656,2.6465749740600586
1_20251106_212538,1762435504387,1,0.5161775946617126,0.4498514235019684,0.3987252414226532,0.610092282295227,0.7084119915962219,3.322258472442627,1.4953957796096802,1.369903564453125,9.449100494384766,3.0210676193237305,-0.29184824228286743,0.05555051565170288,0.12398645281791687,30.405704498291016,-25.98876953125,-6.20622444152832,0.07616615295410156,-0.027077674865722656,0.2995941638946533,1.2937374114990234,9.476178169250488,2.721473455429077
1_20251106_212538,1762435504407,1,0.5167788863182068,0.44850096106529236,0.39671579003334045,0.6118848323822021,0.7064032554626465,3.319094657897949,1.5099879503250122,1.457288146018982,9.559228897094727,3.1970338821411133,-0.3126176595687866,0.04333321750164032,0.13070596754550934,30.387649536132812,-25.90057373046875,-6.394585609436035,0.13084053993225098,0.06644058227539062,0.3804483413696289,1.326447606086731,9.492788314819336,2.8165855407714844
1_20251106_212538,1762435504425,1,0.5173251628875732,0.4470437467098236,0.39443886280059814,0.6139581203460693,0.705205500125885,3.3168537616729736,1.524017095565796,1.5374904870986938,9.681327819824219,3.4472174644470215,-0.29123738408088684,0.028672462329268456,0.11787781119346619,30.439395904541016,-25.85851287841797,-6.5134782791137695,0.16883432865142822,0.1508312225341797,0.5045056343078613,1.3686561584472656,9.530496597290039,2.94271183013916
1_20251106_212538,1762435504445,1,0.5178887248039246,0.4456799626350403,0.39217129349708557,0.6159240007400513,0.7045963406562805,3.314910650253296,1.5404102802276611,1.5841753482818604,9.66935920715332,3.4639759063720703,-0.22954005002975464,0.048220135271549225,0.08244764804840088,30.440284729003906,-25.8572998046875,-6.635124206542969,0.1724153757095337,0.11108970642089844,0.4170112609863281,1.4117599725723267,9.558269500732422,3.046964645385742
1_20251106_212538,1762435504463,1,0.5182914137840271,0.44420820474624634,0.39039745926856995,0.6177725195884705,0.7045963406562805,3.314910650253296,1.5404102802276611,1.5841753482818604,9.66935920715332,3.4639759063720703,-0.1849469244480133,0.05310705304145813,0.053737007081508636,30.377933502197266,-25.897994995117188,-6.732982635498047,0.1724153757095337,0.11108970642089844,0.4170112609863281,1.4117599725723267,9.558269500732422,3.046964645385742
1_20251106_212538,1762435504483,1,0.5186232328414917,0.4428975582122803,0.3890070915222168,0.6193102598190308,0.7045162916183472,3.313253164291382,1.5563126802444458,1.5757960081100464,9.620279312133789,3.155137300491333,-0.20327287912368774,0.010957385413348675,0.051293548196554184,30.33028793334961,-25.888076782226562,-6.788745880126953,0.13122880458831787,0.04960823059082031,0.08653807640075684,1.4445672035217285,9.570671081542969,3.068599224090576
1_20251106_212538,1762435504502,1,0.5192041993141174,0.44217780232429504,0.3874721825122833,0.6202991604804993,0.7049986124038696,3.31083607673645,1.5823023319244385,1.5338993072509766,9.640628814697266,3.0497970581054688,-0.23931390047073364,-0.023861903697252274,0.058013059198856354,30.303478240966797,-25.950965881347656,-6.939725875854492,0.05698096752166748,0.049178123474121094,0.002905607223510742,1.476918339729309,9.591450691223145,3.046891450881958
1_20251106_212538,1762435504521,1,0.5200392007827759,0.44176241755485535,0.3856985867023468,0.6210006475448608,0.7049986124038696,3.31083607673645,1.5823023319244385,1.5338993072509766,9.640628814697266,3.0497970581054688,-0.26985710859298706,-0.015920663252472878,0.04579576477408409,30.266202926635742,-25.977516174316406,-7.036338806152344,0.05698096752166748,0.049178123474121094,0.002905607223510742,1.476918339729309,9.591450691223145,3.046891450881958
1_20251106_212538,1762435504539,1,0.5210970640182495,0.4410558044910431,0.3838082551956177,0.6217868328094482,0.7056770920753479,3.309670925140381,1.5974392890930176,1.5590373277664185,9.621477127075195,3.169501781463623,-0.2942917048931122,0.008513926528394222,0.01708512380719185,30.28763198852539,-26.049522399902344,-7.212653160095215,0.06569516658782959,0.024021148681640625,0.09808826446533203,1.4933421611785889,9.597455978393555,3.071413516998291
1_20251106_212538,1762435504559,1,0.5223595499992371,0.43992161750793457,0.3819338083267212,0.6226845383644104,0.7064222097396851,3.3088982105255127,1.609976887702942,1.5817811489105225,9.651402473449707,3.3849706649780273,-0.2979568839073181,0.041500624269247055,-0.023231949657201767,30.263851165771484,-26.05030059814453,-7.294732093811035,0.07075119018554688,0.04315757751464844,0.25084567070007324,1.5110299587249756,9.608244895935059,3.134124994277954
1_20251106_212538,1762435504580,1,0.5237067937850952,0.438226580619812,0.38030943274497986,0.6237414479255676,0.7084788680076599,3.307563066482544,1.6393800973892212,1.5482639074325562,9.6346435546875,3.7273268699645996,-0.2619158923625946,0.061048295348882675,-0.06171642616391182,30.2513427734375,-26.074729919433594,-7.444429397583008,0.01578545570373535,0.01670360565185547,0.39516305923461914,1.5324784517288208,9.617939949035645,3.3321638107299805
1_20251106_212538,1762435504599,1,0.5249735713005066,0.4361867308616638,0.37908652424812317,0.624849796295166,0.7093709707260132,3.3068454265594482,1.6543523073196411,1.5099583864212036,9.565214157104492,3.7129621505737305,-0.21854449808597565,0.06654608249664307,-0.08065323531627655,30.23259735107422,-25.987472534179688,-7.538176536560059,-0.01801609992980957,-0.04218101501464844,0.3046386241912842,1.5279744863510132,9.60739517211914,3.4083235263824463
1_20251106_212538,1762435504616,1,0.5262399315834045,0.4342091977596283,0.3781963884830475,0.6257007718086243,0.7098977565765381,3.3059639930725098,1.667258858680725,1.4225736856460571,9.48381519317627,3.4903111457824707,-0.21854449808597565,0.06654608249664307,-0.08065323531627655,30.23259735107422,-25.987472534179688,-7.538176536560059,-0.08432066440582275,-0.09886455535888672,0.06559014320373535,1.5068943500518799,9.582679748535156,3.4247210025787354
1_20251106_212538,1762435504636,1,0.5274088382720947,0.4325229525566101,0.3775283098220825,0.6262876391410828,0.7099426984786987,3.3044345378875732,1.6817339658737183,1.3280067443847656,9.403614044189453,3.441232204437256,-0.1745622456073761,0.018898626789450645,-0.07943150401115417,30.310932159423828,-25.90601348876953,-7.6688127517700195,-0.14311003684997559,-0.14325237274169922,0.013208866119384766,1.4711167812347412,9.546866416931152,3.428023338317871
1_20251106_212538,1762435504655,1,0.5287091135978699,0.4313385784626007,0.37684008479118347,0.6264225244522095,0.7099426984786987,3.3044345378875732,1.6817339658737183,1.3280067443847656,9.403614044189453,3.441232204437256,-0.20938152074813843,0.02073122002184391,-0.06660334020853043,30.366893768310547,-25.80022430419922,-7.880999565124512,-0.14311003684997559,-0.14325237274169922,0.013208866119384766,1.4711167812347412,9.546866416931152,3.428023338317871
1_20251106_212538,1762435504674,1,0.5301618576049805,0.43005120754241943,0.375964492559433,0.6266059875488281,0.7093594074249268,3.3022241592407227,1.696718692779541,1.283716082572937,9.34256362915039,3.5908632278442383,-0.2319835126399994,0.041500624269247055,-0.053775183856487274,30.383888244628906,-25.734893798828125,-8.054901123046875,-0.14992058277130127,-0.16344261169433594,0.13027191162109375,1.4336366653442383,9.506006240844727,3.4605913162231445
1_20251106_212538,1762435504694,1,0.5315477252006531,0.4283694326877594,0.3749843239784241,0.627170979976654,0.7078500986099243,3.2974774837493896,1.7219526767730713,1.386662244796753,9.285104751586914,3.65670108795166,-0.21304669976234436,0.04333321750164032,-0.0525534562766552,30.42789077758789,-25.606399536132812,-8.10485553741455,-0.02106177806854248,-0.1509532928466797,0.12321209907531738,1.4077240228652954,9.436058044433594,3.5334889888763428
1_20251106_212538,1762435504712,1,0.5326132774353027,0.4266800284385681,0.37417033314704895,0.6279043555259705,0.7069867253303528,3.2942636013031006,1.7347654104232788,1.3734946250915527,9.195326805114746,3.6459274291992188,-0.21304669976234436,0.04333321750164032,-0.0525534562766552,30.434913635253906,-25.504058837890625,-8.291971206665039,-0.02738356590270996,-0.19258499145507812,0.0899505615234375,1.4008781909942627,9.387911796569824,3.5559768676757812
1_20251106_212538,1762435504731,1,0.5337716341018677,0.4252855181694031,0.37330690026283264,0.6283804774284363,0.7069867253303528,3.2942636013031006,1.7347654104232788,1.3734946250915527,9.195326805114746,3.6459274291992188,-0.2002185583114624,0.03966802731156349,-0.08370755612850189,30.514854431152344,-25.397216796875,-8.449111938476562,-0.02738356590270996,-0.19258499145507812,0.0899505615234375,1.4008781909942627,9.387911796569824,3.5559768676757812
1_20251106_212538,1762435504750,1,0.5351404547691345,0.4238600432872772,0.3724527657032013,0.6286861896514893,0.7042537331581116,3.286395311355591,1.7589462995529175,1.203513741493225,9.04090690612793,3.6363511085510254,-0.2002185583114624,0.03966802731156349,-0.08370755612850189,30.533878326416016,-25.282737731933594,-8.513827323913574,-0.1376134157180786,-0.2444925308227539,0.0583343505859375,1.3411271572113037,9.285399436950684,3.578016757965088
1_20251106_212538,1762435504770,1,0.5365438461303711,0.42209336161613464,0.37181878089904785,0.6290538311004639,0.7025235295295715,3.2814595699310303,1.7708207368850708,1.2873071432113647,9.058862686157227,3.5860750675201416,-0.2631376087665558,0.09892190992832184,-0.0678250715136528,30.587135314941406,-25.215431213378906,-8.645708084106445,-0.04305601119995117,-0.1812295913696289,0.0064465999603271484,1.330363154411316,9.240092277526855,3.5796284675598145
1_20251106_212538,1762435504790,1,0.5378503799438477,0.41994407773017883,0.3710119426250458,0.6298524141311646,0.7025235295295715,3.2814595699310303,1.7708207368850708,1.2873071432113647,9.058862686157227,3.5860750675201416,-0.2894047796726227,0.057993970811367035,-0.044001348316669464,30.58087158203125,-25.126976013183594,-8.779513359069824,-0.04305601119995117,-0.1812295913696289,0.0064465999603271484,1.330363154411316,9.240092277526855,3.5796284675598145
1_20251106_212538,1762435504808,1,0.5392350554466248,0.41824811697006226,0.36967602372169495,0.6305820345878601,0.7011709213256836,3.276566743850708,1.7836058139801025,1.4417264461517334,9.24919319152832,3.860199451446533,-0.2674136757850647,0.010957385413348675,-0.0574403740465641,30.58176040649414,-25.125762939453125,-8.901159286499023,0.08909058570861816,0.0072803497314453125,0.224456787109375,1.3526358604431152,9.241912841796875,3.635742664337158
1_20251106_212538,1762435504827,1,0.5406796932220459,0.4168427288532257,0.3680807054042816,0.6312084794044495,0.6995573043823242,3.2696924209594727,1.806204915046692,1.3722975254058838,9.368898391723633,4.160658836364746,-0.2674136757850647,0.010957385413348675,-0.0574403740465641,30.61095428466797,-25.04802703857422,-8.979692459106445,-0.0006320476531982422,0.08625030517578125,0.355865478515625,1.372929573059082,9.282648086547852,3.804793357849121
1_20251106_212538,1762435504846,1,0.5421462059020996,0.41554176807403564,0.3665388524532318,0.6317054629325867,0.6988652348518372,3.266558885574341,1.820039987564087,1.4261648654937744,9.40121841430664,4.237269401550293,-0.22709660232067108,0.015844302251935005,-0.06538160890340805,30.652027130126953,-24.98151397705078,-9.112064361572266,0.042588233947753906,0.09485626220703125,0.3459808826446533,1.3835766315460205,9.30636215209961,3.8912885189056396
1_20251106_212538,1762435504865,1,0.5434623956680298,0.41399016976356506,0.36527594923973083,0.6323245167732239,0.6985939145088196,3.2641654014587402,1.8330713510513306,1.512352466583252,9.464662551879883,4.090032577514648,-0.22709660232067108,0.015844302251935005,-0.06538160890340805,30.744277954101562,-24.85051727294922,-9.092475891113281,0.10302066802978516,0.12664031982421875,0.1589951515197754,1.4093317985534668,9.338022232055664,3.931037425994873
1_20251106_212538,1762435504884,1,0.5446712374687195,0.412602961063385,0.36426398158073425,0.6327747106552124,0.6984217762947083,3.2623112201690674,1.8455064296722412,1.440529465675354,9.490997314453125,3.9511749744415283,-0.18739038705825806,0.018898626789450645,-0.08248582482337952,30.79532241821289,-24.821014404296875,-9.21163272857666,0.024958133697509766,0.12238025665283203,0.01611018180847168,1.4155713319778442,9.368617057800293,3.9350647926330566
1_20251106_212538,1762435504903,1,0.5460397601127625,0.41158339381217957,0.3634835481643677,0.6327080130577087,0.6977585554122925,3.260547161102295,1.8572818040847778,1.2334400415420532,9.36770248413086,3.9212489128112793,-0.20266202092170715,0.006070468109101057,-0.14112883806228638,30.840721130371094,-24.67902374267578,-9.355937004089355,-0.14570510387420654,-0.0007314682006835938,-0.011052846908569336,1.3791451454162598,9.368433952331543,3.9323017597198486
1_20251106_212538,1762435504923,1,0.5477175116539001,0.41055533289909363,0.3626783788204193,0.6323876976966858,0.6961320042610168,3.258300542831421,1.8694130182266235,1.0622618198394775,9.209691047668457,4.049333095550537,-0.20266202092170715,0.006070468109101057,-0.14112883806228638,30.9063720703125,-24.599037170410156,-9.419482231140137,-0.2535066604614258,-0.12699413299560547,0.09362506866455078,1.3157684803009033,9.336685180664062,3.9557080268859863
1_20251106_212538,1762435504942,1,0.5494434833526611,0.4099148213863373,0.3614807426929474,0.6319916248321533,0.6939488053321838,3.255760431289673,1.8803883790969849,1.0550795793533325,9.149839401245117,3.9655399322509766,-0.15012764930725098,-0.15397608280181885,0.02624809369444847,30.924789428710938,-24.496978759765625,-9.497978210449219,-0.20855116844177246,-0.1494770050048828,0.007865428924560547,1.263630747795105,9.29931640625,3.957674503326416
1_20251106_212538,1762435504960,1,0.5506436228752136,0.4101162552833557,0.35980039834976196,0.6317752599716187,0.6939488053321838,3.255760431289673,1.8803883790969849,1.0550795793533325,9.149839401245117,3.9655399322509766,-0.11714094132184982,-0.28225770592689514,0.16063833236694336,30.990432739257812,-24.428604125976562,-9.656401634216309,-0.20855116844177246,-0.1494770050048828,0.007865428924560547,1.263630747795105,9.29931640625,3.957674503326416
1_20251106_212538,1762435504980,1,0.5514019131660461,0.41179171204566956,0.35717490315437317,0.631513774394989,0.688022255897522,3.2514705657958984,1.9003510475158691,1.0574736595153809,9.502967834472656,3.9152636528015137,-0.11714094132184982,-0.28225770592689514,0.16063833236694336,30.99665069580078,-24.338951110839844,-9.830265045166016,-0.12236428260803223,0.16538715362548828,-0.024844646453857422,1.179837942123413,9.337580680847168,3.940108299255371
1_20251106_212538,1762435504999,1,0.551821768283844,0.4143298268318176,0.35394856333732605,0.6313033699989319,0.6853315830230713,3.2509424686431885,1.909629225730896,1.2717454433441162,9.76751708984375,3.973918914794922,-0.09698240458965302,-0.28775545954704285,0.2858656346797943,30.923412322998047,-24.367080688476562,-10.00944709777832,0.07352602481842041,0.3439493179321289,0.027048587799072266,1.1982194185256958,9.423567771911621,3.9468703269958496
1_20251106_212538,1762435505020,1,0.5519412159919739,0.41670623421669006,0.3511561453342438,0.6311942338943481,0.6837632656097412,3.2518858909606934,1.9187239408493042,1.5674166679382324,9.907570838928223,3.8865342140197754,-0.09698240458965302,-0.28775545954704285,0.2858656346797943,30.800411224365234,-24.422958374023438,-10.245183944702148,0.2953578233718872,0.38720226287841797,-0.048268795013427734,1.2720588445663452,9.520368576049805,3.934803009033203
1_20251106_212538,1762435505038,1,0.5519750118255615,0.41808822751045227,0.34930068254470825,0.6312803030014038,0.6836376786231995,3.253530263900757,1.926957130432129,1.7421859502792358,9.809412956237793,3.943992853164673,-0.16723185777664185,-0.04463129863142967,0.08794543147087097,30.800411224365234,-24.422958374023438,-10.245183944702148,0.37610161304473877,0.23123550415039062,0.007351875305175781,1.366084337234497,9.578177452087402,3.936640977859497
1_20251106_212538,1762435505056,1,0.552489161491394,0.41864269971847534,0.347852885723114,0.6312625408172607,0.6842886805534363,3.2553439140319824,1.9347889423370361,1.6763482093811035,9.713648796081543,4.107988357543945,-0.21182498335838318,-0.006757691036909819,-0.005516870878636837,30.6943359375,-24.390411376953125,-10.451550483703613,0.24821114540100098,0.10837745666503906,0.13707804679870605,1.4281370639801025,9.605271339416504,3.9709103107452393
1_20251106_212538,1762435505075,1,0.5535149574279785,0.4185138940811157,0.3464696705341339,0.6312099695205688,0.6851922273635864,3.2572431564331055,1.943790316581726,1.519534707069397,9.6346435546875,4.389294624328613,-0.21182498335838318,-0.006757691036909819,-0.005516870878636837,30.582321166992188,-24.458724975585938,-10.619479179382324,0.07311809062957764,0.023497581481933594,0.33470726013183594,1.4464166164398193,9.611145973205566,4.054587364196777
1_20251106_212538,1762435505095,1,0.5547173619270325,0.41815000772476196,0.34517213702201843,0.6311064958572388,0.6859228014945984,3.2585995197296143,1.9535456895828247,1.3998297452926636,9.447904586791992,4.493438243865967,-0.1391320824623108,-0.04951821640133858,-0.0018516825512051582,30.42255401611328,-24.52886962890625,-10.924532890319824,-0.0372694730758667,-0.13059329986572266,0.35108041763305664,1.4370992183685303,9.578497886657715,4.14235782623291
1_20251106_212538,1762435505113,1,0.5556881427764893,0.41785314679145813,0.3439958393573761,0.6310913562774658,0.6859228014945984,3.2585995197296143,1.9535456895828247,1.3998297452926636,9.447904586791992,4.493438243865967,-0.1391320824623108,-0.04951821640133858,-0.0018516825512051582,30.35897445678711,-24.60602569580078,-11.144828796386719,-0.0372694730758667,-0.13059329986572266,0.35108041763305664,1.4370992183685303,9.578497886657715,4.14235782623291
1_20251106_212538,1762435505132,1,0.5561179518699646,0.41794711351394653,0.34282365441322327,0.6312883496284485,0.6864320635795593,3.258788824081421,1.973555088043213,1.3507508039474487,9.182159423828125,4.32226037979126,-0.0768238753080368,-0.08189404755830765,0.0659543052315712,30.286155700683594,-24.610389709472656,-11.18832015991211,-0.04990029335021973,-0.2745332717895508,0.10038995742797852,1.4006510972976685,9.456692695617676,4.221870422363281
1_20251106_212538,1762435505152,1,0.5559901595115662,0.41854891180992126,0.34160566329956055,0.6316623091697693,0.6869215965270996,3.2578065395355225,1.9840365648269653,1.5087611675262451,9.259967803955078,4.414433002471924,-0.040171995759010315,-0.11854592710733414,0.13681460916996002,30.237497329711914,-24.625045776367188,-11.298675537109375,0.08648800849914551,-0.1573801040649414,0.15404987335205078,1.4222731590270996,9.41734790802002,4.260383129119873
1_20251106_212538,1762435505171,1,0.5557273030281067,0.41948848962783813,0.33987483382225037,0.6322038173675537,0.6881918907165527,3.256547451019287,1.9943851232528687,1.724230170249939,9.281513214111328,4.584414482116699,-0.07254782319068909,-0.1356501430273056,0.20584231615066528,30.226089477539062,-24.636375427246094,-11.502174377441406,0.24156558513641357,-0.10866737365722656,0.25922489166259766,1.4826645851135254,9.390180587768555,4.325189590454102
1_20251106_212538,1762435505189,1,0.5554416179656982,0.4204457104206085,0.33787184953689575,0.6328922510147095,0.6881918907165527,3.256547451019287,1.9943851232528687,1.724230170249939,9.281513214111328,4.584414482116699,-0.04200458526611328,-0.13503926992416382,0.15941660106182098,30.20229721069336,-24.648765563964844,-11.679130554199219,0.24156558513641357,-0.10866737365722656,0.25922489166259766,1.4826645851135254,9.390180587768555,4.325189590454102
1_20251106_212538,1762435505210,1,0.5552285313606262,0.4214036464691162,0.33597835898399353,0.633449912071228,0.6936779618263245,3.253919839859009,2.0167343616485596,1.9385020732879639,9.373687744140625,4.746015548706055,0.014194967225193977,-0.10266344994306564,0.07450640946626663,30.176204681396484,-24.687484741210938,-11.734968185424805,0.30226993560791016,-0.0053844451904296875,0.2708611488342285,1.6362321376800537,9.379072189331055,4.475154399871826
1_20251106_212538,1762435505228,1,0.5551109313964844,0.4221382737159729,0.3347793519496918,0.633698582649231,0.6936779618263245,3.253919839859009,2.0167343616485596,1.9385020732879639,9.373687744140625,4.746015548706055,0.06489674746990204,-0.04890735447406769,-0.039725299924612045,30.136009216308594,-24.764404296875,-11.819120407104492,0.30226993560791016,-0.0053844451904296875,0.2708611488342285,1.6362321376800537,9.379072189331055,4.475154399871826
1_20251106_212538,1762435505248,1,0.5551844239234924,0.4224620461463928,0.33463165163993835,0.6334964036941528,0.6976497769355774,3.2527284622192383,2.0281341075897217,1.8906201124191284,9.410795211791992,4.492241382598877,0.05267944186925888,0.0005726855015382171,-0.1447940319776535,30.10095977783203,-24.741539001464844,-11.833580017089844,0.20351040363311768,0.02537822723388672,0.013669490814208984,1.6871097087860107,9.385416984558105,4.478571891784668
1_20251106_212538,1762435505267,1,0.5558288097381592,0.42240121960639954,0.33523106575012207,0.6326544284820557,0.7036359310150146,3.2498090267181396,2.045588731765747,1.3112480640411377,9.153429985046387,4.115170478820801,-0.009017891250550747,0.022563815116882324,-0.18511110544204712,30.064895629882812,-24.743247985839844,-11.902632713317871,-0.29494547843933105,-0.17662620544433594,-0.23640727996826172,1.6061935424804688,9.330056190490723,4.3515777587890625
1_20251106_212538,1762435505286,1,0.5570984482765198,0.42200547456741333,0.3360169529914856,0.6313836574554443,0.7045922875404358,3.24757719039917,2.0525355339050293,1.1185232400894165,9.054075241088867,4.222905158996582,-0.009017891250550747,0.022563815116882324,-0.18511110544204712,30.02781867980957,-24.76953125,-12.026278495788574,-0.39013636112213135,-0.22078514099121094,-0.10293817520141602,1.5086596012115479,9.274860382080078,4.325843334197998
1_20251106_212538,1762435505305,1,0.5583296418190002,0.4209078252315521,0.3368687331676483,0.6305743455886841,0.704277515411377,3.2443463802337646,2.059278726577759,1.0730353593826294,8.987039566040039,4.131929397583008,-0.05300015211105347,0.06776780635118484,-0.14357230067253113,29.999908447265625,-24.84552001953125,-12.123456954956055,-0.3484994173049927,-0.2302570343017578,-0.15513134002685547,1.421534776687622,9.217296600341797,4.287060737609863
1_20251106_212538,1762435505324,1,0.5591115951538086,0.41984307765960693,0.33755820989608765,0.6302225589752197,0.7031259536743164,3.2408413887023926,2.0650668144226074,1.1053556203842163,9.002601623535156,4.178614139556885,0.003810267895460129,-0.020196715369820595,0.03907625377178192,29.98883628845215,-24.82160186767578,-12.082870483398438,-0.25294339656829834,-0.17175579071044922,-0.08675718307495117,1.3582990169525146,9.174357414245605,4.265371322631836
1_20251106_212538,1762435505343,1,0.5594087839126587,0.4198794960975647,0.3376939594745636,0.6298617124557495,0.7017353773117065,3.2372212409973145,2.0705738067626953,1.2501986026763916,9.068439483642578,4.268393039703369,0.003810267895460129,-0.020196715369820595,0.03907625377178192,30.036479949951172,-24.831520080566406,-12.027107238769531,-0.08648037910461426,-0.08473396301269531,0.0024175643920898438,1.3366789817810059,9.153173446655273,4.265975475311279
1_20251106_212538,1762435505362,1,0.5591211318969727,0.42059075832366943,0.3372724652290344,0.6298684477806091,0.7008602023124695,3.233989715576172,2.0761141777038574,1.4991848468780518,9.228843688964844,4.378521919250488,0.017860155552625656,-0.07761799544095993,0.1942358911037445,30.04825782775879,-24.842880249023438,-12.067429542541504,0.1300046443939209,0.06053638458251953,0.09003686904907227,1.3691802024841309,9.168307304382324,4.288485050201416
1_20251106_212538,1762435505380,1,0.5584825277328491,0.42149534821510315,0.336425244808197,0.6302832961082458,0.7008878588676453,3.2312982082366943,2.0815846920013428,1.700289249420166,9.256376266479492,4.485058784484863,0.01969275064766407,-0.056848593056201935,0.18507292866706848,30.03787612915039,-24.818023681640625,-12.12145709991455,0.2648872137069702,0.07045555114746094,0.1572589874267578,1.4354020357131958,9.185920715332031,4.3277997970581055
1_20251106_212538,1762435505400,1,0.5576968789100647,0.4223887622356415,0.3355225920677185,0.6308616995811462,0.7022099494934082,3.228714942932129,2.0882411003112793,1.8606938123703003,9.270740509033203,4.617931365966797,0.006253726780414581,-0.03241400420665741,0.15575140714645386,30.00665283203125,-24.944915771484375,-12.15211009979248,0.3402334451675415,0.0678558349609375,0.23210525512695312,1.5204603672027588,9.202884674072266,4.385826110839844
1_20251106_212538,1762435505420,1,0.5569643974304199,0.4230192005634308,0.3345666527748108,0.6315937042236328,0.7022099494934082,3.228714942932129,2.0882411003112793,1.8606938123703003,9.270740509033203,4.617931365966797,0.006253726780414581,-0.0024816379882395267,0.11909953504800797,29.931522369384766,-24.987220764160156,-12.169361114501953,0.3402334451675415,0.0678558349609375,0.23210525512695312,1.5204603672027588,9.202884674072266,4.385826110839844
1_20251106_212538,1762435505439,1,0.5562161207199097,0.4232984185218811,0.3337651789188385,0.6324894428253174,0.7084169387817383,3.2249608039855957,2.1031103134155273,2.047433376312256,9.341365814208984,4.796291828155518,0.04901425540447235,0.021952949464321136,0.04946095123887062,29.931522369384766,-24.987220764160156,-12.169361114501953,0.3495204448699951,0.09418201446533203,0.2764878273010254,1.6979129314422607,9.247183799743652,4.519804000854492
1_20251106_212538,1762435505458,1,0.5556004047393799,0.4234384000301361,0.3334939479827881,0.6330797076225281,0.7126491069793701,3.223637342453003,2.110325336456299,2.0055367946624756,9.322214126586914,4.538926124572754,0.09971603006124496,0.04516581445932388,-0.04155788943171501,29.818321228027344,-25.057151794433594,-12.175094604492188,0.24609911441802979,0.060024261474609375,0.015297889709472656,1.7594376802444458,9.262189865112305,4.523628234863281
1_20251106_212538,1762435505477,1,0.5551621913909912,0.42336422204971313,0.3339427709579468,0.6332771182060242,0.7126491069793701,3.223637342453003,2.110325336456299,2.0055367946624756,9.322214126586914,4.538926124572754,0.1290375292301178,0.042111486196517944,-0.12158116698265076,29.730806350708008,-25.10051727294922,-12.165802955627441,0.24609911441802979,0.060024261474609375,0.015297889709472656,1.7594376802444458,9.262189865112305,4.523628234863281
1_20251106_212538,1762435505496,1,0.5551685690879822,0.4235101342201233,0.3349594175815582,0.6326367259025574,0.7203053832054138,3.219592332839966,2.1221609115600586,1.580584168434143,8.964296340942383,4.224102020263672,0.09910516440868378,0.07998509705066681,-0.14357230067253113,29.668663024902344,-25.12933349609375,-12.195816040039062,-0.14855825901031494,-0.21114540100097656,-0.21314764022827148,1.729142427444458,9.17544174194336,4.437249660491943
1_20251106_212538,1762435505514,1,0.5554363131523132,0.42315414547920227,0.33623412251472473,0.631963312625885,0.7228139042854309,3.2167410850524902,2.1259334087371826,1.4824261665344238,8.869728088378906,4.002647876739502,0.066729336977005,0.11785871535539627,-0.1301332712173462,29.630596160888672,-25.156967163085938,-12.18429946899414,-0.19737303256988525,-0.24457073211669922,-0.34768152236938477,1.679799199104309,9.114298820495605,4.350329399108887
1_20251106_212538,1762435505533,1,0.5556994676589966,0.4223532974720001,0.33767569065093994,0.6314989328384399,0.724643349647522,3.213125467300415,2.128079414367676,1.4297559261322021,8.838605880737305,3.753661632537842,0.05267944931983948,0.11908044666051865,-0.11608338356018066,29.580852508544922,-25.17310333251953,-12.145976066589355,-0.20003461837768555,-0.22055435180664062,-0.47733402252197266,1.6297905445098877,9.059160232543945,4.2309956550598145
1_20251106_212538,1762435505553,1,0.5559728741645813,0.4216867685317993,0.3390985429286957,0.6309410929679871,0.7256609201431274,3.208890438079834,2.128763437271118,1.3627212047576904,8.855363845825195,3.750070571899414,0.01969275251030922,0.08792634308338165,-0.08492928743362427,29.63977813720703,-25.195053100585938,-12.06295394897461,-0.2136554718017578,-0.16303730010986328,-0.38473987579345703,1.5763766765594482,9.018401145935059,4.134810447692871
1_20251106_212538,1762435505572,1,0.5562021732330322,0.4213418662548065,0.3402227759361267,0.6303638815879822,0.7260489463806152,3.204502820968628,2.1287848949432373,1.3830710649490356,8.812271118164062,3.9176576137542725,0.01969275251030922,0.08792634308338165,-0.08492928743362427,29.702428817749023,-25.153953552246094,-12.005644798278809,-0.15464448928833008,-0.16490459442138672,-0.173722505569458,1.5377155542373657,8.97717571258545,4.0913801193237305
1_20251106_212538,1762435505591,1,0.5564954280853271,0.4214058220386505,0.34080636501312256,0.6297467947006226,0.7261213660240173,3.199878692626953,2.1285324096679688,1.4297560453414917,8.811073303222656,3.9918746948242188,0.04534906893968582,0.01706603355705738,0.005478694103658199,29.825008392333984,-25.121841430664062,-11.905598640441895,-0.08636772632598877,-0.13288211822509766,-0.0796041488647461,1.5161237716674805,8.943955421447754,4.071478843688965
1_20251106_212538,1762435505611,1,0.556435763835907,0.42169681191444397,0.3412059545516968,0.6293882131576538,0.72639000415802,3.1954004764556885,2.1280970573425293,1.5889636278152466,8.912822723388672,4.000254154205322,0.033742643892765045,0.01706603355705738,0.038465388119220734,29.926429748535156,-25.040550231933594,-11.859542846679688,0.05827176570892334,-0.024906158447265625,-0.05697965621948242,1.5306918621063232,8.937728881835938,4.057233810424805
1_20251106_212538,1762435505630,1,0.5561774373054504,0.42196059226989746,0.3413320481777191,0.6293714046478271,0.7271705865859985,3.1908209323883057,2.1278669834136963,1.699092149734497,8.904443740844727,4.124747276306152,0.010529780760407448,-0.00309250270947814,0.044574033468961716,30.027355194091797,-24.959930419921875,-11.745904922485352,0.1347203254699707,-0.026628494262695312,0.054010868072509766,1.5643718242645264,8.931072235107422,4.070736408233643
1_20251106_212538,1762435505649,1,0.5559841394424438,0.4224325120449066,0.3410417139530182,0.6293830275535583,0.7283267974853516,3.1868908405303955,2.1277811527252197,1.7290183305740356,9.004995346069336,4.115170478820801,0.008086321875452995,-0.026305360719561577,0.03296760469675064,30.11054229736328,-24.992042541503906,-11.743263244628906,0.13171720504760742,0.05913829803466797,0.03554725646972656,1.5973011255264282,8.945857048034668,4.079623222351074
1_20251106_212538,1762435505670,1,0.5558280944824219,0.42289307713508606,0.3405342102050781,0.6294863224029541,0.7297451496124268,3.183206081390381,2.127723455429077,1.683530569076538,9.026542663574219,4.088835716247559,0.011751508340239525,-0.03852265328168869,0.0018135057762265205,30.122432708740234,-24.991653442382812,-11.702223777770996,0.06898355484008789,0.06454849243164062,0.0073699951171875,1.6145470142364502,8.961994171142578,4.081465721130371
1_20251106_212538,1762435505686,1,0.5559580326080322,0.42345789074897766,0.3400772511959076,0.6292388439178467,0.7309841513633728,3.180422306060791,2.127890110015869,1.6571954488754272,9.049285888671875,4.178614616394043,0.011751508340239525,-0.03852265328168869,0.0018135057762265205,30.146507263183594,-24.99047088623047,-11.660694122314453,0.03411877155303955,0.06983375549316406,0.07771921157836914,1.6230766773223877,8.979452133178711,4.100895404815674
1_20251106_212538,1762435505706,1,0.5562904477119446,0.4234431982040405,0.33986979722976685,0.6290670037269592,0.7324798703193665,3.1775195598602295,2.128767728805542,1.6595895290374756,9.048089027404785,4.328245639801025,-0.024900373071432114,-3.8178288377821445e-05,-0.03483837842941284,30.076915740966797,-24.932449340820312,-11.662317276000977,0.029210329055786133,0.054909706115722656,0.18187999725341797,1.6303791999816895,8.993179321289062,4.146365642547607
1_20251106_212538,1762435505726,1,0.5567206740379333,0.4226708710193634,0.33981913328170776,0.629233181476593,0.7340216040611267,3.174984931945801,2.1301310062408447,1.700289249420166,9.024147987365723,4.354580402374268,-0.05300015211105347,0.06837867200374603,-0.0629381537437439,30.079341888427734,-24.88275909423828,-11.607196807861328,0.05592799186706543,0.02477550506591797,0.16657161712646484,1.6443612575531006,8.999372482299805,4.188008785247803
1_20251106_212538,1762435505745,1,0.557123064994812,0.42174506187438965,0.33983585238456726,0.6294891238212585,0.7357152104377747,3.1725399494171143,2.132063627243042,1.7278213500976562,8.98584270477295,4.4204182624816895,0.005031997337937355,0.015844302251935005,-0.06232729181647301,30.04247283935547,-24.89716339111328,-11.662997245788574,0.06676805019378662,-0.010824203491210938,0.1859273910522461,1.6610532999038696,8.99666690826416,4.234490871429443
1_20251106_212538,1762435505762,1,0.5573757886886597,0.4214281737804413,0.33988282084465027,0.6294522881507874,0.7374274134635925,3.1703686714172363,2.134042739868164,1.7373976707458496,9.008586883544922,4.331836700439453,0.050846852362155914,-0.016531527042388916,-0.06477074325084686,30.04196548461914,-24.909454345703125,-11.69029426574707,0.061075448989868164,0.009535789489746094,0.07787656784057617,1.6763222217559814,8.999051094055176,4.253960132598877
1_20251106_212538,1762435505782,1,0.5575895309448242,0.4214940071105957,0.33993038535118103,0.629193127155304,0.7374274134635925,3.1703686714172363,2.134042739868164,1.7373976707458496,9.008586883544922,4.331836700439453,0.037407830357551575,-0.023861903697252274,-0.08248582482337952,29.992515563964844,-24.925186157226562,-11.692520141601562,0.061075448989868164,0.009535789489746094,0.07787656784057617,1.6763222217559814,8.999051094055176,4.253960132598877
1_20251106_212538,1762435505801,1,0.5579912066459656,0.42161720991134644,0.33995217084884644,0.6287425756454468,0.7415926456451416,3.1664586067199707,2.1383776664733887,1.7828855514526367,9.095972061157227,4.2803635597229,-0.010850485414266586,0.016455167904496193,-0.1252463459968567,30.008140563964844,-24.850128173828125,-11.582315444946289,0.07222270965576172,0.07083988189697266,0.013259410858154297,1.710662841796875,9.025132179260254,4.267104148864746
1_20251106_212538,1762435505820,1,0.5586311221122742,0.42116257548332214,0.34010249376296997,0.6283977031707764,0.7435736656188965,3.1649129390716553,2.1404688358306885,1.7481712102890015,9.027740478515625,4.358171463012695,-0.060330525040626526,0.06349175423383713,-0.18877628445625305,30.050338745117188,-24.747291564941406,-11.57873249053955,0.030006766319274902,0.002086639404296875,0.07285404205322266,1.7181644439697266,9.025653839111328,4.285317420959473
