session_id,timestamp,label,quaternion_w,quaternion_x,quaternion_y,quaternion_z,position_x,position_y,position_z,accelerometer_x,accelerometer_y,accelerometer_z,gyroscope_x,gyroscope_y,gyroscope_z,magnetometer_x,magnetometer_y,magnetometer_z,linear_acceleration_x,linear_acceleration_y,linear_acceleration_z,gravity_x,gravity_y,gravity_z
8_20251106_214625,1762436747902,8,0.24908709526062012,0.35568517446517944,0.5655739307403564,0.7011203765869141,0.404681533575058,3.4751086235046387,1.5483440160751343,2.2305822372436523,9.936300277709961,1.2290847301483154,0.011362084187567234,-0.00213420856744051,0.08062651008367538,17.9871826171875,-28.26178741455078,16.281536102294922,0.1142423152923584,0.14746952056884766,0.11722886562347412,2.116339921951294,9.788830757141113,1.1118558645248413
8_20251106_214625,1762436747923,8,0.24849604070186615,0.3560020625591278,0.5652785897254944,0.7014074325561523,0.4043617248535156,3.4776439666748047,1.5514105558395386,2.4951300621032715,10.004532814025879,1.093818187713623,0.0028099780902266502,-0.022292744368314743,0.0592462420463562,17.961698532104492,-28.2880859375,16.239479064941406,0.2564072608947754,0.1449441909790039,-0.008862733840942383,2.238722801208496,9.859588623046875,1.1026809215545654
8_20251106_214625,1762436747942,8,0.24821332097053528,0.35678714513778687,0.5648896098136902,0.7014219760894775,0.40570980310440063,3.4798078536987305,1.5529390573501587,2.548997402191162,10.039246559143066,1.0962121486663818,-0.0057421280071139336,0.0009201150387525558,0.01709657721221447,17.900062561035156,-28.304611206054688,16.23676300048828,0.24821972846984863,0.14372634887695312,-0.005174994468688965,2.3007776737213135,9.895520210266113,1.1013871431350708
8_20251106_214625,1762436747960,8,0.24800443649291992,0.357194721698761,0.5646105408668518,0.7015131115913391,0.40728384256362915,3.4817562103271484,1.5539087057113647,2.5454061031341553,10.024881362915039,1.0076305866241455,-0.019181150943040848,0.033906809985637665,-0.039713840931653976,17.996240615844727,-28.32323455810547,16.226642608642578,0.19570279121398926,0.10348892211914062,-0.07500529289245605,2.349703311920166,9.921392440795898,1.0826358795166016
8_20251106_214625,1762436747979,8,0.24798466265201569,0.3570873737335205,0.5644955039024353,0.701667308807373,0.4093250632286072,3.4839534759521484,1.5547606945037842,2.442460060119629,9.927921295166016,1.0064334869384766,-0.033231038600206375,0.03818286210298538,-0.08369610458612442,17.983448028564453,-28.336448669433594,16.212371826171875,0.07420539855957031,0.005223274230957031,-0.06096196174621582,2.3682546615600586,9.922698020935059,1.0673954486846924
8_20251106_214625,1762436748000,8,0.24839355051517487,0.35687196254730225,0.564461886882782,0.7016593217849731,0.41108429431915283,3.485882043838501,1.5555747747421265,2.285646438598633,9.844127655029297,1.0567095279693604,-0.03506363555788994,0.03512854129076004,-0.09408079832792282,17.970458984375,-28.349937438964844,16.22513198852539,-0.0660865306854248,-0.06285667419433594,-0.008548736572265625,2.3517329692840576,9.906984329223633,1.065258264541626
8_20251106_214625,1762436748018,8,0.24887442588806152,0.3564629554748535,0.5645304918289185,0.7016416788101196,0.41108429431915283,3.485882043838501,1.5555747747421265,2.285646438598633,9.844127655029297,1.0567095279693604,-0.017348557710647583,0.021078649908304214,-0.07636572420597076,17.956974029541016,-28.364097595214844,16.305477142333984,-0.0660865306854248,-0.06285667419433594,-0.008548736572265625,2.3517329692840576,9.906984329223633,1.065258264541626
8_20251106_214625,1762436748037,8,0.24925847351551056,0.35599514842033386,0.5647169351577759,0.7015928030014038,0.4132317006587982,3.4884705543518066,1.5564178228378296,2.232975959777832,9.862083435058594,1.055512547492981,-0.015515963546931744,-0.02656879648566246,-0.05803978443145752,17.956974029541016,-28.364097595214844,16.305477142333984,-0.08136725425720215,-0.023181915283203125,0.006211996078491211,2.314343214035034,9.885265350341797,1.0493005514144897
8_20251106_214625,1762436748057,8,0.24977946281433105,0.35601696372032166,0.5648083686828613,0.7013227939605713,0.4139710068702698,3.4899632930755615,1.557424783706665,2.231779098510742,9.92672348022461,1.2111289501190186,-0.009407316334545612,-0.04855992645025253,-0.050709404051303864,17.931785583496094,-28.389991760253906,16.222869873046875,-0.06605124473571777,0.03316688537597656,0.12946271896362305,2.29783034324646,9.893556594848633,1.0816662311553955
8_20251106_214625,1762436748076,8,0.2504713535308838,0.3561999499797821,0.5647737383842468,0.7010109424591064,0.4139710068702698,3.4899632930755615,1.557424783706665,2.231779098510742,9.92672348022461,1.2111289501190186,0.013194677419960499,-0.02656879648566246,-0.06781361252069473,17.905805587768555,-28.416961669921875,16.248394012451172,-0.06605124473571777,0.03316688537597656,0.12946271896362305,2.29783034324646,9.893556594848633,1.0816662311553955
8_20251106_214625,1762436748094,8,0.25098496675491333,0.3559660017490387,0.5649245381355286,0.700824499130249,0.41448965668678284,3.4926705360412598,1.5592235326766968,2.1934733390808105,9.92672348022461,0.9609456658363342,0.006475166417658329,0.013137409463524818,-0.07575485855340958,17.904396057128906,-28.44207763671875,16.247867584228516,-0.06889533996582031,0.018354415893554688,-0.10867172479629517,2.262368679046631,9.908369064331055,1.0696173906326294
8_20251106_214625,1762436748113,8,0.25134900212287903,0.35542628169059753,0.5652240514755249,0.7007265090942383,0.41455838084220886,3.4944989681243896,1.5595225095748901,2.23417329788208,10.044034957885742,0.9226400852203369,-0.030176717787981033,0.030852485448122025,-0.08552869409322739,17.952028274536133,-28.463607788085938,16.208751678466797,-0.022556304931640625,0.10853290557861328,-0.11758184432983398,2.2567296028137207,9.935502052307129,1.040221929550171
8_20251106_214625,1762436748132,8,0.2518891394138336,0.3548993766307831,0.5654745697975159,0.7005974650382996,0.41455838084220886,3.4944989681243896,1.5595225095748901,2.23417329788208,10.044034957885742,0.9226400852203369,-0.06682860106229782,0.06445004791021347,-0.10874155908823013,17.951322555541992,-28.476165771484375,16.20848846435547,-0.022556304931640625,0.10853290557861328,-0.11758184432983398,2.2567296028137207,9.935502052307129,1.040221929550171
8_20251106_214625,1762436748151,8,0.25252681970596313,0.35406026244163513,0.565649151802063,0.7006515264511108,0.41492560505867004,3.499478340148926,1.5598692893981934,2.3323311805725098,10.184089660644531,1.0423450469970703,-0.07110465317964554,0.10049106180667877,-0.13867393136024475,17.981531143188477,-28.37384796142578,16.184547424316406,0.05815291404724121,0.16369342803955078,0.007104635238647461,2.2741782665252686,10.02039623260498,1.0352404117584229
8_20251106_214625,1762436748170,8,0.2531523108482361,0.3527992069721222,0.5659011602401733,0.7008584141731262,0.41554754972457886,3.502505302429199,1.559794545173645,2.4041543006896973,10.187681198120117,0.9453840255737305,-0.05888735502958298,0.11087577044963837,-0.16433025896549225,18.017990112304688,-28.371597290039062,16.199535369873047,0.10398077964782715,0.13382720947265625,-0.0718851089477539,2.30017352104187,10.053853988647461,1.0172691345214844
8_20251106_214625,1762436748190,8,0.25378671288490295,0.3514462113380432,0.5662618279457092,0.701017439365387,0.41694411635398865,3.506401300430298,1.5591555833816528,2.5549826622009277,10.339706420898438,0.8316643238067627,-0.07354810833930969,0.1145409494638443,-0.17104977369308472,18.06683349609375,-28.3682861328125,16.18798065185547,0.20384740829467773,0.2286815643310547,-0.14848381280899048,2.35113525390625,10.111024856567383,0.9801481366157532
8_20251106_214625,1762436748209,8,0.2544075548648834,0.3502175509929657,0.5665799975395203,0.7011501789093018,0.41940420866012573,3.5110538005828857,1.5584473609924316,2.7884068489074707,10.525248527526855,0.9322164058685303,-0.07354810833930969,0.1145409494638443,-0.17104977369308472,18.165645599365234,-28.325340270996094,16.300827026367188,0.34981727600097656,0.3313779830932617,-0.038345396518707275,2.438589572906494,10.193870544433594,0.9705618023872375
8_20251106_214625,1762436748228,8,0.25540435314178467,0.3491538465023041,0.5667464137077332,0.7011837959289551,0.42326265573501587,3.516895294189453,1.5580962896347046,2.993102550506592,10.71198844909668,1.0878329277038574,-0.12241729348897934,0.1194278746843338,-0.28894665837287903,18.25165367126465,-28.307220458984375,16.304523468017578,0.44361042976379395,0.4144935607910156,0.09381687641143799,2.549492120742798,10.297494888305664,0.9940160512924194
8_20251106_214625,1762436748247,8,0.2568335235118866,0.3478487730026245,0.5668330788612366,0.7012403607368469,0.4284769892692566,3.5237298011779785,1.5579249858856201,3.114004611968994,10.76585578918457,1.0531184673309326,-0.12241729348897934,0.1194278746843338,-0.28894665837287903,18.363948822021484,-28.25011444091797,16.337024688720703,0.45161008834838867,0.37468910217285156,0.04728198051452637,2.6623945236206055,10.391166687011719,1.0058364868164062
8_20251106_214625,1762436748267,8,0.25877195596694946,0.3460720479488373,0.5670751929283142,0.7012110352516174,0.4352206885814667,3.53188157081604,1.5573042631149292,3.165477752685547,10.82451057434082,0.8579994440078735,-0.11264345049858093,0.10171279311180115,-0.48992112278938293,18.445016860961914,-28.106948852539062,16.315837860107422,0.4024665355682373,0.34667491912841797,-0.11826962232589722,2.7630112171173096,10.477835655212402,0.9762690663337708
8_20251106_214625,1762436748284,8,0.2613617181777954,0.3443213999271393,0.5674682259559631,0.7007942795753479,0.4352206885814667,3.53188157081604,1.5573042631149292,3.165477752685547,10.82451057434082,0.8579994440078735,-0.1242498829960823,0.02596556767821312,-0.5742204189300537,18.573318481445312,-27.985855102539062,16.309600830078125,0.4024665355682373,0.34667491912841797,-0.11826962232589722,2.7630112171173096,10.477835655212402,0.9762690663337708
8_20251106_214625,1762436748305,8,0.2649858295917511,0.34303396940231323,0.5679066181182861,0.6997087001800537,0.44956207275390625,3.5496740341186523,1.555790662765503,3.0649256706237793,10.91788101196289,0.9501721858978271,-0.1144760474562645,-0.008242855779826641,-0.6713479161262512,18.749252319335938,-27.88629913330078,16.26424789428711,0.18671345710754395,0.2774162292480469,-0.009232401847839355,2.8782122135162354,10.640464782714844,0.9594045877456665
8_20251106_214625,1762436748323,8,0.26938217878341675,0.3414515256881714,0.5686076879501343,0.6982330679893494,0.44956207275390625,3.5496740341186523,1.555790662765503,3.0649256706237793,10.91788101196289,0.9501721858978271,-0.09676096588373184,-0.009464585222303867,-0.7916883230209351,18.960533142089844,-27.8092041015625,16.192806243896484,0.18671345710754395,0.2774162292480469,-0.009232401847839355,2.8782122135162354,10.640464782714844,0.9594045877456665
8_20251106_214625,1762436748342,8,0.2744775414466858,0.33934053778648376,0.569692850112915,0.6963908076286316,0.45684972405433655,3.55910062789917,1.5542283058166504,3.0014820098876953,10.90591049194336,0.6509099006652832,-0.12791508436203003,-0.028401393443346024,-0.9016439318656921,19.24956703186035,-27.639846801757812,16.166706085205078,0.09861564636230469,0.2123565673828125,-0.24679577350616455,2.9028663635253906,10.693553924560547,0.8977056741714478
8_20251106_214625,1762436748361,8,0.2804485857486725,0.33705928921699524,0.5710550546646118,0.6939997673034668,0.46982815861701965,3.5765373706817627,1.5482761859893799,2.8374862670898438,10.834087371826172,0.5898603200912476,-0.20488403737545013,-0.06138808652758598,-0.98288893699646,19.542322158813477,-27.407432556152344,16.114891052246094,-0.051802635192871094,0.10985946655273438,-0.165802001953125,2.889288902282715,10.724227905273438,0.7556623220443726
8_20251106_214625,1762436748380,8,0.2873404026031494,0.334687739610672,0.5721919536590576,0.6913869976997375,0.46982815861701965,3.5765373706817627,1.5482761859893799,2.8374862670898438,10.834087371826172,0.5898603200912476,-0.3160613775253296,-0.06016635522246361,-1.0684099197387695,19.849082946777344,-27.136962890625,16.104907989501953,-0.051802635192871094,0.10985946655273438,-0.165802001953125,2.889288902282715,10.724227905273438,0.7556623220443726
8_20251106_214625,1762436748399,8,0.29503703117370605,0.3314688503742218,0.5726702213287354,0.6892970204353333,0.48121264576911926,3.5969903469085693,1.5455554723739624,2.768057346343994,11.36198616027832,1.5391204357147217,-0.34782636165618896,-0.08399008214473724,-1.1911938190460205,20.19117546081543,-26.90056610107422,15.973957061767578,-0.09003758430480957,0.4370861053466797,0.5797481536865234,2.8580949306488037,10.92490005493164,0.9593722820281982
8_20251106_214625,1762436748419,8,0.30420511960983276,0.32486629486083984,0.5737609267234802,0.6875460147857666,0.4850004315376282,3.609294891357422,1.548384428024292,2.3359224796295166,11.454158782958984,1.9939992427825928,-0.3191157281398773,-0.14996346831321716,-1.3530728816986084,20.6798095703125,-26.642616271972656,15.903221130371094,-0.4177379608154297,0.42340660095214844,0.8277015686035156,2.7536604404449463,11.030752182006836,1.1662976741790771
8_20251106_214625,1762436748439,8,0.31466057896614075,0.3178367018699646,0.5751879215240479,0.6849287748336792,0.4850004315376282,3.609294891357422,1.548384428024292,2.3359224796295166,11.454158782958984,1.9939992427825928,-0.3191157281398773,-0.14996346831321716,-1.3530728816986084,21.21164321899414,-26.26886749267578,15.795783996582031,-0.4177379608154297,0.42340660095214844,0.8277015686035156,2.7536604404449463,11.030752182006836,1.1662976741790771
8_20251106_214625,1762436748457,8,0.32622528076171875,0.31053945422172546,0.5774560570716858,0.6809455156326294,0.47861331701278687,3.6309456825256348,1.5637178421020508,0.20996272563934326,10.826905250549316,2.569780111312866,-0.21282526850700378,-0.2196020483970642,-1.519228219985962,21.21164321899414,-26.26886749267578,15.795783996582031,-1.8118332624435425,-0.1714487075805664,0.9141256809234619,2.0217959880828857,10.998353958129883,1.6556544303894043
8_20251106_214625,1762436748475,8,0.33766481280326843,0.3036968410015106,0.580312967300415,0.6760085225105286,0.4665997326374054,3.6398088932037354,1.5744060277938843,-0.5932574272155762,10.865209579467773,2.7062437534332275,-0.00696385744959116,-0.3692638874053955,-1.33352530002594,21.818214416503906,-25.853355407714844,15.759662628173828,-2.0920426845550537,-0.10651588439941406,0.8404715061187744,1.4987852573394775,10.971725463867188,1.8657722473144531
8_20251106_214625,1762436748495,8,0.34819918870925903,0.2984672486782074,0.582776665687561,0.6708546876907349,0.4464126229286194,3.6497833728790283,1.589902400970459,-0.9703279733657837,11.175247192382812,3.252098321914673,0.1066569834947586,-0.5427494645118713,-1.1252204179763794,22.47160530090332,-25.259124755859375,15.674640655517578,-1.9752906560897827,0.16281700134277344,1.1090607643127441,1.004962682723999,11.012430191040039,2.1430375576019287
8_20251106_214625,1762436748514,8,0.3580179214477539,0.2956778109073639,0.5847553610801697,0.6651758551597595,0.4464126229286194,3.6497833728790283,1.589902400970459,-0.9703279733657837,11.175247192382812,3.252098321914673,0.3271791338920593,-0.7064612507820129,-1.0232059955596924,23.196887969970703,-24.69658660888672,15.47012710571289,-1.9752906560897827,0.16281700134277344,1.1090607643127441,1.004962682723999,11.012430191040039,2.1430375576019287
8_20251106_214625,1762436748533,8,0.3675495684146881,0.2951858639717102,0.5871002078056335,0.6580926775932312,0.39355844259262085,3.670701265335083,1.629530429840088,-1.808262586593628,11.602592468261719,4.142703056335449,0.3271791338920593,-0.7064612507820129,-1.0232059955596924,23.935073852539062,-24.109085083007812,15.361244201660156,-1.8743940591812134,0.3943662643432617,1.3297748565673828,0.06613144278526306,11.208226203918457,2.8129281997680664
8_20251106_214625,1762436748553,8,0.37662410736083984,0.29587453603744507,0.5907049775123596,0.6493690609931946,0.354064404964447,3.6837446689605713,1.6570055484771729,-2.4774129390716553,11.625336647033691,4.1223530769348145,0.7993775606155396,-0.7553303837776184,-1.078183889389038,24.70135498046875,-23.456932067871094,15.22762680053711,-2.0348355770111084,0.33368778228759766,1.0475399494171143,-0.44257742166519165,11.291648864746094,3.0748131275177
8_20251106_214625,1762436748571,8,0.3853274881839752,0.29668673872947693,0.5956912040710449,0.6392587423324585,0.31460410356521606,3.6943206787109375,1.6818780899047852,-3.4075205326080322,11.273405075073242,4.090032577514648,0.7993775606155396,-0.7553303837776184,-1.078183889389038,25.55706787109375,-22.724014282226562,15.112545013427734,-2.3719544410705566,-0.01459503173828125,0.8121755123138428,-1.035565972328186,11.288000106811523,3.2778570652008057
8_20251106_214625,1762436748590,8,0.39327529072761536,0.29639893770217896,0.6023014187812805,0.6282636523246765,0.26574474573135376,3.702613353729248,1.7092844247817993,-4.421421051025391,10.445045471191406,4.176219940185547,1.0528863668441772,-0.374761700630188,-1.189972162246704,26.36988639831543,-21.881935119628906,15.06545639038086,-2.708684206008911,-0.6743640899658203,0.7186903953552246,-1.7127368450164795,11.119409561157227,3.4575295448303223
8_20251106_214625,1762436748610,8,0.39964932203292847,0.29473838210105896,0.6103753447532654,0.6171318292617798,0.2063365876674652,3.7060248851776123,1.7386609315872192,-5.18274450302124,9.513741493225098,4.105594158172607,1.1432944536209106,-0.1065920740365982,-1.0360342264175415,27.16781234741211,-21.079132080078125,15.098186492919922,-2.7760062217712402,-1.2845344543457031,0.5184516906738281,-2.40673828125,10.7982759475708,3.5871424674987793
8_20251106_214625,1762436748629,8,0.40330809354782104,0.29242831468582153,0.619471549987793,0.6066986918449402,0.2063365876674652,3.7060248851776123,1.7386609315872192,-5.18274450302124,9.513741493225098,4.105594158172607,1.2795171737670898,0.068115234375,-0.763588547706604,27.931591033935547,-20.240631103515625,15.08968734741211,-2.7760062217712402,-1.2845344543457031,0.5184516906738281,-2.40673828125,10.7982759475708,3.5871424674987793
8_20251106_214625,1762436748650,8,0.4040054380893707,0.29101434350013733,0.6291672587394714,0.596857488155365,0.07537391781806946,3.692864179611206,1.7933958768844604,-6.060182094573975,7.690634727478027,3.7776029109954834,1.4688853025436401,0.13958640396595,-0.41722825169563293,28.603731155395508,-19.296142578125,15.147220611572266,-2.395087718963623,-2.1260251998901367,0.08014154434204102,-3.6650943756103516,9.816659927368164,3.6974613666534424
8_20251106_214625,1762436748668,8,0.4018706679344177,0.291887491941452,0.6391106247901917,0.5872301459312439,-0.00014701485633850098,3.6736552715301514,1.8196992874145508,-6.209813117980957,6.814394950866699,3.5561490058898926,1.6814662218093872,0.212890163064003,-0.028718281537294388,29.166927337646484,-18.323020935058594,15.390357971191406,-2.0357751846313477,-2.4018125534057617,-0.11304998397827148,-4.174037933349609,9.216207504272461,3.669198989868164
8_20251106_214625,1762436748686,8,0.3965179920196533,0.29538801312446594,0.6493386626243591,0.5778223872184753,-0.00014701485633850098,3.6736552715301514,1.8196992874145508,-6.209813117980957,6.814394950866699,3.5561490058898926,1.6814662218093872,0.212890163064003,-0.028718281537294388,29.643918991088867,-17.3682861328125,15.65683364868164,-2.0357751846313477,-2.4018125534057617,-0.11304998397827148,-4.174037933349609,9.216207504272461,3.669198989868164
8_20251106_214625,1762436748706,8,0.38703033328056335,0.30070626735687256,0.6602843999862671,0.5690410733222961,-0.07789870351552963,3.6454451084136963,1.8426917791366577,-6.149960517883301,5.939351558685303,3.012688398361206,2.036989688873291,0.7156318426132202,0.7464690804481506,29.98225212097168,-16.486557006835938,16.06527328491211,-1.5807380676269531,-2.6214852333068848,-0.5252084732055664,-4.569222450256348,8.560836791992188,3.5378968715667725
8_20251106_214625,1762436748724,8,0.3731292188167572,0.3073936700820923,0.6717871427536011,0.5612359046936035,-0.21594621241092682,3.57273006439209,1.867643117904663,-5.487992286682129,4.269467830657959,0.737097442150116,2.0724198818206787,0.963642954826355,1.1453638076782227,30.15926170349121,-15.653907775878906,16.57467269897461,-0.520594596862793,-2.8744168281555176,-1.989210605621338,-4.967397689819336,7.143884658813477,2.7263081073760986
8_20251106_214625,1762436748744,8,0.3552199602127075,0.31542152166366577,0.6829690933227539,0.5548704862594604,-0.28367090225219727,3.5228052139282227,1.8680671453475952,-4.80687141418457,3.5272974967956543,-0.41326704621315,1.9697943925857544,1.1585086584091187,1.5857973098754883,30.057941436767578,-14.991844177246094,17.313411712646484,0.12842082977294922,-2.8932700157165527,-2.511660099029541,-4.9352922439575195,6.420567512512207,2.098392963409424
8_20251106_214625,1762436748762,8,0.3338412344455719,0.32503777742385864,0.6926040649414062,0.5506361126899719,-0.28367090225219727,3.5228052139282227,1.8680671453475952,-4.80687141418457,3.5272974967956543,-0.41326704621315,1.7840914726257324,1.2959532737731934,2.0470001697540283,29.714216232299805,-14.53363037109375,18.079418182373047,0.12842082977294922,-2.8932700157165527,-2.511660099029541,-4.9352922439575195,6.420567512512207,2.098392963409424
8_20251106_214625,1762436748782,8,0.3093366324901581,0.3363392651081085,0.69989013671875,0.5489449501037598,-0.40260371565818787,3.402200698852539,1.8402730226516724,-3.036435127258301,3.327390193939209,-1.9071846008300781,1.7840914726257324,1.2959532737731934,2.0470001697540283,29.107351303100586,-14.206321716308594,18.95439910888672,1.3642773628234863,-1.962587833404541,-2.667952299118042,-4.400712490081787,5.28997802734375,0.7607677578926086
8_20251106_214625,1762436748800,8,0.28202569484710693,0.349010169506073,0.704531729221344,0.5498076677322388,-0.44506171345710754,3.3422276973724365,1.816067099571228,-1.9423320293426514,3.1023449897766113,-2.510497570037842,1.318001627922058,1.6355940103530884,2.8276851177215576,28.403003692626953,-14.098312377929688,19.848491668701172,1.9667043685913086,-1.7501068115234375,-2.6170122623443604,-3.90903639793396,4.852451801300049,0.10651475191116333
8_20251106_214625,1762436748820,8,0.25201255083084106,0.36236295104026794,0.7064300179481506,0.5532986521720886,-0.44506171345710754,3.3422276973724365,1.816067099571228,-1.9423320293426514,3.1023449897766113,-2.510497570037842,1.0400582551956177,1.7174500226974487,3.1789324283599854,27.216581344604492,-14.3363037109375,20.906574249267578,1.9667043685913086,-1.7501068115234375,-2.6170122623443604,-3.90903639793396,4.852451801300049,0.10651475191116333
8_20251106_214625,1762436748839,8,0.22020861506462097,0.3768954873085022,0.7049355506896973,0.5590382814407349,-0.4975796043872833,3.205857038497925,1.7344162464141846,1.5626285076141357,3.2064881324768066,-4.422185897827148,0.6179507374763489,1.472493052482605,3.4611518383026123,25.886751174926758,-14.746543884277344,21.982864379882812,3.8129067420959473,-0.9934687614440918,-3.0042834281921387,-2.2502782344818115,4.199956893920898,-1.4179024696350098
8_20251106_214625,1762436748859,8,0.18955373764038086,0.39364415407180786,0.6987512707710266,0.5664452910423279,-0.4973789155483246,3.139457941055298,1.6828783750534058,3.7699875831604004,4.160536289215088,-3.9146363735198975,0.6179507374763489,1.472493052482605,3.4611518383026123,25.886751174926758,-14.746543884277344,21.982864379882812,4.8162126541137695,-0.03153657913208008,-1.997387170791626,-1.0462251901626587,4.192072868347168,-1.9172492027282715
8_20251106_214625,1762436748880,8,0.1621917486190796,0.412246435880661,0.6878542304039001,0.5749810934066772,-0.47618231177330017,3.079780101776123,1.6299232244491577,5.863626956939697,5.310900688171387,-3.231121063232422,-0.0057421280071139336,0.7547271847724915,3.382350206375122,24.426193237304688,-15.327560424804688,23.010269165039062,5.527881622314453,0.8950624465942383,-1.0510973930358887,0.3357451558113098,4.415838241577148,-2.180023670196533
8_20251106_214625,1762436748896,8,0.13836202025413513,0.43090617656707764,0.6751884818077087,0.5824914574623108,-0.4433673024177551,3.0362799167633057,1.5847665071487427,7.483234882354736,6.55104398727417,-3.2706236839294434,-0.0057421280071139336,0.7547271847724915,3.382350206375122,22.736419677734375,-16.098678588867188,24.025150299072266,5.717991828918457,1.7081646919250488,-0.8724801540374756,1.7652430534362793,4.842879295349121,-2.3981435298919678
8_20251106_214625,1762436748916,8,0.11811504513025284,0.44768449664115906,0.6639612913131714,0.5871821045875549,-0.4433673024177551,3.0362799167633057,1.5847665071487427,7.483234882354736,6.55104398727417,-3.2706236839294434,0.24349066615104675,0.39859306812286377,2.2180421352386475,20.955659866333008,-16.767501831054688,24.70614242553711,5.717991828918457,1.7081646919250488,-0.8724801540374756,1.7652430534362793,4.842879295349121,-2.3981435298919678
8_20251106_214625,1762436748937,8,0.10155776888132095,0.4605211317539215,0.6556464433670044,0.5896898508071899,-0.31899723410606384,2.9633352756500244,1.478407859802246,8.822732925415039,7.336308002471924,-3.9768829345703125,0.20867137610912323,0.5959023833274841,1.462402582168579,19.148418426513672,-17.718734741210938,25.429073333740234,4.583062171936035,1.607285976409912,-1.0818331241607666,4.239670753479004,5.729022026062012,-2.895049810409546
8_20251106_214625,1762436748953,8,0.08810613304376602,0.4673122465610504,0.650366485118866,0.5923512578010559,-0.31899723410606384,2.9633352756500244,1.478407859802246,8.822732925415039,7.336308002471924,-3.9768829345703125,0.024801112711429596,0.9184389710426331,0.7446365356445312,17.426565170288086,-18.675888061523438,26.047042846679688,4.583062171936035,1.607285976409912,-1.0818331241607666,4.239670753479004,5.729022026062012,-2.895049810409546
8_20251106_214625,1762436748973,8,0.07754964381456375,0.4676866829395294,0.6473796367645264,0.5967870950698853,-0.15836144983768463,2.9166476726531982,1.3650575876235962,8.861038208007812,7.266880035400391,-5.364263534545898,0.024801112711429596,0.9184389710426331,0.7446365356445312,15.74055290222168,-19.654830932617188,26.57134246826172,2.9281797409057617,0.9725465774536133,-1.6580572128295898,5.932858467102051,6.294333457946777,-3.7062063217163086
8_20251106_214625,1762436748991,8,0.07083174586296082,0.46330922842025757,0.6454140543937683,0.603131890296936,-0.07803398370742798,2.8994927406311035,1.3089877367019653,8.115276336669922,7.007119655609131,-5.258923053741455,-0.579954981803894,1.0509965419769287,-0.3103269040584564,14.278383255004883,-20.35400390625,26.85271453857422,1.7459344863891602,0.5702290534973145,-1.242173671722412,6.369341850280762,6.436890602111816,-4.016749382019043
8_20251106_214625,1762436749011,8,0.06834009289741516,0.4562109410762787,0.6436721682548523,0.610645055770874,-0.07803398370742798,2.8994927406311035,1.3089877367019653,8.115276336669922,7.007119655609131,-5.258923053741455,-0.7913141846656799,0.8775109648704529,-0.5675009489059448,12.98952579498291,-21.003578186035156,27.060646057128906,1.7459344863891602,0.5702290534973145,-1.242173671722412,6.369341850280762,6.436890602111816,-4.016749382019043
8_20251106_214625,1762436749031,8,0.06934003531932831,0.4482250213623047,0.641764223575592,0.6184051632881165,0.08605343848466873,2.866929769515991,1.1922986507415771,5.91629695892334,6.527102470397949,-4.061873435974121,-0.8859982490539551,0.6771473288536072,-0.5540618896484375,11.890000343322754,-21.5279541015625,27.251277923583984,-0.4525566101074219,0.024218082427978516,0.06343746185302734,6.368853569030762,6.502884387969971,-4.125310897827148
8_20251106_214625,1762436749049,8,0.07197637110948563,0.44117283821105957,0.6391367316246033,0.6258515119552612,0.08605343848466873,2.866929769515991,1.1922986507415771,5.91629695892334,6.527102470397949,-4.061873435974121,-0.9476955533027649,0.44196444749832153,-0.33048543334007263,11.0298490524292,-21.91059112548828,27.34573745727539,-0.4525566101074219,0.024218082427978516,0.06343746185302734,6.368853569030762,6.502884387969971,-4.125310897827148
8_20251106_214625,1762436749069,8,0.07500755041837692,0.4365701973438263,0.6350818872451782,0.6328122615814209,0.16345536708831787,2.8507626056671143,1.1359190940856934,5.391989707946777,6.492388725280762,-3.685999870300293,-0.9476955533027649,0.44196444749832153,-0.33048543334007263,10.425788879394531,-22.28789520263672,27.32858657836914,-0.7814908027648926,-0.008396625518798828,0.35144901275634766,6.17348051071167,6.5007853507995605,-4.037448883056641
8_20251106_214625,1762436749088,8,0.07825350761413574,0.4349730908870697,0.6290624737739563,0.6394960880279541,0.280918151140213,2.8258748054504395,1.05436372756958,5.354881286621094,6.803621292114258,-2.2459497451782227,-1.163941740989685,-0.05711203068494797,0.16675841808319092,9.972671508789062,-22.591262817382812,27.156444549560547,-0.519498348236084,0.23365306854248047,1.2804374694824219,5.874379634857178,6.569968223571777,-3.5263872146606445
8_20251106_214625,1762436749106,8,0.08216400444507599,0.4359143376350403,0.6211839914321899,0.6460326313972473,0.3364463150501251,2.815626382827759,1.0223833322525024,5.552393913269043,7.1208391189575195,-1.429561972618103,-1.163941740989685,-0.05711203068494797,0.16675841808319092,9.590048789978027,-22.9398193359375,26.959156036376953,-0.25758886337280273,0.44069671630859375,1.6774600744247437,5.809982776641846,6.680142402648926,-3.1070220470428467
8_20251106_214625,1762436749126,8,0.08664534986019135,0.43827158212661743,0.6122435331344604,0.6523560881614685,0.3364463150501251,2.815626382827759,1.0223833322525024,5.552393913269043,7.1208391189575195,-1.429561972618103,-1.2775624990463257,-0.3222273290157318,0.28465530276298523,9.31418228149414,-23.33159637451172,26.778743743896484,-0.25758886337280273,0.44069671630859375,1.6774600744247437,5.809982776641846,6.680142402648926,-3.1070220470428467
8_20251106_214625,1762436749146,8,0.09171779453754425,0.4410075545310974,0.6027370095252991,0.6586412191390991,0.44195035099983215,2.801248073577881,0.9816787838935852,5.893553256988525,7.418904781341553,-0.2516654133796692,-1.3435359001159668,-0.3472727835178375,0.23028835654258728,9.24736213684082,-23.920249938964844,26.372894287109375,0.08068227767944336,0.4957914352416992,1.9067208766937256,5.812870979309082,6.9231133460998535,-2.15838623046875
8_20251106_214625,1762436749165,8,0.09746713191270828,0.4433426260948181,0.5928954482078552,0.6651484370231628,0.4897204637527466,2.797653913497925,0.972566545009613,5.867218017578125,7.664299964904785,0.015276633203029633,-1.3435359001159668,-0.3472727835178375,0.23028835654258728,9.239034652709961,-24.566238403320312,25.819499969482422,0.04347801208496094,0.592949390411377,1.738930344581604,5.823740005493164,7.071350574493408,-1.7236536741256714
8_20251106_214625,1762436749182,8,0.10410673916339874,0.4453662931919098,0.5828196406364441,0.6716635227203369,0.4897204637527466,2.797653913497925,0.972566545009613,5.867218017578125,7.664299964904785,0.015276633203029633,-1.390572428703308,-0.44378939270973206,0.13438259065151215,9.23300552368164,-25.185897827148438,25.14498519897461,0.04347801208496094,0.592949390411377,1.738930344581604,5.823740005493164,7.071350574493408,-1.7236536741256714
8_20251106_214625,1762436749202,8,0.11135034263134003,0.4476526379585266,0.5726144313812256,0.6777322292327881,0.5790340900421143,2.7993648052215576,0.9719642996788025,6.009666919708252,8.438791275024414,0.6437275409698486,-1.3068839311599731,-0.5824556946754456,0.16309323906898499,9.293947219848633,-25.913536071777344,24.444007873535156,0.14121007919311523,0.9381742477416992,1.568368673324585,5.868456840515137,7.500617027282715,-0.9246411919593811
8_20251106_214625,1762436749221,8,0.1187136098742485,0.45086097717285156,0.5626442432403564,0.6826879978179932,0.6214886903762817,2.804704427719116,0.9793769121170044,6.210771560668945,8.589619636535645,0.9274282455444336,-1.3068839311599731,-0.5824556946754456,0.16309323906898499,9.393548965454102,-26.61273193359375,23.650413513183594,0.2738518714904785,0.8712024688720703,1.4816555976867676,5.936919689178467,7.718417167663574,-0.554227352142334
8_20251106_214625,1762436749240,8,0.1263628453016281,0.4552696645259857,0.5534943342208862,0.6858615279197693,0.6214886903762817,2.804704427719116,0.9793769121170044,6.210771560668945,8.589619636535645,0.9274282455444336,-0.9861800074577332,-0.8970510363578796,0.0647440254688263,9.589229583740234,-27.3306884765625,22.860214233398438,0.2738518714904785,0.8712024688720703,1.4816555976867676,5.936919689178467,7.718417167663574,-0.554227352142334
8_20251106_214625,1762436749260,8,0.13474102318286896,0.4602760672569275,0.5453580021858215,0.6874412298202515,0.6668073534965515,2.8135478496551514,0.9923266768455505,6.1581010818481445,8.684186935424805,0.9872807264328003,-0.9281479120254517,-0.9886807203292847,-0.05559632182121277,9.832046508789062,-28.07085418701172,22.098480224609375,0.17694473266601562,0.772615909576416,1.2332065105438232,5.981156349182129,7.911571025848389,-0.24592573940753937
8_20251106_214625,1762436749280,8,0.14412087202072144,0.46524226665496826,0.5379379391670227,0.6880418658256531,0.7402821779251099,2.833667516708374,1.0221341848373413,5.739133834838867,8.802694320678711,0.9250341653823853,-0.9177631735801697,-1.022889256477356,-0.1612759381532669,10.079078674316406,-28.747291564941406,21.243453979492188,-0.19568967819213867,0.5948352813720703,0.7409871220588684,5.934823513031006,8.20785903930664,0.18404704332351685
8_20251106_214625,1762436749300,8,0.1542273908853531,0.4697529971599579,0.5309984087944031,0.6881763339042664,0.7734017968177795,2.846653461456299,1.0394835472106934,5.401566028594971,9.105546951293945,0.9082754850387573,-0.930591344833374,-1.0198348760604858,-0.28283801674842834,10.404162406921387,-29.33106231689453,20.393218994140625,-0.4266061782836914,0.7181501388549805,0.5793827772140503,5.828172206878662,8.387396812438965,0.32889270782470703
8_20251106_214625,1762436749317,8,0.16516049206256866,0.4734901785850525,0.5244936347007751,0.6880664825439453,0.8025389313697815,2.860898017883301,1.0588226318359375,4.9802045822143555,9.082803726196289,1.3703365325927734,-0.9617454409599304,-0.9581374526023865,-0.44838234782218933,10.404162406921387,-29.33106231689453,20.393218994140625,-0.6783742904663086,0.5563259124755859,0.8331550359725952,5.658578872680664,8.526477813720703,0.5371814966201782
8_20251106_214625,1762436749336,8,0.1771499067544937,0.4759086072444916,0.5185146331787109,0.6879472732543945,0.8268571496009827,2.876002788543701,1.0808961391448975,4.43315315246582,9.099562644958496,1.8862648010253906,-0.9617454409599304,-0.9581374526023865,-0.44838234782218933,10.768834114074707,-29.850341796875,19.613357543945312,-0.9803404808044434,0.4584684371948242,1.0792666673660278,5.413493633270264,8.641094207763672,0.8069981336593628
8_20251106_214625,1762436749355,8,0.18983176350593567,0.47650203108787537,0.5129979252815247,0.6882897615432739,0.845499575138092,2.8920106887817383,1.1053459644317627,3.7879433631896973,9.24560260772705,2.0753986835479736,-1.071701169013977,-0.7467783093452454,-0.6713479161262512,11.179529190063477,-30.416534423828125,18.820884704589844,-1.3004403114318848,0.48360633850097656,1.0147204399108887,5.088383674621582,8.761996269226074,1.060678243637085
8_20251106_214625,1762436749374,8,0.20262932777404785,0.475748747587204,0.5075825452804565,0.689176619052887,0.8582002520561218,2.9093825817108154,1.131048560142517,3.2624387741088867,9.550849914550781,1.9628759622573853,-1.0643707513809204,-0.6844701170921326,-0.6579089164733887,11.618614196777344,-30.917678833007812,17.963130950927734,-1.4607558250427246,0.6310825347900391,0.7217581272125244,4.723194599151611,8.919767379760742,1.2411178350448608
8_20251106_214625,1762436749394,8,0.21507783234119415,0.4745193421840668,0.5022100210189819,0.6901869177818298,0.8651382327079773,2.927302122116089,1.1580538749694824,2.8542447090148926,9.435934066772461,2.1843302249908447,-1.0338274240493774,-0.6875243782997131,-0.6487459540367126,12.236875534057617,-31.245269775390625,17.19676971435547,-1.49515962600708,0.412933349609375,0.7545698881149292,4.349404335021973,9.023000717163086,1.4297603368759155
8_20251106_214625,1762436749413,8,0.22742587327957153,0.4733419120311737,0.49694475531578064,0.6908478736877441,0.8658024072647095,2.945246934890747,1.1885138750076294,2.285646438598633,9.031331062316895,2.5661888122558594,-0.9983973503112793,-0.6777505874633789,-0.6065962314605713,12.815448760986328,-31.637489318847656,16.373554229736328,-1.6510062217712402,0.006664276123046875,0.9091428518295288,3.936652660369873,9.024666786193848,1.6570459604263306
8_20251106_214625,1762436749431,8,0.23921562731266022,0.4721999168395996,0.49171504378318787,0.6913895010948181,0.8610137701034546,2.9599075317382812,1.21736478805542,1.761338710784912,8.74763011932373,2.7972192764282227,-0.9983973503112793,-0.6777505874633789,-0.6065962314605713,13.413243293762207,-31.914962768554688,15.45859146118164,-1.7402513027191162,-0.22162914276123047,0.9121387004852295,3.5015900135040283,8.969259262084961,1.8850805759429932
8_20251106_214625,1762436749450,8,0.24974389374256134,0.4710642099380493,0.4862205386161804,0.692326545715332,0.8505176901817322,2.974759578704834,1.2491728067398071,1.4261648654937744,9.024148941040039,2.933683156967163,-0.975795328617096,-0.6209401488304138,-0.4868668019771576,14.04930305480957,-32.164527893066406,14.505077362060547,-1.6603403091430664,0.04391193389892578,0.8388819694519043,3.086505174636841,8.980237007141113,2.094801187515259
8_20251106_214625,1762436749470,8,0.2586231827735901,0.46986863017082214,0.4804438352584839,0.6939101219177246,0.8359549641609192,2.9897348880767822,1.2813602685928345,1.4129972457885742,9.295879364013672,2.8127810955047607,-0.9489172697067261,-0.5177040696144104,-0.3329288959503174,14.639450073242188,-32.355430603027344,13.645536422729492,-1.338806390762329,0.2525138854980469,0.5743839740753174,2.7518036365509033,9.043365478515625,2.2383971214294434
8_20251106_214625,1762436749490,8,0.2659032940864563,0.4682750403881073,0.474584698677063,0.6962637901306152,0.8165621161460876,3.0075371265411377,1.3172305822372437,1.5279141664505005,9.663372039794922,2.857071876525879,-0.9519716501235962,-0.3136752247810364,-0.13745221495628357,15.120206832885742,-32.56468963623047,12.646154403686523,-0.9791115522384644,0.4960050582885742,0.49493980407714844,2.507025718688965,9.167366981506348,2.3621320724487305
8_20251106_214625,1762436749508,8,0.27264833450317383,0.4665556848049164,0.46835464239120483,0.6990225911140442,0.7981476187705994,3.023543357849121,1.3494060039520264,1.441726565361023,9.780683517456055,3.566922187805176,-1.015501618385315,-0.3216164708137512,-0.1466151773929596,15.628464698791504,-32.710113525390625,11.70313835144043,-0.8522394895553589,0.49065303802490234,0.9638321399688721,2.293966054916382,9.290030479431152,2.6030900478363037
8_20251106_214625,1762436749527,8,0.27985334396362305,0.4647367298603058,0.4616146981716156,0.70186448097229,0.7981476187705994,3.023543357849121,1.3494060039520264,1.441726565361023,9.780683517456055,3.566922187805176,-1.0063385963439941,-0.22143463790416718,-0.23152536153793335,16.100685119628906,-32.834022521972656,10.88082504272461,-0.8522394895553589,0.49065303802490234,0.9638321399688721,2.293966054916382,9.290030479431152,2.6030900478363037
8_20251106_214625,1762436749546,8,0.28702929615974426,0.46168211102485657,0.45555588603019714,0.7049344778060913,0.7734174728393555,3.0438308715820312,1.3902432918548584,1.0048034191131592,10.050020217895508,4.147490978240967,-0.9189848899841309,-0.006410258822143078,-0.343313604593277,16.3646297454834,-32.99613952636719,10.009098052978516,-1.0313301086425781,0.6079921722412109,1.235520839691162,2.0361335277557373,9.442028045654297,2.9119701385498047
8_20251106_214625,1762436749565,8,0.293574720621109,0.45670241117477417,0.45120054483413696,0.7082759737968445,0.747551679611206,3.063695192337036,1.4291704893112183,0.3560027480125427,10.3265380859375,4.306698799133301,-0.8169704675674438,0.2727549076080322,-0.3970697224140167,16.67953109741211,-33.117279052734375,9.126607894897461,-1.344104528427124,0.7076082229614258,1.1157827377319336,1.7001073360443115,9.618929862976074,3.190916061401367
8_20251106_214625,1762436749584,8,0.29893818497657776,0.4497967064380646,0.44855543971061707,0.7121214270591736,0.6882627010345459,3.1027519702911377,1.5036925077438354,-0.5429813861846924,10.07156753540039,3.957159996032715,-0.8169704675674438,0.2727549076080322,-0.3970697224140167,16.969877243041992,-33.228660583496094,8.365047454833984,-1.4836504459381104,0.2477436065673828,0.4526650905609131,0.9406690001487732,9.823823928833008,3.5044949054718018
8_20251106_214625,1762436749604,8,0.3020801544189453,0.4417141377925873,0.4463930130004883,0.7171955704689026,0.6515591740608215,3.124159097671509,1.5429081916809082,-0.29040390253067017,10.123039245605469,3.550163745880127,-0.7522188425064087,0.6594322919845581,0.10383936762809753,17.164142608642578,-33.32128143310547,7.600091934204102,-0.9848583340644836,0.23937225341796875,0.036535024642944336,0.6944544315338135,9.8836669921875,3.5136287212371826
8_20251106_214625,1762436749623,8,0.3021219074726105,0.43443500995635986,0.4432009160518646,0.7235755324363708,0.6171213984489441,3.145249128341675,1.578108310699463,0.2159479558467865,10.528839111328125,3.4436264038085938,-0.7522188425064087,0.6594322919845581,0.10383936762809753,17.245014190673828,-33.484107971191406,6.856433868408203,-0.382805198431015,0.5161380767822266,-0.056001901626586914,0.5987531542778015,10.012701034545898,3.4996283054351807
8_20251106_214625,1762436749642,8,0.2999405562877655,0.430570513010025,0.4382011890411377,0.7298112511634827,0.6171213984489441,3.145249128341675,1.578108310699463,0.2159479558467865,10.528839111328125,3.4436264038085938,-0.5628507733345032,0.27703097462654114,0.7745689153671265,17.303653717041016,-33.587623596191406,6.302343368530273,-0.382805198431015,0.5161380767822266,-0.056001901626586914,0.5987531542778015,10.012701034545898,3.4996283054351807
8_20251106_214625,1762436749660,8,0.29623979330062866,0.4295750856399536,0.43231087923049927,0.735400915145874,0.5572119951248169,3.190995454788208,1.64789617061615,1.323218584060669,11.219537734985352,4.674192428588867,-0.42113012075424194,0.36927154660224915,0.8466508984565735,17.2131404876709,-33.75103759765625,5.754827499389648,0.5559742450714111,0.8079986572265625,0.8262252807617188,0.7672443389892578,10.411539077758789,3.8479671478271484
8_20251106_214625,1762436749679,8,0.2908514440059662,0.428437739610672,0.4273728132247925,0.7410796284675598,0.5331146717071533,3.215883255004883,1.684198260307312,2.015113115310669,11.098634719848633,4.5281524658203125,-0.42113012075424194,0.36927154660224915,0.8466508984565735,17.022926330566406,-33.95861053466797,5.21611213684082,0.9982950687408447,0.5496768951416016,0.5441484451293945,1.0168180465698242,10.548957824707031,3.984004020690918
8_20251106_214625,1762436749699,8,0.2841651439666748,0.4254816770553589,0.42388975620269775,0.7473506331443787,0.5331146717071533,3.215883255004883,1.684198260307312,2.015113115310669,11.098634719848633,4.5281524658203125,-0.3301112949848175,0.9007238745689392,0.7281430959701538,16.723249435424805,-34.16144561767578,4.7408294677734375,0.9982950687408447,0.5496768951416016,0.5441484451293945,1.0168180465698242,10.548957824707031,3.984004020690918
8_20251106_214625,1762436749719,8,0.27706378698349,0.42049819231033325,0.42123907804489136,0.754304051399231,0.5026390552520752,3.267488956451416,1.7562342882156372,3.3258824348449707,10.756278991699219,4.081653594970703,-0.3301112949848175,0.9007238745689392,0.7281430959701538,16.723249435424805,-34.16144561767578,4.7408294677734375,1.559009075164795,0.0970621109008789,0.05311107635498047,1.7668733596801758,10.65921688079834,4.028542518615723
8_20251106_214625,1762436749738,8,0.27108195424079895,0.4139729142189026,0.4188452959060669,0.7613866329193115,0.4965807795524597,3.2905468940734863,1.7893270254135132,3.4407989978790283,10.741914749145508,4.526955604553223,-0.5738463401794434,1.1462913751602173,0.26755109429359436,16.277957916259766,-34.34977722167969,4.368318557739258,1.3391404151916504,0.06615829467773438,0.3987302780151367,2.101658582687378,10.675756454467773,4.128225326538086
8_20251106_214625,1762436749757,8,0.2672883868217468,0.40507879853248596,0.41658225655555725,0.7687179446220398,0.4936258792877197,3.3127222061157227,1.8241875171661377,3.1223840713500977,10.774234771728516,5.375663757324219,-0.5738463401794434,1.1462913751602173,0.26755109429359436,15.793586730957031,-34.59031677246094,3.9527320861816406,0.8165802955627441,0.0787820816040039,0.997950553894043,2.3058037757873535,10.695452690124512,4.377713203430176
8_20251106_214625,1762436749775,8,0.26610520482063293,0.39137035608291626,0.41496410965919495,0.7770599126815796,0.4936258792877197,3.3127222061157227,1.8241875171661377,3.1223840713500977,10.774234771728516,5.375663757324219,-1.094303011894226,2.035710573196411,-0.642026424407959,15.29533576965332,-34.845550537109375,3.6715545654296875,0.8165802955627441,0.0787820816040039,0.997950553894043,2.3058037757873535,10.695452690124512,4.377713203430176
8_20251106_214625,1762436749795,8,0.26703083515167236,0.37052294611930847,0.41437602043151855,0.7872101068496704,0.4873068630695343,3.355595111846924,1.900789499282837,1.5123523473739624,10.72874641418457,6.248312473297119,-1.323377251625061,2.446211576461792,-1.0201516151428223,14.946643829345703,-35.02873992919922,3.4246139526367188,-0.6694585084915161,-0.024850845336914062,1.2686233520507812,2.1818108558654785,10.753597259521484,4.979689121246338
8_20251106_214625,1762436749813,8,0.2698412835597992,0.34423917531967163,0.41421762108802795,0.7981909513473511,0.47896817326545715,3.3724989891052246,1.9396435022354126,0.34762340784072876,10.010517120361328,6.324923515319824,-1.2763408422470093,2.574493408203125,-0.9871649742126465,14.68576431274414,-35.16815948486328,3.1278343200683594,-1.4673500061035156,-0.5944633483886719,1.0761876106262207,1.8149733543395996,10.60498046875,5.2487359046936035
8_20251106_214625,1762436749832,8,0.271511048078537,0.3168190121650696,0.41435185074806213,0.8088386654853821,0.46531277894973755,3.3865084648132324,1.981200098991394,-0.11443766951560974,9.532894134521484,6.194445610046387,-0.993510365486145,2.264173984527588,-0.3634721338748932,14.552383422851562,-35.199180603027344,2.8380699157714844,-1.5435287952423096,-0.8576698303222656,0.7565674781799316,1.4290910959243774,10.39056396484375,5.437878131866455
8_20251106_214625,1762436749852,8,0.2682980000972748,0.2944836914539337,0.4138451814651489,0.8185521960258484,0.4497816562652588,3.3986856937408447,2.0257809162139893,0.8120785355567932,9.78786563873291,6.4326581954956055,-0.5744571685791016,1.6459788084030151,0.6230744123458862,14.569068908691406,-35.14586639404297,2.6098403930664062,-0.49361008405685425,-0.4821586608886719,0.7958240509033203,1.3056886196136475,10.270024299621582,5.636834144592285
8_20251106_214625,1762436749871,8,0.2586820125579834,0.2818622589111328,0.41204890608787537,0.8269540667533875,0.4396061897277832,3.41037917137146,2.0690884590148926,2.705810546875,10.526445388793945,6.757058620452881,-0.046059202402830124,1.0173989534378052,1.4251399040222168,14.58275032043457,-35.131439208984375,2.5024642944335938,1.1200976371765137,0.2051372528076172,0.89617919921875,1.5857129096984863,10.321308135986328,5.860879421234131
8_20251106_214625,1762436749889,8,0.24375134706497192,0.27878260612487793,0.41048747301101685,0.8332859873771667,0.4396061897277832,3.41037917137146,2.0690884590148926,2.705810546875,10.526445388793945,6.757058620452881,0.38826560974121094,0.6637083292007446,1.745843768119812,14.522314071655273,-35.134735107421875,2.4324302673339844,1.1200976371765137,0.2051372528076172,0.89617919921875,1.5857129096984863,10.321308135986328,5.860879421234131
8_20251106_214625,1762436749910,8,0.22643211483955383,0.28105854988098145,0.4104212820529938,0.8374300003051758,0.4518589973449707,3.442455530166626,2.157761573791504,7.054691314697266,12.123309135437012,6.92584228515625,0.38826560974121094,0.6637083292007446,1.745843768119812,14.301246643066406,-35.18616485595703,2.368745803833008,3.826127052307129,1.2567052841186523,0.6742978096008301,3.2285642623901367,10.86660385131836,6.25154447555542
8_20251106_214625,1762436749929,8,0.21016286313533783,0.2836916148662567,0.412140816450119,0.8399348855018616,0.4802870452404022,3.464876174926758,2.203049421310425,8.414539337158203,12.384265899658203,6.569121837615967,0.6448287963867188,0.798098623752594,0.9926475882530212,14.041913986206055,-35.26549530029297,2.3436107635498047,4.14877986907959,1.2141294479370117,0.2540621757507324,4.265759468078613,11.170136451721191,6.315059661865234
8_20251106_214625,1762436749948,8,0.19762401282787323,0.28325510025024414,0.4158477485179901,0.8412978053092957,0.5187315940856934,3.487985372543335,2.2440474033355713,8.926876068115234,12.217876434326172,6.360835075378418,0.6448287963867188,0.798098623752594,0.9926475882530212,13.584613800048828,-35.384803771972656,2.5263614654541016,3.728893280029297,0.8381919860839844,0.036620140075683594,5.1979827880859375,11.379684448242188,6.324214935302734
8_20251106_214625,1762436749966,8,0.1902199536561966,0.2789213955402374,0.4213540256023407,0.8417125344276428,0.5621747374534607,3.509892702102661,2.280717372894287,8.789215087890625,11.830032348632812,6.23155403137207,0.5788553953170776,1.0137337446212769,-0.33415064215660095,13.063787460327148,-35.534812927246094,2.868326187133789,2.87298583984375,0.3602790832519531,-0.07412862777709961,5.916229248046875,11.46975326538086,6.30568265914917
8_20251106_214625,1762436749986,8,0.18756945431232452,0.2718062698841095,0.42821839451789856,0.8411706686019897,0.6136793494224548,3.5332388877868652,2.3203163146972656,7.774117469787598,11.542739868164062,6.599048137664795,0.5770227909088135,0.898891270160675,-0.7904665470123291,12.551525115966797,-35.7469482421875,3.2229785919189453,1.4863104820251465,0.058388710021972656,0.23469257354736328,6.287806987762451,11.48435115814209,6.364355564117432
8_20251106_214625,1762436750004,8,0.1889847218990326,0.26374876499176025,0.4359484910964966,0.8394464254379272,0.6579446792602539,3.553234577178955,2.3560307025909424,6.3807525634765625,11.498449325561523,7.11856746673584,0.6014573574066162,0.8286418318748474,-1.0995640754699707,12.002716064453125,-35.949859619140625,3.6710376739501953,0.0743560791015625,0.011278152465820312,0.6033697128295898,6.306396484375,11.487171173095703,6.51519775390625
8_20251106_214625,1762436750023,8,0.19303713738918304,0.2547595500946045,0.4444381296634674,0.8368446826934814,0.6579446792602539,3.553234577178955,2.3560307025909424,6.3807525634765625,11.498449325561523,7.11856746673584,0.7065261602401733,0.8720132112503052,-1.2938190698623657,11.708017349243164,-35.93717956542969,4.25477409362793,0.0743560791015625,0.011278152465820312,0.6033697128295898,6.306396484375,11.487171173095703,6.51519775390625
8_20251106_214625,1762436750043,8,0.19806164503097534,0.2443908005952835,0.45426225662231445,0.833480954170227,0.7327942252159119,3.5869338512420654,2.4309327602386475,3.695770502090454,10.038049697875977,6.277041912078857,0.9105548858642578,0.9502038955688477,-1.3139777183532715,11.63831901550293,-35.798133850097656,4.944328308105469,-1.8671166896820068,-1.0751056671142578,-0.295682430267334,5.562887191772461,11.113155364990234,6.572724342346191
8_20251106_214625,1762436750061,8,0.20234094560146332,0.233348548412323,0.46580928564071655,0.8292335867881775,0.7327942252159119,3.5869338512420654,2.4309327602386475,3.695770502090454,10.038049697875977,6.277041912078857,1.1469595432281494,0.8652936816215515,-1.1093379259109497,11.84196949005127,-35.53008270263672,5.795726776123047,-1.8671166896820068,-1.0751056671142578,-0.295682430267334,5.562887191772461,11.113155364990234,6.572724342346191
8_20251106_214625,1762436750081,8,0.20498734712600708,0.22424249351024628,0.4785204529762268,0.8238407969474792,0.7720297574996948,3.5981836318969727,2.479046583175659,2.7010226249694824,9.03611946105957,3.6171984672546387,1.1469595432281494,0.8652936816215515,-1.1093379259109497,12.182584762573242,-35.20293426513672,6.6400604248046875,-1.8762192726135254,-1.3607139587402344,-2.070615291595459,4.577241897583008,10.396833419799805,5.687813758850098
8_20251106_214625,1762436750100,8,0.20593729615211487,0.21975933015346527,0.49076375365257263,0.817585825920105,0.7720297574996948,3.5981836318969727,2.479046583175659,2.7010226249694824,9.03611946105957,3.6171984672546387,1.266078233718872,0.12675824761390686,-0.35492005944252014,12.676593780517578,-34.72893524169922,7.57427978515625,-1.8762192726135254,-1.3607139587402344,-2.070615291595459,4.577241897583008,10.396833419799805,5.687813758850098
8_20251106_214625,1762436750120,8,0.20588554441928864,0.22020316123962402,0.5014302730560303,0.810980498790741,0.7885076999664307,3.5941529273986816,2.498347282409668,3.054152011871338,9.216873168945312,3.344271183013916,1.2703542709350586,-0.10109429061412811,-0.12218058854341507,13.222362518310547,-34.201263427734375,8.48448371887207,-0.9309177398681641,-0.7400436401367188,-1.5109758377075195,3.985069751739502,9.956916809082031,4.8552470207214355
8_20251106_214625,1762436750141,8,0.20479266345500946,0.2233632355928421,0.5111734867095947,0.8042826056480408,0.7928803563117981,3.588677406311035,2.499342679977417,3.366581916809082,9.340169906616211,3.137181282043457,1.2459195852279663,-0.22937588393688202,-0.050709404051303864,13.697441101074219,-33.628662109375,9.446866989135742,-0.49479007720947266,-0.49339771270751953,-1.3744525909423828,3.8613719940185547,9.83356761932373,4.51163387298584
8_20251106_214625,1762436750158,8,0.20379941165447235,0.2278452068567276,0.5201914310455322,0.7974667549133301,0.7955297231674194,3.5834801197052,2.496710777282715,3.536562919616699,9.38446044921875,2.96480655670166,1.1952178478240967,-0.30084705352783203,-0.09957858175039291,13.697441101074219,-33.628662109375,9.446866989135742,-0.25984740257263184,-0.3592853546142578,-1.2374615669250488,3.796410322189331,9.743745803833008,4.202268123626709
8_20251106_214625,1762436750177,8,0.2035779356956482,0.23256511986255646,0.5286863446235657,0.7905442714691162,0.7955297231674194,3.5834801197052,2.496710777282715,3.536562919616699,9.38446044921875,2.96480655670166,1.09931218624115,-0.33077943325042725,-0.2290818989276886,14.197793006896973,-33.041648864746094,10.383462905883789,-0.25984740257263184,-0.3592853546142578,-1.2374615669250488,3.796410322189331,9.743745803833008,4.202268123626709
8_20251106_214625,1762436750196,8,0.20486421883106232,0.23683062195777893,0.5365235209465027,0.7836353778839111,0.7987776398658752,3.56948184967041,2.4825215339660645,3.450375556945801,9.204902648925781,3.173092842102051,1.035171389579773,-0.3478836417198181,-0.36469385027885437,14.610122680664062,-32.510292053222656,11.302053451538086,-0.2333369255065918,-0.3720560073852539,-0.6349227428436279,3.6837124824523926,9.576958656311035,3.8080155849456787
8_20251106_214625,1762436750215,8,0.20730333030223846,0.24032747745513916,0.5440500974655151,0.7767094373703003,0.7987776398658752,3.56948184967041,2.4825215339660645,3.450375556945801,9.204902648925781,3.173092842102051,1.0779317617416382,-0.4217982888221741,-0.5009167194366455,14.88891315460205,-31.975379943847656,12.242546081542969,-0.2333369255065918,-0.3720560073852539,-0.6349227428436279,3.6837124824523926,9.576958656311035,3.8080155849456787
8_20251106_214625,1762436750234,8,0.21083207428455353,0.24357005953788757,0.5519692897796631,0.7691250443458557,0.7986016869544983,3.5598742961883545,2.470947027206421,3.2636356353759766,9.043301582336426,2.859466075897217,1.154289960861206,-0.5616863369941711,-0.6047636866569519,15.120849609375,-31.429473876953125,13.019144058227539,-0.3360614776611328,-0.4269256591796875,-0.7588396072387695,3.5996971130371094,9.470227241516113,3.6183056831359863
8_20251106_214625,1762436750253,8,0.21568115055561066,0.24742387235164642,0.5603182911872864,0.7604646682739258,0.7928329706192017,3.5375893115997314,2.4414713382720947,2.5597705841064453,8.175439834594727,1.5750319957733154,1.154289960861206,-0.5616863369941711,-0.6047636866569519,15.379398345947266,-30.820945739746094,13.9737548828125,-0.7232029438018799,-0.8932085037231445,-1.4093964099884033,3.282973527908325,9.068648338317871,2.9844284057617188
8_20251106_214625,1762436750272,8,0.22155438363552094,0.25195878744125366,0.5681544542312622,0.7514193058013916,0.7862257361412048,3.5228872299194336,2.4194071292877197,2.3191637992858887,8.193395614624023,1.0040394067764282,1.1151946783065796,-0.7107372879981995,-0.6414155960083008,15.724125862121582,-30.217254638671875,14.715274810791016,-0.7710475921630859,-0.7002019882202148,-1.5843111276626587,3.0902113914489746,8.893597602844238,2.588350534439087
8_20251106_214625,1762436750292,8,0.22848044335842133,0.25668036937713623,0.5744076371192932,0.7429453134536743,0.7862257361412048,3.5228872299194336,2.4194071292877197,2.3191637992858887,8.193395614624023,1.0040394067764282,0.6564351916313171,-0.8946076035499573,-0.7043346166610718,16.05706214904785,-29.61382293701172,15.402236938476562,-0.7710475921630859,-0.7002019882202148,-1.5843111276626587,3.0902113914489746,8.893597602844238,2.588350534439087
8_20251106_214625,1762436750310,8,0.2368544191122055,0.26111266016960144,0.5786869525909424,0.7354192733764648,0.7761502265930176,3.5048747062683105,2.3921494483947754,2.153970956802368,8.125164031982422,1.3679423332214355,0.445076048374176,-0.8634534478187561,-0.7263257503509521,16.427953720092773,-28.9945068359375,15.996322631835938,-0.7489924430847168,-0.6147470474243164,-0.9763264656066895,2.902963399887085,8.739911079406738,2.344268798828125
8_20251106_214625,1762436750330,8,0.24561478197574615,0.264554500579834,0.581488311290741,0.7290786504745483,0.7545192837715149,3.4720730781555176,2.3444700241088867,2.2617053985595703,8.422032356262207,2.193906784057617,0.445076048374176,-0.8634534478187561,-0.7263257503509521,16.86420249938965,-28.295608520507812,16.567413330078125,-0.39106082916259766,-0.16609477996826172,-0.025557994842529297,2.652766227722168,8.588127136230469,2.2194647789001465
8_20251106_214625,1762436750349,8,0.25467440485954285,0.2675413489341736,0.5834211111068726,0.7233134508132935,0.7423393130302429,3.4562628269195557,2.3227550983428955,2.189882278442383,8.602787017822266,2.574568271636963,0.3601658344268799,-0.9031596779823303,-0.8002403974533081,17.33245849609375,-27.69329833984375,16.989181518554688,-0.37030720710754395,0.011727333068847656,0.28408288955688477,2.5601894855499268,8.591059684753418,2.290485382080078
8_20251106_214625,1762436750369,8,0.2641824781894684,0.2704513669013977,0.5854437351226807,0.7171605825424194,0.7423393130302429,3.4562628269195557,2.3227550983428955,2.189882278442383,8.602787017822266,2.574568271636963,0.3601658344268799,-0.9031596779823303,-0.8002403974533081,17.910770416259766,-27.09490966796875,17.266422271728516,-0.37030720710754395,0.011727333068847656,0.28408288955688477,2.5601894855499268,8.591059684753418,2.290485382080078
8_20251106_214625,1762436750387,8,0.27406221628189087,0.27319788932800293,0.5885196924209595,0.7098572850227356,0.7140117883682251,3.424891710281372,2.283670663833618,1.518337607383728,8.260431289672852,2.002378463745117,0.5049407482147217,-0.9263725280761719,-0.9022548198699951,18.513538360595703,-26.50641632080078,17.436248779296875,-0.7334369421005249,-0.22826480865478516,-0.28168439865112305,2.251774549484253,8.488696098327637,2.2840628623962402
8_20251106_214625,1762436750406,8,0.284037709236145,0.27553683519363403,0.5924763679504395,0.7016935348510742,0.7140117883682251,3.424891710281372,2.283670663833618,1.518337607383728,8.260431289672852,2.002378463745117,0.5678598284721375,-0.8744490146636963,-1.0335907936096191,19.216392517089844,-25.88483428955078,17.448333740234375,-0.7334369421005249,-0.22826480865478516,-0.28168439865112305,2.251774549484253,8.488696098327637,2.2840628623962402
8_20251106_214625,1762436750426,8,0.2943190634250641,0.2772463858127594,0.5963150858879089,0.6934832334518433,0.6743373870849609,3.3927462100982666,2.2393550872802734,0.4745106101036072,8.157485008239746,1.1764144897460938,0.4976103901863098,-0.8939967155456543,-1.0739078521728516,19.879262924194336,-25.328285217285156,17.444110870361328,-1.2291908264160156,-0.21944522857666016,-0.756010890007019,1.703701376914978,8.376930236816406,1.9324253797531128
8_20251106_214625,1762436750444,8,0.3051639795303345,0.27861911058425903,0.5997059345245361,0.6852730512619019,0.6508244872093201,3.3776683807373047,2.21736216545105,-0.17069897055625916,7.963562965393066,1.1692321300506592,0.4976103901863098,-0.8939967155456543,-1.0739078521728516,20.603160858154297,-24.76763153076172,17.428821563720703,-1.4995204210281372,-0.33069419860839844,-0.610554575920105,1.3288214206695557,8.294257164001465,1.7797867059707642
8_20251106_214625,1762436750464,8,0.31647932529449463,0.27963340282440186,0.6027970314025879,0.6769651174545288,0.6193288564682007,3.3599181175231934,2.191934823989868,-0.867381751537323,7.690634727478027,1.0519213676452637,0.4511846899986267,-0.9220964312553406,-1.1154465675354004,21.380035400390625,-24.128456115722656,17.41707992553711,-1.756962537765503,-0.4828977584838867,-0.5822923183441162,0.8895808458328247,8.173532485961914,1.6342136859893799
8_20251106_214625,1762436750482,8,0.32759708166122437,0.2800801694393158,0.6057671904563904,0.6687909364700317,0.586782693862915,3.343263626098633,2.1680915355682373,-1.391689419746399,7.573324203491211,0.7801912426948547,0.3754374384880066,-0.8286342024803162,-1.048862338066101,22.219135284423828,-23.471946716308594,17.32695770263672,-1.8250162601470947,-0.4801664352416992,-0.6832180619239807,0.4333268105983734,8.05349063873291,1.4634093046188354
8_20251106_214625,1762436750501,8,0.338047057390213,0.280239999294281,0.6083747148513794,0.6611126065254211,0.5479172468185425,3.3255934715270996,2.1419034004211426,-1.8369916677474976,7.700211524963379,0.6329541206359863,0.3754374384880066,-0.8286342024803162,-1.048862338066101,23.033554077148438,-22.82904052734375,17.181522369384766,-1.8162548542022705,-0.282623291015625,-0.664364218711853,-0.020736873149871826,7.982834815979004,1.2973183393478394
8_20251106_214625,1762436750521,8,0.34808680415153503,0.2808385193347931,0.6100206971168518,0.6540948152542114,0.5479172468185425,3.3255934715270996,2.1419034004211426,-1.8369916677474976,7.700211524963379,0.6329541206359863,0.19401061534881592,-0.8310776352882385,-0.817955493927002,23.85118865966797,-22.13536834716797,16.983078002929688,-1.8162548542022705,-0.282623291015625,-0.664364218711853,-0.020736873149871826,7.982834815979004,1.2973183393478394
8_20251106_214625,1762436750540,8,0.35761258006095886,0.2816309630870819,0.6107674241065979,0.6478891968727112,0.4548895061016083,3.290447473526001,2.090576410293579,-2.542053699493408,7.825901508331299,1.2482374906539917,0.12681549787521362,-0.6740854382514954,-0.6878412961959839,24.654138565063477,-21.469085693359375,16.932296752929688,-1.657311201095581,-0.09603261947631836,-0.0051724910736083984,-0.8847424983978271,7.921934127807617,1.2534099817276
8_20251106_214625,1762436750559,8,0.365609735250473,0.28183460235595703,0.611181914806366,0.6429272294044495,0.4548895061016083,3.290447473526001,2.090576410293579,-2.542053699493408,7.825901508331299,1.2482374906539917,0.12681549787521362,-0.6740854382514954,-0.6878412961959839,25.380027770996094,-20.894119262695312,16.741561889648438,-1.657311201095581,-0.09603261947631836,-0.0051724910736083984,-0.8847424983978271,7.921934127807617,1.2534099817276
8_20251106_214625,1762436750580,8,0.37213701009750366,0.281730979681015,0.6116306185722351,0.6387876868247986,0.3993784785270691,3.272928476333618,2.064368724822998,-2.7395668029785156,7.957576751708984,1.0447391271591187,0.08710931241512299,-0.457228422164917,-0.47403866052627563,26.07086753845215,-20.296287536621094,16.536365509033203,-1.4838595390319824,0.02851390838623047,-0.16693663597106934,-1.2557072639465332,7.929062843322754,1.211675763130188
8_20251106_214625,1762436750600,8,0.37767529487609863,0.2816491723060608,0.6119310855865479,0.6352759003639221,0.29056766629219055,3.2438371181488037,2.015341281890869,-2.9610209465026855,8.185016632080078,0.7550531625747681,-0.021013746038079262,-0.38697898387908936,-0.3628612756729126,26.710031509399414,-19.76361083984375,16.24679183959961,-1.1084465980529785,0.19119930267333984,-0.287067174911499,-1.852574348449707,7.993817329406738,1.042120337486267
8_20251106_214625,1762436750616,8,0.38238978385925293,0.2814115583896637,0.6115641593933105,0.6329098343849182,0.29056766629219055,3.2438371181488037,2.015341281890869,-2.9610209465026855,8.185016632080078,0.7550531625747681,-0.1352454572916031,-0.33566635847091675,-0.2645120322704315,26.710031509399414,-19.76361083984375,16.24679183959961,-1.1084465980529785,0.19119930267333984,-0.287067174911499,-1.852574348449707,7.993817329406738,1.042120337486267
8_20251106_214625,1762436750635,8,0.3865564167499542,0.28105050325393677,0.6103998422622681,0.6316618919372559,0.1924847960472107,3.224052906036377,1.9751945734024048,-2.8999714851379395,8.590816497802734,1.3858981132507324,-0.1352454572916031,-0.33566635847091675,-0.2645120322704315,27.295122146606445,-19.322555541992188,16.00747299194336,-0.6726326942443848,0.40755271911621094,0.2887763977050781,-2.2273387908935547,8.183263778686523,1.0971217155456543
8_20251106_214625,1762436750654,8,0.3902716040611267,0.2806215286254883,0.6089920401573181,0.6309265494346619,0.13983072340488434,3.2165825366973877,1.9564526081085205,-3.0914993286132812,8.852970123291016,1.4517358541488647,-0.12547162175178528,-0.22387810051441193,-0.17593668401241302,27.73779296875,-19.052398681640625,15.651199340820312,-0.6913285255432129,0.5357646942138672,0.28369128704071045,-2.4001708030700684,8.317205429077148,1.1680445671081543
8_20251106_214625,1762436750673,8,0.3932456374168396,0.2801314890384674,0.607938289642334,0.6303135752677917,0.087784543633461,3.21151065826416,1.9389433860778809,-3.1381843090057373,9.05527114868164,1.275769591331482,-0.10836739838123322,-0.1072029396891594,-0.08919388800859451,28.121267318725586,-18.737464904785156,15.442207336425781,-0.5904107093811035,0.5904531478881836,0.08618009090423584,-2.547773599624634,8.464818000793457,1.189589500427246
8_20251106_214625,1762436750692,8,0.3948824107646942,0.27937641739845276,0.6072453856468201,0.6302933692932129,0.03736452758312225,3.2084994316101074,1.9223424196243286,-2.903562545776367,9.123503684997559,1.2015526294708252,-0.13158026337623596,-0.09009872376918793,0.015874847769737244,28.41248893737793,-18.55352783203125,15.213626861572266,-0.28463101387023926,0.5269489288330078,0.009570479393005371,-2.618931531906128,8.59655475616455,1.1919821500778198
8_20251106_214625,1762436750711,8,0.3958129584789276,0.27903732657432556,0.6062405705451965,0.6308269500732422,0.03736452758312225,3.2084994316101074,1.9223424196243286,-2.903562545776367,9.123503684997559,1.2015526294708252,-0.13585633039474487,-0.10903553664684296,0.11178060621023178,28.700593948364258,-18.42021942138672,15.024539947509766,-0.28463101387023926,0.5269489288330078,0.009570479393005371,-2.618931531906128,8.59655475616455,1.1919821500778198
8_20251106_214625,1762436750731,8,0.3963392376899719,0.27948832511901855,0.604839026927948,0.6316417455673218,-0.05881580337882042,3.207744598388672,1.894142508506775,-2.51212739944458,9.415582656860352,1.6456577777862549,-0.11264345794916153,-0.040618687868118286,0.15454113483428955,28.876205444335938,-18.34429168701172,14.82998275756836,0.09670090675354004,0.5703363418579102,0.29686427116394043,-2.60882830619812,8.845246315002441,1.3487935066223145
8_20251106_214625,1762436750750,8,0.39608070254325867,0.2797917425632477,0.6036756038665771,0.6327815055847168,-0.05881580337882042,3.207744598388672,1.894142508506775,-2.51212739944458,9.415582656860352,1.6456577777862549,-0.11264345794916153,-0.040618687868118286,0.15454113483428955,28.975881576538086,-18.32335662841797,14.631423950195312,0.09670090675354004,0.5703363418579102,0.29686427116394043,-2.60882830619812,8.845246315002441,1.3487935066223145
8_20251106_214625,1762436750770,8,0.39546287059783936,0.2799375653266907,0.6028077006340027,0.6339297294616699,-0.10536755621433258,3.2108304500579834,1.880861520767212,-2.277505874633789,9.558032035827637,1.4050508737564087,-0.11325431615114212,0.05162188783288002,0.1569845825433731,29.03679847717285,-18.33100128173828,14.538997650146484,0.2650578022003174,0.5702285766601562,0.0450059175491333,-2.5425636768341064,8.98780345916748,1.3600449562072754
8_20251106_214625,1762436750789,8,0.39469122886657715,0.27989625930786133,0.6019426584243774,0.6352494955062866,-0.17816506326198578,3.220571279525757,1.859712839126587,-1.9914109706878662,9.660978317260742,1.36195707321167,-0.13096940517425537,0.11331922560930252,0.15148679912090302,29.11664581298828,-18.437240600585938,14.418407440185547,0.3738057613372803,0.4367694854736328,-0.01639688014984131,-2.3652167320251465,9.22420883178711,1.3783539533615112
8_20251106_214625,1762436750808,8,0.39360421895980835,0.2793792486190796,0.6012081503868103,0.6368451118469238,-0.17816506326198578,3.220571279525757,1.859712839126587,-1.9914109706878662,9.660978317260742,1.36195707321167,-0.15906918048858643,0.13164515793323517,0.1478216052055359,29.057323455810547,-18.41582489013672,14.389450073242188,0.3738057613372803,0.4367694854736328,-0.01639688014984131,-2.3652167320251465,9.22420883178711,1.3783539533615112
8_20251106_214625,1762436750827,8,0.3925229609012604,0.27869391441345215,0.6003738045692444,0.6385974287986755,-0.2405051440000534,3.2349536418914795,1.8395065069198608,-1.7543952465057373,9.787866592407227,1.3679423332214355,-0.17861685156822205,0.12736912071704865,0.15881717205047607,29.027299880981445,-18.52947998046875,14.291481018066406,0.4112277030944824,0.3712749481201172,0.0067435503005981445,-2.1656229496002197,9.41659164428711,1.3611987829208374
8_20251106_214625,1762436750845,8,0.39144596457481384,0.27806589007377625,0.5993746519088745,0.640468180179596,-0.2405051440000534,3.2349536418914795,1.8395065069198608,-1.7543952465057373,9.787866592407227,1.3679423332214355,-0.17739513516426086,0.14447332918643951,0.17897571623325348,28.98328399658203,-18.669586181640625,14.246559143066406,0.4112277030944824,0.3712749481201172,0.0067435503005981445,-2.1656229496002197,9.41659164428711,1.3611987829208374
8_20251106_214625,1762436750866,8,0.3901313841342926,0.27746570110321045,0.5983734130859375,0.6424636840820312,-0.29033762216567993,3.253041982650757,1.8216677904129028,-1.359368920326233,9.877644538879395,1.3847010135650635,-0.17739513516426086,0.14447332918643951,0.17897571623325348,28.87822723388672,-18.825408935546875,14.117820739746094,0.5535420179367065,0.27936840057373047,0.01006162166595459,-1.9129109382629395,9.598276138305664,1.3746393918991089
8_20251106_214625,1762436750884,8,0.3887847661972046,0.27726489305496216,0.5973275303840637,0.6443371772766113,-0.29033762216567993,3.253041982650757,1.8216677904129028,-1.359368920326233,9.877644538879395,1.3847010135650635,-0.15601485967636108,0.11820614337921143,0.1991342455148697,28.73491859436035,-18.997520446777344,14.122512817382812,0.5535420179367065,0.27936840057373047,0.01006162166595459,-1.9129109382629395,9.598276138305664,1.3746393918991089
8_20251106_214625,1762436750903,8,0.3876473903656006,0.2777729630470276,0.5961742997169495,0.6458699107170105,-0.32788366079330444,3.2734572887420654,1.80666983127594,-1.037362813949585,10.046428680419922,1.548696756362915,-0.10225874930620193,0.04001545533537865,0.21501673758029938,28.640960693359375,-19.154037475585938,14.1429443359375,0.5908037424087524,0.29467010498046875,0.11867475509643555,-1.6281665563583374,9.751758575439453,1.4300220012664795
8_20251106_214625,1762436750922,8,0.38643112778663635,0.2783525288105011,0.595104992389679,0.6473336815834045,-0.3423016369342804,3.284247875213623,1.8003593683242798,-0.9164607524871826,10.066778182983398,1.5846083164215088,-0.10653480142354965,0.07422388345003128,0.1734779328107834,28.497751235961914,-19.326019287109375,14.134117126464844,0.5693646669387817,0.2520160675048828,0.12366914749145508,-1.4858254194259644,9.814762115478516,1.4609391689300537
8_20251106_214625,1762436750941,8,0.3852795362472534,0.2785051465034485,0.5942209959030151,0.648764967918396,-0.3538080155849457,3.29476261138916,1.794822335243225,-0.8889285922050476,10.140995025634766,1.518770694732666,-0.12302815169095993,0.12309306114912033,0.11788926273584366,28.394920349121094,-19.43242645263672,14.087532043457031,0.4775175452232361,0.260986328125,0.046265244483947754,-1.3664461374282837,9.880008697509766,1.4725054502487183
8_20251106_214625,1762436750960,8,0.3841986060142517,0.2779703140258789,0.5935607552528381,0.6502380967140198,-0.3641479015350342,3.3057467937469482,1.789492130279541,-0.9296282529830933,10.040443420410156,1.5534851551055908,-0.12363900989294052,0.1298125684261322,0.08856775611639023,28.32040023803711,-19.675254821777344,14.107097625732422,0.34945428371429443,0.12834739685058594,0.06478381156921387,-1.2790825366973877,9.91209602355957,1.488701343536377
8_20251106_214625,1762436750979,8,0.3833589553833008,0.2773335576057434,0.5929659605026245,0.6515468955039978,-0.3734181821346283,3.317030191421509,1.7842168807983398,-0.9272342324256897,10.010517120361328,1.5068001747131348,-0.11569777876138687,0.12187132239341736,0.08368083089590073,28.2005615234375,-19.858604431152344,14.139537811279297,0.2814787030220032,0.07873725891113281,0.01447904109954834,-1.2087129354476929,9.931779861450195,1.4923211336135864
8_20251106_214625,1762436750999,8,0.38250747323036194,0.2766645550727844,0.5924352407455444,0.6528133153915405,-0.3815038800239563,3.3277485370635986,1.7795733213424683,-0.9715250134468079,9.931511878967285,1.613337516784668,-0.1040913462638855,0.07483474910259247,0.0745178610086441,28.097942352294922,-19.953125,14.160797119140625,0.18975037336349487,-0.00021457672119140625,0.09681308269500732,-1.1612753868103027,9.931726455688477,1.5165244340896606
8_20251106_214625,1762436751019,8,0.3819180428981781,0.27625736594200134,0.5918503403663635,0.6538605690002441,-0.38853204250335693,3.338141441345215,1.7757765054702759,-0.946386992931366,10.000940322875977,1.7186778783798218,-0.09187405556440353,0.02901989221572876,0.11239147931337357,28.055843353271484,-20.055831909179688,14.143699645996094,0.17191070318222046,0.05537128448486328,0.16172277927398682,-1.1182976961135864,9.945569038391113,1.556955099105835
8_20251106_214625,1762436751036,8,0.38136589527130127,0.27640166878700256,0.5910496711730957,0.6548453569412231,-0.3936009705066681,3.346552848815918,1.7734417915344238,-0.8422436714172363,9.954256057739258,1.8898558616638184,-0.05400043725967407,-0.01190804410725832,0.1264413595199585,28.055843353271484,-20.055831909179688,14.143699645996094,0.22084319591522217,0.006949424743652344,0.2663205862045288,-1.0630868673324585,9.947306632995605,1.6235352754592896
8_20251106_214625,1762436751056,8,0.3809274137020111,0.27707213163375854,0.5902565717697144,0.6555322408676147,-0.3986676335334778,3.3560149669647217,1.7715692520141602,-0.8661847114562988,9.967423439025879,1.865915060043335,-0.013072504661977291,0.0076396269723773,0.1056719645857811,28.0146484375,-20.145713806152344,14.099830627441406,0.15752172470092773,0.01609325408935547,0.19390380382537842,-1.0237064361572266,9.951330184936523,1.6720112562179565
8_20251106_214625,1762436751075,8,0.3803549110889435,0.277607798576355,0.5898295044898987,0.6560222506523132,-0.3986676335334778,3.3560149669647217,1.7715692520141602,-0.8661847114562988,9.967423439025879,1.865915060043335,0.001588248647749424,0.0528436154127121,0.08368083089590073,27.93478012084961,-20.275650024414062,14.053699493408203,0.15752172470092773,0.01609325408935547,0.19390380382537842,-1.0237064361572266,9.951330184936523,1.6720112562179565
8_20251106_214625,1762436751094,8,0.3795999586582184,0.27775847911834717,0.5897361636161804,0.6564794778823853,-0.40574756264686584,3.3725032806396484,1.7674516439437866,-0.7297210693359375,9.947072982788086,1.487647294998169,0.001588248647749424,0.0528436154127121,0.08368083089590073,27.916954040527344,-20.37689971923828,14.051097869873047,0.2002168893814087,0.002063751220703125,-0.13618814945220947,-0.9299379587173462,9.945009231567383,1.6238354444503784
8_20251106_214625,1762436751114,8,0.37906986474990845,0.27796420454978943,0.5893449187278748,0.657049834728241,-0.4079338014125824,3.3804023265838623,1.7656248807907104,-0.6555039882659912,10.045230865478516,1.7342395782470703,-0.08454367518424988,0.0003092503175139427,0.07818304747343063,27.838396072387695,-20.481849670410156,14.019012451171875,0.21954715251922607,0.08017730712890625,0.08832335472106934,-0.8750511407852173,9.96505355834961,1.645916223526001
8_20251106_214625,1762436751132,8,0.37892183661460876,0.27823421359062195,0.5885523557662964,0.6577309966087341,-0.4095134735107422,3.3882315158843994,1.7643485069274902,-0.6938095092773438,10.083537101745605,1.8132447004318237,-0.06316341459751129,0.047345831990242004,0.02748127654194832,27.798919677734375,-20.534591674804688,14.03000259399414,0.14499330520629883,0.0947866439819336,0.13386285305023193,-0.8388028144836426,9.988750457763672,1.6793818473815918
8_20251106_214625,1762436751151,8,0.3786369860172272,0.2778703570365906,0.5882149934768677,0.6583503484725952,-0.4095134735107422,3.3882315158843994,1.7643485069274902,-0.6938095092773438,10.083537101745605,1.8132447004318237,-0.04056141525506973,0.10659971833229065,-0.011614064686000347,27.8090763092041,-20.58294677734375,13.921306610107422,0.14499330520629883,0.0947866439819336,0.13386285305023193,-0.8388028144836426,9.988750457763672,1.6793818473815918
8_20251106_214625,1762436751171,8,0.3782493472099304,0.27701690793037415,0.5883141160011292,0.6588441133499146,-0.41172102093696594,3.4025328159332275,1.7607510089874268,-0.7596472501754761,9.959044456481934,1.4265978336334229,-0.04789179563522339,0.04123718664050102,-0.0030619585886597633,27.816328048706055,-20.67005157470703,13.91994857788086,0.047212064266204834,-0.01862812042236328,-0.18265831470489502,-0.8068593144416809,9.977672576904297,1.6092561483383179
8_20251106_214625,1762436751190,8,0.3783112168312073,0.27672165632247925,0.5880990624427795,0.6591245532035828,-0.41172102093696594,3.4025328159332275,1.7607510089874268,-0.7596472501754761,9.959044456481934,1.4265978336334229,-0.05522216856479645,-0.03512090444564819,0.021372631192207336,27.7895450592041,-20.709716796875,13.958724975585938,0.047212064266204834,-0.01862812042236328,-0.18265831470489502,-0.8068593144416809,9.977672576904297,1.6092561483383179
8_20251106_214625,1762436751209,8,0.3785999119281769,0.27697083353996277,0.5875482559204102,0.6593453884124756,-0.41323205828666687,3.41511869430542,1.7580562829971313,-0.7847853302955627,9.848915100097656,1.808456540107727,-0.011850775219500065,-0.03267744556069374,0.009766200557351112,27.81089973449707,-20.758628845214844,13.98568344116211,0.008764564990997314,-0.09427928924560547,0.13763916492462158,-0.7935498952865601,9.943194389343262,1.6708173751831055
8_20251106_214625,1762436751229,8,0.3788438141345978,0.2772584855556488,0.5872620940208435,0.6593393087387085,-0.4140504002571106,3.4208858013153076,1.7570066452026367,-0.832667350769043,9.936300277709961,1.6648106575012207,-0.011850775219500065,-0.03267744556069374,0.009766200557351112,27.811098098754883,-20.75836181640625,13.95865249633789,-0.03129392862319946,-0.005515098571777344,-0.004805445671081543,-0.8013734221458435,9.941815376281738,1.6696161031723022
8_20251106_214625,1762436751247,8,0.37911054491996765,0.2772042155265808,0.586858868598938,0.6595677733421326,-0.41504231095314026,3.4261038303375244,1.7566603422164917,-0.9200519323348999,10.058399200439453,1.8934470415115356,-0.06927205622196198,-0.04306214675307274,-0.0036728233098983765,27.772016525268555,-20.810569763183594,13.915576934814453,-0.09494280815124512,0.09326744079589844,0.17906475067138672,-0.8251091241836548,9.965131759643555,1.714382290840149
8_20251106_214625,1762436751266,8,0.3796733617782593,0.27718308568000793,0.5862037539482117,0.6598354578018188,-0.41635987162590027,3.431506872177124,1.7574841976165771,-0.9427958130836487,10.027275085449219,2.1412363052368164,-0.06927205622196198,-0.04306214675307274,-0.0036728233098983765,27.707759857177734,-20.877059936523438,13.884773254394531,-0.09414941072463989,0.04971504211425781,0.3414832353591919,-0.8486464023590088,9.977560043334961,1.7997530698776245
8_20251106_214625,1762436751286,8,0.3799554705619812,0.2765551507472992,0.5856417417526245,0.6604353189468384,-0.41635987162590027,3.431506872177124,1.7574841976165771,-0.9427958130836487,10.027275085449219,2.1412363052368164,0.00464257225394249,0.04978929087519646,-0.013446659781038761,27.658000946044922,-20.904815673828125,13.828216552734375,-0.09414941072463989,0.04971504211425781,0.3414832353591919,-0.8486464023590088,9.977560043334961,1.7997530698776245
8_20251106_214625,1762436751304,8,0.3798505663871765,0.2755362093448639,0.5855125188827515,0.6610358953475952,-0.42017707228660583,3.44073486328125,1.7598912715911865,-1.0589096546173096,9.725619316101074,1.6827664375305176,0.044959645718336105,0.08766290545463562,0.006101012229919434,27.584489822387695,-20.910118103027344,13.879337310791016,-0.1378244161605835,-0.1997394561767578,-0.12754154205322266,-0.9210852384567261,9.925358772277832,1.8103079795837402
8_20251106_214625,1762436751323,8,0.37932178378105164,0.27449101209640503,0.5859153270721436,0.6614173054695129,-0.4225519895553589,3.44411039352417,1.7597695589065552,-1.0002542734146118,9.63224983215332,1.4457505941390991,0.044348783791065216,0.03268508240580559,0.054970189929008484,27.534534454345703,-20.938140869140625,13.849815368652344,-0.06333523988723755,-0.23448753356933594,-0.291645884513855,-0.9369190335273743,9.866737365722656,1.737396478652954
8_20251106_214625,1762436751343,8,0.37884074449539185,0.27431172132492065,0.5862690210342407,0.6614540219306946,-0.4247180223464966,3.4466285705566406,1.7594703435897827,-0.945189893245697,9.67414665222168,1.6684017181396484,0.024190247058868408,-0.03328831121325493,0.1056719645857811,27.498075485229492,-20.940391540527344,13.834827423095703,-0.006616652011871338,-0.15407276153564453,-0.05519580841064453,-0.9385732412338257,9.828219413757324,1.723597526550293
8_20251106_214625,1762436751362,8,0.37848249077796936,0.27506953477859497,0.5862773060798645,0.6613370180130005,-0.42661306262016296,3.4487109184265137,1.7593709230422974,-0.8494259715080261,9.684919357299805,1.7893037796020508,0.018081597983837128,-0.007631991989910603,0.10261764377355576,27.413578033447266,-20.933258056640625,13.81814193725586,0.07131785154342651,-0.1146402359008789,0.05256509780883789,-0.9207438230514526,9.799559593200684,1.736738681793213
8_20251106_214625,1762436751380,8,0.3779970407485962,0.27547770738601685,0.5861111283302307,0.6615920066833496,-0.42661306262016296,3.4487109184265137,1.7593709230422974,-0.8494259715080261,9.684919357299805,1.7893037796020508,-0.006352992728352547,0.04795669764280319,0.07879392057657242,27.36302947998047,-20.96208953857422,13.86971664428711,0.07131785154342651,-0.1146402359008789,0.05256509780883789,-0.9207438230514526,9.799559593200684,1.736738681793213
8_20251106_214625,1762436751400,8,0.3773391544818878,0.27530303597450256,0.5858980417251587,0.6622287034988403,-0.42872464656829834,3.451533555984497,1.7584971189498901,-0.7273269295692444,9.723224639892578,1.58221435546875,-0.030787579715251923,0.05040016025304794,0.06902007758617401,27.303199768066406,-20.952964782714844,13.81346321105957,0.13202250003814697,-0.04253387451171875,-0.11211097240447998,-0.8593494296073914,9.765758514404297,1.69432532787323
8_20251106_214625,1762436751420,8,0.37674540281295776,0.27518123388290405,0.5856494307518005,0.662837028503418,-0.42919352650642395,3.4528651237487793,1.7577444314956665,-0.7404944896697998,9.763925552368164,1.6528401374816895,-0.030787579715251923,0.021078649908304214,0.06352229416370392,27.288715362548828,-20.980087280273438,13.934089660644531,0.09508395195007324,-0.0014667510986328125,-0.0331881046295166,-0.835578441619873,9.765392303466797,1.686028242111206
8_20251106_214625,1762436751440,8,0.37638795375823975,0.2754281163215637,0.5853402614593506,0.6632105708122253,-0.4293535649776459,3.45428204536438,1.7571831941604614,-0.741691529750824,9.815398216247559,1.736633539199829,-0.015515963546931744,0.004585303366184235,0.06779834628105164,27.27582550048828,-20.993438720703125,13.933334350585938,0.07510954141616821,0.040004730224609375,0.04048418998718262,-0.8168010711669922,9.77539348602295,1.6961493492126465
8_20251106_214625,1762436751458,8,0.3759664297103882,0.2756737172603607,0.5850591659545898,0.6635955572128296,-0.429206520318985,3.455578565597534,1.756653070449829,-0.7105682492256165,9.781881332397461,1.6875545978546143,-0.007574722170829773,0.011304815299808979,0.06352229416370392,27.23453140258789,-21.083450317382812,13.902984619140625,0.08498626947402954,0.0051898956298828125,-0.006875872611999512,-0.795554518699646,9.776691436767578,1.6944304704666138
8_20251106_214625,1762436751476,8,0.37558838725090027,0.27585840225219727,0.584774374961853,0.6639837622642517,-0.42863205075263977,3.45670223236084,1.7558023929595947,-0.616001307964325,9.759137153625488,1.542711615562439,-0.007574722170829773,0.011304815299808979,0.06352229416370392,27.23453140258789,-21.083450317382812,13.902984619140625,0.14364254474639893,-0.014043807983398438,-0.1213752031326294,-0.7596438527107239,9.773180961608887,1.6640868186950684
8_20251106_214625,1762436751496,8,0.3752966821193695,0.27614152431488037,0.5846124291419983,0.6641736030578613,-0.4277709424495697,3.457805633544922,1.7545937299728394,-0.6758538484573364,9.745969772338867,1.5618643760681152,0.006475166417658329,0.002141844481229782,0.04947240650653839,27.257902145385742,-21.094825744628906,13.944252014160156,0.06703197956085205,-0.021768569946289062,-0.08177804946899414,-0.7428858280181885,9.767738342285156,1.6436424255371094
8_20251106_214625,1762436751514,8,0.375352680683136,0.27664461731910706,0.584559977054596,0.6639786958694458,-0.4272204041481018,3.4585745334625244,1.752854824066162,-0.8183027505874634,9.696889877319336,1.3571689128875732,0.010751218535006046,-0.01984928548336029,0.008544471114873886,27.23131561279297,-21.13421630859375,13.95599365234375,-0.06033354997634888,-0.05667877197265625,-0.22917890548706055,-0.7579692006111145,9.753568649291992,1.5863478183746338
8_20251106_214625,1762436751534,8,0.3756124973297119,0.27654948830604553,0.5847256183624268,0.6637254953384399,-0.427412211894989,3.459301233291626,1.7497550249099731,-1.0122246742248535,9.725619316101074,1.1704292297363281,-0.03445276990532875,0.030241619795560837,-0.07208966463804245,27.204631805419922,-21.173744201660156,13.981254577636719,-0.20340436697006226,-0.022359848022460938,-0.3327348232269287,-0.8088203072547913,9.747979164123535,1.5031640529632568
8_20251106_214625,1762436751553,8,0.3760957717895508,0.2759978175163269,0.5850833058357239,0.6633661985397339,-0.4285966157913208,3.4602832794189453,1.746205449104309,-1.177417516708374,9.866870880126953,1.2290846109390259,-0.11264345049858093,0.051011018455028534,-0.059872373938560486,27.204421997070312,-21.185623168945312,13.913410186767578,-0.2948777675628662,0.09511375427246094,-0.21926355361938477,-0.8825397491455078,9.771757125854492,1.4483481645584106
8_20251106_214625,1762436751572,8,0.3766602575778961,0.2750224173069,0.5853085517883301,0.6632522940635681,-0.4285966157913208,3.4602832794189453,1.746205449104309,-1.177417516708374,9.866870880126953,1.2290846109390259,-0.16212350130081177,0.07483474910259247,-0.037270382046699524,27.23886489868164,-21.220909118652344,13.91408920288086,-0.2948777675628662,0.09511375427246094,-0.21926355361938477,-0.8825397491455078,9.771757125854492,1.4483481645584106
8_20251106_214625,1762436751591,8,0.3772446811199188,0.27370744943618774,0.5852852463722229,0.6634846329689026,-0.43344035744667053,3.4646077156066895,1.7397656440734863,-1.2145259380340576,10.133813858032227,1.59657883644104,-0.14624102413654327,0.05650880187749863,-0.015279253013432026,27.302600860595703,-21.178321838378906,13.82271957397461,-0.20978975296020508,0.23995208740234375,0.12359678745269775,-1.0047361850738525,9.893861770629883,1.4729820489883423
8_20251106_214625,1762436751611,8,0.37773993611335754,0.2725082039833069,0.5851325392723083,0.6638311147689819,-0.4367881715297699,3.4679417610168457,1.737820029258728,-1.2121319770812988,10.162542343139648,1.7916978597640991,-0.08881973475217819,-0.014962366782128811,0.0232052244246006,27.299161911010742,-21.252586364746094,13.713005065917969,-0.16591668128967285,0.21494483947753906,0.2549726963043213,-1.046215295791626,9.94759750366211,1.5367251634597778
8_20251106_214625,1762436751630,8,0.37822961807250977,0.2720743417739868,0.5848122239112854,0.6640124917030334,-0.44002076983451843,3.4714131355285645,1.7376009225845337,-1.1965702772140503,10.199650764465332,2.1232805252075195,-0.06071994826197624,-0.06505326926708221,0.089789479970932,27.337736129760742,-21.212669372558594,13.728784561157227,-0.12028396129608154,0.2016429901123047,0.46924424171447754,-1.0762863159179688,9.998007774353027,1.654036283493042
8_20251106_214625,1762436751649,8,0.3785037398338318,0.27225103974342346,0.5841501951217651,0.6643664836883545,-0.44002076983451843,3.4714131355285645,1.7376009225845337,-1.1965702772140503,10.199650764465332,2.1232805252075195,-0.03445276990532875,-0.05344684422016144,0.1527085304260254,27.30016326904297,-21.2396240234375,13.672719955444336,-0.12028396129608154,0.2016429901123047,0.46924424171447754,-1.0762863159179688,9.998007774353027,1.654036283493042
8_20251106_214625,1762436751667,8,0.378127783536911,0.27238863706588745,0.5832910537719727,0.665278434753418,-0.44546815752983093,3.4795339107513428,1.7439154386520386,-0.7740118503570557,10.047626495361328,2.5614006519317627,-0.03445276990532875,-0.05344684422016144,0.1527085304260254,27.249488830566406,-21.29181671142578,13.548055648803711,0.23520874977111816,0.004559516906738281,0.5874166488647461,-1.0092206001281738,10.04306697845459,1.9739840030670166
8_20251106_214625,1762436751687,8,0.3771432340145111,0.2725103795528412,0.5826539397239685,0.6663448214530945,-0.44667375087738037,3.482924699783325,1.7483948469161987,-0.6734597682952881,9.909964561462402,2.1915125846862793,0.05656607449054718,-0.018627554178237915,0.16492582857608795,27.2580509185791,-21.35394287109375,13.56074333190918,0.2686086893081665,-0.10648155212402344,0.17402291297912598,-0.9420684576034546,10.016446113586426,2.0174896717071533
8_20251106_214625,1762436751705,8,0.3761162757873535,0.27311521768569946,0.5825201272964478,0.6667945384979248,-0.44667375087738037,3.482924699783325,1.7483948469161987,-0.6734597682952881,9.909964561462402,2.1915125846862793,0.17629554867744446,-0.02351447194814682,0.0647440254688263,27.230449676513672,-21.41791534423828,13.517894744873047,0.2686086893081665,-0.10648155212402344,0.17402291297912598,-0.9420684576034546,10.016446113586426,2.0174896717071533
8_20251106_214625,1762436751725,8,0.3753083348274231,0.2738382816314697,0.5829159021377563,0.6666072607040405,-0.447672039270401,3.4878852367401123,1.754927635192871,-0.8362584710121155,9.724422454833984,1.6935398578643799,0.12986983358860016,0.014970003627240658,0.006711876951158047,27.180999755859375,-21.43364715576172,13.515668869018555,0.053928375244140625,-0.21255970001220703,-0.2255229949951172,-0.8901868462562561,9.936982154846191,1.919062852859497
8_20251106_214625,1762436751744,8,0.3749622106552124,0.27419260144233704,0.5836421847343445,0.6660206913948059,-0.4479275941848755,3.4885857105255127,1.7569619417190552,-0.8530171513557434,9.510150909423828,1.7282543182373047,0.0816115289926529,0.07972166687250137,-0.040324706584215164,27.068208694458008,-21.491424560546875,13.550748825073242,0.0297357439994812,-0.3414649963378906,-0.15264678001403809,-0.8827528953552246,9.851615905761719,1.8809010982513428
8_20251106_214625,1762436751763,8,0.37469208240509033,0.27361276745796204,0.5845585465431213,0.6656073927879333,-0.4479738473892212,3.48810076713562,1.7585972547531128,-0.8111204504966736,9.432341575622559,1.7725450992584229,0.025411974638700485,0.14752764999866486,-0.07086794823408127,27.067319869995117,-21.492637634277344,13.672395706176758,0.057305991649627686,-0.3354196548461914,-0.08668482303619385,-0.8684264421463013,9.76776123046875,1.8592299222946167
8_20251106_214625,1762436751781,8,0.3743279278278351,0.27208274602890015,0.5854027271270752,0.6656975746154785,-0.44774171710014343,3.486835479736328,1.759967565536499,-0.7572531700134277,9.431144714355469,1.81803297996521,-0.003909533843398094,0.1762382835149765,-0.09896772354841232,27.066417694091797,-21.505462646484375,13.699165344238281,0.0889386534690857,-0.26929283142089844,-0.03295755386352539,-0.8461918234825134,9.700437545776367,1.8509905338287354
8_20251106_214625,1762436751801,8,0.37405917048454285,0.27017736434936523,0.586124062538147,0.665989875793457,-0.44774171710014343,3.486835479736328,1.759967565536499,-0.7572531700134277,9.431144714355469,1.81803297996521,-0.010018181055784225,0.16218839585781097,-0.12340231984853745,27.040340423583984,-21.532569885253906,13.738204956054688,0.0889386534690857,-0.26929283142089844,-0.03295755386352539,-0.8461918234825134,9.700437545776367,1.8509905338287354
8_20251106_214625,1762436751821,8,0.37401142716407776,0.2682996690273285,0.5867145657539368,0.6662557721138,-0.4473387897014618,3.484565019607544,1.7616928815841675,-0.8099234104156494,9.48261833190918,1.8874619007110596,0.010751218535006046,0.14325159788131714,-0.13989567756652832,27.05194664001465,-21.520973205566406,13.914669036865234,0.029014766216278076,-0.17425537109375,0.029177188873291016,-0.8389381766319275,9.65687370300293,1.8582847118377686
8_20251106_214625,1762436751839,8,0.3741098940372467,0.2664203941822052,0.5873773694038391,0.6663706302642822,-0.4479673206806183,3.4795520305633545,1.763688564300537,-1.1211562156677246,9.38206672668457,1.667204737663269,0.029077164828777313,0.14325158298015594,-0.12706750631332397,27.055570602416992,-21.458053588867188,13.902473449707031,-0.2043689489364624,-0.1866016387939453,-0.1458491086959839,-0.9167872667312622,9.568668365478516,1.813053846359253
8_20251106_214625,1762436751860,8,0.3741222620010376,0.2645118832588196,0.5882925987243652,0.666316568851471,-0.4495159983634949,3.476184844970703,1.762994647026062,-1.2085407972335815,9.409598350524902,1.3272427320480347,0.027855433523654938,0.16524271667003632,-0.0745331272482872,27.108964920043945,-21.35576629638672,14.041709899902344,-0.2334027886390686,-0.1272563934326172,-0.38864898681640625,-0.9751380085945129,9.53685474395752,1.715891718864441
8_20251106_214625,1762436751879,8,0.373811274766922,0.2627420127391815,0.5893347859382629,0.6662704348564148,-0.4514020085334778,3.472748279571533,1.761273980140686,-1.1115796566009521,9.458677291870117,1.3667453527450562,-0.016737692058086395,0.1554688960313797,-0.0067271459847688675,27.108964920043945,-21.35576629638672,14.041709899902344,-0.10915327072143555,-0.06254196166992188,-0.27931714057922363,-1.0024263858795166,9.521219253540039,1.6460624933242798
8_20251106_214625,1762436751897,8,0.37331098318099976,0.2615199387073517,0.5902458429336548,0.666225254535675,-0.4526388645172119,3.4701383113861084,1.7596207857131958,-0.8721699714660645,9.596338272094727,1.5259528160095215,-0.07171551138162613,0.13836468756198883,0.05985710769891739,27.135971069335938,-21.2926025390625,14.165657043457031,0.10420513153076172,0.060095787048339844,-0.09608781337738037,-0.9763751029968262,9.536242485046387,1.6220406293869019
8_20251106_214625,1762436751916,8,0.37252184748649597,0.260678768157959,0.5904955267906189,0.666775107383728,-0.4528747498989105,3.468048095703125,1.7577975988388062,-0.5992426872253418,9.808216094970703,1.630096197128296,-0.09187405556440353,0.10049106180667877,0.09223293513059616,27.15058135986328,-21.24211883544922,14.221267700195312,0.3017059564590454,0.21757888793945312,0.006444454193115234,-0.9009486436843872,9.59063720703125,1.6236517429351807
8_20251106_214625,1762436751935,8,0.37166261672973633,0.26043838262557983,0.5901095271110535,0.6676896810531616,-0.45162275433540344,3.4672939777374268,1.7563930749893188,-0.3670150935649872,10.003334999084473,1.7114955186843872,-0.09187405556440353,0.10049106180667877,0.09223293513059616,27.128238677978516,-21.194557189941406,14.329471588134766,0.4271468222141266,0.3301582336425781,0.0702749490737915,-0.7941619157791138,9.673176765441895,1.6412205696105957
8_20251106_214625,1762436751954,8,0.3708450496196747,0.2608708143234253,0.5893754959106445,0.668623149394989,-0.44897571206092834,3.4680776596069336,1.7557804584503174,-0.26287177205085754,10.220001220703125,1.9042205810546875,-0.09126318246126175,0.04184804856777191,0.058024514466524124,27.091087341308594,-21.19774627685547,14.409095764160156,0.4250321090221405,0.43745994567871094,0.21039998531341553,-0.687903881072998,9.782541275024414,1.693820595741272
8_20251106_214625,1762436751973,8,0.3702671229839325,0.2614896595478058,0.5884337425231934,0.6695305705070496,-0.44542625546455383,3.4703049659729004,1.7560975551605225,-0.3107537627220154,10.322946548461914,2.021531343460083,-0.11691951006650925,0.08094339072704315,-0.009781471453607082,27.068138122558594,-21.16260528564453,14.503520965576172,0.30172014236450195,0.4323244094848633,0.26216864585876465,-0.6124739050865173,9.89062213897705,1.7593626976013184
8_20251106_214625,1762436751993,8,0.3698577880859375,0.2613765001296997,0.5874515771865845,0.670662522315979,-0.4415490925312042,3.473555326461792,1.7572879791259766,-0.5046757459640503,10.227182388305664,2.0466694831848145,-0.11875209957361221,0.11759527772665024,-0.06598102301359177,27.017885208129883,-21.19103240966797,14.514549255371094,0.08623850345611572,0.26924800872802734,0.22984552383422852,-0.590914249420166,9.957934379577637,1.816823959350586
8_20251106_214625,1762436752012,8,0.3696540892124176,0.2605900764465332,0.5866783857345581,0.6717567443847656,-0.4415490925312042,3.473555326461792,1.7572879791259766,-0.5046757459640503,10.227182388305664,2.0466694831848145,-0.1144760474562645,0.14447332918643951,-0.05559632182121277,26.955854415893555,-21.208099365234375,14.565898895263672,0.08623850345611572,0.26924800872802734,0.22984552383422852,-0.590914249420166,9.957934379577637,1.816823959350586
8_20251106_214625,1762436752031,8,0.3693298101425171,0.2593783736228943,0.5861281752586365,0.6728834509849548,-0.4360174834728241,3.4811856746673584,1.7608360052108765,-0.831470251083374,10.156557083129883,2.05385160446167,-0.0937066450715065,0.12431478500366211,0.0006032297387719154,26.875701904296875,-21.326820373535156,14.655193328857422,-0.16966116428375244,0.1163930892944336,0.1626148223876953,-0.6618090867996216,10.04016399383545,1.8912367820739746
8_20251106_214625,1762436752051,8,0.36883851885795593,0.25841423869132996,0.5857385396957397,0.6738624572753906,-0.4342191219329834,3.4855899810791016,1.7630892992019653,-0.8350613713264465,10.291823387145996,2.0179402828216553,-0.04544833302497864,0.09621500968933105,0.06596574932336807,26.883560180664062,-21.401504516601562,14.667617797851562,-0.13860183954238892,0.20132732391357422,0.10136282444000244,-0.6964595317840576,10.090496063232422,1.9165774583816528
8_20251106_214625,1762436752070,8,0.3679525554180145,0.25786054134368896,0.585440456867218,0.6748172640800476,-0.4327825903892517,3.490093231201172,1.765008807182312,-0.7955588102340698,10.206832885742188,1.8359886407852173,0.04984656348824501,0.04001545533537865,0.1007850393652916,26.882347106933594,-21.426345825195312,14.640056610107422,-0.07927942276000977,0.09306907653808594,-0.06447112560272217,-0.7162793874740601,10.113763809204102,1.9004597663879395
8_20251106_214625,1762436752090,8,0.36702704429626465,0.2583198547363281,0.5854960083961487,0.6750973463058472,-0.4316522777080536,3.494800567626953,1.7661181688308716,-0.8290761709213257,10.107477188110352,1.630096197128296,0.04984656348824501,0.04001545533537865,0.1007850393652916,26.867637634277344,-21.476966857910156,14.59796142578125,-0.09023743867874146,-0.0050296783447265625,-0.21629095077514648,-0.7388387322425842,10.112506866455078,1.8463871479034424
8_20251106_214625,1762436752107,8,0.36625781655311584,0.25984761118888855,0.5857177972793579,0.6747363209724426,-0.4316522777080536,3.494800567626953,1.7661181688308716,-0.8290761709213257,10.107477188110352,1.630096197128296,0.06756164133548737,-0.04855992645025253,0.15454111993312836,26.806001663208008,-21.493492126464844,14.595245361328125,-0.09023743867874146,-0.0050296783447265625,-0.21629095077514648,-0.7388387322425842,10.112506866455078,1.8463871479034424
8_20251106_214625,1762436752126,8,0.3654988706111908,0.2614617645740509,0.5857829451560974,0.6744676828384399,-0.42972835898399353,3.50248122215271,1.7683838605880737,-0.6195924878120422,10.111068725585938,2.0765957832336426,0.03885100036859512,0.01985691860318184,0.12399790436029434,26.74054527282715,-21.573211669921875,14.631759643554688,0.10006707906723022,-0.008007049560546875,0.18429851531982422,-0.7196595668792725,10.119075775146484,1.8922972679138184
8_20251106_214625,1762436752145,8,0.36454030871391296,0.2621651291847229,0.5857612490653992,0.6747322082519531,-0.42823708057403564,3.505728006362915,1.7698917388916016,-0.5357990264892578,10.000940322875977,1.9676642417907715,0.03885100036859512,0.01985691860318184,0.12399790436029434,26.704395294189453,-21.563446044921875,14.671100616455078,0.1470884084701538,-0.09450817108154297,0.06029367446899414,-0.6828874349594116,10.09544849395752,1.9073705673217773
8_20251106_214625,1762436752165,8,0.36346566677093506,0.26201510429382324,0.5860244631767273,0.6751415729522705,-0.4265712797641754,3.5080480575561523,1.7707711458206177,-0.6207895278930664,9.754348754882812,1.676781177520752,0.1170416846871376,0.08155425637960434,-0.0140575235709548,26.651830673217773,-21.62981414794922,14.708366394042969,0.04967832565307617,-0.27287960052490234,-0.1844714879989624,-0.6704678535461426,10.027228355407715,1.8612526655197144
8_20251106_214625,1762436752183,8,0.3627347946166992,0.26196515560150146,0.5867545008659363,0.6749199032783508,-0.4265712797641754,3.5080480575561523,1.7707711458206177,-0.6207895278930664,9.754348754882812,1.676781177520752,0.1378110647201538,0.014970003627240658,-0.04521162435412407,26.629165649414062,-21.605880737304688,14.667366027832031,0.04967832565307617,-0.27287960052490234,-0.1844714879989624,-0.6704678535461426,10.027228355407715,1.8612526655197144
8_20251106_214625,1762436752203,8,0.36258724331855774,0.26231062412261963,0.5877448320388794,0.6740027070045471,-0.4252253472805023,3.509382724761963,1.768857717514038,-1.1187620162963867,9.599929809570312,1.5558791160583496,0.0968831479549408,-0.027790527790784836,-0.05437459424138069,26.555753707885742,-21.611053466796875,14.704971313476562,-0.3372800946235657,-0.28496265411376953,-0.1680506467819214,-0.781481921672821,9.884892463684082,1.723929762840271
8_20251106_214625,1762436752221,8,0.3630004823207855,0.2627633810043335,0.5886898040771484,0.6727780699729919,-0.4252253472805023,3.509382724761963,1.768857717514038,-1.1187620162963867,9.599929809570312,1.5558791160583496,0.021746784448623657,0.06017399579286575,-0.027496546506881714,26.505908966064453,-21.62732696533203,14.75680923461914,-0.3372800946235657,-0.28496265411376953,-0.1680506467819214,-0.781481921672821,9.884892463684082,1.723929762840271
8_20251106_214625,1762436752241,8,0.36303454637527466,0.2618352472782135,0.5894393920898438,0.6724651455879211,-0.42855769395828247,3.50824236869812,1.7668957710266113,-1.161855936050415,9.767515182495117,1.7988801002502441,0.021746784448623657,0.06017399579286575,-0.027496546506881714,26.45596694946289,-21.64373779296875,14.822166442871094,-0.22773408889770508,-0.06075763702392578,0.058693766593933105,-0.93412184715271,9.828272819519043,1.740186333656311
8_20251106_214625,1762436752260,8,0.3625572621822357,0.26003536581993103,0.5900380611419678,0.6728959083557129,-0.4308786690235138,3.5077223777770996,1.7661975622177124,-1.0792595148086548,9.86806869506836,1.7809245586395264,-0.010629045777022839,0.15241457521915436,0.02687041461467743,26.419113159179688,-21.646522521972656,14.861244201660156,-0.11611014604568481,0.031836509704589844,0.032590627670288086,-0.96314936876297,9.83623218536377,1.7483339309692383
8_20251106_214625,1762436752279,8,0.3617667555809021,0.2584817111492157,0.5905698537826538,0.6734532117843628,-0.4332970678806305,3.507378101348877,1.7655678987503052,-1.0409539937973022,9.890811920166016,1.7605745792388916,0.026022840291261673,0.10537798702716827,0.047639813274145126,26.36049461364746,-21.612548828125,14.832550048828125,-0.06224370002746582,0.043663978576660156,0.009792447090148926,-0.9787102937698364,9.847147941589355,1.7507821321487427
8_20251106_214625,1762436752300,8,0.3609725832939148,0.25765758752822876,0.5910843014717102,0.6737437844276428,-0.4332970678806305,3.507378101348877,1.7655678987503052,-1.0409539937973022,9.890811920166016,1.7605745792388916,0.026022840291261673,0.10537798702716827,0.047639813274145126,26.347108840942383,-21.626571655273438,14.899375915527344,-0.06224370002746582,0.043663978576660156,0.009792447090148926,-0.9787102937698364,9.847147941589355,1.7507821321487427
8_20251106_214625,1762436752320,8,0.36010342836380005,0.25744572281837463,0.591463565826416,0.6739570498466492,-0.4386445879936218,3.506941795349121,1.7647992372512817,-1.0804566144943237,9.859688758850098,1.755786418914795,0.06389645487070084,0.024132974445819855,0.13743692636489868,26.336740493774414,-21.590103149414062,14.940227508544922,-0.07162964344024658,0.004578590393066406,-0.007905960083007812,-1.0088269710540771,9.855110168457031,1.7636923789978027
8_20251106_214625,1762436752336,8,0.3590690791606903,0.25773972272872925,0.5916575193405151,0.6742262244224548,-0.440849632024765,3.506554126739502,1.7638968229293823,-1.0732742547988892,9.73519515991211,1.4517358541488647,0.06389645487070084,0.024132974445819855,0.13743692636489868,26.336740493774414,-21.590103149414062,14.940227508544922,-0.05155777931213379,-0.0959320068359375,-0.2495652437210083,-1.0217164754867554,9.831127166748047,1.701301097869873
8_20251106_214625,1762436752356,8,0.35776710510253906,0.25847864151000977,0.5920290350914001,0.6743093729019165,-0.4434589147567749,3.5047662258148193,1.7606152296066284,-0.979904294013977,9.44191837310791,1.0579066276550293,0.12131772190332413,-0.0003016144037246704,0.23700785636901855,26.263835906982422,-21.582984924316406,15.005130767822266,0.033449769020080566,-0.3113670349121094,-0.5147156715393066,-1.0133540630340576,9.75328540802002,1.572622299194336
8_20251106_214625,1762436752376,8,0.35618239641189575,0.2598593831062317,0.5926132798194885,0.6741043925285339,-0.44516226649284363,3.5021722316741943,1.7562187910079956,-0.8422436714172363,9.29109001159668,0.8723639249801636,0.07977893203496933,-0.02046014741063118,0.29320743680000305,26.163330078125,-21.63983917236328,15.027183532714844,0.136888325214386,-0.36975669860839844,-0.5602067708969116,-0.9791319966316223,9.660846710205078,1.4325706958770752
8_20251106_214625,1762436752393,8,0.3544660806655884,0.2619216740131378,0.5929949879646301,0.6738751530647278,-0.44516226649284363,3.5021722316741943,1.7562187910079956,-0.8422436714172363,9.29109001159668,0.8723639249801636,0.07977893203496933,-0.02046014741063118,0.29320743680000305,26.085899353027344,-21.708465576171875,15.131050109863281,0.136888325214386,-0.36975669860839844,-0.5602067708969116,-0.9791319966316223,9.660846710205078,1.4325706958770752
8_20251106_214625,1762436752413,8,0.3527156710624695,0.26411011815071106,0.5925963521003723,0.6742900609970093,-0.44571271538734436,3.498800277709961,1.7503551244735718,-0.580089807510376,9.512544631958008,1.1369118690490723,-0.0368962287902832,-0.01984928548336029,0.338411420583725,26.021753311157227,-21.763206481933594,15.18160629272461,0.3192337155342102,-0.11864185333251953,-0.2365269660949707,-0.8993235230445862,9.631186485290527,1.373438835144043
8_20251106_214625,1762436752432,8,0.3509242832660675,0.26575443148612976,0.5915448665618896,0.6755008697509766,-0.4420092701911926,3.4962549209594727,1.7403533458709717,-0.18147243559360504,10.088325500488281,1.236266851425171,-0.07171551138162613,0.05040016025304794,0.2089080810546875,25.942602157592773,-21.868972778320312,15.23061752319336,0.4781944155693054,0.3034858703613281,-0.1067514419555664,-0.6596668362617493,9.784839630126953,1.3430182933807373
8_20251106_214625,1762436752451,8,0.3494531214237213,0.267071396112442,0.5907743573188782,0.6764178276062012,-0.43837806582450867,3.495842695236206,1.7341049909591675,-0.2604776620864868,9.895600318908691,0.8603934645652771,-0.026511527597904205,0.06383918225765228,0.09467639774084091,25.872831344604492,-22.012557983398438,15.373939514160156,0.3193513751029968,0.0886087417602539,-0.3860998749732971,-0.5798290371894836,9.806991577148438,1.2464933395385742
8_20251106_214625,1762436752471,8,0.3484744429588318,0.268067866563797,0.5906803607940674,0.6766105890274048,-0.4344055950641632,3.495314121246338,1.7260569334030151,-0.46756723523139954,9.768712997436523,0.6545010209083557,-0.022846341133117676,0.03940458968281746,0.010377065278589725,25.718746185302734,-22.160354614257812,15.378665924072266,0.08980944752693176,-0.030622482299804688,-0.47359389066696167,-0.5573766827583313,9.799335479736328,1.1280949115753174
8_20251106_214625,1762436752489,8,0.34816229343414307,0.26887086033821106,0.5911530256271362,0.6760396361351013,-0.4344055950641632,3.495314121246338,1.7260569334030151,-0.46756723523139954,9.768712997436523,0.6545010209083557,-0.06438513845205307,0.033906809985637665,-0.0592615082859993,25.591556549072266,-22.256736755371094,15.425979614257812,0.08980944752693176,-0.030622482299804688,-0.47359389066696167,-0.5573766827583313,9.799335479736328,1.1280949115753174
8_20251106_214625,1762436752510,8,0.3486075699329376,0.269079327583313,0.591803252696991,0.6751577854156494,-0.4301711320877075,3.491701602935791,1.7100671529769897,-1.1403089761734009,9.259966850280762,1.1488823890686035,-0.19327759742736816,0.12187132984399796,-0.08430696278810501,25.557723999023438,-22.421974182128906,15.462116241455078,-0.4249807596206665,-0.3894386291503906,0.0744013786315918,-0.7153282165527344,9.649405479431152,1.0744810104370117
8_20251106_214625,1762436752527,8,0.34899330139160156,0.2672151029109955,0.5913156867027283,0.6761253476142883,-0.43044012784957886,3.4878218173980713,1.7039644718170166,-1.305501937866211,8.965492248535156,1.391883373260498,-0.19327759742736816,0.12187132984399796,-0.08430696278810501,25.51724624633789,-22.48767852783203,15.513389587402344,-0.47213900089263916,-0.5471305847167969,0.25392186641693115,-0.8333629369735718,9.512622833251953,1.137961506843567
8_20251106_214625,1762436752547,8,0.3488001227378845,0.264102578163147,0.5902749300003052,0.6783537268638611,-0.4313333034515381,3.482412576675415,1.7007255554199219,-1.0337715148925781,9.08041000366211,2.1915123462677,-0.4137997627258301,0.3051307499408722,0.019540036097168922,25.40485191345215,-22.544921875,15.494403839111328,-0.16032683849334717,-0.34576988220214844,0.8428406715393066,-0.873444676399231,9.426179885864258,1.3486716747283936
8_20251106_214625,1762436752566,8,0.34806957840919495,0.2607015073299408,0.5886567234992981,0.6814437508583069,-0.43164581060409546,3.477384328842163,1.701579213142395,-0.6902183890342712,9.262361526489258,2.8199634552001953,-0.31850486993789673,0.262370228767395,0.0696309432387352,25.354389190673828,-22.585227966308594,15.437583923339844,0.1465809941291809,-0.13105487823486328,1.1770334243774414,-0.8367993831634521,9.393416404724121,1.642930030822754
8_20251106_214625,1762436752585,8,0.346967488527298,0.2581195831298828,0.5872532725334167,0.6841939687728882,-0.43164581060409546,3.477384328842163,1.701579213142395,-0.6902183890342712,9.262361526489258,2.8199634552001953,-0.08210022002458572,0.11881700158119202,0.08612429350614548,25.302120208740234,-22.65119171142578,15.434303283691406,0.1465809941291809,-0.13105487823486328,1.1770334243774414,-0.8367993831634521,9.393416404724121,1.642930030822754
8_20251106_214625,1762436752603,8,0.3460403084754944,0.2574276328086853,0.5867184996604919,0.685382068157196,-0.4294508695602417,3.467459201812744,1.7134343385696411,-0.44961148500442505,9.471845626831055,2.8810129165649414,0.05962040275335312,-0.038175225257873535,0.10200677067041397,25.304420471191406,-22.624862670898438,15.313186645507812,0.253354549407959,0.068389892578125,0.7772424221038818,-0.702966034412384,9.40345573425293,2.1037704944610596
8_20251106_214625,1762436752623,8,0.3454430103302002,0.2582748532295227,0.5865427255630493,0.6855150461196899,-0.4274595081806183,3.464012384414673,1.7228623628616333,-0.5405871868133545,9.815398216247559,2.8762247562408447,0.0810006633400917,-0.0760488361120224,0.10933715105056763,25.291528701782227,-22.638214111328125,15.312431335449219,0.12990307807922363,0.32955360412597656,0.6179635524749756,-0.6704902648925781,9.485844612121582,2.258261203765869
8_20251106_214625,1762436752642,8,0.34502503275871277,0.2595597207546234,0.5863504409790039,0.6854047179222107,-0.42533090710639954,3.4630205631256104,1.7319351434707642,-0.4974934458732605,10.279852867126465,2.669135093688965,0.054733484983444214,0.04490237683057785,0.0800156444311142,25.287200927734375,-22.71369171142578,15.324363708496094,0.1383974552154541,0.6352062225341797,0.32869911193847656,-0.6358909010887146,9.644646644592285,2.3404359817504883
8_20251106_214625,1762436752662,8,0.34411078691482544,0.25971946120262146,0.586505651473999,0.6856709718704224,-0.4225834906101227,3.464418888092041,1.7402927875518799,-0.4125029742717743,10.516868591308594,2.070610523223877,0.041905321180820465,0.16341014206409454,0.007933606393635273,25.19071388244629,-22.70708465576172,15.280155181884766,0.17871031165122986,0.6977777481079102,-0.21586036682128906,-0.5912132859230042,9.819090843200684,2.286470890045166
8_20251106_214625,1762436752680,8,0.3430398106575012,0.2587198317050934,0.587175190448761,0.6860123872756958,-0.4225834906101227,3.464418888092041,1.7402927875518799,-0.4125029742717743,10.516868591308594,2.070610523223877,0.041905321180820465,0.16341014206409454,0.007933606393635273,25.092422485351562,-22.72612762451172,15.289482116699219,0.17871031165122986,0.6977777481079102,-0.21586036682128906,-0.5912132859230042,9.819090843200684,2.286470890045166
8_20251106_214625,1762436752700,8,0.34266379475593567,0.25753486156463623,0.5878830552101135,0.6860399842262268,-0.41752585768699646,3.4728760719299316,1.751387596130371,-0.8326672315597534,10.418710708618164,1.7150866985321045,0.02113591879606247,0.14447332918643951,-0.06537016481161118,25.064624786376953,-22.790367126464844,15.273666381835938,-0.20317858457565308,0.3647956848144531,-0.35419416427612305,-0.6294886469841003,10.053915023803711,2.0692808628082275
8_20251106_214625,1762436752720,8,0.3430027663707733,0.25679412484169006,0.5884974002838135,0.6856213808059692,-0.41752585768699646,3.4728760719299316,1.751387596130371,-0.8326672315597534,10.418710708618164,1.7150866985321045,0.0761137530207634,0.03512853756546974,-0.09224820882081985,24.98919677734375,-22.83307647705078,15.296966552734375,-0.20317858457565308,0.3647956848144531,-0.35419416427612305,-0.6294886469841003,10.053915023803711,2.0692808628082275
8_20251106_214625,1762436752739,8,0.3432947099208832,0.25629493594169617,0.5893638134002686,0.6849175095558167,-0.41805949807167053,3.481360912322998,1.7580620050430298,-1.264802098274231,9.803427696228027,1.6253080368041992,0.16774344444274902,0.07483474910259247,-0.017722710967063904,24.942975997924805,-22.78643035888672,15.33660888671875,-0.42709410190582275,-0.21566390991210938,-0.3358551263809204,-0.8377079963684082,10.019091606140137,1.9611631631851196
8_20251106_214625,1762436752757,8,0.34268635511398315,0.25615134835243225,0.5907573103904724,0.6840748190879822,-0.4198874533176422,3.4834606647491455,1.7587273120880127,-1.2145260572433472,9.501771926879883,1.2590107917785645,0.1952323615550995,0.06750437617301941,0.12338703125715256,24.942975997924805,-22.78643035888672,15.33660888671875,-0.30145442485809326,-0.41385555267333984,-0.5617218017578125,-0.9130716323852539,9.915627479553223,1.820732593536377
8_20251106_214625,1762436752775,8,0.3410903513431549,0.2568894028663635,0.5920276641845703,0.6834971904754639,-0.4198874533176422,3.4834606647491455,1.7587273120880127,-1.2145260572433472,9.501771926879883,1.2590107917785645,0.11276563256978989,0.04490237310528755,0.28832051157951355,24.884469985961914,-22.74071502685547,15.389278411865234,-0.30145442485809326,-0.41385555267333984,-0.5617218017578125,-0.9130716323852539,9.915627479553223,1.820732593536377
8_20251106_214625,1762436752794,8,0.33881330490112305,0.25853270292282104,0.5922959446907043,0.6837776303291321,-0.4217923879623413,3.4836626052856445,1.7573614120483398,-0.8769581317901611,9.281514167785645,1.1931731700897217,0.11276563256978989,0.04490237310528755,0.28832051157951355,24.885385513305664,-22.716278076171875,15.457389831542969,0.028890788555145264,-0.5072908401489258,-0.5020475387573242,-0.9058489203453064,9.78880500793457,1.695220708847046
8_20251106_214625,1762436752814,8,0.3360688388347626,0.2607481777667999,0.591742992401123,0.6847688555717468,-0.4207509756088257,3.481300115585327,1.7534558773040771,-0.10366421937942505,9.476633071899414,1.5223617553710938,0.038850996643304825,0.017413463443517685,0.4288193881511688,24.79918098449707,-22.734664916992188,15.480724334716797,0.5706650614738464,-0.18274402618408203,-0.09434986114501953,-0.6743292808532715,9.659377098083496,1.6167116165161133
8_20251106_214625,1762436752833,8,0.33310753107070923,0.26319023966789246,0.5910022854804993,0.685920238494873,-0.41727781295776367,3.4796335697174072,1.7510381937026978,0.18841582536697388,9.529303550720215,1.408642053604126,0.041905321180820465,0.03268507868051529,0.41293689608573914,24.67502212524414,-22.768936157226562,15.596939086914062,0.6901960968971252,-0.10405921936035156,-0.16645562648773193,-0.5017802715301514,9.633362770080566,1.575097680091858
8_20251106_214625,1762436752852,8,0.3301001191139221,0.2654769718647003,0.590327799320221,0.6870728135108948,-0.41727781295776367,3.4796335697174072,1.7510381937026978,0.18841582536697388,9.529303550720215,1.408642053604126,-0.015515963546931744,0.0528436154127121,0.3683438003063202,24.571090698242188,-22.888442993164062,15.604156494140625,0.6901960968971252,-0.10405921936035156,-0.16645562648773193,-0.5017802715301514,9.633362770080566,1.575097680091858
8_20251106_214625,1762436752871,8,0.3274007737636566,0.26726993918418884,0.589435875415802,0.6884335875511169,-0.4030577540397644,3.4764113426208496,1.7437670230865479,0.47929883003234863,9.802230834960938,1.3056957721710205,-0.13035854697227478,0.08583031594753265,0.3109225034713745,24.42003631591797,-22.97412872314453,15.677783966064453,0.6468518972396851,0.14331626892089844,-0.16552233695983887,-0.16755306720733643,9.658914566040039,1.4712181091308594
