session_id,timestamp,label,quaternion_w,quaternion_x,quaternion_y,quaternion_z,position_x,position_y,position_z,accelerometer_x,accelerometer_y,accelerometer_z,gyroscope_x,gyroscope_y,gyroscope_z,magnetometer_x,magnetometer_y,magnetometer_z,linear_acceleration_x,linear_acceleration_y,linear_acceleration_z,gravity_x,gravity_y,gravity_z
5_20251106_145056,1762411818836,5,0.1793874204158783,0.38875076174736023,0.6956232786178589,0.5768892765045166,1.5663789510726929,2.126796007156372,-1.9822273254394531,2.0989065170288086,9.584367752075195,-2.631399631500244,-0.0026076287031173706,-0.040099453181028366,0.036762602627277374,18.714889526367188,-19.980148315429688,26.791580200195312,0.10563278198242188,0.1632852554321289,0.05731058120727539,1.9932737350463867,9.421082496643066,-2.6887102127075195
5_20251106_145056,1762411818855,5,0.17946772277355194,0.38912880420684814,0.6953252553939819,0.5769687294960022,1.5669853687286377,2.1277856826782227,-1.9823358058929443,2.0881333351135254,9.627460479736328,-2.5787291526794434,-0.008105411194264889,-0.02604956366121769,0.012328012846410275,18.654170989990234,-19.97222900390625,26.856971740722656,0.07588768005371094,0.1651020050048828,0.08798503875732422,2.0122456550598145,9.462358474731445,-2.6667141914367676
5_20251106_145056,1762411818876,5,0.1795285940170288,0.389422744512558,0.6950516700744629,0.5770810842514038,1.5678848028182983,2.1295149326324463,-1.9823377132415771,2.1001036167144775,9.683723449707031,-2.634990692138672,-0.02276616543531418,0.012434914708137512,-0.009663118049502373,18.653465270996094,-19.984786987304688,26.856708526611328,0.07028651237487793,0.1770925521850586,0.025378704071044922,2.0298171043395996,9.506630897521973,-2.660369396209717
5_20251106_145056,1762411818893,5,0.1794731467962265,0.3892625868320465,0.6948888301849365,0.5774024128913879,1.5686190128326416,2.1309783458709717,-1.9821662902832031,2.0725717544555664,9.615490913391113,-2.571547031402588,-0.03131826967000961,0.01976529322564602,-0.025545598939061165,18.601184844970703,-20.062362670898438,26.758548736572266,0.03420376777648926,0.08708858489990234,0.07105803489685059,2.038367986679077,9.528402328491211,-2.6426050662994385
5_20251106_145056,1762411818912,5,0.17946749925613403,0.3888240158557892,0.6947517395019531,0.5778644680976868,1.5695838928222656,2.1329591274261475,-1.9815938472747803,2.0689802169799805,9.608308792114258,-2.521270751953125,-0.01604665257036686,0.00815886165946722,-0.02432386763393879,18.67279052734375,-20.082839965820312,26.774478912353516,0.024489879608154297,0.06392478942871094,0.09706735610961914,2.044490337371826,9.544384002685547,-2.618338108062744
5_20251106_145056,1762411818932,5,0.17951159179210663,0.388416051864624,0.694649338722229,0.5782480835914612,1.5703893899917603,2.1347038745880127,-1.9804528951644897,2.0079307556152344,9.49937629699707,-2.4219157695770264,-0.01604665257036686,0.00815886165946722,-0.02432386763393879,18.67279052734375,-20.082839965820312,26.774478912353516,-0.029247760772705078,-0.03600597381591797,0.15713787078857422,2.0371785163879395,9.535382270812988,-2.5790536403656006
5_20251106_145056,1762411818951,5,0.17951355874538422,0.38798388838768005,0.6947026252746582,0.5784735679626465,1.5703893899917603,2.1347038745880127,-1.9804528951644897,2.0079307556152344,9.49937629699707,-2.4219157695770264,0.047483280301094055,0.006326267961412668,-0.038984619081020355,18.685779571533203,-20.069351196289062,26.76171875,-0.029247760772705078,-0.03600597381591797,0.15713787078857422,2.0371785163879395,9.535382270812988,-2.5790536403656006
5_20251106_145056,1762411818969,5,0.17945496737957,0.38749781250953674,0.6949424147605896,0.5785294771194458,1.5704835653305054,2.1368110179901123,-1.9786320924758911,1.7828855514526367,9.318622589111328,-2.6888580322265625,0.047483280301094055,0.01487837452441454,-0.027378195896744728,18.661407470703125,-20.070938110351562,26.760738372802734,-0.1797935962677002,-0.15941143035888672,-0.09000205993652344,1.962679147720337,9.478034019470215,-2.598855972290039
5_20251106_145056,1762411818988,5,0.1793045848608017,0.3868621587753296,0.6953821778297424,0.5784731507301331,1.5704835653305054,2.1368110179901123,-1.9786320924758911,1.7828855514526367,9.318622589111328,-2.6888580322265625,0.02365955337882042,0.006937132682651281,0.033097412437200546,18.650829315185547,-20.046356201171875,26.733741760253906,-0.1797935962677002,-0.15941143035888672,-0.09000205993652344,1.962679147720337,9.478034019470215,-2.598855972290039
5_20251106_145056,1762411819009,5,0.17918513715267181,0.3866012692451477,0.6957205533981323,0.5782776474952698,1.57021963596344,2.1371400356292725,-1.9781233072280884,2.1803059577941895,9.372489929199219,-2.5930938720703125,0.008387935347855091,-0.03521253168582916,0.09296216070652008,18.74810791015625,-20.0518798828125,26.669818878173828,0.1856309175491333,-0.05778026580810547,0.03356623649597168,1.9946750402450562,9.430270195007324,-2.626660108566284
5_20251106_145056,1762411819029,5,0.17899823188781738,0.38706186413764954,0.6957128047943115,0.5780367255210876,1.57021963596344,2.1371400356292725,-1.9781233072280884,2.1803059577941895,9.372489929199219,-2.5930938720703125,0.008387935347855091,-0.03521253168582916,0.09296216070652008,18.772071838378906,-20.06243896484375,26.629985809326172,0.1856309175491333,-0.05778026580810547,0.03356623649597168,1.9946750402450562,9.430270195007324,-2.626660108566284
5_20251106_145056,1762411819046,5,0.17867283523082733,0.38819870352745056,0.6952915787696838,0.5778818130493164,1.5750974416732788,2.1377742290496826,-1.9763773679733276,2.8997325897216797,9.546062469482422,-2.6050643920898438,0.05847884342074394,-0.013221402652561665,0.0715818926692009,18.79745864868164,-20.036270141601562,26.685558319091797,0.6407172679901123,0.08291816711425781,-0.013567209243774414,2.2590153217315674,9.463144302368164,-2.5914971828460693
5_20251106_145056,1762411819066,5,0.1779681146144867,0.3893145024776459,0.6947612166404724,0.5779865384101868,1.5818156003952026,2.138253688812256,-1.976621389389038,3.1822361946105957,9.465860366821289,-2.929464817047119,0.07191787660121918,-0.020551780238747597,0.027599630877375603,18.69009780883789,-20.005477905273438,26.654903411865234,0.7385768890380859,0.0021724700927734375,-0.270374059677124,2.4436593055725098,9.463687896728516,-2.659090757369995
5_20251106_145056,1762411819084,5,0.17696718871593475,0.3903440237045288,0.6942862272262573,0.5781702399253845,1.5818156003952026,2.138253688812256,-1.976621389389038,3.1822361946105957,9.465860366821289,-2.929464817047119,0.05114847049117088,-0.06514490395784378,0.009273689240217209,18.632381439208984,-19.95867919921875,26.599441528320312,0.7385768890380859,0.0021724700927734375,-0.270374059677124,2.4436593055725098,9.463687896728516,-2.659090757369995
5_20251106_145056,1762411819104,5,0.1760617047548294,0.3920924663543701,0.6937779188156128,0.577873706817627,1.5911144018173218,2.138745069503784,-1.978628396987915,3.5030455589294434,9.48261833190918,-3.24668288230896,-0.0001641707494854927,-0.11706840246915817,-0.02065868116915226,18.64376449584961,-19.9705810546875,26.61318588256836,0.8475089073181152,0.01514434814453125,-0.4700736999511719,2.655536651611328,9.467473983764648,-2.776609182357788
5_20251106_145056,1762411819122,5,0.17565695941448212,0.3946813941001892,0.6929595470428467,0.5772159695625305,1.6151913404464722,2.140164375305176,-1.98494291305542,4.0967817306518555,9.571200370788574,-3.1413426399230957,-0.0001641707494854927,-0.11706840246915817,-0.02065868116915226,18.659278869628906,-19.907272338867188,26.64202880859375,0.9683632850646973,0.07021522521972656,-0.21925616264343262,3.128418445587158,9.500985145568848,-2.922086477279663
5_20251106_145056,1762411819142,5,0.17567583918571472,0.39758387207984924,0.691758394241333,0.5766587853431702,1.6151913404464722,2.140164375305176,-1.98494291305542,4.0967817306518555,9.571200370788574,-3.1413426399230957,-0.07468965649604797,-0.20136773586273193,-0.11534272134304047,18.705810546875,-19.94189453125,26.656715393066406,0.9683632850646973,0.07021522521972656,-0.21925616264343262,3.128418445587158,9.500985145568848,-2.922086477279663
5_20251106_145056,1762411819159,5,0.17737233638763428,0.39825552701950073,0.6912558078765869,0.5762786269187927,1.6339315176010132,2.1414053440093994,-1.988761305809021,4.354147911071777,9.607110977172852,-2.9342527389526367,-0.06613755971193314,-0.28322362899780273,-0.16237929463386536,18.756061553955078,-19.913467407226562,26.645687103271484,0.9805834293365479,0.0849008560180664,-0.009733200073242188,3.3735644817352295,9.522210121154785,-2.9245195388793945
5_20251106_145056,1762411819183,5,0.17969049513339996,0.3988962173461914,0.6907678246498108,0.5757020711898804,1.6518241167068481,2.142845869064331,-1.9915261268615723,4.442729473114014,9.696889877319336,-2.7846217155456543,-0.019711840897798538,-0.39562273025512695,-0.18742474913597107,18.86522674560547,-19.918609619140625,26.622802734375,0.8553318977355957,0.13974380493164062,0.11191821098327637,3.587397575378418,9.557146072387695,-2.8965399265289307
5_20251106_145056,1762411819199,5,0.18278948962688446,0.39992886781692505,0.6903375387191772,0.574524998664856,1.6925899982452393,2.147326707839966,-1.9948649406433105,4.392453193664551,9.856097221374512,-2.5811233520507812,0.037709444761276245,-0.49946972727775574,-0.2112484872341156,19.039443969726562,-19.856185913085938,26.522594451904297,0.5083408355712891,0.20569324493408203,0.2131667137145996,3.8841123580932617,9.65040397644043,-2.794290065765381
5_20251106_145056,1762411819218,5,0.18649156391620636,0.4015548825263977,0.6900545358657837,0.5725376605987549,1.7149291038513184,2.150491952896118,-1.9954427480697632,4.314644813537598,9.854900360107422,-2.5476059913635254,0.05908970907330513,-0.5654431581497192,-0.2692806124687195,19.344886779785156,-19.835250854492188,26.426725387573242,0.34442591667175293,0.16359710693359375,0.19734740257263184,3.9702188968658447,9.691303253173828,-2.7449533939361572
5_20251106_145056,1762411819238,5,0.19080811738967896,0.40342408418655396,0.6899871826171875,0.5698762536048889,1.7352567911148071,2.1538074016571045,-1.9953078031539917,4.030943870544434,9.858491897583008,-2.505709171295166,0.0554245226085186,-0.599651575088501,-0.3572451174259186,19.61355972290039,-19.828582763671875,26.261539459228516,0.048580169677734375,0.13375091552734375,0.19139528274536133,3.982363700866699,9.724740982055664,-2.6971044540405273
5_20251106_145056,1762411819256,5,0.1958361715078354,0.40506452322006226,0.6900916695594788,0.5668725371360779,1.752554178237915,2.15671968460083,-1.9947503805160522,3.5772626399993896,9.695693016052246,-2.520073890686035,0.06275489926338196,-0.6191992163658142,-0.4445987939834595,19.910213470458984,-19.769012451171875,25.99026107788086,-0.3240807056427002,-0.023238182067871094,0.14162445068359375,3.90134334564209,9.718931198120117,-2.661698341369629
5_20251106_145056,1762411819277,5,0.20152881741523743,0.40616798400878906,0.690500795841217,0.5635799169540405,1.7697246074676514,2.159276008605957,-1.993850827217102,3.1092162132263184,9.494588851928711,-2.5930938720703125,0.05786798521876335,-0.627751350402832,-0.47575289011001587,19.910213470458984,-19.769012451171875,25.99026107788086,-0.6337018013000488,-0.179473876953125,0.054883718490600586,3.742918014526367,9.674062728881836,-2.647977590560913
5_20251106_145056,1762411819295,5,0.20766691863536835,0.406886488199234,0.691146194934845,0.560030996799469,1.7804255485534668,2.1601812839508057,-1.9932552576065063,2.6687021255493164,9.23482894897461,-2.6900548934936523,0.05786798521876335,-0.627751350402832,-0.47575289011001587,20.242229461669922,-19.720291137695312,25.787771224975586,-0.859372615814209,-0.35138702392578125,-0.033661842346191406,3.5280747413635254,9.58621597290039,-2.656393051147461
5_20251106_145056,1762411819314,5,0.21403376758098602,0.4076280891895294,0.6916722655296326,0.5564336180686951,1.7875438928604126,2.1593236923217773,-1.9925434589385986,2.2114291191101074,8.9427490234375,-2.614640712738037,0.054202791303396225,-0.7309874296188354,-0.42505112290382385,20.63043212890625,-19.542282104492188,25.535816192626953,-1.053316593170166,-0.5147733688354492,0.0334019660949707,3.2647457122802734,9.45752239227295,-2.648042678833008
5_20251106_145056,1762411819332,5,0.2205847054719925,0.40871620178222656,0.6920232176780701,0.5526276230812073,1.7875438928604126,2.1593236923217773,-1.9925434589385986,2.2114291191101074,8.9427490234375,-2.614640712738037,0.06275489926338196,-0.75481116771698,-0.4036708474159241,21.088821411132812,-19.421493530273438,25.204387664794922,-1.053316593170166,-0.5147733688354492,0.0334019660949707,3.2647457122802734,9.45752239227295,-2.648042678833008
5_20251106_145056,1762411819352,5,0.22734208405017853,0.41025111079216003,0.6921990513801575,0.5485162734985352,1.7877697944641113,2.1504249572753906,-1.991101622581482,1.2238636016845703,8.298736572265625,-2.7511043548583984,0.06336576491594315,-0.7523677349090576,-0.3908427059650421,21.58769989013672,-19.223373413085938,24.916563034057617,-1.3854570388793945,-0.7885475158691406,-0.09411430358886719,2.609320640563965,9.087284088134766,-2.6569900512695312
5_20251106_145056,1762411819370,5,0.2341175228357315,0.4119127094745636,0.6922634840011597,0.5443235635757446,1.7813122272491455,2.143502950668335,-1.991445779800415,0.8336254358291626,8.363377571105957,-2.992908477783203,0.06764181703329086,-0.7725262641906738,-0.32242584228515625,22.094844818115234,-19.087783813476562,24.681974411010742,-1.4205561876296997,-0.5791254043579102,-0.2687349319458008,2.2541816234588623,8.942502975463867,-2.7241735458374023
5_20251106_145056,1762411819391,5,0.24079495668411255,0.4136922359466553,0.6922465562820435,0.5400659441947937,1.7690529823303223,2.134235143661499,-1.9938433170318604,0.7318762540817261,8.466323852539062,-3.325687885284424,0.0505376011133194,-0.8293367028236389,-0.15382719039916992,22.603683471679688,-18.93829345703125,24.31248664855957,-1.2178443670272827,-0.38094329833984375,-0.48121142387390137,1.9497206211090088,8.847267150878906,-2.8444764614105225
5_20251106_145056,1762411819410,5,0.2470327764749527,0.41631704568862915,0.6917251348495483,0.5358836054801941,1.7575443983078003,2.1265995502471924,-1.9965152740478516,1.0024094581604004,8.615954399108887,-3.2215447425842285,-0.005051087588071823,-0.9362380504608154,0.052645087242126465,23.223209381103516,-18.757080078125,24.00200653076172,-0.7578489780426025,-0.18505001068115234,-0.3016548156738281,1.760258436203003,8.801004409790039,-2.9198899269104004
5_20251106_145056,1762411819428,5,0.253115713596344,0.42071354389190674,0.6899070143699646,0.5319406390190125,1.7440009117126465,2.1182165145874023,-1.9993414878845215,1.536293387413025,8.85057544708252,-2.867218017578125,-0.03925951197743416,-1.0376415252685547,0.2163568139076233,23.779903411865234,-18.605621337890625,23.756126403808594,-0.17917215824127197,0.039656639099121094,0.04213762283325195,1.7154655456542969,8.810918807983398,-2.909355640411377
5_20251106_145056,1762411819447,5,0.25909265875816345,0.4268081784248352,0.6867325901985168,0.5283030867576599,1.73343026638031,2.1121811866760254,-2.001279830932617,2.125241756439209,9.270740509033203,-2.7151927947998047,-0.03498345986008644,-1.1005605459213257,0.27011293172836304,24.34624481201172,-18.514816284179688,23.37425422668457,0.32782089710235596,0.3678569793701172,0.15533041954040527,1.797420859336853,8.902883529663086,-2.87052321434021
5_20251106_145056,1762411819467,5,0.2649257183074951,0.4339437782764435,0.6827082633972168,0.52480149269104,1.724386215209961,2.1075003147125244,-2.002493381500244,2.4927358627319336,9.458677291870117,-2.5966849327087402,-0.03498345986008644,-1.1005605459213257,0.27011293172836304,24.874717712402344,-18.451370239257812,22.97686767578125,0.5562520027160645,0.44463539123535156,0.2190706729888916,1.9364838600158691,9.014041900634766,-2.815755605697632
5_20251106_145056,1762411819485,5,0.271103173494339,0.44129592180252075,0.6785401701927185,0.5209071040153503,1.717786192893982,2.1050736904144287,-2.0033421516418457,2.505903720855713,9.669358253479004,-2.725966453552246,-0.005661952309310436,-1.1579819917678833,0.1797049343585968,25.474586486816406,-18.4202880859375,22.527565002441406,0.455535888671875,0.5242528915405273,0.07183122634887695,2.050367832183838,9.145105361938477,-2.797797679901123
5_20251106_145056,1762411819505,5,0.27796056866645813,0.44784921407699585,0.6748740077018738,0.51644366979599,1.7120040655136108,2.1040327548980713,-2.004178047180176,2.2281880378723145,9.605914115905762,-2.808562755584717,-0.08935041725635529,-1.077347755432129,-0.2430134415626526,25.949962615966797,-18.458724975585938,21.95039176940918,0.1422562599182129,0.36864662170410156,-0.00861215591430664,2.0859317779541016,9.23726749420166,-2.79995059967041
5_20251106_145056,1762411819524,5,0.28588438034057617,0.4527416527271271,0.6718301773071289,0.5118001103401184,1.7053624391555786,2.103814125061035,-2.0048763751983643,1.803235411643982,9.507756233215332,-2.754695415496826,-0.17426061630249023,-1.0223699808120728,-0.4323814809322357,26.49925994873047,-18.479705810546875,21.3629093170166,-0.2261570692062378,0.21639156341552734,0.03620409965515137,2.0293924808502197,9.291364669799805,-2.7908995151519775
5_20251106_145056,1762411819543,5,0.2947424650192261,0.455631822347641,0.6694522500038147,0.5073068141937256,1.697542667388916,2.1040561199188232,-2.00498366355896,1.3639183044433594,9.451496124267578,-2.600275993347168,-0.23595795035362244,-0.9991571307182312,-0.5661609172821045,27.04865264892578,-18.50054931640625,20.761911392211914,-0.5323793888092041,0.12810516357421875,0.15249872207641602,1.8962976932525635,9.32339096069336,-2.752774715423584
5_20251106_145056,1762411819561,5,0.3044344186782837,0.4569946527481079,0.6674756407737732,0.5029431581497192,1.6883803606033325,2.1044154167175293,-2.004197835922241,1.0335326194763184,9.380868911743164,-2.394383668899536,-0.259170800447464,-0.9869397878646851,-0.6638992428779602,27.64779281616211,-18.5052490234375,20.122589111328125,-0.6902121305465698,0.04598236083984375,0.2867128849029541,1.7237447500228882,9.33488655090332,-2.6810965538024902
5_20251106_145056,1762411819581,5,0.31464821100234985,0.4571935832500458,0.6658800840377808,0.4985722303390503,1.6754099130630493,2.1046504974365234,-2.0017762184143066,0.6385064125061035,9.28749942779541,-2.1573679447174072,-0.24634265899658203,-1.0070983171463013,-0.7579724192619324,28.311176300048828,-18.455078125,19.4191951751709,-0.8681906461715698,-0.037909507751464844,0.41898274421691895,1.5066970586776733,9.325408935546875,-2.576350688934326
5_20251106_145056,1762411819600,5,0.32541269063949585,0.4567889869213104,0.6645159125328064,0.49383097887039185,1.6617752313613892,2.104609966278076,-1.9983798265457153,0.0675138384103775,9.220464706420898,-1.9203522205352783,-0.20358212292194366,-1.0559674501419067,-0.8233349323272705,28.97626495361328,-18.37939453125,18.675779342651367,-1.1513465642929077,-0.08395576477050781,0.5247988700866699,1.218860387802124,9.304420471191406,-2.4451510906219482
5_20251106_145056,1762411819618,5,0.3366682529449463,0.45597904920578003,0.6634643077850342,0.4884185492992401,1.6617752313613892,2.104609966278076,-1.9983798265457153,0.0675138384103775,9.220464706420898,-1.9203522205352783,-0.14432823657989502,-1.0797911882400513,-0.8239458203315735,29.718799591064453,-18.223464965820312,17.92337417602539,-1.1513465642929077,-0.08395576477050781,0.5247988700866699,1.218860387802124,9.304420471191406,-2.4451510906219482
5_20251106_145056,1762411819638,5,0.34812137484550476,0.45519423484802246,0.6625820398330688,0.48228082060813904,1.6400741338729858,2.104008197784424,-1.9919250011444092,-0.48193180561065674,9.13906478881836,-1.7084746360778809,-0.11134154349565506,-1.0736826658248901,-0.7805744409561157,30.409156799316406,-17.92041015625,17.131134033203125,-1.3606337308883667,-0.13228416442871094,0.5893411636352539,0.87870192527771,9.27134895324707,-2.2978157997131348
5_20251106_145056,1762411819657,5,0.3592787981033325,0.4546007513999939,0.6617178916931152,0.4758007526397705,1.588881254196167,2.1024060249328613,-1.9761476516723633,-1.2743784189224243,9.34495735168457,-1.6761541366577148,-0.09973511099815369,-1.0614652633666992,-0.7188770771026611,30.409156799316406,-17.92041015625,17.131134033203125,-1.4312162399291992,0.08081817626953125,0.39345836639404297,0.15683776140213013,9.264139175415039,-2.069612503051758
5_20251106_145056,1762411819677,5,0.3700191378593445,0.45424503087997437,0.6606411337852478,0.4693618714809418,1.556225061416626,2.1021552085876465,-1.966195821762085,-1.5868083238601685,9.391642570495605,-1.5420846939086914,-0.07285706698894501,-1.059632658958435,-0.6883338689804077,31.186538696289062,-17.574676513671875,16.397184371948242,-1.3949168920516968,0.10200214385986328,0.42202234268188477,-0.19189144670963287,9.289640426635742,-1.9641070365905762
5_20251106_145056,1762411819695,5,0.38049617409706116,0.4542520046234131,0.6592758893966675,0.46285316348075867,1.5242325067520142,2.101903200149536,-1.9565446376800537,-1.8453710079193115,9.274331092834473,-1.500187873840332,-0.020933570340275764,-1.0351980924606323,-0.6748948097229004,31.942054748535156,-17.192306518554688,15.60898208618164,-1.3227837085723877,-0.012248039245605469,0.37113523483276367,-0.5225872993469238,9.286579132080078,-1.8713231086730957
5_20251106_145056,1762411819716,5,0.3905666470527649,0.45431405305862427,0.6580109596252441,0.4561556577682495,1.4855716228485107,2.1013705730438232,-1.9456111192703247,-2.1314659118652344,9.198917388916016,-1.625878095626831,0.028546471148729324,-1.0095417499542236,-0.654125452041626,33.40796661376953,-16.367828369140625,14.018417358398438,-1.2871029376983643,-0.07012939453125,0.19635605812072754,-0.8443629741668701,9.269046783447266,-1.8222341537475586
5_20251106_145056,1762411819735,5,0.4001123011112213,0.4544477164745331,0.6569387316703796,0.44924262166023254,1.4440758228302002,2.100207567214966,-1.9351332187652588,-2.4127726554870605,9.052877426147461,-1.7922680377960205,0.07497219741344452,-1.0193156003952026,-0.6235821843147278,33.40796661376953,-16.367828369140625,14.018417358398438,-1.254727840423584,-0.17293548583984375,0.02397298812866211,-1.1580448150634766,9.225812911987305,-1.8162410259246826
5_20251106_145056,1762411819753,5,0.4092433452606201,0.4548467695713043,0.6558864712715149,0.44209417700767517,1.404404878616333,2.0987460613250732,-1.926174521446228,-2.860468864440918,9.03611946105957,-1.816208839416504,0.12506309151649475,-1.06757390499115,-0.6083105802536011,34.10868835449219,-15.8883056640625,13.16229248046875,-1.3619391918182373,-0.15175437927246094,2.574920654296875e-05,-1.4985296726226807,9.187873840332031,-1.8162345886230469
5_20251106_145056,1762411819776,5,0.4182845950126648,0.4557967483997345,0.6546688675880432,0.43439149856567383,1.3544552326202393,2.0969386100769043,-1.9160486459732056,-3.283027410507202,9.131882667541504,-1.7575535774230957,0.16293670237064362,-1.0468045473098755,-0.6290799379348755,34.78815460205078,-15.3597412109375,12.265693664550781,-1.427598237991333,-0.044793128967285156,0.04694485664367676,-1.8554291725158691,9.176675796508789,-1.8044984340667725
5_20251106_145056,1762411819791,5,0.4272467792034149,0.45698145031929016,0.6534556150436401,0.42617353796958923,1.3119778633117676,2.095313549041748,-1.9084211587905884,-3.705585479736328,9.069636344909668,-1.8772584199905396,0.17026707530021667,-0.929518461227417,-0.6907773017883301,35.43821334838867,-14.920791625976562,11.379781723022461,-1.4801249504089355,-0.0856313705444336,-0.05820798873901367,-2.2254605293273926,9.155267715454102,-1.8190504312515259
5_20251106_145056,1762411819810,5,0.4358018934726715,0.45761439204216003,0.6527661681175232,0.4178062677383423,1.2612297534942627,2.093073844909668,-1.9005085229873657,-4.283761024475098,8.967887878417969,-1.886834979057312,0.13361519575119019,-0.8256714940071106,-0.746366024017334,36.016170501708984,-14.4620361328125,10.545520782470703,-1.6466403007507324,-0.1499042510986328,-0.05422770977020264,-2.6371207237243652,9.117792129516602,-1.8326072692871094
5_20251106_145056,1762411819829,5,0.4439065754413605,0.45720794796943665,0.6527065634727478,0.4097340404987335,1.2612297534942627,2.093073844909668,-1.9005085229873657,-4.283761024475098,8.967887878417969,-1.886834979057312,0.11773271858692169,-0.7126615047454834,-0.7622484564781189,36.59593200683594,-13.977630615234375,9.657722473144531,-1.6466403007507324,-0.1499042510986328,-0.05422770977020264,-2.6371207237243652,9.117792129516602,-1.8326072692871094
5_20251106_145056,1762411819848,5,0.45172128081321716,0.4560354948043823,0.6530013084411621,0.4019562304019928,1.203270673751831,2.0898654460906982,-1.892305850982666,-5.009172439575195,8.799102783203125,-1.737203598022461,0.1330043375492096,-0.5715517997741699,-0.7420899868011475,37.105709075927734,-13.435745239257812,8.822366714477539,-1.8976414203643799,-0.25495147705078125,0.07632291316986084,-3.1115310192108154,9.054054260253906,-1.8135265111923218
5_20251106_145056,1762411819868,5,0.45871421694755554,0.45427224040031433,0.6538127660751343,0.3946477472782135,1.0812417268753052,2.078563690185547,-1.8779263496398926,-6.019482135772705,8.038976669311523,-1.9837958812713623,0.14949768781661987,-0.443270206451416,-0.6901664733886719,37.61669921875,-12.8690185546875,8.014571189880371,-1.9306135177612305,-0.7141942977905273,-0.14689481258392334,-4.088868618011475,8.75317096710205,-1.836901068687439
5_20251106_145056,1762411819886,5,0.4645848572254181,0.4521224796772003,0.6551955342292786,0.38789817690849304,1.0190978050231934,2.070373773574829,-1.8721997737884521,-6.390567302703857,7.894133567810059,-1.9742193222045898,0.14949768781661987,-0.443270206451416,-0.6901664733886719,38.09486389160156,-12.229995727539062,7.274469375610352,-1.8413586616516113,-0.687230110168457,-0.10985457897186279,-4.549208641052246,8.581363677978516,-1.864364743232727
5_20251106_145056,1762411819905,5,0.4696228504180908,0.45001840591430664,0.6567105650901794,0.3816661834716797,0.9508721828460693,2.06009840965271,-1.8661412000656128,-6.702997207641602,7.829492568969727,-1.7491741180419922,0.09513072669506073,-0.28261274099349976,-0.5105721950531006,38.45722198486328,-11.699249267578125,6.595422744750977,-1.7230310440063477,-0.601496696472168,0.09215247631072998,-4.979966163635254,8.430989265441895,-1.8413265943527222
5_20251106_145056,1762411819925,5,0.47411173582077026,0.4480980634689331,0.6579951047897339,0.3761231303215027,0.8768917918205261,2.0477142333984375,-1.8597370386123657,-6.872978210449219,7.7373199462890625,-1.7276272773742676,0.06519836187362671,-0.15860721468925476,-0.3560234010219574,38.80338668823242,-11.221145629882812,6.077025413513184,-1.5144095420837402,-0.5549354553222656,0.09095954895019531,-5.3585686683654785,8.292255401611328,-1.818586826324463
5_20251106_145056,1762411819943,5,0.47750139236450195,0.44630518555641174,0.6591359376907349,0.3719460666179657,0.8096117377281189,2.0357415676116943,-1.8542850017547607,-6.993880271911621,7.730137825012207,-1.8281794786453247,0.0554245226085186,-0.10851629823446274,-0.19414426386356354,39.17975997924805,-10.640731811523438,5.5346879959106445,-1.3082489967346191,-0.4496936798095703,-0.007674098014831543,-5.685631275177002,8.179831504821777,-1.8205053806304932
5_20251106_145056,1762411819963,5,0.4798373878002167,0.4450336992740631,0.6599414944648743,0.36902347207069397,0.734671413898468,2.0224318504333496,-1.8484915494918823,-6.975924491882324,7.958774566650391,-1.8078296184539795,0.0554245226085186,-0.060257986187934875,-0.03715202957391739,39.41365432739258,-10.196517944335938,5.173543930053711,-1.0322341918945312,-0.17684555053710938,0.010140657424926758,-5.943690299987793,8.1356201171875,-1.8179702758789062
5_20251106_145056,1762411819982,5,0.4814315736293793,0.44475436210632324,0.6601523160934448,0.36690065264701843,0.6646885275840759,2.0105783939361572,-1.8428475856781006,-6.799958229064941,8.193395614624023,-1.6665778160095215,0.028546471148729324,0.04969766363501549,0.07463622093200684,39.654815673828125,-9.827789306640625,4.90592098236084,-0.6850142478942871,0.04622077941894531,0.12111401557922363,-6.114943981170654,8.147174835205078,-1.7876918315887451
5_20251106_145056,1762411820002,5,0.48206204175949097,0.4449506998062134,0.6601479649543762,0.3658411502838135,0.5934092402458191,1.999538540840149,-1.8365079164505005,-6.541395664215088,8.414850234985352,-1.5588433742523193,0.028546471148729324,0.04969766363501549,0.07463622093200684,39.79396057128906,-9.541168212890625,4.67333984375,-0.34116125106811523,0.2141408920288086,0.18307876586914062,-6.200234413146973,8.200709342956543,-1.74192214012146
5_20251106_145056,1762411820019,5,0.4814276695251465,0.44457241892814636,0.6605280637741089,0.3664498031139374,0.5356435179710388,1.9917857646942139,-1.8305737972259521,-6.294803619384766,8.729674339294434,-1.3709065914154053,-0.04903334751725197,0.28915661573410034,0.1797049343585968,39.90210723876953,-9.357940673828125,4.57282829284668,-0.07565546035766602,0.4231719970703125,0.2968125343322754,-6.2191481590271,8.306502342224121,-1.6677191257476807
5_20251106_145056,1762411820040,5,0.4802844822406769,0.4444213807582855,0.660695493221283,0.3678286373615265,0.4681497812271118,1.9849122762680054,-1.8223302364349365,-6.130807876586914,8.970280647277832,-1.2859160900115967,-0.05453112721443176,0.40766435861587524,0.14977258443832397,39.91732406616211,-9.295028686523438,4.642219543457031,0.07067203521728516,0.5310220718383789,0.3054424524307251,-6.201479911804199,8.439258575439453,-1.5913585424423218
5_20251106_145056,1762411820057,5,0.4785248637199402,0.4438278079032898,0.6612710952758789,0.36979907751083374,0.41646483540534973,1.9812474250793457,-1.814880609512329,-6.100881576538086,9.17737102508545,-1.0860087871551514,-0.06674842536449432,0.5493849515914917,0.09479475021362305,39.97887420654297,-9.26702880859375,4.753330230712891,0.08047866821289062,0.590489387512207,0.40427982807159424,-6.181360244750977,8.586881637573242,-1.4902886152267456
5_20251106_145056,1762411820077,5,0.4761345684528351,0.4423782527446747,0.6625842452049255,0.3722625970840454,0.3587656617164612,1.9787827730178833,-1.8047688007354736,-6.159536838531494,9.123504638671875,-0.9028602242469788,-0.030096542090177536,0.7411965131759644,0.058753736317157745,39.99097442626953,-9.2547607421875,4.862215042114258,0.01745891571044922,0.42929840087890625,0.46994274854660034,-6.176995754241943,8.694206237792969,-1.372802972793579
5_20251106_145056,1762411820097,5,0.47279515862464905,0.4399813711643219,0.6648813486099243,0.37525179982185364,0.3065594434738159,1.9776607751846313,-1.7948132753372192,-6.225374221801758,9.095972061157227,-1.0704472064971924,0.040763769298791885,0.9696599245071411,0.07830139994621277,39.99097442626953,-9.2547607421875,4.862215042114258,-0.038702964782714844,0.3214130401611328,0.24188458919525146,-6.186671257019043,8.774559020996094,-1.3123317956924438
5_20251106_145056,1762411820116,5,0.46795836091041565,0.4369690418243408,0.6683444380760193,0.37866702675819397,0.2545849084854126,1.9770500659942627,-1.786105751991272,-6.110457897186279,8.9427490234375,-1.722839117050171,0.08902208507061005,1.1541410684585571,0.19680915772914886,39.815277099609375,-9.3192138671875,5.165166854858398,0.06097078323364258,0.134552001953125,-0.32840585708618164,-6.171428680419922,8.808197021484375,-1.3944332599639893
5_20251106_145056,1762411820136,5,0.4611888527870178,0.43382781744003296,0.6726830005645752,0.3828783333301544,0.2545849084854126,1.9770500659942627,-1.786105751991272,-6.110457897186279,8.9427490234375,-1.722839117050171,0.10307197272777557,1.1749104261398315,0.42343997955322266,39.636390686035156,-9.41119384765625,5.710884094238281,0.06097078323364258,0.134552001953125,-0.32840585708618164,-6.171428680419922,8.808197021484375,-1.3944332599639893
5_20251106_145056,1762411820155,5,0.452896386384964,0.4315437376499176,0.6768692135810852,0.38794705271720886,0.16447784006595612,1.9756180047988892,-1.778533935546875,-5.266538619995117,8.765584945678711,-2.627808094024658,0.08718949556350708,1.1083261966705322,0.7160441875457764,39.36970520019531,-9.53533935546875,6.40131950378418,0.6676154136657715,-0.027846336364746094,-0.8385826349258423,-5.934154033660889,8.793431282043457,-1.789225459098816
5_20251106_145056,1762411820174,5,0.44364988803863525,0.43102914094924927,0.6798253059387207,0.3939875364303589,0.12911158800125122,1.9746901988983154,-1.7795569896697998,-4.4716973304748535,8.706930160522461,-2.8887648582458496,0.041374631226062775,1.0484614372253418,0.9793268442153931,39.172611236572266,-9.717514038085938,7.093378067016602,1.1699657440185547,-0.06920051574707031,-0.879631519317627,-5.641663074493408,8.776130676269531,-2.0091333389282227
5_20251106_145056,1762411820194,5,0.4337076246738434,0.4324839115142822,0.6811611652374268,0.4010920226573944,0.09986390173435211,1.9736429452896118,-1.7832649946212769,-3.628974437713623,8.736856460571289,-2.8923561573028564,-0.04414642974734306,0.9733251333236694,1.1497581005096436,38.90371322631836,-9.879470825195312,7.796537399291992,1.6101508140563965,-0.03141975402832031,-0.706578254699707,-5.2391252517700195,8.76827621459961,-2.1857779026031494
5_20251106_145056,1762411820211,5,0.4235195815563202,0.43551626801490784,0.6808455586433411,0.4091528654098511,0.0817127600312233,1.9731489419937134,-1.7861599922180176,-2.750340461730957,8.928384780883789,-2.1406092643737793,-0.14310652017593384,0.9207907319068909,1.190075159072876,38.463226318359375,-10.266845703125,8.651029586791992,1.99102783203125,0.12808704376220703,0.036134958267211914,-4.741368293762207,8.800297737121582,-2.176744222640991
5_20251106_145056,1762411820230,5,0.4136946499347687,0.439191609621048,0.67918860912323,0.41793572902679443,0.07007069140672684,1.9737213850021362,-1.787177324295044,-1.9602876901626587,9.200115203857422,-1.4271678924560547,-0.14188478887081146,1.0582352876663208,1.1222692728042603,38.03141403198242,-10.70458984375,9.599570274353027,2.2248644828796387,0.3198537826538086,0.599661111831665,-4.185152053833008,8.880261421203613,-2.0268290042877197
5_20251106_145056,1762411820250,5,0.4037742018699646,0.4421548843383789,0.6773752570152283,0.427350252866745,0.06699717044830322,1.9761650562286377,-1.7867718935012817,-1.3665512800216675,9.495786666870117,-1.5588432550430298,-0.14188478887081146,1.0582352876663208,1.1222692728042603,37.52286148071289,-11.21002197265625,10.557365417480469,2.254880428314209,0.4924201965332031,0.37438857555389404,-3.621431827545166,9.003366470336914,-1.9332318305969238
5_20251106_145056,1762411820268,5,0.39262905716896057,0.4435131549835205,0.6768684387207031,0.43702125549316406,0.0709003359079361,1.9798942804336548,-1.7855299711227417,-0.9691309928894043,9.669358253479004,-1.5696167945861816,-0.015435787849128246,1.4113150835037231,0.7624698877334595,36.93817901611328,-11.770721435546875,11.53819465637207,2.121840715408325,0.5327930450439453,0.29089200496673584,-3.0909717082977295,9.136565208435059,-1.8605087995529175
5_20251106_145056,1762411820287,5,0.3807019889354706,0.4431089162826538,0.6778766512870789,0.4463224411010742,0.08121056109666824,1.985177755355835,-1.7832533121109009,-0.7596472501754761,9.699283599853516,-1.484626293182373,-0.015435787849128246,1.4113150835037231,0.7624698877334595,36.29800033569336,-12.459762573242188,12.473873138427734,1.865059494972229,0.45017433166503906,0.3007059097290039,-2.624706745147705,9.249109268188477,-1.785332202911377
5_20251106_145056,1762411820307,5,0.3685321509838104,0.4411528408527374,0.6800776124000549,0.4550413489341736,0.08121056109666824,1.985177755355835,-1.7832533121109009,-0.7596472501754761,9.699283599853516,-1.484626293182373,0.16049325466156006,1.5426510572433472,0.5242326259613037,35.586917877197266,-13.115753173828125,13.393884658813477,1.865059494972229,0.45017433166503906,0.3007059097290039,-2.624706745147705,9.249109268188477,-1.785332202911377
5_20251106_145056,1762411820326,5,0.3558942377567291,0.4382033348083496,0.6833121180534363,0.4630352854728699,0.11721931397914886,1.9982929229736328,-1.779149055480957,-0.4867199957370758,9.524515151977539,-2.1082887649536133,0.25395557284355164,1.5035556554794312,0.5352281928062439,34.76576614379883,-13.779434204101562,14.363546371459961,1.396657943725586,0.15480899810791016,-0.271045446395874,-1.8833779096603394,9.369706153869629,-1.8372433185577393
5_20251106_145056,1762411820345,5,0.3427600860595703,0.43519526720046997,0.6871102452278137,0.47010648250579834,0.1403985619544983,2.0047152042388916,-1.7786973714828491,-0.1898517906665802,9.467056274414062,-2.178914785385132,0.29060742259025574,1.40276300907135,0.6268578767776489,33.93355178833008,-14.4075927734375,15.468673706054688,1.3548208475112915,0.0778799057006836,-0.2733372449874878,-1.5446726083755493,9.389176368713379,-1.905577540397644
5_20251106_145056,1762411820365,5,0.32961955666542053,0.433154821395874,0.690514326095581,0.47635895013809204,0.1694759577512741,2.011643648147583,-1.7788292169570923,0.3955053985118866,9.555638313293457,-2.097515344619751,0.3009921610355377,1.3477851152420044,0.7325375080108643,33.121673583984375,-14.896286010742188,16.523128509521484,1.5521425008773804,0.13317012786865234,-0.1535501480102539,-1.1566370725631714,9.422468185424805,-1.943965196609497
5_20251106_145056,1762411820384,5,0.3163352608680725,0.4321599304676056,0.6931825876235962,0.4823564291000366,0.2022658735513687,2.0184457302093506,-1.7799344062805176,1.2298487424850464,9.622673034667969,-2.303407907485962,0.30404648184776306,1.3526719808578491,0.7728545665740967,32.169498443603516,-15.293655395507812,17.533260345458984,1.9091887474060059,0.16016387939453125,-0.2875540256500244,-0.6793399453163147,9.462509155273438,-2.0158538818359375
5_20251106_145056,1762411820402,5,0.30259934067726135,0.4316309690475464,0.6953763365745544,0.48844656348228455,0.23876827955245972,2.0251564979553223,-1.782250165939331,2.159956216812134,9.701679229736328,-2.552394390106201,0.2521229684352875,1.3807718753814697,0.7172658443450928,31.242809295654297,-15.664718627929688,18.585451126098633,2.271436929702759,0.19133567810058594,-0.4292323589324951,-0.11148077249526978,9.510343551635742,-2.123162031173706
5_20251106_145056,1762411820421,5,0.2887432277202606,0.4309159517288208,0.6973490118980408,0.4946141242980957,0.28421494364738464,2.0327951908111572,-1.786574363708496,3.1116104125976562,9.8417329788208,-2.852853775024414,0.12200877070426941,1.4308627843856812,0.5474454760551453,30.3642578125,-16.045028686523438,19.625823974609375,2.5784730911254883,0.26511192321777344,-0.5837535858154297,0.5331373810768127,9.576621055603027,-2.2691001892089844
5_20251106_145056,1762411820441,5,0.27531105279922485,0.42912647128105164,0.6991902589797974,0.5011858940124512,0.33947253227233887,2.0410797595977783,-1.7926404476165771,3.760411262512207,9.7890625,-2.8420801162719727,-0.02887481451034546,1.4241433143615723,0.2670586109161377,29.46717071533203,-16.326202392578125,20.640295028686523,2.5818190574645996,0.1699533462524414,-0.45838403701782227,1.1785922050476074,9.619109153747559,-2.3836960792541504
5_20251106_145056,1762411820460,5,0.2633931040763855,0.42546170949935913,0.7010226249694824,0.5081079602241516,0.3970532715320587,2.0487632751464844,-1.799336552619934,3.9890475273132324,9.694496154785156,-2.8289127349853516,-0.10095684230327606,1.392989158630371,-0.01393917016685009,28.5965576171875,-16.579727172851562,21.561660766601562,2.248364210128784,0.060309410095214844,-0.3561732769012451,1.7406833171844482,9.634186744689941,-2.4727394580841064
5_20251106_145056,1762411820478,5,0.2534664571285248,0.41977453231811523,0.7031663656234741,0.5148797631263733,0.45383456349372864,2.0553641319274902,-1.8062725067138672,3.7544260025024414,9.506559371948242,-2.8420801162719727,-0.11745019257068634,1.383215308189392,-0.22102230787277222,27.762897491455078,-16.830337524414062,22.430431365966797,1.6109943389892578,-0.10210132598876953,-0.2954726219177246,2.1434316635131836,9.608660697937012,-2.546607494354248
5_20251106_145056,1762411820498,5,0.24483387172222137,0.41224995255470276,0.7060354948043823,0.521172046661377,0.5182784199714661,2.0607259273529053,-1.8143792152404785,3.6263418197631836,9.08041000366211,-2.804971694946289,-0.11500672996044159,1.374663233757019,-0.27172407507896423,26.883499145507812,-17.045242309570312,23.1763858795166,1.1863281726837158,-0.42260074615478516,-0.20669126510620117,2.4400136470794678,9.503010749816895,-2.598280429840088
5_20251106_145056,1762411820518,5,0.23697106540203094,0.4037887752056122,0.7092344164848328,0.527053952217102,0.5833576321601868,2.063530445098877,-1.8232147693634033,3.7089381217956543,8.750024795532227,-2.9713616371154785,-0.02826394885778427,1.271427035331726,-0.1855921596288681,26.036720275878906,-17.1197509765625,23.858644485473633,1.0151395797729492,-0.6023893356323242,-0.2984647750854492,2.693798542022705,9.35241413116455,-2.6728968620300293
5_20251106_145056,1762411820537,5,0.2291499823331833,0.39576974511146545,0.7122873067855835,0.5324503779411316,0.5833576321601868,2.063530445098877,-1.8232147693634033,3.7089381217956543,8.750024795532227,-2.9713616371154785,0.1733214110136032,1.0374659299850464,-0.045704133808612823,26.036720275878906,-17.1197509765625,23.858644485473633,1.0151395797729492,-0.6023893356323242,-0.2984647750854492,2.693798542022705,9.35241413116455,-2.6728968620300293
5_20251106_145056,1762411820556,5,0.22129209339618683,0.3897305727005005,0.7151904702186584,0.5363231301307678,0.7021162509918213,2.0606963634490967,-1.8427832126617432,3.6395092010498047,8.00545883178711,-3.494472026824951,0.39750877022743225,0.7601333260536194,0.13755527138710022,25.24593734741211,-17.278182983398438,24.541507720947266,0.6004667282104492,-0.9290866851806641,-0.5752220153808594,3.0390424728393555,8.934545516967773,-2.919250011444092
5_20251106_145056,1762411820574,5,0.2135218381881714,0.38655608892440796,0.7180878520011902,0.5378965139389038,0.7021162509918213,2.0606963634490967,-1.8427832126617432,3.6395092010498047,8.00545883178711,-3.494472026824951,0.39750877022743225,0.7601333260536194,0.13755527138710022,24.47378158569336,-17.322677612304688,25.213720321655273,0.6004667282104492,-0.9290866851806641,-0.5752220153808594,3.0390424728393555,8.934545516967773,-2.919250011444092
5_20251106_145056,1762411820594,5,0.2058514505624771,0.38652703166007996,0.7206827998161316,0.537436842918396,0.8203089237213135,2.0452301502227783,-1.871658444404602,4.091993808746338,7.502697944641113,-4.381485939025879,0.5880985260009766,0.28365883231163025,0.46497878432273865,23.77584457397461,-17.34930419921875,25.835073471069336,0.7269420623779297,-0.9468355178833008,-1.0038232803344727,3.365051746368408,8.449533462524414,-3.3776626586914062
5_20251106_145056,1762411820612,5,0.1985674351453781,0.38918861746788025,0.7226294279098511,0.5356397032737732,0.8203089237213135,2.0452301502227783,-1.871658444404602,4.091993808746338,7.502697944641113,-4.381485939025879,0.5117404460906982,0.15904244780540466,0.4423767924308777,23.11817169189453,-17.322113037109375,26.33730697631836,0.7269420623779297,-0.9468355178833008,-1.0038232803344727,3.365051746368408,8.449533462524414,-3.3776626586914062
5_20251106_145056,1762411820631,5,0.1922517567873001,0.39321598410606384,0.723892092704773,0.5332923531532288,0.8788407444953918,2.034043073654175,-1.8900134563446045,4.346965789794922,7.551776885986328,-4.594560623168945,0.3474178612232208,0.14926859736442566,0.25850650668144226,22.510643005371094,-17.278244018554688,26.747154235839844,0.7855312824249268,-0.718205451965332,-0.9735183715820312,3.561434507369995,8.26998233795166,-3.621042251586914
5_20251106_145056,1762411820651,5,0.1872631460428238,0.3965590000152588,0.7247800230979919,0.5313825607299805,0.994541347026825,2.0066800117492676,-1.9329302310943604,3.8430075645446777,7.357855796813965,-4.604136943817139,0.15255200862884521,0.22073978185653687,0.0037759076803922653,21.95669174194336,-17.1434326171875,27.174327850341797,0.10608553886413574,-0.6203422546386719,-0.620753288269043,3.736922025680542,7.978198051452637,-3.9833836555480957
5_20251106_145056,1762411820670,5,0.1840340793132782,0.3978394865989685,0.7256354093551636,0.5303851962089539,1.0430190563201904,1.9916688203811646,-1.9539408683776855,3.2672266960144043,7.041833877563477,-4.655610084533691,-0.047200754284858704,0.3374149203300476,-0.17704007029533386,21.50606918334961,-17.114486694335938,27.603538513183594,-0.37575626373291016,-0.7490911483764648,-0.5377812385559082,3.6429829597473145,7.790925025939941,-4.117828845977783
5_20251106_145056,1762411820688,5,0.18197397887706757,0.39653217792510986,0.7265912890434265,0.5307662487030029,1.0893919467926025,1.9736871719360352,-1.9766134023666382,2.8267126083374023,6.723419189453125,-4.702294826507568,-0.047200754284858704,0.3374149203300476,-0.17704007029533386,21.13005828857422,-17.067138671875,27.927825927734375,-0.6530163288116455,-0.8540043830871582,-0.4675726890563965,3.479728937149048,7.577423572540283,-4.234722137451172
5_20251106_145056,1762411820708,5,0.18071120977401733,0.39353886246681213,0.7272282242774963,0.5325502157211304,1.1325278282165527,1.9527745246887207,-2.0004708766937256,2.4149277210235596,6.613290309906006,-4.624486923217773,-0.350800484418869,0.2702198028564453,-0.22590923309326172,20.780620574951172,-16.99200439453125,28.145492553710938,-0.8518409729003906,-0.7713065147399902,-0.3118119239807129,3.26676869392395,7.384596824645996,-4.3126749992370605
5_20251106_145056,1762411820726,5,0.18040482699871063,0.3902684450149536,0.7271583080291748,0.535149872303009,1.1661028861999512,1.932753324508667,-2.020864486694336,1.9241374731063843,6.515132904052734,-4.310859680175781,-0.350800484418869,0.2702198028564453,-0.22590923309326172,20.52745819091797,-16.93536376953125,28.339519500732422,-1.074104905128479,-0.6955714225769043,0.0014524459838867188,2.9982423782348633,7.210704326629639,-4.312312126159668
5_20251106_145056,1762411820746,5,0.18130461871623993,0.3875892460346222,0.7263245582580566,0.5379180312156677,1.1970661878585815,1.9092650413513184,-2.0416297912597656,1.5255200862884521,6.436127662658691,-4.061873435974121,-0.4705300033092499,0.07107793539762497,-0.15382719039916992,20.321731567382812,-16.900527954101562,28.521465301513672,-1.178177833557129,-0.6196613311767578,0.20035123825073242,2.703697919845581,7.055788993835449,-4.2622246742248535
5_20251106_145056,1762411820765,5,0.18300293385982513,0.3854514956474304,0.7249444723129272,0.5407333970069885,1.2211377620697021,1.88614022731781,-2.0596072673797607,1.2920953035354614,6.3535308837890625,-3.984065532684326,-0.4705300033092499,0.07107793539762497,-0.15382719039916992,20.140968322753906,-16.863296508789062,28.623294830322266,-1.1292821168899536,-0.5618066787719727,0.22252750396728516,2.421377420425415,6.915337562561035,-4.206593036651611
5_20251106_145056,1762411820786,5,0.18492688238620758,0.3837731182575226,0.7230507135391235,0.5437995195388794,1.2417092323303223,1.8595950603485107,-2.077007532119751,1.0179710388183594,6.239810943603516,-3.766201972961426,-0.5126796960830688,0.009991454891860485,-0.09029725939035416,20.052860260009766,-16.907470703125,28.71368408203125,-1.122725009918213,-0.5404210090637207,0.3523130416870117,2.1406960487365723,6.780231952667236,-4.1185150146484375
5_20251106_145056,1762411820805,5,0.18726015090942383,0.3827020823955536,0.7206742763519287,0.546901524066925,1.255538821220398,1.8349512815475464,-2.0904812812805176,0.7366644144058228,6.1141204833984375,-3.578265428543091,-0.5322273969650269,-0.08896862715482712,-0.045093268156051636,19.973609924316406,-17.01336669921875,28.77621078491211,-1.1232253313064575,-0.5328893661499023,0.43219971656799316,1.8598897457122803,6.64700984954834,-4.010465145111084
5_20251106_145056,1762411820822,5,0.1900845766067505,0.3824557065963745,0.7179391980171204,0.549689769744873,1.2644140720367432,1.8126417398452759,-2.1003904342651367,0.5487276911735535,6.026736259460449,-3.307732105255127,-0.5077927708625793,-0.258178174495697,0.0611971914768219,19.88467025756836,-17.093460083007812,28.69009780883789,-1.0489296913146973,-0.4962186813354492,0.5621864795684814,1.597657322883606,6.522954940795898,-3.8699185848236084
5_20251106_145056,1762411820842,5,0.1931208223104477,0.38295701146125793,0.7149493098258972,0.5521736741065979,1.2709991931915283,1.786289930343628,-2.1086320877075195,0.5008456707000732,6.056662559509277,-2.9378437995910645,-0.5077927708625793,-0.258178174495697,0.0611971914768219,19.936214447021484,-17.276229858398438,28.52639389038086,-0.8774493932723999,-0.3730340003967285,0.7456598281860352,1.3782950639724731,6.429696559906006,-3.6835036277770996
5_20251106_145056,1762411820861,5,0.19648315012454987,0.38406458497047424,0.7116147875785828,0.5545207262039185,1.2743510007858276,1.7613592147827148,-2.113584280014038,0.4338109493255615,6.011175155639648,-2.777439594268799,-0.5444446802139282,-0.22519147396087646,0.07097102701663971,19.965301513671875,-17.423187255859375,28.38953399658203,-0.7555873394012451,-0.33481693267822266,0.724851131439209,1.1893982887268066,6.345992088317871,-3.502290725708008
5_20251106_145056,1762411820880,5,0.19928567111492157,0.3840666115283966,0.7081665992736816,0.5579230189323425,1.2749005556106567,1.737245798110962,-2.1156301498413086,0.22911550104618073,6.189535140991211,-2.5332412719726562,-0.8602617383003235,0.06252582371234894,0.03737346827983856,19.979991912841797,-17.608734130859375,28.264907836914062,-0.7682262659072876,-0.12516546249389648,0.7752397060394287,0.9973417520523071,6.314700603485107,-3.308480978012085
5_20251106_145056,1762411820898,5,0.2019273340702057,0.382857084274292,0.7041236162185669,0.5628994107246399,1.2749005556106567,1.737245798110962,-2.1156301498413086,0.22911550104618073,6.189535140991211,-2.5332412719726562,-1.042299509048462,0.21157681941986084,0.11617501080036163,20.007164001464844,-17.7930908203125,28.100223541259766,-0.7682262659072876,-0.12516546249389648,0.7752397060394287,0.9973417520523071,6.314700603485107,-3.308480978012085
5_20251106_145056,1762411820919,5,0.20405274629592896,0.38047513365745544,0.6992687582969666,0.5697581768035889,1.2700620889663696,1.6939847469329834,-2.1111981868743896,0.4242345690727234,6.685113906860352,-2.110682964324951,-1.1803548336029053,0.2873240113258362,0.31042999029159546,20.052040100097656,-18.112503051757812,27.78493881225586,-0.3202473521232605,0.2790093421936035,0.7941708564758301,0.7444819211959839,6.406104564666748,-2.9048538208007812
5_20251106_145056,1762411820937,5,0.20510394871234894,0.37783366441726685,0.6932439208030701,0.578434944152832,1.2680432796478271,1.676378607749939,-2.10494327545166,1.0179710388183594,7.107671737670898,-1.8533174991607666,-1.1803548336029053,0.2873240113258362,0.31042999029159546,19.971248626708984,-18.491439819335938,27.598857879638672,0.21879130601882935,0.561253547668457,0.8412289619445801,0.79917973279953,6.546418190002441,-2.6945464611053467
5_20251106_145056,1762411820957,5,0.20526862144470215,0.3764515221118927,0.6857008934020996,0.588186502456665,1.267635703086853,1.66244375705719,-2.0942933559417725,1.3292038440704346,7.754078388214111,-1.2488075494766235,-1.2115089893341064,-0.028493020683526993,0.7044377326965332,19.885608673095703,-18.969757080078125,27.302532196044922,0.42401933670043945,0.9661283493041992,1.1565912961959839,0.9051845073699951,6.787950038909912,-2.4053988456726074
5_20251106_145056,1762411820976,5,0.2055167257785797,0.3775286078453064,0.6767438650131226,0.5977062582969666,1.267635703086853,1.66244375705719,-2.0942933559417725,1.3292038440704346,7.754078388214111,-1.2488075494766235,-1.129042148590088,-0.10485110431909561,0.7954565286636353,19.885608673095703,-18.969757080078125,27.302532196044922,0.42401933670043945,0.9661283493041992,1.1565912961959839,0.9051845073699951,6.787950038909912,-2.4053988456726074
5_20251106_145056,1762411820995,5,0.20575371384620667,0.38026994466781616,0.6673457622528076,0.6063907742500305,1.2691638469696045,1.653450846672058,-2.0776753425598145,1.4824261665344238,8.252052307128906,-0.6167654395103455,-1.0899468660354614,-0.028493018820881844,0.9102991223335266,19.759788513183594,-19.51336669921875,27.01693344116211,0.46179330348968506,1.1712818145751953,1.4309067726135254,1.0206328630447388,7.080770492553711,-2.0476722717285156
5_20251106_145056,1762411821014,5,0.20513758063316345,0.38353973627090454,0.657814621925354,0.6148949265480042,1.2791855335235596,1.6495516300201416,-2.041292428970337,2.7417221069335938,8.73206901550293,-0.8047021627426147,-1.0899468660354614,-0.028493018820881844,0.9102991223335266,19.517948150634766,-20.177139282226562,26.724544525146484,1.2453346252441406,1.0872840881347656,0.744937539100647,1.4963874816894531,7.644784927368164,-1.5496397018432617
5_20251106_145056,1762411821034,5,0.20292982459068298,0.38700172305107117,0.6478067636489868,0.6240156292915344,1.2791855335235596,1.6495516300201416,-2.041292428970337,2.7417221069335938,8.73206901550293,-0.8047021627426147,-1.2780932188034058,-0.024827830493450165,1.1937403678894043,19.24829864501953,-20.916763305664062,26.321460723876953,1.2453346252441406,1.0872840881347656,0.744937539100647,1.4963874816894531,7.644784927368164,-1.5496397018432617
5_20251106_145056,1762411821052,5,0.20002935826778412,0.3912601172924042,0.6364177465438843,0.6339370608329773,1.3083168268203735,1.659859538078308,-2.002453088760376,3.8908896446228027,9.334184646606445,-1.0500973463058472,-1.3856053352355957,-0.2032003402709961,1.142427682876587,18.873096466064453,-21.812896728515625,25.857221603393555,1.5765328407287598,1.1323537826538086,0.3457549810409546,2.314356803894043,8.201830863952637,-1.3958523273468018
5_20251106_145056,1762411821071,5,0.19822409749031067,0.3966082036495209,0.6235554814338684,0.6438848972320557,1.3296173810958862,1.6715214252471924,-1.9797354936599731,3.6742236614227295,9.723225593566895,-0.4838929772377014,-1.4650177955627441,-0.1983134150505066,0.9518378973007202,18.397884368896484,-22.76519775390625,25.347454071044922,1.0878934860229492,1.2171154022216797,0.7295675873756409,2.5863301753997803,8.506110191345215,-1.2134605646133423
5_20251106_145056,1762411821091,5,0.1982174515724182,0.4017780125141144,0.6103031039237976,0.6533103585243225,1.353560447692871,1.6885709762573242,-1.9546403884887695,3.805899143218994,10.470184326171875,-0.0577433779835701,-1.6360599994659424,0.06619101017713547,0.6977182626724243,17.954185485839844,-23.814773559570312,24.755949020385742,0.9756550788879395,1.5712594985961914,0.9245737791061401,2.8302440643310547,8.898924827575684,-0.9823171496391296
5_20251106_145056,1762411821109,5,0.1989688277244568,0.4041277766227722,0.5973834991455078,0.6634946465492249,1.377483606338501,1.7091013193130493,-1.9289119243621826,4.232048988342285,11.316497802734375,0.7526590824127197,-1.907283902168274,0.336804062128067,0.40877923369407654,17.486087799072266,-24.88916015625,23.97370719909668,1.1214439868927002,1.9340581893920898,1.3879809379577637,3.110605001449585,9.382439613342285,-0.6353219151496887
5_20251106_145056,1762411821127,5,0.20088553428649902,0.40251052379608154,0.5844234228134155,0.6753366589546204,1.4039595127105713,1.736253261566162,-1.8975207805633545,4.633060455322266,12.488409042358398,2.1867241859436035,-2.130249261856079,0.48890939354896545,0.16809850931167603,17.009227752685547,-25.901687622070312,23.205810546875,1.2179641723632812,2.4847755432128906,2.2576370239257812,3.4150962829589844,10.003633499145508,-0.07091274857521057
5_20251106_145056,1762411821148,5,0.2042541652917862,0.3972395062446594,0.5709828734397888,0.6888102293014526,1.4385091066360474,1.7794169187545776,-1.8486747741699219,4.968234062194824,13.903321266174316,4.1223530769348145,-2.124140739440918,0.4656965136528015,0.010495418682694435,16.57970428466797,-26.9361572265625,22.439348220825195,1.2425103187561035,3.1197500228881836,3.3546128273010254,3.7257237434387207,10.783571243286133,0.7677403688430786
5_20251106_145056,1762411821166,5,0.20906482636928558,0.3900366425514221,0.5572188496589661,0.7026168704032898,1.4385091066360474,1.7794169187545776,-1.8486747741699219,4.968234062194824,13.903321266174316,4.1223530769348145,-1.8254280090332031,0.35085394978523254,-0.019436951726675034,16.162242889404297,-27.993194580078125,21.49713706970215,1.2425103187561035,3.1197500228881836,3.3546128273010254,3.7257237434387207,10.783571243286133,0.7677403688430786
5_20251106_145056,1762411821187,5,0.2142162173986435,0.3827597200870514,0.5443860292434692,0.7150176763534546,1.5070686340332031,1.8860876560211182,-1.7262285947799683,5.207643508911133,15.733610153198242,6.727132320404053,-1.8254280090332031,0.35085394978523254,-0.019436951726675034,15.855270385742188,-29.018768310546875,20.64096450805664,0.9702630043029785,3.274897575378418,3.965701103210449,4.237380504608154,12.458712577819824,2.7614312171936035
5_20251106_145056,1762411821205,5,0.2180740088224411,0.3769845962524414,0.5338032245635986,0.7248313426971436,1.5070686340332031,1.8860876560211182,-1.7262285947799683,5.207643508911133,15.733610153198242,6.727132320404053,-0.6770023107528687,0.12544488906860352,0.17359629273414612,15.579002380371094,-29.941360473632812,19.69327163696289,0.9702630043029785,3.274897575378418,3.965701103210449,4.237380504608154,12.458712577819824,2.7614312171936035
5_20251106_145056,1762411821225,5,0.2194233238697052,0.37342923879623413,0.5265763998031616,0.731519877910614,1.5823144912719727,2.024125576019287,-1.5704090595245361,5.190885543823242,15.76114273071289,5.957429885864258,-0.11867192387580872,0.0026610796339809895,0.2151350975036621,15.344818115234375,-30.772857666015625,18.66779899597168,0.5876431465148926,2.0660572052001953,1.948908805847168,4.60324239730835,13.695085525512695,4.00852108001709
5_20251106_145056,1762411821244,5,0.21872062981128693,0.37241318821907043,0.5230168104171753,0.7347946166992188,1.618072748184204,2.0937271118164062,-1.4944878816604614,4.928731918334961,15.138677597045898,4.911208629608154,0.27289238572120667,0.020987020805478096,0.20902645587921143,15.060810089111328,-31.38446044921875,17.860885620117188,0.2603917121887207,1.1548728942871094,0.7221498489379883,4.66834020614624,13.983804702758789,4.189058780670166
5_20251106_145056,1762411821261,5,0.21669059991836548,0.3730775713920593,0.5226432681083679,0.7353246212005615,1.6487605571746826,2.1535556316375732,-1.4312108755111694,4.801844120025635,14.287574768066406,3.6171984672546387,0.27289238572120667,0.020987020805478096,0.20902645587921143,14.929008483886719,-31.850830078125,17.306055068969727,0.10680294036865234,0.24301528930664062,-0.4574880599975586,4.695041179656982,14.044559478759766,4.074686527252197
5_20251106_145056,1762411821281,5,0.21337349712848663,0.37387537956237793,0.5246921181678772,0.7344297766685486,1.6832741498947144,2.2181484699249268,-1.364478588104248,4.765933036804199,13.296417236328125,2.762505054473877,0.5709942579269409,0.09245819598436356,0.19803088903427124,14.764286041259766,-32.24505615234375,16.832433700561523,0.05671358108520508,-0.5985145568847656,-1.0497450828552246,4.709219455718994,13.89493179321289,3.8122501373291016
5_20251106_145056,1762411821300,5,0.20953576266765594,0.3748720586299896,0.5278683304786682,0.7327487468719482,1.7128314971923828,2.269968032836914,-1.3112748861312866,4.728824138641357,12.511153221130371,2.2477736473083496,0.6223069429397583,0.03564777597784996,0.21452423930168152,14.58144760131836,-32.51637268066406,16.46860122680664,0.015683650970458984,-1.1070232391357422,-1.2515811920166016,4.713140487670898,13.618176460266113,3.499354839324951
5_20251106_145056,1762411821320,5,0.2055058628320694,0.3763918876647949,0.5313739776611328,0.7305738925933838,1.7442569732666016,2.3197107315063477,-1.2593168020248413,4.787479400634766,11.988042831420898,2.117295265197754,0.6736195683479309,-0.0333799384534359,0.20291779935359955,14.445484161376953,-32.56251525878906,16.435382843017578,0.05947113037109375,-1.304107666015625,-1.1056478023529053,4.728008270263672,13.292150497436523,3.222943067550659
5_20251106_145056,1762411821339,5,0.2016036957502365,0.3786522150039673,0.5350882411003113,0.7277767658233643,1.7732545137405396,2.359715223312378,-1.2158128023147583,4.959854602813721,11.510419845581055,1.9880139827728271,0.7127149105072021,-0.06636663526296616,0.16687677800655365,14.26290512084961,-32.56254577636719,16.495872497558594,0.18547725677490234,-1.425384521484375,-0.9879434108734131,4.774377346038818,12.93580436706543,2.9759573936462402
5_20251106_145056,1762411821358,5,0.1979501098394394,0.38122373819351196,0.5390657782554626,0.7244945168495178,1.8014391660690308,2.392449140548706,-1.177861213684082,5.006539344787598,11.014841079711914,1.7450129985809326,0.7640275359153748,-0.09629900008440018,0.11128810048103333,14.12969970703125,-32.52374267578125,16.761857986450195,0.1857295036315918,-1.5367698669433594,-0.9847555160522461,4.820809841156006,12.551610946655273,2.7297685146331787
5_20251106_145056,1762411821377,5,0.19457407295703888,0.38384944200515747,0.5433653593063354,0.7208013534545898,1.8296207189559937,2.4190266132354736,-1.14380943775177,4.819799900054932,10.526445388793945,1.446947693824768,0.8306118249893188,-0.14822250604629517,0.03859519585967064,14.036802291870117,-32.39628601074219,17.193359375,-0.0008082389831542969,-1.6201324462890625,-1.0262566804885864,4.820608139038086,12.146577835083008,2.4732043743133545
5_20251106_145056,1762411821396,5,0.19156192243099213,0.38655948638916016,0.5481862425804138,0.7164967656135559,1.8532806634902954,2.4367291927337646,-1.117864727973938,4.643834114074707,10.107478141784668,1.185990810394287,0.857489824295044,-0.1714353710412979,-0.04448240250349045,14.021263122558594,-32.17710876464844,17.72426414489746,-0.1414194107055664,-1.6312799453735352,-1.029770851135254,4.785253524780273,11.738758087158203,2.215761661529541
5_20251106_145056,1762411821415,5,0.18909505009651184,0.38923636078834534,0.5535791516304016,0.7115393280982971,1.8775558471679688,2.449655532836914,-1.0943442583084106,4.5552520751953125,9.844127655029297,0.9441869258880615,0.8135075569152832,-0.16471585631370544,-0.1141209825873375,14.021263122558594,-32.17710876464844,17.72426414489746,-0.18400144577026367,-1.5157041549682617,-1.0172598361968994,4.739253520965576,11.359831809997559,1.961446762084961
5_20251106_145056,1762411821434,5,0.1872027963399887,0.3914656639099121,0.5591468214988708,0.706445038318634,1.8986835479736328,2.4565982818603516,-1.0760787725448608,4.454699993133545,9.638235092163086,0.8819403648376465,0.7640275955200195,-0.1983134150505066,-0.18253783881664276,13.96926498413086,-31.960174560546875,18.24018096923828,-0.22764253616333008,-1.3772773742675781,-0.8636051416397095,4.682342529296875,11.015512466430664,1.745545506477356
5_20251106_145056,1762411821455,5,0.18596626818180084,0.3932671844959259,0.5645561218261719,0.7014512419700623,1.9186497926712036,2.4589099884033203,-1.0604859590530396,4.300280570983887,9.492195129394531,0.8663787245750427,0.7566971778869629,-0.23191097378730774,-0.25584158301353455,13.979705810546875,-31.714019775390625,18.745561599731445,-0.3056497573852539,-1.2186546325683594,-0.7033334374427795,4.605930328369141,10.71084976196289,1.5697121620178223
5_20251106_145056,1762411821472,5,0.18546746671199799,0.39483851194381714,0.5699567198753357,0.6963143348693848,1.934679388999939,2.457493782043457,-1.0488094091415405,4.182969570159912,9.332986831665039,0.8975020051002502,0.7744122743606567,-0.26856285333633423,-0.3254801630973816,14.029016494750977,-31.42755126953125,19.226173400878906,-0.33836889266967773,-1.102290153503418,-0.5377680659294128,4.52133846282959,10.435276985168457,1.435270071029663
5_20251106_145056,1762411821491,5,0.18565182387828827,0.39622148871421814,0.5755555033683777,0.69085294008255,1.9493687152862549,2.4528162479400635,-1.0389994382858276,4.016579627990723,9.24799633026123,0.7430826425552368,0.8104532957077026,-0.30277130007743835,-0.3712950050830841,14.118606567382812,-31.075637817382812,19.682544708251953,-0.4038071632385254,-0.949824333190918,-0.5537500381469727,4.420386791229248,10.197820663452148,1.2968326807022095
5_20251106_145056,1762411821510,5,0.18632872402668,0.3975368142127991,0.5814248323440552,0.6849753260612488,1.9616342782974243,2.4454874992370605,-1.032072901725769,3.804701805114746,9.146247863769531,0.4246675372123718,0.8562681674957275,-0.32842761278152466,-0.39878395199775696,14.283130645751953,-30.681686401367188,20.183198928833008,-0.49254798889160156,-0.8412580490112305,-0.697732150554657,4.297249794006348,9.987505912780762,1.1223996877670288
5_20251106_145056,1762411821529,5,0.1872047632932663,0.39883920550346375,0.5876109600067139,0.6786715388298035,1.9616342782974243,2.4454874992370605,-1.032072901725769,3.804701805114746,9.146247863769531,0.4246675372123718,0.8562681674957275,-0.32842761278152466,-0.39878395199775696,14.513099670410156,-30.219635009765625,20.552461624145508,-0.49254798889160156,-0.8412580490112305,-0.697732150554657,4.297249794006348,9.987505912780762,1.1223996877670288
5_20251106_145056,1762411821549,5,0.18805807828903198,0.4002291262149811,0.5940701365470886,0.6719608902931213,1.979945182800293,2.4230899810791016,-1.02847421169281,3.7209086418151855,8.869729995727539,-0.33426177501678467,0.8880330920219421,-0.38523805141448975,-0.31326285004615784,14.803604125976562,-29.754150390625,20.978240966796875,-0.3558344841003418,-0.7295494079589844,-0.9947014451026917,4.076743125915527,9.599279403686523,0.660439670085907
5_20251106_145056,1762411821568,5,0.1887349933385849,0.40209996700286865,0.6003350615501404,0.6650508046150208,1.9868216514587402,2.4093873500823975,-1.032565712928772,3.7975196838378906,8.739251136779785,-0.8011110424995422,0.8880330920219421,-0.38523805141448975,-0.31326285004615784,15.166717529296875,-29.296188354492188,21.379667282104492,-0.22337865829467773,-0.6880226135253906,-1.1692405939102173,4.020898342132568,9.427273750305176,0.36812952160835266
5_20251106_145056,1762411821586,5,0.18934349715709686,0.40476492047309875,0.6060936450958252,0.658000648021698,1.9926578998565674,2.394697666168213,-1.0408604145050049,3.8777220249176025,8.469914436340332,-1.5049760341644287,0.8984178304672241,-0.6308056116104126,-0.16115757822990417,15.510181427001953,-28.7637939453125,21.714115142822266,-0.11454105377197266,-0.7658872604370117,-1.498484492301941,3.992263078689575,9.235801696777344,-0.006491571664810181
5_20251106_145056,1762411821606,5,0.19015567004680634,0.4086659550666809,0.6113229990005493,0.6504745483398438,1.9985278844833374,2.3769431114196777,-1.055696725845337,3.998623847961426,8.133543968200684,-2.382413148880005,0.9155219793319702,-0.8806493282318115,-0.06403007358312607,15.91176986694336,-28.26605224609375,22.14483642578125,0.00508880615234375,-0.8818063735961914,-1.9007372856140137,3.993535041809082,9.015350341796875,-0.4816758632659912
5_20251106_145056,1762411821626,5,0.19139420986175537,0.4143596887588501,0.6159936189651489,0.6420484185218811,2.005065441131592,2.354883909225464,-1.0796394348144531,4.105161666870117,7.995882987976074,-2.977346658706665,0.8807027339935303,-1.168366551399231,0.012938877567648888,16.32623291015625,-27.766571044921875,22.481435775756836,0.08930110931396484,-0.8155736923217773,-1.9965367317199707,4.015860557556152,8.811456680297852,-0.9808099865913391
5_20251106_145056,1762411821647,5,0.19368703663349152,0.4224497675895691,0.6196760535240173,0.6324738264083862,2.0115437507629395,2.334329605102539,-1.1053942441940308,4.329010009765625,8.230504989624023,-2.867218017578125,0.8807027339935303,-1.168366551399231,0.012938877567648888,16.774425506591797,-27.3265380859375,22.72357177734375,0.2505197525024414,-0.46476078033447266,-1.5091264247894287,4.078490257263184,8.695265769958496,-1.3580915927886963
5_20251106_145056,1762411821664,5,0.19756199419498444,0.43219178915023804,0.6221575736999512,0.6221731901168823,2.0188846588134766,2.3144900798797607,-1.132773518562317,4.510961532592773,8.5812406539917,-2.4195218086242676,0.4873058497905731,-1.2196792364120483,-0.23018527030944824,17.20880889892578,-26.924301147460938,22.8968448638916,0.3459768295288086,-0.09121990203857422,-0.8491441011428833,4.164984703063965,8.672460556030273,-1.5703777074813843
5_20251106_145056,1762411821682,5,0.2030651867389679,0.4409797787666321,0.6237626075744629,0.6125532984733582,2.0263936519622803,2.2968108654022217,-1.15836501121521,4.53131103515625,8.744038581848145,-1.956263542175293,0.18004092574119568,-0.9496771097183228,-0.570436954498291,17.680862426757812,-26.494979858398438,23.1126651763916,0.2930612564086914,0.057262420654296875,-0.30870866775512695,4.238249778747559,8.686776161193848,-1.647554874420166
5_20251106_145056,1762411821702,5,0.21015608310699463,0.4460877478122711,0.6250364780426025,0.6051194667816162,2.034250020980835,2.2775776386260986,-1.1850831508636475,4.215290069580078,8.49864387512207,-1.5504639148712158,-0.027042217552661896,-0.7322092056274414,-0.9265710711479187,18.186431884765625,-26.136993408203125,23.16617774963379,-0.018367767333984375,-0.15050601959228516,0.07767283916473389,4.2336578369140625,8.649149894714355,-1.6281367540359497
5_20251106_145056,1762411821720,5,0.21895171701908112,0.446894109249115,0.6266676187515259,0.5996944904327393,2.034250020980835,2.2775776386260986,-1.1850831508636475,4.215290069580078,8.49864387512207,-1.5504639148712158,-0.11195240914821625,-0.6283621788024902,-1.1470931768417358,18.755836486816406,-25.736282348632812,23.114805221557617,-0.018367767333984375,-0.15050601959228516,0.07767283916473389,4.2336578369140625,8.649149894714355,-1.6281367540359497
5_20251106_145056,1762411821740,5,0.22888898849487305,0.4443681538105011,0.6291292309761047,0.5952673554420471,2.0418894290924072,2.2406394481658936,-1.2284448146820068,3.006270170211792,7.897724151611328,-1.217684268951416,-0.09057214856147766,-0.6381360292434692,-1.1996275186538696,19.45816421508789,-25.3631591796875,22.932872772216797,-0.8820581436157227,-0.5295610427856445,0.27724575996398926,3.8883283138275146,8.427285194396973,-1.4949300289154053
5_20251106_145056,1762411821758,5,0.23953552544116974,0.44066885113716125,0.6319165825843811,0.5908596515655518,2.0418894290924072,2.2406394481658936,-1.2284448146820068,3.006270170211792,7.897724151611328,-1.217684268951416,0.00044669676572084427,-0.7425938844680786,-1.123880386352539,20.21335220336914,-24.923263549804688,22.673124313354492,-0.8820581436157227,-0.5295610427856445,0.27724575996398926,3.8883283138275146,8.427285194396973,-1.4949300289154053
5_20251106_145056,1762411821778,5,0.2501641511917114,0.4374326467514038,0.6347818970680237,0.585766613483429,2.0336785316467285,2.198201894760132,-1.2679537534713745,1.8283734321594238,7.400948524475098,-1.7312185764312744,0.09513072669506073,-0.9368488788604736,-0.9778836965560913,20.992813110351562,-24.481918334960938,22.427871704101562,-1.415092945098877,-0.6970767974853516,-0.19929814338684082,3.243466377258301,8.09802532196045,-1.5319204330444336
5_20251106_145056,1762411821799,5,0.260636568069458,0.435829222202301,0.6373276114463806,0.5795989632606506,2.0213024616241455,2.1739017963409424,-1.288461685180664,1.2920953035354614,7.284835338592529,-1.8497263193130493,0.1788191944360733,-1.1506515741348267,-0.7695788145065308,21.848297119140625,-23.997055053710938,22.078224182128906,-1.5610967874526978,-0.6505517959594727,-0.25424468517303467,2.853192090988159,7.935387134552002,-1.5954816341400146
5_20251106_145056,1762411821817,5,0.271077036857605,0.4366312623023987,0.6390585899353027,0.5722538828849792,2.0044026374816895,2.1486170291900635,-1.309070110321045,1.1616170406341553,7.211815357208252,-1.9658401012420654,0.22646664083003998,-1.2880960702896118,-0.5386719703674316,21.848297119140625,-23.997055053710938,22.078224182128906,-1.3532600402832031,-0.5788578987121582,-0.29628682136535645,2.5148770809173584,7.79067325592041,-1.669553279876709
5_20251106_145056,1762411821835,5,0.2810564339160919,0.43985632061958313,0.6397354006767273,0.5641562938690186,1.9866712093353271,2.1252517700195312,-1.3282893896102905,1.181966781616211,7.081336498260498,-2.318969488143921,0.24173825979232788,-1.4182102680206299,-0.3645755350589752,22.839027404785156,-23.490234375,21.666654586791992,-1.0663282871246338,-0.5674691200256348,-0.5195329189300537,2.2482950687408447,7.648805618286133,-1.7994365692138672
5_20251106_145056,1762411821856,5,0.29056409001350403,0.4450641870498657,0.6392037272453308,0.5557957887649536,1.9629675149917603,2.0969479084014893,-1.3521826267242432,1.039517879486084,6.930508613586426,-2.5727438926696777,0.21791452169418335,-1.5623743534088135,-0.2796653211116791,23.72903823852539,-23.052139282226562,21.209293365478516,-0.9670217037200928,-0.5746378898620605,-0.6186459064483643,2.0065395832061768,7.505146503448486,-1.9540979862213135
5_20251106_145056,1762411821875,5,0.30022478103637695,0.45180824398994446,0.6375767588615417,0.5470194220542908,1.9406362771987915,2.072108268737793,-1.374411702156067,0.776167094707489,6.777286529541016,-3.0802929401397705,0.13483694195747375,-1.6821038722991943,-0.24362429976463318,24.65660858154297,-22.59869384765625,20.713117599487305,-0.9842979311943054,-0.5822882652282715,-0.9009559154510498,1.7604650259017944,7.359574794769287,-2.1793370246887207
5_20251106_145056,1762411821893,5,0.3104439973831177,0.4592645466327667,0.6349992752075195,0.538030207157135,1.9163848161697388,2.046339750289917,-1.398298978805542,0.5271807909011841,6.478023529052734,-3.304141044616699,0.02304869145154953,-1.8849109411239624,-0.20391809940338135,25.581233978271484,-22.218841552734375,20.03964614868164,-0.986627459526062,-0.7052412033081055,-0.8998432159423828,1.513808250427246,7.18326473236084,-2.4042978286743164
5_20251106_145056,1762411821912,5,0.3218577206134796,0.4673185348510742,0.6311618089675903,0.5288248658180237,1.887317180633545,2.0168356895446777,-1.4255101680755615,0.37276142835617065,6.42535400390625,-3.061140298843384,-0.07957658171653748,-2.1023786067962646,-0.11534272134304047,26.44483184814453,-21.843093872070312,19.377239227294922,-0.9128374457359314,-0.6063289642333984,-0.5254738330841064,1.285598874092102,7.031682968139648,-2.5356664657592773
5_20251106_145056,1762411821931,5,0.3347933888435364,0.4766322076320648,0.6254931688308716,0.5191275477409363,1.85828697681427,1.9891785383224487,-1.450032114982605,0.2662240266799927,6.656384468078613,-2.522468090057373,-0.17487147450447083,-2.1659085750579834,-0.04631499946117401,27.294498443603516,-21.52850341796875,18.469728469848633,-0.8154999017715454,-0.30023908615112305,0.010558605194091797,1.081723928451538,6.956623554229736,-2.533026695251465
5_20251106_145056,1762411821951,5,0.348478764295578,0.4866389334201813,0.6182833313941956,0.5093827843666077,1.8265774250030518,1.9619369506835938,-1.4720255136489868,0.20038631558418274,7.0933074951171875,-1.7012922763824463,-0.24695351719856262,-2.0480117797851562,-0.03776289522647858,28.102760314941406,-21.315673828125,17.45050621032715,-0.7050701379776001,0.10934734344482422,0.6653873920440674,0.9054564237594604,6.983960151672363,-2.3666796684265137
5_20251106_145056,1762411821969,5,0.36212435364723206,0.4962347149848938,0.6101949214935303,0.5002791881561279,1.7978416681289673,1.940459132194519,-1.4879446029663086,0.24587419629096985,7.7205610275268555,-1.1949403285980225,-0.2726098299026489,-1.7896159887313843,-0.1397773027420044,28.915538787841797,-21.251663208007812,16.320476531982422,-0.5276658535003662,0.5892806053161621,0.9373915195465088,0.7735400199890137,7.131280422210693,-2.1323318481445312
5_20251106_145056,1762411821988,5,0.3749336898326874,0.5041415095329285,0.6024864912033081,0.49221548438072205,1.7670364379882812,1.920709252357483,-1.502055287361145,0.04836105555295944,7.78280782699585,-1.4570941925048828,-0.2726098299026489,-1.7896159887313843,-0.1397773027420044,29.570789337158203,-21.196762084960938,15.062423706054688,-0.5801432132720947,0.5212221145629883,0.5401901006698608,0.6285042762756348,7.261585712432861,-1.9972842931747437
5_20251106_145056,1762411822007,5,0.38705000281333923,0.5097271203994751,0.5961733460426331,0.48471423983573914,1.7670364379882812,1.920709252357483,-1.502055287361145,0.04836105555295944,7.78280782699585,-1.4570941925048828,-0.1608215868473053,-1.6466736793518066,-0.45131829380989075,30.335304260253906,-21.146865844726562,13.767972946166992,-0.5801432132720947,0.5212221145629883,0.5401901006698608,0.6285042762756348,7.261585712432861,-1.9972842931747437
5_20251106_145056,1762411822027,5,0.39919978380203247,0.5141898393630981,0.5910729169845581,0.47632044553756714,1.6996550559997559,1.8834048509597778,-1.5265699625015259,-0.8290761709213257,7.088519096374512,-1.892820119857788,-0.1608215868473053,-1.6466736793518066,-0.45131829380989075,30.994064331054688,-21.040786743164062,12.416362762451172,-1.0198051929473877,-0.15979385375976562,0.02318871021270752,0.1907290369272232,7.248312950134277,-1.9160088300704956
5_20251106_145056,1762411822045,5,0.41160377860069275,0.5187429785728455,0.5859625935554504,0.467050164937973,1.6996550559997559,1.8834048509597778,-1.5265699625015259,-0.8290761709213257,7.088519096374512,-1.892820119857788,-0.20602558553218842,-1.9576038122177124,-0.2112484872341156,31.578990936279297,-20.963653564453125,10.966667175292969,-1.0198051929473877,-0.15979385375976562,0.02318871021270752,0.1907290369272232,7.248312950134277,-1.9160088300704956
5_20251106_145056,1762411822066,5,0.4245638847351074,0.5245538353919983,0.5792083144187927,0.4572816491127014,1.6262744665145874,1.850131630897522,-1.5427484512329102,-1.6658135652542114,7.329126358032227,-0.8561753034591675,-0.20907990634441376,-1.9130107164382935,0.04164952039718628,32.13761520385742,-20.937118530273438,9.393289566040039,-1.222470760345459,0.09596395492553711,0.771567702293396,-0.44334280490875244,7.2331624031066895,-1.6277430057525635
5_20251106_145056,1762411822085,5,0.43712490797042847,0.5319202542304993,0.5704826712608337,0.447808176279068,1.5818195343017578,1.8337256908416748,-1.5471206903457642,-1.5784289836883545,7.491924285888672,-0.8118844628334045,-0.23534709215164185,-1.738303303718567,0.20841558277606964,32.64590072631836,-20.927536010742188,7.939332008361816,-0.9080689549446106,0.20700931549072266,0.6526868939399719,-0.6703600287437439,7.284914970397949,-1.4645713567733765
5_20251106_145056,1762411822102,5,0.44795364141464233,0.5395175814628601,0.5610260963439941,0.43989548087120056,1.5459420680999756,1.8217737674713135,-1.5482791662216187,-1.4395713806152344,7.587688446044922,-0.46114903688430786,-0.33247455954551697,-1.5556548833847046,0.29943445324897766,33.1036376953125,-20.94677734375,6.53695011138916,-0.6153690814971924,0.2422189712524414,0.8027378916740417,-0.824202299118042,7.3454694747924805,-1.2638869285583496
5_20251106_145056,1762411822123,5,0.45751819014549255,0.5465561151504517,0.5512773990631104,0.4336435794830322,1.506639838218689,1.8102046251296997,-1.5473297834396362,-1.264802098274231,7.7540788650512695,-0.4695283770561218,-0.46625396609306335,-1.3271914720535278,0.32142558693885803,33.381996154785156,-20.926895141601562,5.0471696853637695,-0.35247981548309326,0.3268876075744629,0.635486900806427,-0.9123222827911377,7.427191257476807,-1.1050152778625488
5_20251106_145056,1762411822141,5,0.4662169814109802,0.5522814989089966,0.5415048003196716,0.42941758036613464,1.506639838218689,1.8102046251296997,-1.5473297834396362,-1.264802098274231,7.7540788650512695,-0.4695283770561218,-0.5731552839279175,-1.2587746381759644,0.3232581615447998,33.606689453125,-20.986480712890625,3.6484575271606445,-0.35247981548309326,0.3268876075744629,0.635486900806427,-0.9123222827911377,7.427191257476807,-1.1050152778625488
5_20251106_145056,1762411822160,5,0.47442036867141724,0.5564146637916565,0.5321112275123596,0.4268321096897125,1.430010199546814,1.7907403707504272,-1.5395729541778564,-1.1091856956481934,8.01623249053955,0.13737568259239197,-0.7209845781326294,-1.224566102027893,0.3794577419757843,33.74687194824219,-21.050537109375,2.1381826400756836,-0.12101280689239502,0.4390411376953125,0.9111961126327515,-0.9881728887557983,7.577191352844238,-0.7738204598426819
5_20251106_145056,1762411822179,5,0.4831274449825287,0.5603389739990234,0.5217415690422058,0.42472800612449646,1.396923542022705,1.7866175174713135,-1.5302424430847168,-1.076865315437317,8.98584270477295,1.0758622884750366,-0.8370488882064819,-1.0193156003952026,0.37762513756752014,33.7597541809082,-21.222732543945312,0.5938587188720703,-0.07095396518707275,1.1269207000732422,1.4797462224960327,-1.0059113502502441,7.858922004699707,-0.4038839638233185
5_20251106_145056,1762411822198,5,0.4918234646320343,0.5631582140922546,0.5109012126922607,0.4241963028907776,1.396923542022705,1.7866175174713135,-1.5302424430847168,-1.076865315437317,8.98584270477295,1.0758622884750366,-0.7270932197570801,-0.6295839548110962,0.19314396381378174,33.73488998413086,-21.39892578125,-0.789741039276123,-0.07095396518707275,1.1269207000732422,1.4797462224960327,-1.0059113502502441,7.858922004699707,-0.4038839638233185
5_20251106_145056,1762411822218,5,0.4994935393333435,0.5639968514442444,0.5017583966255188,0.4250321090221405,1.3581968545913696,1.788472294807434,-1.5117902755737305,-1.0900328159332275,9.664569854736328,1.667204737663269,-0.5407794713973999,-0.4151704013347626,-0.026767326518893242,33.610843658447266,-21.595382690429688,-2.042365550994873,-0.06729722023010254,1.4445180892944336,1.65687096118927,-1.022735595703125,8.220051765441895,0.010333746671676636
5_20251106_145056,1762411822236,5,0.5052707195281982,0.562769889831543,0.4964900314807892,0.4260154664516449,1.3024145364761353,1.7977850437164307,-1.4825624227523804,-0.27603933215141296,8.760797500610352,-0.2277243733406067,-0.6098072528839111,-0.8281149864196777,0.08807523548603058,33.610843658447266,-21.595382690429688,-2.042365550994873,0.5504746437072754,0.24935531616210938,-0.25061100721359253,-0.8265140056610107,8.511442184448242,0.022886641323566437
5_20251106_145056,1762411822257,5,0.5114808678627014,0.5621482729911804,0.4913340210914612,0.42540276050567627,1.3024145364761353,1.7977850437164307,-1.4825624227523804,-0.27603933215141296,8.760797500610352,-0.2277243733406067,-0.6098072528839111,-0.8281149864196777,0.08807523548603058,33.451454162597656,-21.769378662109375,-3.2689011096954346,0.5504746437072754,0.24935531616210938,-0.25061100721359253,-0.8265140056610107,8.511442184448242,0.022886641323566437
5_20251106_145056,1762411822277,5,0.5199375748634338,0.5646839141845703,0.48092642426490784,0.42368242144584656,1.2484930753707886,1.8176798820495605,-1.4437518119812012,-0.9763132333755493,10.269079208374023,1.630096197128296,-0.8113925457000732,-1.4328709840774536,0.7740762829780579,33.27201843261719,-21.869476318359375,-4.508349895477295,-0.17248272895812988,1.284621238708496,1.1510004997253418,-0.8038305044174194,8.984457969665527,0.4790957570075989
5_20251106_145056,1762411822295,5,0.528925895690918,0.5697222352027893,0.46609175205230713,0.4223889410495758,1.2250289916992188,1.8325175046920776,-1.4237985610961914,-1.3318369388580322,10.848451614379883,1.3966715335845947,-0.8156685829162598,-1.069406509399414,0.7435330152511597,32.95482635498047,-22.029754638671875,-5.632603168487549,-0.4224051237106323,1.4911956787109375,0.7340606451034546,-0.9094318151473999,9.357255935668945,0.6626108884811401
5_20251106_145056,1762411822313,5,0.5361179113388062,0.5740290284156799,0.451808899641037,0.42300945520401,1.2010258436203003,1.8502055406570435,-1.402994155883789,-1.6047641038894653,10.816131591796875,1.4134302139282227,-0.9842672348022461,-0.6601271629333496,0.5346173048019409,32.68928527832031,-22.148117065429688,-6.8622331619262695,-0.5562658309936523,1.1671009063720703,0.6006554365158081,-1.048498272895813,9.649030685424805,0.8127747774124146
5_20251106_145056,1762411822331,5,0.542525053024292,0.5753306150436401,0.44014841318130493,0.4253593683242798,1.2010258436203003,1.8502055406570435,-1.402994155883789,-1.6047641038894653,10.816131591796875,1.4134302139282227,-1.2023459672927856,-0.3015495538711548,0.35563400387763977,32.311771392822266,-22.299957275390625,-7.975158214569092,-0.5562658309936523,1.1671009063720703,0.6006554365158081,-1.048498272895813,9.649030685424805,0.8127747774124146
5_20251106_145056,1762411822352,5,0.5493859648704529,0.5731603503227234,0.4306226670742035,0.42921602725982666,1.14989173412323,1.893338918685913,-1.3547364473342896,-1.5173795223236084,10.72874641418457,2.3291730880737305,-1.3452882766723633,-0.16899192333221436,0.3324211537837982,31.910293579101562,-22.44122314453125,-9.04825210571289,-0.2824634313583374,0.6822090148925781,1.095371127128601,-1.234916090965271,10.046537399291992,1.2338019609451294
5_20251106_145056,1762411822369,5,0.5566853284835815,0.5682858824729919,0.422191858291626,0.43463391065597534,1.125868558883667,1.914562463760376,-1.3277758359909058,-1.7172868251800537,10.558765411376953,2.9001657962799072,-1.3452882766723633,-0.16899192333221436,0.3324211537837982,31.41657257080078,-22.488922119140625,-10.069091796875,-0.3858966827392578,0.40978240966796875,1.3330910205841064,-1.331390142440796,10.148983001708984,1.5670747756958008
5_20251106_145056,1762411822389,5,0.563348650932312,0.5632056593894958,0.4136163592338562,0.44086188077926636,1.0992066860198975,1.9381307363510132,-1.2945516109466553,-1.7603806257247925,10.532430648803711,3.1347873210906982,-1.0025931596755981,-0.060257986187934875,0.7807958126068115,30.974510192871094,-22.48309326171875,-11.100430488586426,-0.343192458152771,0.30675792694091797,1.2541700601577759,-1.4171881675720215,10.225672721862793,1.8806172609329224
5_20251106_145056,1762411822408,5,0.567698061466217,0.5597772002220154,0.404687762260437,0.44787976145744324,1.0751124620437622,1.9599504470825195,-1.261086344718933,-1.4287978410720825,10.425893783569336,3.1491520404815674,-0.8046730756759644,0.14071649312973022,0.9689421653747559,30.466796875,-22.5572509765625,-12.06822395324707,-0.009287714958190918,0.16017723083496094,1.0148279666900635,-1.4195101261138916,10.265716552734375,2.134324073791504
5_20251106_145056,1762411822429,5,0.5694159865379333,0.5578044652938843,0.39595767855644226,0.45589157938957214,1.0536918640136719,1.9807442426681519,-1.2274954319000244,-0.8841403722763062,10.289430618286133,2.790037155151367,-0.6831109523773193,0.3526865243911743,1.0318611860275269,29.906726837158203,-22.685882568359375,-12.930904388427734,0.42829573154449463,0.01897144317626953,0.5245704650878906,-1.3124361038208008,10.270459175109863,2.2654666900634766
5_20251106_145056,1762411822447,5,0.5687642693519592,0.5561757683753967,0.38849663734436035,0.46502265334129333,1.0354982614517212,2.0017521381378174,-1.192382574081421,-0.25090131163597107,10.340902328491211,2.7660961151123047,-0.7356453537940979,0.4345424175262451,1.0770652294158936,29.39321517944336,-22.825927734375,-13.589143753051758,0.8492279052734375,0.056354522705078125,0.40050363540649414,-1.100129246711731,10.284547805786133,2.3655924797058105
5_20251106_145056,1762411822466,5,0.5670434832572937,0.5541543960571289,0.38180622458457947,0.4749722480773926,1.0235366821289062,2.022334575653076,-1.1591280698776245,0.5247867107391357,10.875984191894531,2.936077117919922,-0.7356453537940979,0.4345424175262451,1.0770652294158936,28.80389404296875,-22.997604370117188,-14.075141906738281,1.2999327182769775,0.47314929962158203,0.4563877582550049,-0.7751460671424866,10.40283489227295,2.479689359664917
5_20251106_145056,1762411822486,5,0.5652780532836914,0.5517036318778992,0.3744218051433563,0.4856873154640198,1.0166549682617188,2.0452322959899902,-1.124336838722229,0.8958719968795776,11.164472579956055,2.9851560592651367,-0.820555567741394,0.44798144698143005,1.1192148923873901,28.226966857910156,-23.156600952148438,-14.492804527282715,1.336814522743225,0.6093101501464844,0.4043734073638916,-0.4409424960613251,10.55516242980957,2.580782651901245
5_20251106_145056,1762411822504,5,0.5635749697685242,0.5491048097610474,0.3668036162853241,0.49630865454673767,1.0141867399215698,2.066345453262329,-1.092807650566101,0.9461480975151062,11.178836822509766,3.3047683238983154,-0.6947174072265625,0.4131621718406677,0.903579592704773,27.720760345458984,-23.3372802734375,-14.772889137268066,1.1096725463867188,0.49893951416015625,0.5791885852813721,-0.16352438926696777,10.67989730834961,2.7255797386169434
5_20251106_145056,1762411822524,5,0.5619707107543945,0.5467700362205505,0.3598780333995819,0.50568687915802,1.0146126747131348,2.0897955894470215,-1.057234764099121,0.8336254358291626,11.062723159790039,3.4795374870300293,-0.6947174072265625,0.4131621718406677,0.903579592704773,27.25625991821289,-23.628753662109375,-14.958773612976074,0.7977198362350464,0.3062610626220703,0.6031661033630371,0.03590556979179382,10.756462097167969,2.876371383666992
5_20251106_145056,1762411822542,5,0.5606071949005127,0.543521523475647,0.3543533980846405,0.5145265460014343,1.0167996883392334,2.11008358001709,-1.0251843929290771,0.7761670351028442,10.853239059448242,3.5405871868133545,-0.7313692569732666,0.6251322031021118,0.5792104601860046,26.687843322753906,-24.028106689453125,-15.042563438415527,0.5922091603279114,0.07742118835449219,0.5313727855682373,0.18395785987377167,10.77581787109375,3.009214401245117
5_20251106_145056,1762411822561,5,0.559738278388977,0.5389333367347717,0.35023558139801025,0.5230478048324585,1.0202562808990479,2.1303579807281494,-0.9916659593582153,0.6444916129112244,10.750293731689453,3.5118579864501953,-0.7894014120101929,0.6813317537307739,0.48086127638816833,26.1357421875,-24.351470947265625,-15.110762596130371,0.36842700839042664,-0.02041912078857422,0.4021148681640625,0.27606460452079773,10.770712852478027,3.109743118286133
5_20251106_145056,1762411822579,5,0.5590108036994934,0.5328653454780579,0.34737297892570496,0.531877338886261,1.0202562808990479,2.1303579807281494,-0.9916659593582153,0.6444916129112244,10.750293731689453,3.5118579864501953,-0.7979535460472107,0.7338660955429077,0.42466169595718384,25.64458465576172,-24.65924072265625,-15.081631660461426,0.36842700839042664,-0.02041912078857422,0.4021148681640625,0.27606460452079773,10.770712852478027,3.109743118286133
5_20251106_145056,1762411822600,5,0.5590875148773193,0.5263631939888,0.3444952368736267,0.540079653263092,1.0288288593292236,2.165510416030884,-0.9218564629554749,0.5199984908103943,10.11825180053711,4.082850456237793,-0.7808493375778198,0.7784593105316162,0.4106118381023407,25.209320068359375,-24.838134765625,-15.061415672302246,0.15458548069000244,-0.47216033935546875,0.6754586696624756,0.36541301012039185,10.590412139892578,3.4073917865753174
5_20251106_145056,1762411822619,5,0.5590860843658447,0.5194082260131836,0.34214645624160767,0.5482459664344788,1.032890796661377,2.1779160499572754,-0.8908002376556396,0.5331660509109497,10.114660263061523,4.260013580322266,-0.7594690322875977,0.8456543684005737,0.47047653794288635,24.911724090576172,-24.94537353515625,-15.048001289367676,0.13420242071151733,-0.3806018829345703,0.6820974349975586,0.3989636301994324,10.495262145996094,3.577916145324707
5_20251106_145056,1762411822637,5,0.5585879683494568,0.5122918486595154,0.34008538722991943,0.5566672682762146,1.032890796661377,2.1779160499572754,-0.8908002376556396,0.5331660509109497,10.114660263061523,4.260013580322266,-0.7411431074142456,0.9287319779396057,0.5767669677734375,24.61412811279297,-25.0526123046875,-15.034586906433105,0.13420242071151733,-0.3806018829345703,0.6820974349975586,0.3989636301994324,10.495262145996094,3.577916145324707
5_20251106_145056,1762411822657,5,0.5572193264961243,0.504919171333313,0.3380615711212158,0.5659307837486267,1.0465208292007446,2.2032277584075928,-0.8192009329795837,1.298080563545227,10.386390686035156,3.9224460124969482,-0.6825001239776611,0.9501122236251831,0.665342390537262,24.39177703857422,-25.105789184570312,-14.922560691833496,0.6520459651947021,-0.04669475555419922,0.19904804229736328,0.6460345983505249,10.433085441589355,3.723397970199585
5_20251106_145056,1762411822677,5,0.5548060536384583,0.49784475564956665,0.3359857499599457,0.5757207274436951,1.0465208292007446,2.2032277584075928,-0.8192009329795837,1.298080563545227,10.386390686035156,3.9224460124969482,-0.636074423789978,0.9366732239723206,0.6323556900024414,24.39177703857422,-25.105789184570312,-14.922560691833496,0.6520459651947021,-0.04669475555419922,0.19904804229736328,0.6460345983505249,10.433085441589355,3.723397970199585
5_20251106_145056,1762411822696,5,0.5517945289611816,0.49122726917266846,0.33397361636161804,0.5853888988494873,1.0574151277542114,2.215808391571045,-0.783004879951477,1.5518549680709839,10.552780151367188,4.054121017456055,-0.6208027601242065,0.9574426412582397,0.518734872341156,24.078792572021484,-25.252975463867188,-14.761749267578125,0.7246562838554382,0.09575557708740234,0.26457834243774414,0.8271986842155457,10.457024574279785,3.7895426750183105
5_20251106_145056,1762411822715,5,0.548999547958374,0.4845392107963562,0.33246028423309326,0.5943832397460938,1.0796406269073486,2.2369048595428467,-0.7179833650588989,1.3902533054351807,10.625801086425781,4.860932350158691,-0.6476808190345764,1.0942763090133667,0.4216074049472809,23.830768585205078,-25.32110595703125,-14.569869995117188,0.3471395969390869,0.13042545318603516,0.7462120056152344,1.0431137084960938,10.495375633239746,4.114720344543457
5_20251106_145056,1762411822734,5,0.546475350856781,0.47692805528640747,0.3318388760089874,0.6031478643417358,1.0796406269073486,2.2369048595428467,-0.7179833650588989,1.3902533054351807,10.625801086425781,4.860932350158691,-0.6971608400344849,1.2524902820587158,0.3586883246898651,23.638446807861328,-25.47357177734375,-14.336836814880371,0.3471395969390869,0.13042545318603516,0.7462120056152344,1.0431137084960938,10.495375633239746,4.114720344543457
5_20251106_145056,1762411822752,5,0.5439240336418152,0.46760109066963196,0.33228370547294617,0.6124405264854431,1.1037851572036743,2.257423162460327,-0.6513620018959045,1.512352466583252,10.587494850158691,4.866917610168457,-0.7032694816589355,1.290974736213684,0.3898424208164215,23.62051010131836,-25.710830688476562,-13.569295883178711,0.31352829933166504,0.046889305114746094,0.47834157943725586,1.198824167251587,10.540605545043945,4.388576030731201
5_20251106_145056,1762411822774,5,0.541191577911377,0.4573334753513336,0.3331218957901001,0.6220832467079163,1.119124174118042,2.2693183422088623,-0.6105902194976807,1.604525089263916,10.686849594116211,5.282293319702148,-0.6385178565979004,1.2579880952835083,0.4631461799144745,23.43273162841797,-25.9888916015625,-13.257314682006836,0.3245607614517212,0.11699485778808594,0.7149739265441895,1.2799643278121948,10.569854736328125,4.567319393157959
5_20251106_145056,1762411822791,5,0.5377900004386902,0.4474600851535797,0.333770215511322,0.6317901611328125,1.131189227104187,2.278775453567505,-0.5776804089546204,1.6464219093322754,10.899925231933594,5.923912048339844,-0.5413903594017029,1.3264049291610718,0.4570375382900238,23.089157104492188,-26.227310180664062,-12.923620223999023,0.2931661605834961,0.2640562057495117,1.0852742195129395,1.3532557487487793,10.635869026184082,4.838637828826904
5_20251106_145056,1762411822809,5,0.5335707068443298,0.4381040632724762,0.3346492648124695,0.6413868069648743,1.1438407897949219,2.288496255874634,-0.5417749285697937,1.5626285076141357,10.720367431640625,5.9765825271606445,-0.4131087064743042,1.5426510572433472,0.33425372838974,22.852745056152344,-26.496795654296875,-12.53223991394043,0.16749811172485352,0.06759834289550781,0.9103555679321289,1.3951303958892822,10.652769088745117,5.066226959228516
5_20251106_145056,1762411822828,5,0.5287207961082458,0.42798173427581787,0.33727535605430603,0.6507928371429443,1.156826138496399,2.297234058380127,-0.5043558478355408,1.503973126411438,10.28464126586914,5.58155632019043,-0.3874523937702179,1.7020866870880127,0.32203641533851624,22.54018783569336,-26.833160400390625,-12.212701797485352,0.0870741605758667,-0.29450225830078125,0.4122633934020996,1.4168989658355713,10.579143524169922,5.16929292678833
5_20251106_145056,1762411822849,5,0.5232425332069397,0.41653481125831604,0.34190618991851807,0.6601637601852417,1.156826138496399,2.297234058380127,-0.5043558478355408,1.503973126411438,10.28464126586914,5.58155632019043,-0.4192173480987549,1.6636022329330444,0.49674373865127563,22.304271697998047,-27.101974487304688,-11.888901710510254,0.0870741605758667,-0.29450225830078125,0.4122633934020996,1.4168989658355713,10.579143524169922,5.16929292678833
5_20251106_145056,1762411822867,5,0.5169437527656555,0.4048009216785431,0.34618809819221497,0.6701188087463379,1.187018871307373,2.3137640953063965,-0.4292066991329193,2.481962203979492,10.953792572021484,5.652182102203369,-0.3508005142211914,1.5438727140426636,0.6683967113494873,22.08910369873047,-27.432113647460938,-11.551924705505371,0.768977165222168,0.3255796432495117,0.3132624626159668,1.7129850387573242,10.628212928771973,5.338919639587402
5_20251106_145056,1762411822886,5,0.5094779133796692,0.3944302499294281,0.34916338324546814,0.6803984045982361,1.2053420543670654,2.3234753608703613,-0.3944008946418762,2.973949909210205,11.260236740112305,5.521703720092773,-0.3508005142211914,1.5438727140426636,0.6683967113494873,21.829505920410156,-27.701568603515625,-11.323719024658203,1.0087718963623047,0.5056190490722656,0.14622735977172852,1.9651780128479004,10.754617691040039,5.375476360321045
5_20251106_145056,1762411822906,5,0.5010305643081665,0.38566315174102783,0.35180896520614624,0.6902627944946289,1.2280128002166748,2.3345088958740234,-0.3593980073928833,3.395311117172241,11.189611434936523,5.440304279327393,-0.0734679326415062,1.4339171648025513,0.639686107635498,21.578472137451172,-28.03314208984375,-11.0828275680542,1.144106388092041,0.3479957580566406,0.051862239837646484,2.2512047290802,10.841615676879883,5.388442039489746
5_20251106_145056,1762411822926,5,0.49228373169898987,0.37793248891830444,0.35511934757232666,0.6990808248519897,1.253686785697937,2.345735788345337,-0.3262168765068054,3.6119771003723145,11.086664199829102,5.364890098571777,-0.0734679326415062,1.4339171648025513,0.639686107635498,21.03018569946289,-28.576011657714844,-10.340845108032227,1.0886180400848389,0.19603824615478516,-0.01884174346923828,2.5233590602874756,10.890625953674316,5.383731842041016
5_20251106_145056,1762411822945,5,0.4837345778942108,0.3707178235054016,0.35929903388023376,0.706734299659729,1.2795946598052979,2.3559789657592773,-0.2964309751987457,3.5210013389587402,10.931048393249512,5.325387477874756,0.021216094493865967,1.3758848905563354,0.5138479471206665,20.7779541015625,-28.920814514160156,-10.032635688781738,0.7981138229370117,0.03233814239501953,-0.04667520523071289,2.7228875160217285,10.898710250854492,5.372062683105469
5_20251106_145056,1762411822962,5,0.47601446509361267,0.3637193441390991,0.3640485405921936,0.7131529450416565,1.303053855895996,2.364788293838501,-0.27164140343666077,3.3773555755615234,10.945413589477539,5.131465435028076,0.05970057472586632,1.377106785774231,0.25972822308540344,20.56690216064453,-29.187355041503906,-9.775436401367188,0.5235743522644043,0.03736305236816406,-0.19247770309448242,2.853781223297119,10.908050537109375,5.323943138122559
5_20251106_145056,1762411822982,5,0.4689237177371979,0.35620248317718506,0.3693685531616211,0.7188860774040222,1.330686330795288,2.3743326663970947,-0.24425125122070312,3.318699836730957,10.808948516845703,5.220047473907471,0.1018502414226532,1.3703871965408325,0.20658299326896667,20.40420150756836,-29.451271057128906,-9.462209701538086,0.3719348907470703,-0.07928180694580078,-0.08311700820922852,2.9467649459838867,10.888230323791504,5.303164482116699
5_20251106_145056,1762411823000,5,0.4622071087360382,0.34819355607032776,0.3750590980052948,0.7241936922073364,1.353724479675293,2.381174087524414,-0.2224135398864746,3.276803493499756,10.494125366210938,5.175756454467773,0.2405165433883667,1.3044137954711914,0.2566739022731781,20.362667083740234,-29.70818328857422,-9.04946517944336,0.26403069496154785,-0.31528472900390625,-0.10192680358886719,3.012772798538208,10.809410095214844,5.277683258056641
5_20251106_145056,1762411823020,5,0.4555405378341675,0.3409748673439026,0.38111570477485657,0.7286767363548279,1.3814126253128052,2.387403726577759,-0.19755324721336365,3.207374334335327,10.27267074584961,5.0488691329956055,0.2405165433883667,1.3044137954711914,0.2566739022731781,20.346817016601562,-29.93852996826172,-8.621696472167969,0.15568137168884277,-0.42939186096191406,-0.18305110931396484,3.0516929626464844,10.702062606811523,5.23192024230957
5_20251106_145056,1762411823038,5,0.44799914956092834,0.3352877199649811,0.38735419511795044,0.732690691947937,1.4042418003082275,2.391348361968994,-0.1773921549320221,3.1666746139526367,10.243942260742188,5.198500633239746,0.41827818751335144,1.142534613609314,0.375792533159256,20.30590057373047,-30.171409606933594,-8.100293159484863,0.09198522567749023,-0.36649608612060547,-0.026735782623291016,3.0746893882751465,10.610438346862793,5.225236415863037
5_20251106_145056,1762411823060,5,0.43988701701164246,0.3308553397655487,0.39355483651161194,0.7363075017929077,1.4286407232284546,2.394820213317871,-0.15569737553596497,3.1738569736480713,10.38279914855957,5.361298561096191,0.4048391282558441,1.1975125074386597,0.2615608274936676,20.317054748535156,-30.338584899902344,-7.548576831817627,0.07933402061462402,-0.1821117401123047,0.10884952545166016,3.0945229530334473,10.564910888671875,5.252449035644531
5_20251106_145056,1762411823079,5,0.4320116937160492,0.32617756724357605,0.3999923765659332,0.7395811080932617,1.4513839483261108,2.39717173576355,-0.13453081250190735,2.9512057304382324,10.253518104553223,5.435516357421875,0.40361741185188293,1.2665401697158813,0.10945549607276917,20.412216186523438,-30.513572692871094,-6.912593364715576,-0.1146538257598877,-0.2491140365600586,0.146453857421875,3.06585955619812,10.502632141113281,5.2890625
5_20251106_145056,1762411823097,5,0.42504310607910156,0.3203485608100891,0.4069027602672577,0.7423916459083557,1.469804286956787,2.397879123687744,-0.11628204584121704,2.6495494842529297,9.973408699035645,5.350525856018066,0.45431920886039734,1.3221288919448853,0.05814286321401596,20.617050170898438,-30.68140411376953,-6.272195816040039,-0.33304810523986816,-0.42337894439697266,0.049170494079589844,2.982597589492798,10.396787643432617,5.301355361938477
5_20251106_145056,1762411823115,5,0.41837644577026367,0.31358802318573,0.41458654403686523,0.7448098063468933,1.4865509271621704,2.395991802215576,-0.0982910543680191,2.3538782596588135,9.450298309326172,5.1889238357543945,0.5526683330535889,1.3209072351455688,0.11067723482847214,20.617050170898438,-30.68140411376953,-6.272195816040039,-0.5029754638671875,-0.7571916580200195,-0.08994531631469727,2.856853723526001,10.207489967346191,5.278869152069092
5_20251106_145056,1762411823134,5,0.4112565815448761,0.3068508207798004,0.4228231906890869,0.7469478845596313,1.4865509271621704,2.395991802215576,-0.0982910543680191,2.3538782596588135,9.450298309326172,5.1889238357543945,0.6528501510620117,1.2567663192749023,0.22674152255058289,20.793804168701172,-30.90227508544922,-5.512188911437988,-0.5029754638671875,-0.7571916580200195,-0.08994531631469727,2.856853723526001,10.207489967346191,5.278869152069092
5_20251106_145056,1762411823155,5,0.40326958894729614,0.30102336406707764,0.4313713610172272,0.7487838864326477,1.5148917436599731,2.384287118911743,-0.06739534437656403,2.4496421813964844,9.334184646606445,4.604763507843018,0.7145475149154663,1.165136694908142,0.37640342116355896,20.926551818847656,-31.03868865966797,-4.725263595581055,-0.23456764221191406,-0.5403366088867188,-0.47222328186035156,2.6842098236083984,9.874521255493164,5.076986789703369
5_20251106_145056,1762411823173,5,0.3943137526512146,0.296591579914093,0.43971264362335205,0.7504684329032898,1.526752233505249,2.3783490657806396,-0.05669552832841873,2.8710036277770996,9.804624557495117,4.520970344543457,0.7469233274459839,1.0594569444656372,0.44970718026161194,20.985095977783203,-31.181358337402344,-3.7926015853881836,0.14943504333496094,-0.05591773986816406,-0.44481325149536133,2.7215685844421387,9.860542297363281,4.965783596038818
5_20251106_145056,1762411823193,5,0.38467904925346375,0.2935864329338074,0.4475683867931366,0.7520050406455994,1.526752233505249,2.3783490657806396,-0.05669552832841873,2.8710036277770996,9.804624557495117,4.520970344543457,0.783575177192688,0.9385057687759399,0.3501361906528473,21.090774536132812,-31.346229553222656,-2.8314731121063232,0.14943504333496094,-0.05591773986816406,-0.44481325149536133,2.7215685844421387,9.860542297363281,4.965783596038818
5_20251106_145056,1762411823211,5,0.3753138780593872,0.2914367616176605,0.455186128616333,0.7530004382133484,1.5530996322631836,2.3681387901306152,-0.039176225662231445,3.0649256706237793,10.027275085449219,4.3737335205078125,0.8464943170547485,0.8413783311843872,0.14793998003005981,21.19837188720703,-31.47370147705078,-1.8425202369689941,0.20653295516967773,0.10230445861816406,-0.41070556640625,2.8583927154541016,9.924970626831055,4.7844390869140625
5_20251106_145056,1762411823230,5,0.3674602508544922,0.2896266579627991,0.4631306529045105,0.7527279257774353,1.5654585361480713,2.3636419773101807,-0.033638861030340195,2.8063628673553467,9.94228458404541,4.10200309753418,0.8666528463363647,0.8065590262413025,-0.020047815516591072,21.31875991821289,-31.58795928955078,-0.839296817779541,-0.04162406921386719,0.013851165771484375,-0.5459489822387695,2.847986936569214,9.928433418273926,4.647952079772949
5_20251106_145056,1762411823249,5,0.36121827363967896,0.287651002407074,0.4716149568557739,0.7512373924255371,1.5763660669326782,2.358797311782837,-0.03089762292802334,2.5442090034484863,9.719635009765625,3.7297210693359375,0.8666528463363647,0.8065590262413025,-0.020047815516591072,21.320724487304688,-31.635887145996094,0.2687358856201172,-0.24302244186401367,-0.1670389175415039,-0.7345848083496094,2.7872314453125,9.886673927307129,4.464305877685547
5_20251106_145056,1762411823267,5,0.3559195101261139,0.2850973904132843,0.48035678267478943,0.749198317527771,1.5853514671325684,2.3534862995147705,-0.030761078000068665,2.4496421813964844,9.500574111938477,3.517843246459961,0.8300009369850159,0.801672101020813,-0.15627065300941467,21.397415161132812,-31.653663635253906,1.3532066345214844,-0.27007150650024414,-0.3088798522949219,-0.7571702003479004,2.7197136878967285,9.809453964233398,4.275013446807861
5_20251106_145056,1762411823287,5,0.3509240448474884,0.2820590138435364,0.48917946219444275,0.7469929456710815,1.5935165882110596,2.346111536026001,-0.03417785093188286,2.285646438598633,9.227646827697754,3.1036641597747803,0.8019011616706848,0.7961743474006653,-0.21063761413097382,21.418502807617188,-31.58698272705078,2.3830080032348633,-0.34725379943847656,-0.46544551849365234,-0.937079668045044,2.6329002380371094,9.693092346191406,4.040743827819824
5_20251106_145056,1762411823307,5,0.3463723361492157,0.27877363562583923,0.49784645438194275,0.7446209788322449,1.599305510520935,2.3374202251434326,-0.04132677987217903,2.0570099353790283,8.951128005981445,2.559006690979004,0.730430006980896,0.7418073415756226,-0.2827196419239044,21.486530303955078,-31.54277801513672,3.4683079719543457,-0.460712194442749,-0.593571662902832,-1.185389757156372,2.5177221298217773,9.544699668884277,3.744396448135376
5_20251106_145056,1762411823327,5,0.3425126373767853,0.2752152681350708,0.5062485933303833,0.742060661315918,1.599305510520935,2.3374202251434326,-0.04132677987217903,2.0570099353790283,8.951128005981445,2.559006690979004,0.6082570552825928,0.6630058288574219,-0.33708658814430237,21.58365249633789,-31.42096710205078,4.48859167098999,-0.460712194442749,-0.593571662902832,-1.185389757156372,2.5177221298217773,9.544699668884277,3.744396448135376
5_20251106_145056,1762411823345,5,0.33969464898109436,0.27149510383605957,0.5138574838638306,0.7394919991493225,1.6042060852050781,2.312309503555298,-0.068071648478508,1.6081163883209229,8.246066093444824,1.9820287227630615,0.49036023020744324,0.617190957069397,-0.3596886098384857,21.66324234008789,-31.187049865722656,5.442688465118408,-0.6160483360290527,-0.8859024047851562,-1.1610498428344727,2.2241647243499756,9.13196849822998,3.143078565597534
5_20251106_145056,1762411823364,5,0.3376642167568207,0.2675509452819824,0.5205668210983276,0.7371631860733032,1.6032625436782837,2.296731948852539,-0.08596570789813995,1.4548940658569336,8.110799789428711,1.713889718055725,0.3327571153640747,0.6129149198532104,-0.34197351336479187,21.753211975097656,-30.977989196777344,6.450812816619873,-0.6154165267944336,-0.8169345855712891,-1.1433511972427368,2.070310592651367,8.927734375,2.857240915298462
5_20251106_145056,1762411823383,5,0.3360763490200043,0.2633357048034668,0.5262764692306519,0.7353503108024597,1.6008189916610718,2.279741048812866,-0.10526777803897858,1.5063672065734863,8.128755569458008,2.0179402828216553,0.14522163569927216,0.5243395566940308,-0.3462495505809784,21.869556427001953,-30.741416931152344,7.379348278045654,-0.4511547088623047,-0.6391830444335938,-0.671440601348877,1.957521915435791,8.767938613891602,2.6893808841705322
5_20251106_145056,1762411823402,5,0.3349895775318146,0.2587839365005493,0.5305470824241638,0.7343927025794983,1.5967572927474976,2.2618396282196045,-0.12424159049987793,1.3232187032699585,8.126361846923828,2.4572572708129883,0.14522163569927216,0.5243395566940308,-0.3462495505809784,22.121742248535156,-30.482078552246094,8.164863586425781,-0.5074425935745239,-0.5132617950439453,-0.1856989860534668,1.8306612968444824,8.639623641967773,2.642956256866455
5_20251106_145056,1762411823421,5,0.33491384983062744,0.2544505298137665,0.5334773063659668,0.733818531036377,1.5908677577972412,2.2446205615997314,-0.14125356078147888,0.9234041571617126,8.189805030822754,2.669135093688965,0.13361521065235138,0.3117586076259613,-0.35846686363220215,22.22909164428711,-30.21875762939453,8.850143432617188,-0.7258056998252869,-0.35985469818115234,0.02094292640686035,1.6492098569869995,8.549659729003906,2.6481921672821045
5_20251106_145056,1762411823441,5,0.3353787660598755,0.250740110874176,0.5360486507415771,0.7330090999603271,1.5802747011184692,2.224209785461426,-0.16051974892616272,0.43620502948760986,8.153894424438477,2.525489330291748,0.13361521065235138,0.3117586076259613,-0.35846686363220215,22.44803237915039,-29.91089630126953,9.567663192749023,-0.9704039096832275,-0.31661224365234375,-0.09816241264343262,1.4066089391708374,8.47050666809082,2.6236517429351807
5_20251106_145056,1762411823459,5,0.3359611928462982,0.24804146587848663,0.5387334227561951,0.7316910624504089,1.569512963294983,2.207775354385376,-0.17593057453632355,0.2159479558467865,8.134740829467773,2.353114128112793,0.2203579992055893,0.19019654393196106,-0.15260547399520874,22.605819702148438,-29.63050079345703,10.120006561279297,-0.9525288343429565,-0.2686128616333008,-0.2164301872253418,1.1684768199920654,8.403353691101074,2.5695443153381348
5_20251106_145056,1762411823478,5,0.33602580428123474,0.24639463424682617,0.5412924289703369,0.7303279042243958,1.5546659231185913,2.1891441345214844,-0.19408531486988068,0.24108600616455078,8.316692352294922,2.2633352279663086,0.20325377583503723,0.13277526199817657,-0.01088484562933445,22.70195770263672,-29.37824249267578,10.57475471496582,-0.7419126629829407,-0.06932926177978516,-0.24496722221374512,0.9829986691474915,8.386021614074707,2.5083024501800537
5_20251106_145056,1762411823497,5,0.3352939188480377,0.24567030370235443,0.5434555411338806,0.7293011546134949,1.539414882659912,2.1729044914245605,-0.2106757014989853,0.3081207573413849,8.595603942871094,2.433316469192505,0.1427781730890274,0.06741274148225784,0.0715818926692009,22.783287048339844,-29.17675018310547,11.000925064086914,-0.5399023294448853,0.1676654815673828,-0.059988975524902344,0.8480231165885925,8.427938461303711,2.4933054447174072
5_20251106_145056,1762411823517,5,0.3341791033744812,0.24595758318901062,0.5448418259620667,0.7286813855171204,1.5226316452026367,2.157658576965332,-0.22683346271514893,0.34403225779533386,8.754812240600586,2.635617733001709,0.09513072669506073,0.040534693747758865,0.05569940805435181,22.950103759765625,-28.98102569580078,11.308618545532227,-0.4031927287578583,0.26149845123291016,0.11384987831115723,0.7472249865531921,8.493313789367676,2.5217678546905518
5_20251106_145056,1762411823536,5,0.33309826254844666,0.24643521010875702,0.5456253886222839,0.7284286022186279,1.5060534477233887,2.144613265991211,-0.24113960564136505,0.22552436590194702,8.753615379333496,2.622450351715088,0.09818505495786667,0.025263074785470963,-0.014550035819411278,22.950103759765625,-28.98102569580078,11.308618545532227,-0.41736048460006714,0.20824146270751953,0.08054590225219727,0.6428848505020142,8.545373916625977,2.5419044494628906
5_20251106_145056,1762411823555,5,0.33253735303878784,0.24671019613742828,0.5462616682052612,0.7281148433685303,1.4882460832595825,2.1324105262756348,-0.2553699314594269,-0.10725538432598114,8.614757537841797,2.308823347091675,0.10979148000478745,0.041756417602300644,-0.06525180488824844,23.056400299072266,-28.777122497558594,11.654672622680664,-0.6001121997833252,0.05550670623779297,-0.18646478652954102,0.49285683035850525,8.559250831604004,2.495288133621216
5_20251106_145056,1762411823575,5,0.3325190544128418,0.2467554658651352,0.5471335053443909,0.7274528741836548,1.4682577848434448,2.12043833732605,-0.2702580690383911,-0.22456622123718262,8.63510799407959,2.2788970470428467,0.05481365695595741,0.07901917397975922,-0.03470856696367264,23.026111602783203,-28.643394470214844,11.858848571777344,-0.5739384889602661,0.06068611145019531,-0.1731128692626953,0.3493722379207611,8.574421882629395,2.452009916305542
5_20251106_145056,1762411823593,5,0.33240416646003723,0.24632681906223297,0.5480924248695374,0.7269286513328552,1.4682577848434448,2.12043833732605,-0.2702580690383911,-0.22456622123718262,8.63510799407959,2.2788970470428467,-0.003829358145594597,0.10956241190433502,0.035540871322155,23.103778839111328,-28.539649963378906,12.012582778930664,-0.5739384889602661,0.06068611145019531,-0.1731128692626953,0.3493722379207611,8.574421882629395,2.452009916305542
5_20251106_145056,1762411823612,5,0.3318382203578949,0.24571217596530914,0.5485864877700806,0.7270225286483765,1.4304360151290894,2.101897954940796,-0.2968508005142212,-0.08810257911682129,8.879304885864258,2.3411436080932617,-0.027653083205223083,0.09123646467924118,0.08563178032636642,23.056964874267578,-28.493812561035156,12.133323669433594,-0.2696413993835449,0.20125389099121094,-0.06386804580688477,0.18153880536556244,8.678050994873047,2.4050116539001465
5_20251106_145056,1762411823632,5,0.3310520350933075,0.24537715315818787,0.5486548542976379,0.7274423837661743,1.4103684425354004,2.094245433807373,-0.31050777435302734,-0.056979283690452576,9.09357738494873,2.3160057067871094,-0.08140917122364044,0.1052863597869873,0.10579031705856323,23.032520294189453,-28.472312927246094,12.335615158081055,-0.19081448018550873,0.33242130279541016,-0.07120466232299805,0.13383519649505615,8.76115608215332,2.3872103691101074
5_20251106_145056,1762411823650,5,0.3300541341304779,0.24518747627735138,0.5483930110931396,0.7281568646430969,1.3930649757385254,2.08893084526062,-0.3221564292907715,0.0746961385011673,9.259966850280762,2.39860200881958,-0.16876283288002014,0.14315995573997498,0.0917404294013977,23.044410705566406,-28.47193145751953,12.376653671264648,-0.047311246395111084,0.3990488052368164,0.009113311767578125,0.12200738489627838,8.860918045043945,2.389488697052002
5_20251106_145056,1762411823669,5,0.32897070050239563,0.24444696307182312,0.5477421283721924,0.7293850183486938,1.3762832880020142,2.0853729248046875,-0.3328600227832794,0.3296676576137543,9.506559371948242,2.745746374130249,-0.21824288368225098,0.12911006808280945,0.09479475021362305,23.06676483154297,-28.50788116455078,12.363327026367188,0.1661282181739807,0.5165128707885742,0.2850062847137451,0.16353943943977356,8.990046501159668,2.460740089416504
5_20251106_145056,1762411823688,5,0.3281199634075165,0.2433737814426422,0.5466108918190002,0.730974018573761,1.3610821962356567,2.0840601921081543,-0.3421085476875305,0.4338109493255615,9.743575096130371,2.796022415161133,-0.17181715369224548,0.08085177093744278,0.09051869809627533,22.99164581298828,-28.53856658935547,12.440954208374023,0.21621721982955933,0.6028232574462891,0.26822590827941895,0.2175937294960022,9.140751838684082,2.527796506881714
5_20251106_145056,1762411823708,5,0.32742515206336975,0.24261395633220673,0.5452786684036255,0.7325314879417419,1.3463345766067505,2.0845401287078857,-0.35072362422943115,0.36677616834640503,9.73040771484375,2.7361698150634766,-0.10645462572574615,0.020376155152916908,0.07463622093200684,22.948841094970703,-28.653831481933594,12.423591613769531,0.11934594810009003,0.4717245101928711,0.16669845581054688,0.247430220246315,9.258683204650879,2.5694713592529297
5_20251106_145056,1762411823727,5,0.32689204812049866,0.2424003928899765,0.5442702770233154,0.7335894703865051,1.3333063125610352,2.0865695476531982,-0.35801181197166443,0.3500174880027771,9.840536117553711,2.746943473815918,-0.09240473806858063,-0.024827832356095314,0.06302978843450546,22.924358367919922,-28.66716766357422,12.341249465942383,0.08206981420516968,0.4654827117919922,0.14197778701782227,0.2679476737976074,9.375053405761719,2.6049656867980957
5_20251106_145056,1762411823746,5,0.3266243636608124,0.2426147162914276,0.5434234738349915,0.7342653274536133,1.3333063125610352,2.0865695476531982,-0.35801181197166443,0.3500174880027771,9.840536117553711,2.746943473815918,-0.08018743991851807,-0.05537106841802597,0.02821049652993679,22.860607147216797,-28.72136688232422,12.33774185180664,0.08206981420516968,0.4654827117919922,0.14197778701782227,0.2679476737976074,9.375053405761719,2.6049656867980957
5_20251106_145056,1762411823765,5,0.3268207311630249,0.2431032657623291,0.5425087809562683,0.7346926331520081,1.3084564208984375,2.0931835174560547,-0.36979690194129944,0.10701646655797958,9.724421501159668,2.792431354522705,-0.06247236952185631,-0.033990804105997086,-0.014550033956766129,22.792922973632812,-28.850502014160156,12.29210090637207,-0.11985043436288834,0.21765804290771484,0.11040163040161133,0.22686690092086792,9.506763458251953,2.6820297241210938
5_20251106_145056,1762411823786,5,0.32729998230934143,0.24345862865447998,0.5418249368667603,0.734866201877594,1.2947666645050049,2.096993923187256,-0.37549299001693726,-0.004309132695198059,9.516135215759277,2.7182140350341797,-0.07652226090431213,-0.01688659004867077,-0.04326067864894867,22.762195587158203,-28.976722717285156,12.193866729736328,-0.18494082987308502,0.007496833801269531,0.02894735336303711,0.18063169717788696,9.508638381958008,2.6892666816711426
5_20251106_145056,1762411823804,5,0.32782092690467834,0.24329516291618347,0.5413765907287598,0.7350185513496399,1.2831580638885498,2.1003715991973877,-0.37960898876190186,-0.006703212857246399,9.620279312133789,2.901362657546997,-0.11011981964111328,-0.0028367028571665287,-0.029210785403847694,22.746471405029297,-29.051918029785156,12.097179412841797,-0.1498679369688034,0.08931255340576172,0.1696767807006836,0.143164724111557,9.530966758728027,2.7316858768463135
5_20251106_145056,1762411823822,5,0.32839637994766235,0.24294805526733398,0.5408051609992981,0.7352970838546753,1.2715750932693481,2.1038503646850586,-0.38320451974868774,-0.08211731910705566,9.640628814697266,2.859466075897217,-0.10767635703086853,0.004493673797696829,-0.03470856696367264,22.72138214111328,-29.077674865722656,12.001056671142578,-0.18022564053535461,0.08772945404052734,0.10222411155700684,0.09810831397771835,9.552899360656738,2.75724196434021
