session_id,timestamp,label,quaternion_w,quaternion_x,quaternion_y,quaternion_z,position_x,position_y,position_z,accelerometer_x,accelerometer_y,accelerometer_z,gyroscope_x,gyroscope_y,gyroscope_z,magnetometer_x,magnetometer_y,magnetometer_z,linear_acceleration_x,linear_acceleration_y,linear_acceleration_z,gravity_x,gravity_y,gravity_z
6_20251106_152153,1762413675686,6,0.5953841209411621,0.568190336227417,0.4899072051048279,0.2875211536884308,0.08760557323694229,1.8501267433166504,-1.452234148979187,-2.5552213191986084,9.413188934326172,-1.326615810394287,0.05635227635502815,-0.0461355559527874,6.872136145830154e-05,30.372764587402344,-5.786903381347656,-11.40235424041748,0.013953685760498047,-0.03820610046386719,-0.12354171276092529,-2.5691750049591064,9.451395034790039,-1.2030740976333618
6_20251106_152153,1762413675704,6,0.5954615473747253,0.5687294006347656,0.4896765351295471,0.28668680787086487,0.08401472121477127,1.8491417169570923,-1.4508247375488281,-2.532477378845215,9.453888893127441,-1.3098571300506592,0.05635227635502815,-0.0461355559527874,6.872136145830154e-05,30.374359130859375,-5.77313232421875,-11.523736953735352,0.0293581485748291,0.001995086669921875,-0.0854264497756958,-2.561835527420044,9.45189380645752,-1.2244306802749634
6_20251106_152153,1762413675723,6,0.5955063104629517,0.5692582130432129,0.4894372522830963,0.2859518527984619,0.08057326823472977,1.8482874631881714,-1.4496392011642456,-2.5037479400634766,9.500574111938477,-1.3074629306793213,0.00015271641314029694,-0.014370592311024666,-0.012759437784552574,30.400646209716797,-5.734138488769531,-11.494932174682617,0.04647016525268555,0.038944244384765625,-0.06642580032348633,-2.550218105316162,9.461629867553711,-1.241037130355835
6_20251106_152153,1762413675741,6,0.595593273639679,0.569545328617096,0.4892749786376953,0.285476416349411,0.07763460278511047,1.8476853370666504,-1.4488005638122559,-2.485792636871338,9.529302597045898,-1.3337980508804321,-0.004734201356768608,-0.011927133426070213,-0.01764635555446148,30.344131469726562,-5.674110412597656,-11.617711067199707,0.051540374755859375,0.05413818359375,-0.07420873641967773,-2.5373330116271973,9.475164413452148,-1.2595893144607544
6_20251106_152153,1762413675761,6,0.5956541895866394,0.5695343017578125,0.4892736077308655,0.2853737473487854,0.07494412362575531,1.8471183776855469,-1.4480876922607422,-2.4438958168029785,9.488603591918945,-1.306265950202942,-0.004734201356768608,-0.011927133426070213,-0.01764635555446148,30.320152282714844,-5.675163269042969,-11.672757148742676,0.07474970817565918,0.010751724243164062,-0.03734123706817627,-2.5186455249786377,9.477851867675781,-1.2689247131347656
6_20251106_152153,1762413675780,6,0.5957320928573608,0.569649875164032,0.4891796112060547,0.28514137864112854,0.07254070788621902,1.846579670906067,-1.4473814964294434,-2.4630484580993652,9.477829933166504,-1.2583839893341064,0.0025961752980947495,-0.040637776255607605,-0.029863648116588593,30.271408081054688,-5.678337097167969,-11.674718856811523,0.04447770118713379,-1.71661376953125e-05,0.008432626724243164,-2.507526159286499,9.4778470993042,-1.2668166160583496
6_20251106_152153,1762413675798,6,0.5958316326141357,0.5697498917579651,0.48908060789108276,0.28490328788757324,0.07030395418405533,1.8459365367889404,-1.4465988874435425,-2.4905807971954346,9.429947853088379,-1.22606360912323,0.005650498904287815,-0.03330739960074425,-0.042080942541360855,30.27130889892578,-5.678474426269531,-11.661202430725098,0.013556241989135742,-0.03831958770751953,0.03260242938995361,-2.5041370391845703,9.468267440795898,-1.2586660385131836
6_20251106_152153,1762413675818,6,0.5963174700737,0.5703456401824951,0.4883666932582855,0.28391775488853455,0.06802471727132797,1.8451223373413086,-1.4458335638046265,-2.5181126594543457,9.411993026733398,-1.2643691301345825,0.006261363625526428,-0.027198750525712967,-0.04330267384648323,30.324581146240234,-5.59954833984375,-11.698205947875977,-0.011180400848388672,-0.04501914978027344,-0.004562497138977051,-2.506932258605957,9.457012176513672,-1.2598066329956055
6_20251106_152153,1762413675838,6,0.5967661738395691,0.570717453956604,0.48788103461265564,0.2830616235733032,0.06601306796073914,1.8443595170974731,-1.4452730417251587,-2.532477378845215,9.429948806762695,-1.297886610031128,0.014202605932950974,-0.03269653394818306,-0.032307110726833344,30.337371826171875,-5.586334228515625,-11.683935165405273,-0.02043604850769043,-0.021650314331054688,-0.0304640531539917,-2.5120413303375244,9.45159912109375,-1.2674225568771362
6_20251106_152153,1762413675856,6,0.597206175327301,0.5711646676063538,0.4873517155647278,0.28214186429977417,0.06386756151914597,1.8436158895492554,-1.4448721408843994,-2.5193097591400146,9.471845626831055,-1.3302068710327148,0.0282524935901165,-0.047968149185180664,-0.026198461651802063,30.314002990722656,-5.574958801269531,-11.725200653076172,-0.005814790725708008,0.01619720458984375,-0.05022740364074707,-2.5134949684143066,9.455648422241211,-1.2799794673919678
6_20251106_152153,1762413675877,6,0.5973637700080872,0.5714068412780762,0.4872102439403534,0.28156164288520813,0.06168428808450699,1.842998743057251,-1.4447896480560303,-2.561206340789795,9.48501205444336,-1.3780889511108398,0.039248060435056686,-0.06507235765457153,-0.02742019295692444,30.314002990722656,-5.574958801269531,-11.725200653076172,-0.038168907165527344,0.02349090576171875,-0.07848763465881348,-2.5230374336242676,9.46152114868164,-1.2996013164520264
6_20251106_152153,1762413675894,6,0.5974746346473694,0.5718010067939758,0.4870164096355438,0.2808606028556824,0.059688229113817215,1.8426320552825928,-1.4450037479400635,-2.575571060180664,9.526908874511719,-1.4151973724365234,0.04169151559472084,-0.08584176003932953,-0.01703549176454544,30.376327514648438,-5.557487487792969,-11.817098617553711,-0.04202699661254883,0.05230998992919922,-0.09247684478759766,-2.5335440635681152,9.47459888458252,-1.3227205276489258
6_20251106_152153,1762413675914,6,0.5976279377937317,0.5723662972450256,0.4866665005683899,0.27998819947242737,0.05757724121212959,1.8424731492996216,-1.445336103439331,-2.5348715782165527,9.549652099609375,-1.357738971710205,0.0282524935901165,-0.0766787901520729,-0.02070067822933197,30.37954330444336,-5.506721496582031,-11.870107650756836,-0.001062154769897461,0.060042381286621094,-0.028014779090881348,-2.5338094234466553,9.489609718322754,-1.3297241926193237
6_20251106_152153,1762413675933,6,0.597762942314148,0.5729623436927795,0.4863228499889374,0.279076486825943,0.055802155286073685,1.8424880504608154,-1.445748209953308,-2.5217037200927734,9.550849914550781,-1.3816800117492676,-0.005345066078007221,-0.05285506695508957,-0.04330267384648323,30.369060516357422,-5.48199462890625,-11.910618782043457,0.009684562683105469,0.048992156982421875,-0.0415647029876709,-2.531388282775879,9.50185775756836,-1.3401153087615967
6_20251106_152153,1762413675951,6,0.5979995727539062,0.5733042359352112,0.4860329329967499,0.27837157249450684,0.055802155286073685,1.8424880504608154,-1.445748209953308,-2.5217037200927734,9.550849914550781,-1.3816800117492676,-0.04016435518860817,-0.05529852584004402,-0.07384591549634933,30.371261596679688,-5.455802917480469,-12.018220901489258,0.009684562683105469,0.048992156982421875,-0.0415647029876709,-2.531388282775879,9.50185775756836,-1.3401153087615967
6_20251106_152153,1762413675970,6,0.5984227657318115,0.5732861757278442,0.48585405945777893,0.27781105041503906,0.05155697464942932,1.8425922393798828,-1.4456522464752197,-2.7240052223205566,9.487406730651855,-1.0991764068603516,-0.04993819072842598,-0.05041160807013512,-0.09278271347284317,30.313941955566406,-5.408470153808594,-12.127747535705566,-0.14491748809814453,-0.014993667602539062,0.1831216812133789,-2.579087734222412,9.502400398254395,-1.2822980880737305
6_20251106_152153,1762413675990,6,0.5991252064704895,0.5730287432670593,0.4856700897216797,0.2771489918231964,0.04840421304106712,1.8424073457717896,-1.4449318647384644,-2.8532865047454834,9.433539390563965,-1.1662111282348633,-0.03283397853374481,-0.01620318740606308,-0.09033925831317902,30.266693115234375,-5.39801025390625,-12.23757553100586,-0.2193589210510254,-0.05508899688720703,0.09286952018737793,-2.633927583694458,9.488628387451172,-1.2590806484222412
6_20251106_152153,1762413676009,6,0.599943220615387,0.5724478363990784,0.4856961667537689,0.27653369307518005,0.04488804563879967,1.8418101072311401,-1.4442765712738037,-2.878424644470215,9.331789016723633,-1.2571868896484375,-0.022449277341365814,-0.007040215656161308,-0.06773725897073746,30.257526397705078,-5.348304748535156,-12.264042854309082,-0.19559764862060547,-0.1254711151123047,0.0015149116516113281,-2.6828269958496094,9.457260131835938,-1.2587018013000488
6_20251106_152153,1762413676028,6,0.6006565690040588,0.5718482136726379,0.4858819842338562,0.27589866518974304,0.04488804563879967,1.8418101072311401,-1.4442765712738037,-2.878424644470215,9.331789016723633,-1.2571868896484375,-0.02733619511127472,-0.02597702294588089,-0.04757872596383095,30.22559356689453,-5.274803161621094,-12.317995071411133,-0.19559764862060547,-0.1254711151123047,0.0015149116516113281,-2.6828269958496094,9.457260131835938,-1.2587018013000488
6_20251106_152153,1762413676047,6,0.60118567943573,0.5714097619056702,0.4861106872558594,0.2752509117126465,0.037004485726356506,1.8401137590408325,-1.442953109741211,-2.8963804244995117,9.500574111938477,-1.2260637283325195,-0.02733619511127472,-0.02597702294588089,-0.04757872596383095,30.19074249267578,-5.251670837402344,-12.359487533569336,-0.14510130882263184,0.054534912109375,0.025101900100708008,-2.75127911567688,9.446039199829102,-1.2511656284332275
6_20251106_152153,1762413676067,6,0.6018246412277222,0.5711268782615662,0.48607978224754333,0.2744952440261841,0.032204754650592804,1.8400301933288574,-1.441760778427124,-2.987356185913086,9.658584594726562,-1.0848116874694824,-0.06887499988079071,-0.041248638182878494,-0.07140245288610458,30.205535888671875,-5.212532043457031,-12.425786972045898,-0.18886160850524902,0.17003631591796875,0.13308322429656982,-2.798494577407837,9.488548278808594,-1.2178949117660522
6_20251106_152153,1762413676085,6,0.6026466488838196,0.5706174969673157,0.4860239028930664,0.27384936809539795,0.032204754650592804,1.8400301933288574,-1.441760778427124,-2.987356185913086,9.658584594726562,-1.0848116874694824,-0.08109229803085327,0.0009010256617330015,-0.08239801228046417,30.231910705566406,-5.185020446777344,-12.505374908447266,-0.18886160850524902,0.17003631591796875,0.13308322429656982,-2.798494577407837,9.488548278808594,-1.2178949117660522
6_20251106_152153,1762413676105,6,0.6036086678504944,0.5698132514953613,0.48607969284057617,0.273305743932724,0.022075248882174492,1.8416143655776978,-1.4380946159362793,-2.987356185913086,9.741180419921875,-1.0105947256088257,-0.06398807466030121,0.01006399653851986,-0.07445677369832993,30.299579620361328,-5.067497253417969,-12.55461311340332,-0.11359333992004395,0.16762161254882812,0.1330552101135254,-2.873762845993042,9.573558807373047,-1.143649935722351
6_20251106_152153,1762413676124,6,0.604565441608429,0.5687226057052612,0.4863126873970032,0.2730479836463928,0.017175203189253807,1.8434892892837524,-1.43555748462677,-2.8844099044799805,9.888418197631836,-0.9172248244285583,-0.06398807466030121,0.01006399653851986,-0.07445677369832993,30.363529205322266,-5.013031005859375,-12.578137397766113,-0.008517742156982422,0.25188732147216797,0.18114012479782104,-2.875892162322998,9.636530876159668,-1.0983649492263794
6_20251106_152153,1762413676142,6,0.6053677201271057,0.567923367023468,0.4864492118358612,0.2726905047893524,0.012823773548007011,1.8459089994430542,-1.4324772357940674,-2.8520894050598145,9.933906555175781,-0.7747759819030762,0.0032070400193333626,-0.03697258606553078,-0.08484147489070892,30.391525268554688,-4.948524475097656,-12.589353561401367,0.019042253494262695,0.2379007339477539,0.2588711977005005,-2.871131658554077,9.696005821228027,-1.0336471796035767
6_20251106_152153,1762413676166,6,0.6060957908630371,0.5674222111701965,0.4864142835140228,0.27217841148376465,0.007321958430111408,1.8499839305877686,-1.4273114204406738,-2.8688480854034424,9.92672348022461,-0.744849681854248,0.014813469722867012,0.0021227551624178886,-0.1166064515709877,30.421634674072266,-4.846343994140625,-12.599777221679688,0.0018267631530761719,0.18457412719726562,0.23103803396224976,-2.8706748485565186,9.742149353027344,-0.9758877158164978
6_20251106_152153,1762413676180,6,0.6067832708358765,0.5668466091156006,0.4865066409111023,0.2716805636882782,0.004281106870621443,1.8524761199951172,-1.4242204427719116,-2.8652570247650146,9.899190902709961,-0.8226579427719116,0.017867794260382652,0.03816377371549606,-0.13981929421424866,30.449840545654297,-4.769950866699219,-12.543147087097168,0.004334449768066406,0.12563323974609375,0.12258380651473999,-2.869591474533081,9.773557662963867,-0.9452417492866516
6_20251106_152153,1762413676199,6,0.6073215007781982,0.5657904148101807,0.487138956785202,0.2715464234352112,0.004281106870621443,1.8524761199951172,-1.4242204427719116,-2.8652570247650146,9.899190902709961,-0.8226579427719116,0.03558287024497986,0.033887721598148346,-0.15570178627967834,30.505828857421875,-4.64093017578125,-12.56557846069336,0.004334449768066406,0.12563323974609375,0.12258380651473999,-2.869591474533081,9.773557662963867,-0.9452417492866516
6_20251106_152153,1762413676219,6,0.6077379584312439,0.5647735595703125,0.4879569709300995,0.2712625563144684,-0.004086262546479702,1.8605190515518188,-1.4152276515960693,-2.9598238468170166,9.9805908203125,-0.8058992624282837,0.06795869767665863,0.028389936313033104,-0.16730821132659912,30.57159423828125,-4.5491943359375,-12.547761917114258,-0.06406927108764648,0.1344165802001953,0.09262669086456299,-2.89575457572937,9.846174240112305,-0.8985259532928467
6_20251106_152153,1762413676238,6,0.6080477833747864,0.5639610886573792,0.4888380169868469,0.27067169547080994,-0.008209159597754478,1.8647692203521729,-1.4110182523727417,-2.986159086227417,9.992561340332031,-0.8968749642372131,0.10338884592056274,0.024724749848246574,-0.17097339034080505,30.624977111816406,-4.458518981933594,-12.50340461730957,-0.07232356071472168,0.1171102523803711,0.0013207793235778809,-2.9138355255126953,9.87545108795166,-0.898195743560791
6_20251106_152153,1762413676258,6,0.6082443594932556,0.5632550120353699,0.48984426259994507,0.26987990736961365,-0.012468844652175903,1.8694860935211182,-1.4070978164672852,-3.0388293266296387,10.123040199279785,-0.9268012642860413,0.10338884592056274,0.024724749848246574,-0.17097339034080505,30.66244888305664,-4.431694030761719,-12.433823585510254,-0.09999489784240723,0.19807147979736328,-0.02288442850112915,-2.9388344287872314,9.924968719482422,-0.9039168357849121
6_20251106_152153,1762413676277,6,0.6083129048347473,0.5628406405448914,0.4908530116081238,0.26875486969947815,-0.01737094298005104,1.8750344514846802,-1.402937650680542,-3.1501548290252686,10.198453903198242,-0.82505202293396,0.17974694073200226,-0.02903134562075138,-0.20579269528388977,30.727313995361328,-4.352783203125,-12.389238357543945,-0.16905641555786133,0.21878814697265625,0.06309187412261963,-2.9810984134674072,9.979665756225586,-0.8881438970565796
6_20251106_152153,1762413676295,6,0.6083130240440369,0.5627323985099792,0.4918547570705414,0.2671448290348053,-0.021963782608509064,1.8804054260253906,-1.3994581699371338,-3.144169569015503,10.234365463256836,-0.9196189045906067,0.2341139018535614,-0.010094539262354374,-0.22656208276748657,30.727313995361328,-4.352783203125,-12.389238357543945,-0.13045668601989746,0.20376014709472656,-0.02517998218536377,-3.0137128829956055,10.03060531616211,-0.8944389224052429
6_20251106_152153,1762413676315,6,0.6082096099853516,0.5626150965690613,0.4931178390979767,0.2652924358844757,-0.02701186016201973,1.8867998123168945,-1.3962513208389282,-3.07952880859375,10.269079208374023,-1.0477032661437988,0.2609919607639313,0.0009010256617330015,-0.24916407465934753,30.755828857421875,-4.264373779296875,-12.278280258178711,-0.052652597427368164,0.1907787322998047,-0.12261152267456055,-3.026876211166382,10.078300476074219,-0.9250917434692383
6_20251106_152153,1762413676335,6,0.6078978776931763,0.5625637769699097,0.4946553707122803,0.26324552297592163,-0.031694673001766205,1.8932688236236572,-1.3934428691864014,-2.9897501468658447,10.208030700683594,-1.0034123659133911,0.26282456517219543,0.011285725980997086,-0.2931463420391083,30.749183654785156,-4.164848327636719,-12.263142585754395,0.029700756072998047,0.10378456115722656,-0.06265652179718018,-3.0194509029388428,10.104246139526367,-0.9407558441162109
6_20251106_152153,1762413676355,6,0.6073727011680603,0.5625923275947571,0.4964347779750824,0.26103782653808594,-0.03605669364333153,1.8996316194534302,-1.390932559967041,-2.9909472465515137,10.17570972442627,-0.9926390051841736,0.2658788859844208,0.02594647742807865,-0.35178935527801514,30.824920654296875,-4.1101226806640625,-12.232110977172852,0.02280282974243164,0.057170867919921875,-0.04150658845901489,-3.0137500762939453,10.118538856506348,-0.9511324167251587
6_20251106_152153,1762413676372,6,0.6068328022956848,0.5623968243598938,0.49849164485931396,0.25878530740737915,-0.03969458118081093,1.9048426151275635,-1.3890386819839478,-3.066361427307129,10.151768684387207,-1.0117918252944946,0.2811504900455475,0.03816377371549606,-0.41776272654533386,30.878204345703125,-4.019584655761719,-12.174237251281738,-0.042089223861694336,0.02658367156982422,-0.048527538776397705,-3.0242722034454346,10.125185012817383,-0.9632642865180969
6_20251106_152153,1762413676391,6,0.606348991394043,0.561858057975769,0.5009044408798218,0.25641992688179016,-0.03969458118081093,1.9048426151275635,-1.3890386819839478,-3.066361427307129,10.151768684387207,-1.0117918252944946,0.30375251173973083,0.04305069148540497,-0.47946006059646606,30.910751342773438,-3.8561019897460938,-12.034662246704102,-0.042089223861694336,0.02658367156982422,-0.048527538776397705,-3.0242722034454346,10.125185012817383,-0.9632642865180969
6_20251106_152153,1762413676410,6,0.6058748364448547,0.5610783696174622,0.5037356019020081,0.2536872327327728,-0.04866429418325424,1.9143320322036743,-1.3857616186141968,-3.360835552215576,9.92193603515625,-1.0572795867919922,0.31841325759887695,0.04915934056043625,-0.543600857257843,30.936737060546875,-3.6045684814453125,-11.988344192504883,-0.2408738136291504,-0.14310359954833984,-0.06419181823730469,-3.119961738586426,10.06503963470459,-0.9930877685546875
6_20251106_152153,1762413676429,6,0.6054321527481079,0.5600024461746216,0.5070286989212036,0.2505415081977844,-0.05462406948208809,1.9178552627563477,-1.3844120502471924,-3.6038365364074707,9.793851852416992,-1.029747486114502,0.32452189922332764,0.06931787729263306,-0.6187372207641602,30.925460815429688,-3.3679733276367188,-11.943760871887207,-0.3870997428894043,-0.216949462890625,-0.029327750205993652,-3.2167367935180664,10.010801315307617,-1.0004197359085083
6_20251106_152153,1762413676448,6,0.6051300764083862,0.5586057901382446,0.5107490420341492,0.24680475890636444,-0.05462406948208809,1.9178552627563477,-1.3844120502471924,-3.6038365364074707,9.793851852416992,-1.029747486114502,0.32452189922332764,0.06931787729263306,-0.6187372207641602,30.976722717285156,-3.1020278930664062,-11.923230171203613,-0.3870997428894043,-0.216949462890625,-0.029327750205993652,-3.2167367935180664,10.010801315307617,-1.0004197359085083
6_20251106_152153,1762413676468,6,0.6048645973205566,0.5567079782485962,0.5150914788246155,0.24268467724323273,-0.06376177817583084,1.9198936223983765,-1.3832160234451294,-3.9186604022979736,9.511347770690918,-1.0788265466690063,0.36972591280937195,0.16888882219791412,-0.6999822854995728,31.04300308227539,-2.7734451293945312,-11.806275367736816,-0.5615389347076416,-0.3995628356933594,-0.06272542476654053,-3.357121467590332,9.910910606384277,-1.0161011219024658
6_20251106_152153,1762413676487,6,0.6044526100158691,0.5544599294662476,0.5200744271278381,0.23818852007389069,-0.07425571978092194,1.9194859266281128,-1.382799506187439,-4.213134765625,9.197721481323242,-1.218881368637085,0.36422809958457947,0.23852738738059998,-0.6773802638053894,31.1842041015625,-2.4144439697265625,-11.739914894104004,-0.6848106384277344,-0.5705509185791016,-0.1622241735458374,-3.5283241271972656,9.768272399902344,-1.0566571950912476
6_20251106_152153,1762413676507,6,0.6036847233772278,0.5519422292709351,0.5256900787353516,0.2336118519306183,-0.09941460937261581,1.9116231203079224,-1.3848880529403687,-4.641678333282471,8.617151260375977,-1.581587314605713,0.36422809958457947,0.23852738738059998,-0.6773802638053894,31.257843017578125,-1.948272705078125,-11.565991401672363,-0.739743709564209,-0.7746400833129883,-0.3702387809753418,-3.9019346237182617,9.391791343688965,-1.211348533630371
6_20251106_152153,1762413676525,6,0.6025315523147583,0.5493444800376892,0.5316041111946106,0.22928893566131592,-0.11331842094659805,1.9048312902450562,-1.3874235153198242,-4.481273651123047,8.55729866027832,-1.6270750761032104,0.34956735372543335,0.3045007586479187,-0.6156828999519348,31.306900024414062,-1.495574951171875,-11.460894584655762,-0.4634714126586914,-0.6675939559936523,-0.3325812816619873,-4.0178022384643555,9.224892616271973,-1.2944937944412231
6_20251106_152153,1762413676545,6,0.6003453731536865,0.547446072101593,0.537426233291626,0.22596734762191772,-0.1279953122138977,1.8957709074020386,-1.3908088207244873,-4.0180158615112305,8.602787017822266,-1.5277199745178223,0.34468045830726624,0.34298524260520935,-0.5411573648452759,31.437644958496094,-1.088623046875,-11.24528980255127,-0.00017118453979492188,-0.4976844787597656,-0.18658089637756348,-4.0178446769714355,9.100471496582031,-1.3411390781402588
6_20251106_152153,1762413676563,6,0.5979352593421936,0.545892059803009,0.5429685711860657,0.2228461354970932,-0.1405533254146576,1.8860677480697632,-1.3947521448135376,-4.021606922149658,8.305919647216797,-1.767129898071289,0.4967857897281647,0.32160496711730957,-0.6248458623886108,31.595287322998047,-0.6302566528320312,-10.987099647521973,-0.003009796142578125,-0.6356410980224609,-0.3407926559448242,-4.01859712600708,8.941560745239258,-1.4263372421264648
6_20251106_152153,1762413676582,6,0.5952096581459045,0.5444142818450928,0.5489254593849182,0.2191331535577774,-0.1539032757282257,1.8736116886138916,-1.4008599519729614,-4.294534206390381,7.948000907897949,-2.2112350463867188,0.4967857897281647,0.32160496711730957,-0.6248458623886108,31.70480728149414,-0.151031494140625,-10.622213363647461,-0.2207493782043457,-0.7948484420776367,-0.6279182434082031,-4.073784828186035,8.742849349975586,-1.5833168029785156
6_20251106_152153,1762413676600,6,0.592085599899292,0.5431599617004395,0.5553684234619141,0.21442438662052155,-0.16739030182361603,1.8597277402877808,-1.408159613609314,-4.671605110168457,7.65711784362793,-2.315378427505493,0.5572612881660461,0.299003005027771,-0.6700498461723328,31.814125061035156,0.32791900634765625,-10.230294227600098,-0.4782562255859375,-0.8685846328735352,-0.5856493711471558,-4.1933488845825195,8.525702476501465,-1.7297290563583374
6_20251106_152153,1762413676619,6,0.5891762375831604,0.5421231985092163,0.5614279508590698,0.20921853184700012,-0.16739030182361603,1.8597277402877808,-1.408159613609314,-4.671605110168457,7.65711784362793,-2.315378427505493,0.3996582627296448,0.2684597671031952,-0.5484877824783325,31.935211181640625,0.783905029296875,-9.973575592041016,-0.4782562255859375,-0.8685846328735352,-0.5856493711471558,-4.1933488845825195,8.525702476501465,-1.7297290563583374
6_20251106_152153,1762413676640,6,0.5866134762763977,0.5407925248146057,0.5669835805892944,0.20483578741550446,-0.20238439738750458,1.8220268487930298,-1.427391529083252,-5.188730239868164,7.323141098022461,-2.241161346435547,0.3068068325519562,0.36803069710731506,-0.4928991198539734,31.982585906982422,1.23431396484375,-9.638701438903809,-0.6705617904663086,-0.7991342544555664,-0.3307642936706543,-4.5181684494018555,8.122275352478027,-1.9103970527648926
6_20251106_152153,1762413676658,6,0.584078311920166,0.5391064882278442,0.5723210573196411,0.2016564905643463,-0.21989205479621887,1.8024533987045288,-1.4371976852416992,-5.264144420623779,7.081336975097656,-2.4207186698913574,0.21151189506053925,0.48653846979141235,-0.4269257187843323,32.06550216674805,1.6625289916992188,-9.356949806213379,-0.5967807769775391,-0.8327507972717285,-0.40825724601745605,-4.66736364364624,7.914087772369385,-2.0124614238739014
6_20251106_152153,1762413676677,6,0.5813036561012268,0.5369192361831665,0.577824056148529,0.199807807803154,-0.23890504240989685,1.779982566833496,-1.4485223293304443,-5.198306560516357,6.877838134765625,-2.55598521232605,0.12537997961044312,0.5525118708610535,-0.3432372212409973,32.2083625793457,2.0933685302734375,-8.937582969665527,-0.42475414276123047,-0.8289995193481445,-0.43481898307800293,-4.773552417755127,7.7068376541137695,-2.121166229248047
6_20251106_152153,1762413676697,6,0.5782594084739685,0.5344192385673523,0.5833057165145874,0.19941549003124237,-0.2589181661605835,1.7543001174926758,-1.4607102870941162,-5.102542877197266,6.650399208068848,-2.4051570892333984,0.06062832847237587,0.5781681537628174,-0.28459423780441284,32.2083625793457,2.0933685302734375,-8.937582969665527,-0.26319217681884766,-0.8451509475708008,-0.22719264030456543,-4.839350700378418,7.495550155639648,-2.177964448928833
6_20251106_152153,1762413676716,6,0.5752248764038086,0.5318062901496887,0.5884714126586914,0.19999952614307404,-0.277698814868927,1.7282150983810425,-1.4718964099884033,-5.101345062255859,6.436127185821533,-2.2459495067596436,0.027030766010284424,0.6135982871055603,-0.2564944624900818,32.2419319152832,2.5059814453125,-8.6715726852417,-0.2095956802368164,-0.8475384712219238,-0.05438804626464844,-4.891749382019043,7.283665657043457,-2.191561460494995
6_20251106_152153,1762413676735,6,0.5721389055252075,0.5290220975875854,0.5935180187225342,0.2013181895017624,-0.2963847815990448,1.7009612321853638,-1.4826035499572754,-5.199502944946289,6.382260322570801,-2.220811367034912,0.0282524935901165,0.6722413301467896,-0.22350776195526123,32.27088928222656,2.8543319702148438,-8.258203506469727,-0.24620294570922852,-0.7211241722106934,-0.023399829864501953,-4.9532999992370605,7.103384494781494,-2.19741153717041
6_20251106_152153,1762413676755,6,0.5688787698745728,0.5262195467948914,0.598548173904419,0.203002467751503,-0.3159174621105194,1.6710748672485352,-1.493691086769104,-5.231823921203613,6.237417221069336,-2.3225607872009277,0.045967571437358856,0.741269052028656,-0.16914081573486328,32.372257232666016,3.1948928833007812,-7.842155456542969,-0.22281932830810547,-0.6927738189697266,-0.10011935234069824,-5.009004592895508,6.9301910400390625,-2.2224414348602295
6_20251106_152153,1762413676773,6,0.5650345683097839,0.5234554409980774,0.6038188338279724,0.20526345074176788,-0.33295729756355286,1.6433120965957642,-1.503956913948059,-5.146833419799805,6.032721519470215,-2.5416207313537598,0.050243623554706573,0.785862147808075,-0.09339357912540436,32.39829635620117,3.4928817749023438,-7.416325569152832,-0.11026334762573242,-0.7179756164550781,-0.2553434371948242,-5.036570072174072,6.750697135925293,-2.2862772941589355
6_20251106_152153,1762413676792,6,0.56059730052948,0.5209208726882935,0.6091414093971252,0.20813177525997162,-0.35037654638290405,1.6136764287948608,-1.5154443979263306,-5.157606601715088,6.096165180206299,-2.7211780548095703,0.023365575820207596,0.7919707894325256,0.0037339096888899803,32.41901779174805,3.7140426635742188,-6.843400955200195,-0.09682893753051758,-0.5236258506774902,-0.34792065620422363,-5.06077766418457,6.619791030883789,-2.3732573986053467
6_20251106_152153,1762413676811,6,0.5558941960334778,0.5188247561454773,0.6140538454055786,0.2115193009376526,-0.3668850362300873,1.5841975212097168,-1.527522325515747,-5.046280860900879,6.13686466217041,-2.7977893352508545,-0.0010690130293369293,0.7895273566246033,0.11307869106531143,32.41276168823242,3.8952713012695312,-6.204667091369629,0.011597633361816406,-0.3863410949707031,-0.33962559700012207,-5.057878494262695,6.523205757141113,-2.4581637382507324
6_20251106_152153,1762413676831,6,0.5510382056236267,0.5171295404434204,0.6184022426605225,0.2156677395105362,-0.3668850362300873,1.5841975212097168,-1.527522325515747,-5.046280860900879,6.13686466217041,-2.7977893352508545,0.006261363625526428,0.7687579989433289,0.20104321837425232,32.37799835205078,3.9997024536132812,-5.582014083862305,0.011597633361816406,-0.3863410949707031,-0.33962559700012207,-5.057878494262695,6.523205757141113,-2.4581637382507324
6_20251106_152153,1762413676849,6,0.5460346937179565,0.5159344673156738,0.6221705079078674,0.2203669399023056,-0.3836304545402527,1.5519418716430664,-1.5413223505020142,-4.8822855949401855,6.1344709396362305,-2.791804075241089,0.020922118797898293,0.7724231481552124,0.2529667317867279,32.24283218383789,4.047416687011719,-4.950824737548828,0.1404743194580078,-0.3109874725341797,-0.26691222190856934,-5.022759914398193,6.44545841217041,-2.5248918533325195
6_20251106_152153,1762413676868,6,0.5408647656440735,0.5152775645256042,0.625478982925415,0.2252340167760849,-0.4085409343242645,1.4991695880889893,-1.5662174224853516,-4.717092514038086,6.23262882232666,-3.0802929401397705,0.0032070400193333626,0.814572811126709,0.2987815737724304,32.13234329223633,4.108734130859375,-4.264325141906738,0.20845937728881836,-0.1352534294128418,-0.3845689296722412,-4.925551891326904,6.367882251739502,-2.6957240104675293
6_20251106_152153,1762413676888,6,0.535397469997406,0.5147805213928223,0.6286833882331848,0.23045134544372559,-0.41979655623435974,1.471634864807129,-1.5816051959991455,-4.533944129943848,6.298466682434082,-3.342446804046631,-0.045051272958517075,0.8597767949104309,0.38002657890319824,31.991451263427734,4.067466735839844,-3.526853561401367,0.31328630447387695,-0.05553245544433594,-0.5173783302307129,-4.847230434417725,6.353999137878418,-2.825068473815918
6_20251106_152153,1762413676907,6,0.5296118259429932,0.5143234133720398,0.6317381858825684,0.23640985786914825,-0.4280048608779907,1.4470036029815674,-1.597398281097412,-4.136523246765137,6.433732986450195,-3.5196099281311035,-0.12385283410549164,0.8866548538208008,0.4783758223056793,31.809066772460938,3.9359207153320312,-2.7926998138427734,0.568565845489502,0.06378698348999023,-0.5556330680847168,-4.705089092254639,6.369946002960205,-2.9639768600463867
6_20251106_152153,1762413676927,6,0.5235821604728699,0.5139464139938354,0.6343985795974731,0.2434321790933609,-0.4280048608779907,1.4470036029815674,-1.597398281097412,-4.136523246765137,6.433732986450195,-3.5196099281311035,-0.2234237790107727,0.8909309506416321,0.544960081577301,31.623764038085938,3.7540054321289062,-2.0460853576660156,0.568565845489502,0.06378698348999023,-0.5556330680847168,-4.705089092254639,6.369946002960205,-2.9639768600463867
6_20251106_152153,1762413676945,6,0.5176020860671997,0.5135544538497925,0.6364592909812927,0.25153422355651855,-0.43528398871421814,1.4039994478225708,-1.6319365501403809,-3.393155813217163,6.905370712280273,-3.6656501293182373,-0.32421645522117615,0.9013156294822693,0.580390214920044,31.426570892333984,3.5717086791992188,-1.3405113220214844,0.9013092517852783,0.382509708404541,-0.45462512969970703,-4.294465065002441,6.522861003875732,-3.2110249996185303
6_20251106_152153,1762413676965,6,0.5118882656097412,0.5130246877670288,0.6379128694534302,0.26046741008758545,-0.43294891715049744,1.3855173587799072,-1.650240421295166,-2.877227544784546,7.098094940185547,-3.452575445175171,-0.40729403495788574,0.9184197783470154,0.598716139793396,31.218509674072266,3.2006454467773438,-0.5983467102050781,1.1337902545928955,0.4601869583129883,-0.19324040412902832,-4.011017799377441,6.637907981872559,-3.2593350410461426
6_20251106_152153,1762413676984,6,0.5064157247543335,0.5120629668235779,0.6389995217323303,0.27021142840385437,-0.42593109607696533,1.3701523542404175,-1.6668760776519775,-2.2212443351745605,7.11724853515625,-3.3017470836639404,-0.3999636471271515,0.9153655171394348,0.6152094602584839,30.913070678710938,2.8349761962890625,0.22125625610351562,1.431818962097168,0.3834724426269531,-0.03392958641052246,-3.6530632972717285,6.733776092529297,-3.267817497253418
6_20251106_152153,1762413677002,6,0.5008786916732788,0.5108808279037476,0.6398865580558777,0.2804754972457886,-0.4148307144641876,1.3571501970291138,-1.6819287538528442,-1.7101043462753296,7.069366455078125,-3.3005499839782715,-0.31383171677589417,0.8506138324737549,0.5956618785858154,30.631793975830078,2.459014892578125,0.9739933013916016,1.554367184638977,0.26847219467163086,-0.026185989379882812,-3.2644715309143066,6.800894260406494,-3.2743639945983887
6_20251106_152153,1762413677022,6,0.4951554834842682,0.510030210018158,0.6406295299530029,0.290317177772522,-0.4148307144641876,1.3571501970291138,-1.6819287538528442,-1.7101043462753296,7.069366455078125,-3.3005499839782715,-0.2759581208229065,0.7553189396858215,0.5223580598831177,30.333396911621094,1.9943618774414062,1.7243919372558594,1.554367184638977,0.26847219467163086,-0.026185989379882812,-3.2644715309143066,6.800894260406494,-3.2743639945983887
6_20251106_152153,1762413677041,6,0.48989999294281006,0.5100534558296204,0.640834629535675,0.29862093925476074,-0.37936931848526,1.3336875438690186,-1.7130117416381836,-1.7136955261230469,7.202239036560059,-3.496866226196289,-0.34009891748428345,0.7168344855308533,0.4069046378135681,29.99591827392578,1.4775009155273438,2.4317150115966797,0.9737269878387451,0.2725663185119629,-0.1703643798828125,-2.687422513961792,6.929672718048096,-3.3265018463134766
6_20251106_152153,1762413677060,6,0.4850676357746124,0.509107232093811,0.6414886713027954,0.3066129684448242,-0.36154472827911377,1.325142502784729,-1.7259149551391602,-1.7484099864959717,7.151963233947754,-3.3843436241149902,-0.4470002353191376,0.7150018811225891,0.3201618790626526,29.638988494873047,1.03533935546875,3.0450267791748047,0.7512099742889404,0.17783260345458984,-0.04627346992492676,-2.499619960784912,6.974130630493164,-3.3380701541900635
6_20251106_152153,1762413677078,6,0.4811859726905823,0.5070767998695374,0.6422094702720642,0.31448400020599365,-0.33870261907577515,1.3160200119018555,-1.7401748895645142,-1.538926362991333,7.114853858947754,-3.2849884033203125,-0.5215257406234741,0.7834187150001526,0.28106650710105896,29.26947784423828,0.5918426513671875,3.7119140625,0.7685549259185791,0.1125783920288086,0.0424654483795166,-2.307481288909912,7.002275466918945,-3.327453851699829
6_20251106_152153,1762413677097,6,0.4776324927806854,0.504004955291748,0.6431470513343811,0.3228127658367157,-0.3142416477203369,1.3084636926651,-1.752478003501892,-0.9056872129440308,7.248924255371094,-3.120992660522461,-0.5404626131057739,0.805409848690033,0.25113412737846375,28.90127944946289,0.1733245849609375,4.392845153808594,1.121435284614563,0.19731903076171875,0.16516900062561035,-2.0271224975585938,7.051605224609375,-3.2861616611480713
6_20251106_152153,1762413677118,6,0.4739782214164734,0.5003586411476135,0.6442237496376038,0.33160459995269775,-0.2854217290878296,1.302325963973999,-1.7638496160507202,-0.5932574272155762,7.5182600021362305,-2.979740858078003,-0.5031998157501221,0.7253865599632263,0.09963966906070709,28.552513122558594,-0.118560791015625,5.049873352050781,1.1470921039581299,0.3733234405517578,0.24513673782348633,-1.740349531173706,7.144936561584473,-3.2248775959014893
6_20251106_152153,1762413677136,6,0.47061100602149963,0.49633774161338806,0.6455166935920715,0.33982691168785095,-0.2854217290878296,1.302325963973999,-1.7638496160507202,-0.5932574272155762,7.5182600021362305,-2.979740858078003,-0.46288272738456726,0.6215395331382751,-0.12149336189031601,28.552513122558594,-0.118560791015625,5.049873352050781,1.1470921039581299,0.3733234405517578,0.24513673782348633,-1.740349531173706,7.144936561584473,-3.2248775959014893
6_20251106_152153,1762413677155,6,0.46823424100875854,0.4916030764579773,0.6473433971405029,0.3464529812335968,-0.23022563755512238,1.2964874505996704,-1.7817310094833374,-1.6861634254455566,7.853433609008789,-3.007272958755493,-0.46227186918258667,0.6215395331382751,-0.26443567872047424,27.835922241210938,-0.6270904541015625,6.215854644775391,-0.07966303825378418,0.46665382385253906,0.1243278980255127,-1.6065003871917725,7.38677978515625,-3.131600856781006
6_20251106_152153,1762413677175,6,0.46672719717025757,0.485751211643219,0.6499311923980713,0.3518535792827606,-0.2049233615398407,1.2948306798934937,-1.790342092514038,-2.059642791748047,7.508683681488037,-3.1772541999816895,-0.4726565480232239,0.6972867846488953,-0.20762526988983154,27.835922241210938,-0.6270904541015625,6.215854644775391,-0.3625138998031616,0.09752321243286133,-0.036522626876831055,-1.6971288919448853,7.411160469055176,-3.1407315731048584
6_20251106_152153,1762413677194,6,0.46517425775527954,0.4793004095554352,0.6529155969619751,0.35719072818756104,-0.18280677497386932,1.292860746383667,-1.7990808486938477,-1.9590907096862793,7.238150596618652,-3.4932751655578613,-0.47387829422950745,0.7082823514938354,0.022670716047286987,27.555023193359375,-0.801177978515625,6.796613693237305,-0.20956945419311523,-0.13840770721435547,-0.28203487396240234,-1.749521255493164,7.376558303833008,-3.211240291595459
6_20251106_152153,1762413677213,6,0.46271181106567383,0.4734888970851898,0.6554792523384094,0.3633909821510315,-0.16158606112003326,1.2921171188354492,-1.8088133335113525,-1.672995924949646,7.787595748901367,-3.732685089111328,-0.5056433081626892,0.557398796081543,0.2529667317867279,27.294048309326172,-0.84796142578125,7.285888671875,0.06122028827667236,0.3288302421569824,-0.41715574264526367,-1.7342162132263184,7.458765506744385,-3.3155293464660645
6_20251106_152153,1762413677232,6,0.4598056674003601,0.46949535608291626,0.6565133929252625,0.37032827734947205,-0.14011222124099731,1.2930485010147095,-1.8180180788040161,-1.2552257776260376,8.05573558807373,-3.3005499839782715,-0.5526798963546753,0.3051116466522217,0.2932837903499603,27.052303314208984,-0.9929351806640625,7.706451416015625,0.3831923007965088,0.47757625579833984,0.011983633041381836,-1.6384180784225464,7.578159332275391,-3.3125336170196533
6_20251106_152153,1762413677251,6,0.45781373977661133,0.46703019738197327,0.6557151675224304,0.37726250290870667,-0.11846369504928589,1.2965342998504639,-1.8259152173995972,-1.1834027767181396,8.526176452636719,-3.0036816596984863,-0.5526798963546753,0.3051116466522217,0.2932837903499603,26.81157112121582,-1.1133346557617188,8.18160629272461,0.3640122413635254,0.7584133148193359,0.24708175659179688,-1.547415018081665,7.767763137817383,-3.250763416290283
6_20251106_152153,1762413677271,6,0.4572528302669525,0.46522149443626404,0.6539793610572815,0.38314464688301086,-0.09645551443099976,1.301437258720398,-1.8331271409988403,-1.0218011140823364,8.34781551361084,-3.1449337005615234,-0.5984947681427002,0.25135552883148193,0.26579487323760986,26.596099853515625,-1.2309341430664062,8.536096572875977,0.42049121856689453,0.46404170989990234,0.08466386795043945,-1.442292332649231,7.8837738037109375,-3.229597568511963
6_20251106_152153,1762413677289,6,0.45649412274360657,0.46309801936149597,0.6522716283798218,0.38948047161102295,-0.07560094445943832,1.3071694374084473,-1.839969515800476,-1.0170128345489502,8.419638633728027,-3.37237286567688,-0.5984947681427002,0.25135552883148193,0.26579487323760986,26.37840461730957,-1.39794921875,8.808433532714844,0.3402235507965088,0.4286918640136719,-0.11422038078308105,-1.357236385345459,7.9909467697143555,-3.258152484893799
6_20251106_152153,1762413677308,6,0.4561918377876282,0.4604782462120056,0.6502290368080139,0.3962966203689575,-0.0526663176715374,1.3148616552352905,-1.8470042943954468,-1.054121494293213,8.530963897705078,-3.196406841278076,-0.8330668210983276,0.11757618933916092,0.19798889756202698,26.19754981994629,-1.57379150390625,8.946815490722656,0.24249184131622314,0.43201351165771484,0.049396514892578125,-1.296613335609436,8.098950386047363,-3.2458033561706543
6_20251106_152153,1762413677326,6,0.4568077325820923,0.45755788683891296,0.6474979519844055,0.40337809920310974,-0.033409230411052704,1.3224905729293823,-1.851305603981018,-1.4395713806152344,8.526176452636719,-2.549999952316284,-1.0218240022659302,0.07115047425031662,0.04099665582180023,26.013269424438477,-1.812286376953125,9.07036018371582,-0.11436641216278076,0.3417806625366211,0.5566427707672119,-1.3252049684524536,8.184395790100098,-3.106642723083496
6_20251106_152153,1762413677347,6,0.459302693605423,0.4537774622440338,0.6440969109535217,0.41020259261131287,-0.01416240818798542,1.3311847448349,-1.8535493612289429,-1.9507112503051758,8.255642890930176,-2.3536839485168457,-1.204472541809082,0.24524691700935364,-0.019478948786854744,25.815479278564453,-2.0881729125976562,9.084493637084961,-0.5004050731658936,0.05699729919433594,0.6023669242858887,-1.4503061771392822,8.19864559173584,-2.9560508728027344
6_20251106_152153,1762413677366,6,0.46276891231536865,0.44782835245132446,0.6407622694969177,0.41799333691596985,0.0008054282516241074,1.3379034996032715,-1.8532092571258545,-1.7364394664764404,8.052144050598145,-2.0759685039520264,-1.204472541809082,0.24524691700935364,-0.019478948786854744,25.62453269958496,-2.4633102416992188,9.05645751953125,-0.22890663146972656,-0.11720085144042969,0.7040660381317139,-1.5075328350067139,8.169344902038574,-2.7800345420837402
6_20251106_152153,1762413677385,6,0.4655548334121704,0.44083812832832336,0.6373172998428345,0.42748934030532837,0.01923500932753086,1.3464951515197754,-1.8490214347839355,-0.6423364281654358,8.662639617919922,-1.5205376148223877,-1.2722785472869873,0.33198970556259155,0.16194787621498108,25.495431900024414,-2.8100433349609375,9.098981857299805,0.6921572089195251,0.3946352005004883,1.0075974464416504,-1.334493637084961,8.268004417419434,-2.528135061264038
6_20251106_152153,1762413677404,6,0.4672909379005432,0.4354788064956665,0.6326013207435608,0.43796461820602417,0.04020688682794571,1.3579952716827393,-1.8420144319534302,0.24707123637199402,9.633445739746094,-1.3517537117004395,-1.2063051462173462,0.2531881332397461,0.4441673755645752,25.384939193725586,-3.2789993286132812,8.964136123657227,1.265251874923706,1.0923528671264648,0.9411051273345947,-1.0181806087493896,8.541092872619629,-2.292858839035034
6_20251106_152153,1762413677424,6,0.4684101641178131,0.4326300621032715,0.6267247200012207,0.4479277431964874,0.06324353814125061,1.373421549797058,-1.8317543268203735,0.11659286916255951,10.181694984436035,-0.9794713854789734,-0.679128885269165,-0.309418261051178,0.2694600820541382,25.22439193725586,-3.7761154174804688,8.813283920288086,0.9078187942504883,1.3124818801879883,1.0507099628448486,-0.7912259101867676,8.869213104248047,-2.030181407928467
6_20251106_152153,1762413677442,6,0.4706994295120239,0.4321235120296478,0.6206794381141663,0.4543878734111786,0.08529052883386612,1.3902685642242432,-1.819252610206604,-0.7321151494979858,9.668161392211914,-1.0261564254760742,-0.51969313621521,-0.2788750231266022,-0.01703549176454544,25.104110717773438,-4.2194061279296875,8.543312072753906,0.04728865623474121,0.6391582489013672,0.8032200336456299,-0.779403805732727,9.029003143310547,-1.829376459121704
6_20251106_152153,1762413677460,6,0.47397515177726746,0.43154534697532654,0.6162754893302917,0.45751580595970154,0.08529052883386612,1.3902685642242432,-1.819252610206604,-0.7321151494979858,9.668161392211914,-1.0261564254760742,-0.51969313621521,-0.2788750231266022,-0.01703549176454544,25.043066024780273,-4.672630310058594,8.41069221496582,0.04728865623474121,0.6391582489013672,0.8032200336456299,-0.779403805732727,9.029003143310547,-1.829376459121704
6_20251106_152153,1762413677480,6,0.4773249924182892,0.4297187328338623,0.6132237911224365,0.45984700322151184,0.12000510096549988,1.4199304580688477,-1.797231912612915,-1.5676555633544922,8.99781322479248,-2.364457607269287,-0.6021599173545837,-0.07606792449951172,-0.018868084996938705,25.005874633789062,-5.148170471191406,8.156879425048828,-0.5228677988052368,-0.0021495819091796875,-0.44702625274658203,-1.0447877645492554,8.99996280670166,-1.917431354522705
6_20251106_152153,1762413677500,6,0.4795231521129608,0.4269862771034241,0.6096547842025757,0.46482396125793457,0.13718292117118835,1.4368340969085693,-1.7870008945465088,-0.8039381504058838,9.689708709716797,-1.9191551208496094,-1.1720967292785645,-0.18235839903354645,0.5810010433197021,24.94371795654297,-5.626106262207031,7.983182907104492,0.19267970323562622,0.5517969131469727,-0.0013790130615234375,-0.99661785364151,9.137911796569824,-1.917776107788086
6_20251106_152153,1762413677519,6,0.48170921206474304,0.42522940039634705,0.6031372547149658,0.4726114571094513,0.15672951936721802,1.4568517208099365,-1.773020625114441,0.06511975079774857,10.440258026123047,-0.5162132978439331,-1.3712387084960938,-0.3271333575248718,0.5553447604179382,24.93743133544922,-6.211326599121094,7.633852005004883,0.8493900895118713,1.0418767929077148,1.1212502717971802,-0.7842703461647034,9.398381233215332,-1.6374635696411133
6_20251106_152153,1762413677538,6,0.48529887199401855,0.423992395401001,0.5938811898231506,0.48168516159057617,0.17573678493499756,1.4768918752670288,-1.755753993988037,0.14771614968776703,10.586297988891602,0.5204314589500427,-1.4011709690093994,-0.30147701501846313,0.3061119616031647,24.84714126586914,-6.7887420654296875,7.200254440307617,0.7455892562866211,0.9503335952758789,1.726315975189209,-0.5978730916976929,9.635964393615723,-1.205884575843811
6_20251106_152153,1762413677558,6,0.4902542233467102,0.421468049287796,0.5842077732086182,0.4906289875507355,0.19661827385425568,1.499846339225769,-1.7319124937057495,-0.3287094831466675,10.22838020324707,0.6413334608078003,-1.3406953811645508,-0.18052580952644348,0.09108756482601166,24.774070739746094,-7.277336120605469,6.7554779052734375,0.21533089876174927,0.47393226623535156,1.4777743816375732,-0.5440403819084167,9.754447937011719,-0.8364409804344177
6_20251106_152153,1762413677576,6,0.49587178230285645,0.417149156332016,0.5757929086685181,0.4985581636428833,0.19661827385425568,1.499846339225769,-1.7319124937057495,-0.3287094831466675,10.22838020324707,0.6413334608078003,-1.3406953811645508,-0.18052580952644348,0.09108756482601166,24.774070739746094,-7.277336120605469,6.7554779052734375,0.21533089876174927,0.47393226623535156,1.4777743816375732,-0.5440403819084167,9.754447937011719,-0.8364409804344177
6_20251106_152153,1762413677594,6,0.5013024806976318,0.41204211115837097,0.5683900117874146,0.5058161020278931,0.23107881844043732,1.5430668592453003,-1.6812708377838135,-0.6638833284378052,10.679668426513672,0.8244819641113281,-1.2851066589355469,-0.3271333575248718,0.24685806035995483,24.785781860351562,-7.784263610839844,6.191959381103516,-0.060036540031433105,0.6840744018554688,1.137112021446228,-0.6038467884063721,9.995594024658203,-0.3126300573348999
6_20251106_152153,1762413677614,6,0.5066148638725281,0.4081205129623413,0.5601986050605774,0.5127928853034973,0.24900883436203003,1.5687105655670166,-1.648512601852417,-0.33230066299438477,10.950201034545898,1.5103912353515625,-1.2081377506256104,-0.34607017040252686,0.2639622986316681,24.797788619995117,-8.290786743164062,5.587892532348633,0.21723687648773193,0.7636852264404297,1.4584170579910278,-0.5495375394821167,10.186515808105469,0.05197417736053467
6_20251106_152153,1762413677633,6,0.5119126439094543,0.4052562713623047,0.5511109828948975,0.5196051001548767,0.2675601541996002,1.5933252573013306,-1.613078236579895,0.3141059875488281,10.722761154174805,2.1915123462677,-0.9760091304779053,-0.30147701501846313,0.14362192153930664,24.756797790527344,-8.899055480957031,4.790525436401367,0.6909148097038269,0.42899608612060547,1.7116305828094482,-0.3768088221549988,10.2937650680542,0.47988179326057434
6_20251106_152153,1762413677652,6,0.5167075395584106,0.40271544456481934,0.5430043339729309,0.525337815284729,0.2884490191936493,1.6190192699432373,-1.5732449293136597,0.8132756352424622,11.135743141174316,2.728987693786621,-0.7176133394241333,-0.1591455340385437,-0.12454768270254135,24.68016242980957,-9.485267639160156,4.059795379638672,0.9520676136016846,0.6735830307006836,1.7992846965789795,-0.13879194855690002,10.462160110473633,0.9297029972076416
6_20251106_152153,1762413677670,6,0.5210268497467041,0.4002282917499542,0.5370569825172424,0.5290729403495789,0.3083966374397278,1.6434664726257324,-1.53424072265625,0.32727354764938354,10.999279022216797,2.210665225982666,-0.5526798963546753,0.17988437414169312,-0.6382849216461182,24.633018493652344,-9.993339538574219,3.2099838256835938,0.3728523850440979,0.42969512939453125,1.0247697830200195,-0.04557885229587555,10.569583892822266,1.1858954429626465
6_20251106_152153,1762413677690,6,0.5252484083175659,0.39556893706321716,0.5347352623939514,0.5307518839836121,0.32510554790496826,1.6673648357391357,-1.4966355562210083,-1.475482702255249,9.942285537719727,0.012882545590400696,-0.46776965260505676,0.2061515599489212,-0.9003458619117737,24.586389541625977,-10.264564514160156,2.459310531616211,-1.143923044204712,-0.5018386840820312,-0.9384103417396545,-0.33155959844589233,10.444124221801758,0.951292872428894
6_20251106_152153,1762413677709,6,0.5298548340797424,0.3875810205936432,0.536287248134613,0.5305005311965942,0.33348873257637024,1.6864296197891235,-1.4677194356918335,-2.7287936210632324,9.888418197631836,-0.36299097537994385,-0.5954403877258301,-0.33140939474105835,-0.5735332369804382,24.5799560546875,-10.458869934082031,1.7927894592285156,-1.9177873134613037,-0.4445648193359375,-1.0514271259307861,-0.8110063076019287,10.332983016967773,0.6884361505508423
6_20251106_152153,1762413677728,6,0.5358989834785461,0.3816853165626526,0.5362093448638916,0.5287798643112183,0.3366931676864624,1.707683801651001,-1.4371836185455322,-2.6677441596984863,10.704805374145508,0.692806601524353,-0.9253073930740356,-0.5207774639129639,-0.15509092807769775,24.62337875366211,-10.625289916992188,1.1693077087402344,-1.485390305519104,0.2974576950073242,0.0034963488578796387,-1.1823538541793823,10.407347679138184,0.6893102526664734
6_20251106_152153,1762413677747,6,0.5429309010505676,0.3789200782775879,0.5313044190406799,0.5285463333129883,0.338078111410141,1.7289528846740723,-1.4063903093338013,-1.7316513061523438,11.16806411743164,1.8683091402053833,-1.1977530717849731,-0.37233734130859375,0.0635986477136612,24.6573486328125,-10.730796813964844,0.65478515625,-0.43943798542022705,0.6085729598999023,0.943199098110199,-1.2922133207321167,10.559491157531738,0.9251100420951843
6_20251106_152153,1762413677766,6,0.5493895411491394,0.37572813034057617,0.5237500667572021,0.5316816568374634,0.3406677544116974,1.7517280578613281,-1.3714748620986938,-0.8278791308403015,11.496055603027344,2.9887475967407227,-1.1977530717849731,-0.37233734130859375,0.0635986477136612,24.73672103881836,-10.907257080078125,0.018993377685546875,0.3714674115180969,0.7492523193359375,1.6509101390838623,-1.1993465423583984,10.746803283691406,1.3378374576568604
6_20251106_152153,1762413677785,6,0.5550187230110168,0.3716129958629608,0.5152259469032288,0.5370290279388428,0.3406677544116974,1.7517280578613281,-1.3714748620986938,-0.8278791308403015,11.496055603027344,2.9887475967407227,-1.0108284950256348,-0.44380849599838257,0.04160752147436142,24.826175689697266,-10.896034240722656,-0.545257568359375,0.3714674115180969,0.7492523193359375,1.6509101390838623,-1.1993465423583984,10.746803283691406,1.3378374576568604
6_20251106_152153,1762413677805,6,0.5605868101119995,0.36839738488197327,0.5066118836402893,0.5416366457939148,0.34946250915527344,1.8011255264282227,-1.2903926372528076,-0.9475840330123901,11.265024185180664,2.9767768383026123,-0.7884736657142639,-0.4981754720211029,-0.12821286916732788,24.95187759399414,-10.894447326660156,-1.1623649597167969,0.0994560718536377,0.2653923034667969,0.9910798072814941,-1.0470401048660278,10.999631881713867,1.9856970310211182
6_20251106_152153,1762413677824,6,0.5662614107131958,0.3662252128124237,0.4992702603340149,0.5440186858177185,0.35239994525909424,1.8226189613342285,-1.2499669790267944,-1.485059142112732,10.543204307556152,2.764899253845215,-0.6980656981468201,-0.5140579342842102,-0.19052106142044067,25.050399780273438,-10.933067321777344,-1.6866321563720703,-0.3504152297973633,-0.3651418685913086,0.6233618259429932,-1.1346439123153687,10.908346176147461,2.1415374279022217
6_20251106_152153,1762413677843,6,0.5724745392799377,0.3645913004875183,0.49285781383514404,0.5444605350494385,0.3536379337310791,1.8412970304489136,-1.210351586341858,-1.7005280256271362,10.2738676071167,2.5829477310180664,-0.6748528480529785,-0.5329947471618652,-0.11538471281528473,25.086669921875,-11.012245178222656,-2.3222732543945312,-0.45270729064941406,-0.5075826644897461,0.35312819480895996,-1.2478207349777222,10.781450271606445,2.2298195362091064
6_20251106_152153,1762413677862,6,0.5783523917198181,0.3632151782512665,0.48675695061683655,0.5446566939353943,0.3536379337310791,1.8412970304489136,-1.210351586341858,-1.7005280256271362,10.2738676071167,2.5829477310180664,-0.6748528480529785,-0.5329947471618652,-0.11538471281528473,25.146284103393555,-11.126022338867188,-3.106403350830078,-0.45270729064941406,-0.5075826644897461,0.35312819480895996,-1.2478207349777222,10.781450271606445,2.2298195362091064
6_20251106_152153,1762413677882,6,0.5840498805046082,0.36251115798950195,0.4800233244895935,0.5450220704078674,0.352726012468338,1.8750638961791992,-1.1302975416183472,-1.6753900051116943,10.701213836669922,2.937274217605591,-0.7225003242492676,-0.6075202822685242,0.01839466392993927,25.179622650146484,-11.267181396484375,-3.824460983276367,-0.2780494689941406,-0.016876220703125,0.4820747375488281,-1.3973405361175537,10.718090057373047,2.4551994800567627
6_20251106_152153,1762413677901,6,0.5891336798667908,0.3616633117198944,0.47293245792388916,0.5463113188743591,0.3508494198322296,1.8904752731323242,-1.0912777185440063,-1.7579864263534546,10.799372673034668,3.2269601821899414,-0.7225003242492676,-0.6075202822685242,0.01839466392993927,25.094810485839844,-11.364837646484375,-4.6680145263671875,-0.288516640663147,0.06502628326416016,0.6174085140228271,-1.4694697856903076,10.734346389770508,2.6095516681671143
6_20251106_152153,1762413677919,6,0.5947331786155701,0.3615742027759552,0.46542584896087646,0.5467497706413269,0.3488125503063202,1.9038702249526978,-1.0557451248168945,-1.6706018447875977,10.86880111694336,3.6866273880004883,-0.6595812439918518,-0.5610945224761963,-0.007872520014643669,25.012420654296875,-11.412811279296875,-5.456447601318359,-0.1609055995941162,0.10756301879882812,0.8616604804992676,-1.5096962451934814,10.761238098144531,2.8249669075012207
6_20251106_152153,1762413677939,6,0.6000756621360779,0.36134371161460876,0.45829546451568604,0.5470879673957825,0.3465891182422638,1.9186513423919678,-1.0135037899017334,-1.4922415018081665,10.698820114135742,3.65670108795166,-0.5826122760772705,-0.49512115120887756,0.019616391509771347,24.938804626464844,-11.511024475097656,-6.164348602294922,0.013963818550109863,-0.04993438720703125,0.6653873920440674,-1.5062053203582764,10.748754501342773,2.9913136959075928
6_20251106_152153,1762413677957,6,0.6049467325210571,0.36084091663360596,0.4517468512058258,0.5475016832351685,0.3451167047023773,1.9313091039657593,-0.9736737012863159,-1.3114869594573975,10.500110626220703,3.613607168197632,-0.4298960268497467,-0.5391034483909607,0.07581594586372375,24.842735290527344,-11.57342529296875,-6.845405578613281,0.15577471256256104,-0.1989154815673828,0.4978349208831787,-1.4672616720199585,10.699026107788086,3.115772247314453
6_20251106_152153,1762413677977,6,0.609203040599823,0.36128881573677063,0.4455883502960205,0.5475336313247681,0.34467098116874695,1.9439334869384766,-0.9324284195899963,-1.1295355558395386,10.688047409057617,3.581286907196045,-0.30894482135772705,-0.586750864982605,0.08803323656320572,24.786128997802734,-11.594696044921875,-7.632329940795898,0.27018094062805176,-0.008783340454101562,0.37241172790527344,-1.3997164964675903,10.696830749511719,3.2088751792907715
6_20251106_152153,1762413677996,6,0.6128427982330322,0.3630768954753876,0.43974658846855164,0.5470117330551147,0.34528255462646484,1.955877661705017,-0.8940284252166748,-1.0301804542541504,10.897529602050781,3.6375479698181152,-0.29978182911872864,-0.6099637150764465,0.01350774522870779,24.786128997802734,-11.594696044921875,-7.632329940795898,0.2956289052963257,0.16055870056152344,0.3429381847381592,-1.325809359550476,10.736970901489258,3.294609785079956
6_20251106_152153,1762413678015,6,0.6165560483932495,0.3653470277786255,0.43413424491882324,0.5458091497421265,0.34644147753715515,1.9682496786117554,-0.8559671640396118,-1.115170955657959,11.110605239868164,3.8709726333618164,-0.38530290126800537,-0.5836965441703796,-0.12271509319543839,24.703554153442383,-11.631324768066406,-8.29885196685791,0.16851067543029785,0.2989072799682617,0.4610903263092041,-1.2836816310882568,10.811697959899902,3.4098823070526123
6_20251106_152153,1762413678034,6,0.6210107207298279,0.36697328090667725,0.4285587668418884,0.5440714359283447,0.34709176421165466,1.9800612926483154,-0.8182581663131714,-1.4479507207870483,10.832890510559082,3.975116014480591,-0.4506654441356659,-0.5048949718475342,-0.24855321645736694,24.570838928222656,-11.68463134765625,-8.87298583984375,-0.1314152479171753,0.016953468322753906,0.45218682289123535,-1.316535472869873,10.815937042236328,3.5229291915893555
6_20251106_152153,1762413678054,6,0.6262855529785156,0.3671409487724304,0.4233641028404236,0.5419749021530151,0.34709176421165466,1.9800612926483154,-0.8182581663131714,-1.4479507207870483,10.832890510559082,3.975116014480591,-0.4311177432537079,-0.47618433833122253,-0.2656574249267578,24.417362213134766,-11.688217163085938,-9.555174827575684,-0.1314152479171753,0.016953468322753906,0.45218682289123535,-1.316535472869873,10.815937042236328,3.5229291915893555
6_20251106_152153,1762413678073,6,0.6317289471626282,0.3664587736129761,0.41872039437294006,0.5397219657897949,0.3466765880584717,1.9909491539001465,-0.7787778377532959,-1.6670106649398804,10.512081146240234,4.105594158172607,-0.3535379469394684,-0.4822930097579956,-0.19479712843894958,24.400344848632812,-11.644989013671875,-10.271726608276367,-0.28038012981414795,-0.24308490753173828,0.46613192558288574,-1.3866305351257324,10.755166053771973,3.6394622325897217
6_20251106_152153,1762413678092,6,0.6368191838264465,0.36606043577194214,0.4142692983150482,0.537440299987793,0.3458413779735565,1.999576449394226,-0.7414640188217163,-1.5544880628585815,10.318159103393555,4.25283145904541,-0.19226966798305511,-0.5299404263496399,-0.07201331853866577,24.324337005615234,-11.54510498046875,-10.773150444030762,-0.1342860460281372,-0.3496055603027344,0.4906954765319824,-1.4202020168304443,10.667764663696289,3.7621359825134277
6_20251106_152153,1762413678110,6,0.6412481665611267,0.3669884204864502,0.409772127866745,0.5349832773208618,0.3461809456348419,2.012803316116333,-0.6711909174919128,-0.9607516527175903,10.458213806152344,4.036165237426758,-0.19226966798305511,-0.5299404263496399,-0.07201331853866577,24.273395538330078,-11.44268798828125,-11.368206977844238,0.3409726619720459,-0.1072988510131836,0.1487565040588379,-1.3017243146896362,10.565512657165527,3.88740873336792
6_20251106_152153,1762413678130,6,0.6445421576499939,0.36988070607185364,0.40535083413124084,0.5323949456214905,0.3461809456348419,2.012803316116333,-0.6711909174919128,-0.9607516527175903,10.458213806152344,4.036165237426758,0.09911280870437622,-0.659443736076355,-0.01092684455215931,24.208152770996094,-11.378738403320312,-11.964546203613281,0.3409726619720459,-0.1072988510131836,0.1487565040588379,-1.3017243146896362,10.565512657165527,3.88740873336792
6_20251106_152153,1762413678149,6,0.6474028825759888,0.3744291663169861,0.4010213315486908,0.5290124416351318,0.3501816689968109,2.0249714851379395,-0.6047037243843079,-1.1439001560211182,10.483352661132812,3.6040308475494385,0.05574140325188637,-0.6032441854476929,-0.11782816797494888,24.093475341796875,-11.31890869140625,-12.468233108520508,0.0636594295501709,-0.06962871551513672,-0.2227318286895752,-1.207559585571289,10.55298137664795,3.8267626762390137
6_20251106_152153,1762413678169,6,0.6504972577095032,0.37869253754615784,0.39723244309425354,0.5250253677368164,0.35227835178375244,2.02997088432312,-0.5759015083312988,-1.139111876487732,10.42230224609375,3.5561485290527344,-0.03955348953604698,-0.5543750524520874,-0.1728059947490692,23.981107711791992,-11.221138000488281,-12.998160362243652,0.05475819110870361,-0.10454368591308594,-0.2164912223815918,-1.1938700675964355,10.526845932006836,3.772639751434326
6_20251106_152153,1762413678189,6,0.6540371179580688,0.3817363679409027,0.3938092589378357,0.5209866166114807,0.35582688450813293,2.0356884002685547,-0.5458431243896484,-0.7919676303863525,10.666500091552734,3.7177505493164062,-0.03955348953604698,-0.5543750524520874,-0.1728059947490692,23.89522933959961,-11.0841064453125,-13.526315689086914,0.3215219974517822,0.11172294616699219,-0.04391145706176758,-1.1134896278381348,10.554777145385742,3.761662006378174
6_20251106_152153,1762413678207,6,0.6579588055610657,0.3841822147369385,0.39008498191833496,0.5170376896858215,0.3596564531326294,2.040985584259033,-0.5221160054206848,-0.6124101877212524,10.96456527709961,4.039756774902344,-0.032223112881183624,-0.7064803242683411,-0.23205986618995667,23.858600616455078,-10.931610107421875,-14.025211334228516,0.40086352825164795,0.32783031463623047,0.22247600555419922,-1.0132737159729004,10.636734962463379,3.8172807693481445
6_20251106_152153,1762413678227,6,0.6621932983398438,0.3870440721511841,0.3858506679534912,0.512656033039093,0.3642272353172302,2.0482773780822754,-0.4942915737628937,-0.9176578521728516,11.087862014770508,4.2468461990356445,0.01603519916534424,-0.7498517632484436,-0.3853868842124939,23.708377838134766,-10.849586486816406,-14.475776672363281,0.07649266719818115,0.3609018325805664,0.34365224838256836,-0.9941505193710327,10.726960182189941,3.903193950653076
6_20251106_152153,1762413678244,6,0.6670228242874146,0.39036545157432556,0.38165563344955444,0.5069855451583862,0.3671150803565979,2.054943561553955,-0.46959948539733887,-1.4084479808807373,10.902318954467773,4.269589900970459,0.01603519916534424,-0.7498517632484436,-0.3853868842124939,23.57014274597168,-10.767036437988281,-14.898818016052246,-0.33143794536590576,0.14028644561767578,0.29311656951904297,-1.0770100355148315,10.762032508850098,3.976473331451416
6_20251106_152153,1762413678264,6,0.6725547313690186,0.3931347727775574,0.3782024681568146,0.5000780820846558,0.36870455741882324,2.0620391368865967,-0.4424516558647156,-1.5568821430206299,10.781416893005371,4.333033561706543,0.0074830930680036545,-0.6350091695785522,-0.5503203868865967,23.46826934814453,-10.682373046875,-15.293355941772461,-0.38389766216278076,0.015507698059082031,0.2852482795715332,-1.1729844808578491,10.765909194946289,4.04778528213501
6_20251106_152153,1762413678282,6,0.6781356930732727,0.3949509561061859,0.3756205141544342,0.4930060803890228,0.36870455741882324,2.0620391368865967,-0.4424516558647156,-1.5568821430206299,10.781416893005371,4.333033561706543,0.0642935037612915,-0.6490590572357178,-0.5081707239151001,23.395998001098633,-10.507820129394531,-15.725614547729492,-0.38389766216278076,0.015507698059082031,0.2852482795715332,-1.1729844808578491,10.765909194946289,4.04778528213501
6_20251106_152153,1762413678302,6,0.6834955215454102,0.3968487083911896,0.37304767966270447,0.4859839081764221,0.36989524960517883,2.0767247676849365,-0.3884904980659485,-1.3318368196487427,11.144123077392578,5.088372230529785,0.21517710387706757,-0.6417286992073059,-0.5203880071640015,23.382537841796875,-10.154022216796875,-16.179248809814453,-0.08806705474853516,0.26389122009277344,0.7215189933776855,-1.2437697649002075,10.880231857299805,4.3668532371521
6_20251106_152153,1762413678320,6,0.6883580684661865,0.3995634615421295,0.3707108199596405,0.4786289930343628,0.36989524960517883,2.0767247676849365,-0.3884904980659485,-1.3318368196487427,11.144123077392578,5.088372230529785,0.37094762921333313,-0.5830857157707214,-0.5894157290458679,23.460838317871094,-9.882850646972656,-16.522676467895508,-0.08806705474853516,0.26389122009277344,0.7215189933776855,-1.2437697649002075,10.880231857299805,4.3668532371521
6_20251106_152153,1762413678340,6,0.691853940486908,0.4024251699447632,0.3700914978981018,0.4716189205646515,0.3696087598800659,2.084916353225708,-0.3593870997428894,-1.477876901626587,11.068708419799805,4.875296592712402,0.4454731047153473,-0.5256643891334534,-0.6700498461723328,23.52967643737793,-9.5623779296875,-16.852022171020508,-0.18728578090667725,0.15078163146972656,0.4067544937133789,-1.2905911207199097,10.917926788330078,4.468542098999023
6_20251106_152153,1762413678359,6,0.6957319378852844,0.40600448846817017,0.37002795934677124,0.4628139138221741,0.3664722442626953,2.09763503074646,-0.3108554780483246,-1.7567893266677856,10.648544311523438,4.287545680999756,0.46379905939102173,-0.5012298226356506,-0.7128103971481323,23.625099182128906,-9.202507019042969,-17.193113327026367,-0.31656205654144287,-0.20285797119140625,-0.15644121170043945,-1.4402272701263428,10.851402282714844,4.443986892700195
6_20251106_152153,1762413678377,6,0.6993836164474487,0.4093572199344635,0.37079015374183655,0.4536561667919159,0.36306247115135193,2.1026744842529297,-0.28805267810821533,-1.9435291290283203,10.543204307556152,4.215723037719727,0.46196648478507996,-0.4938994348049164,-0.7702316641807556,23.773408889770508,-8.752639770507812,-17.42226219177246,-0.40264153480529785,-0.24655818939208984,-0.18261098861694336,-1.5408875942230225,10.789762496948242,4.39833402633667
6_20251106_152153,1762413678398,6,0.7031196355819702,0.4125557243824005,0.37172895669937134,0.44411495327949524,0.3577117621898651,2.1068224906921387,-0.26615437865257263,-2.1793477535247803,10.496519088745117,4.10080623626709,0.46196648478507996,-0.4938994348049164,-0.7702316641807556,23.93621826171875,-8.2640380859375,-17.677162170410156,-0.5107681751251221,-0.23459434509277344,-0.2380223274230957,-1.6685795783996582,10.73111343383789,4.3388285636901855
6_20251106_152153,1762413678417,6,0.7069666981697083,0.4153919816017151,0.372963547706604,0.4342186450958252,0.3577117621898651,2.1068224906921387,-0.26615437865257263,-2.1793477535247803,10.496519088745117,4.10080623626709,0.4692968428134918,-0.5238317847251892,-0.7891684770584106,24.11322784423828,-7.7371063232421875,-17.917264938354492,-0.5107681751251221,-0.23459434509277344,-0.2380223274230957,-1.6685795783996582,10.73111343383789,4.3388285636901855
6_20251106_152153,1762413678435,6,0.7108727693557739,0.4182475507259369,0.3739829659461975,0.424105703830719,0.34307676553726196,2.111955404281616,-0.22700713574886322,-2.4391074180603027,10.47736644744873,4.523364543914795,0.4692968428134918,-0.5238317847251892,-0.7891684770584106,24.11322784423828,-7.7371063232421875,-17.917264938354492,-0.514397382736206,-0.1555032730102539,0.14472532272338867,-1.9247100353240967,10.632869720458984,4.378639221191406
6_20251106_152153,1762413678455,6,0.7144662737846375,0.4213230609893799,0.3750745356082916,0.4139370918273926,0.3333335816860199,2.1125643253326416,-0.20841386914253235,-2.70485258102417,10.084733963012695,4.482665061950684,0.5835285186767578,-0.3650069832801819,-0.8514766693115234,24.25338363647461,-7.212959289550781,-18.118289947509766,-0.6241140365600586,-0.4385089874267578,0.0832209587097168,-2.0807385444641113,10.523242950439453,4.399444103240967
6_20251106_152153,1762413678475,6,0.7176186442375183,0.42416536808013916,0.3770597577095032,0.40364983677864075,0.3198680281639099,2.109262704849243,-0.18953880667686462,-3.046011447906494,9.34735107421875,4.206146240234375,0.6824885606765747,-0.29903358221054077,-0.8233768939971924,24.441181182861328,-6.69873046875,-18.2635498046875,-0.7722182273864746,-0.9407138824462891,-0.15463829040527344,-2.2737932205200195,10.288064956665039,4.360784530639648
6_20251106_152153,1762413678493,6,0.7200839519500732,0.42705047130584717,0.38008347153663635,0.39324745535850525,0.306297242641449,2.103090524673462,-0.17511582374572754,-3.332106351852417,8.873319625854492,3.9763131141662598,0.6824885606765747,-0.29903358221054077,-0.8233768939971924,24.647411346435547,-6.070831298828125,-18.39242935180664,-0.8466506004333496,-1.1317968368530273,-0.30757713317871094,-2.4854557514190674,10.00511646270752,4.283890247344971
6_20251106_152153,1762413678511,6,0.7216712236404419,0.43068599700927734,0.3833567500114441,0.38306376338005066,0.29062750935554504,2.0943663120269775,-0.16285522282123566,-3.613412857055664,8.84339427947998,3.6985976696014404,0.7667878866195679,-0.28925973176956177,-0.7195298671722412,24.862403869628906,-5.504783630371094,-18.535654067993164,-0.9023656845092773,-0.929377555847168,-0.4682343006134033,-2.7110471725463867,9.772771835327148,4.166831970214844
6_20251106_152153,1762413678532,6,0.7224822640419006,0.434815913438797,0.38660159707069397,0.37348857522010803,0.268791526556015,2.082167863845825,-0.15272940695285797,-4.044350624084473,9.018163681030273,3.1335902214050293,0.7710639238357544,-0.22695152461528778,-0.645004391670227,25.03792953491211,-4.9798736572265625,-18.57301139831543,-1.0666427612304688,-0.6036863327026367,-0.8265933990478516,-2.977707862854004,9.62185001373291,3.960183620452881
6_20251106_152153,1762413678550,6,0.7228518724441528,0.4383623003959656,0.39016860723495483,0.3648179769515991,0.24808362126350403,2.0707955360412598,-0.14628663659095764,-4.166450023651123,9.037315368652344,3.2281572818756104,0.5572613477706909,-0.12249364703893661,-0.43303436040878296,25.249818801879883,-4.452850341796875,-18.581865310668945,-0.950993537902832,-0.46762752532958984,-0.5856211185455322,-3.215456485748291,9.504942893981934,3.8137784004211426
6_20251106_152153,1762413678569,6,0.7230420112609863,0.4411950409412384,0.3934021294116974,0.3574800193309784,0.22573702037334442,2.0591235160827637,-0.13957051932811737,-3.7917733192443848,9.407204627990723,3.90688419342041,0.5364919304847717,-0.11516326665878296,-0.23939025402069092,25.436222076416016,-3.9521255493164062,-18.63277816772461,-0.46105337142944336,-0.07819080352783203,0.07448458671569824,-3.3307199478149414,9.485395431518555,3.832399606704712
6_20251106_152153,1762413678588,6,0.7229642868041992,0.4443525969982147,0.3953254520893097,0.35155531764030457,0.20436929166316986,2.0488319396972656,-0.13296614587306976,-3.381185293197632,9.775896072387695,3.9140663146972656,0.6635518074035645,0.01617264561355114,-0.1728059947490692,25.619606018066406,-3.5018997192382812,-18.657712936401367,-0.04037213325500488,0.23240089416503906,0.06533336639404297,-3.340813159942627,9.543495178222656,3.8487329483032227
6_20251106_152153,1762413678608,6,0.7218872904777527,0.44802525639533997,0.39729759097099304,0.3468526005744934,0.20436929166316986,2.0488319396972656,-0.13296614587306976,-3.381185293197632,9.775896072387695,3.9140663146972656,0.8553633093833923,0.07359392940998077,-0.18502330780029297,25.811370849609375,-3.1024551391601562,-18.548049926757812,-0.04037213325500488,0.23240089416503906,0.06533336639404297,-3.340813159942627,9.543495178222656,3.8487329483032227
6_20251106_152153,1762413678627,6,0.7195188403129578,0.45253849029541016,0.400495320558548,0.3422061800956726,0.18262836337089539,2.0389411449432373,-0.12722080945968628,-3.1333961486816406,9.816595077514648,3.4939022064208984,1.000138282775879,-0.0003207037807442248,-0.19357538223266602,25.94624137878418,-2.8448562622070312,-18.38918685913086,0.16593360900878906,0.21848011016845703,-0.28386449813842773,-3.2993297576904297,9.598114967346191,3.777766704559326
6_20251106_152153,1762413678646,6,0.7163689732551575,0.45829781889915466,0.404138445854187,0.3368244767189026,0.14906521141529083,2.0244908332824707,-0.12198846787214279,-2.92630672454834,9.877645492553711,3.0701467990875244,1.000138282775879,-0.0003207037807442248,-0.19357538223266602,26.103862762451172,-2.6226654052734375,-18.297718048095703,0.2613351345062256,0.1884756088256836,-0.4835214614868164,-3.1876418590545654,9.689169883728027,3.553668260574341
6_20251106_152153,1762413678665,6,0.7129345536231995,0.4648321270942688,0.4077492952346802,0.33075058460235596,0.14906521141529083,2.0244908332824707,-0.12198846787214279,-2.92630672454834,9.877645492553711,3.0701467990875244,1.056337833404541,-0.01620318740606308,-0.3035310208797455,26.283546447753906,-2.4368209838867188,-18.179025650024414,0.2613351345062256,0.1884756088256836,-0.4835214614868164,-3.1876418590545654,9.689169883728027,3.553668260574341
6_20251106_152153,1762413678685,6,0.7094780802726746,0.47122475504875183,0.41163456439971924,0.32426077127456665,0.1203865259885788,2.010653495788574,-0.12682171165943146,-3.0065088272094727,9.343761444091797,2.2190446853637695,1.056337833404541,-0.06873755156993866,-0.37561309337615967,26.45053482055664,-2.2640609741210938,-18.08812141418457,0.08796191215515137,-0.2833080291748047,-0.9277057647705078,-3.094470739364624,9.627069473266602,3.1467504501342773
6_20251106_152153,1762413678704,6,0.706241250038147,0.4773329198360443,0.4157126843929291,0.3171113431453705,0.1080891340970993,2.0030815601348877,-0.1332671344280243,-3.174095630645752,9.13786792755127,1.9784376621246338,1.0624463558197021,-0.17197369039058685,-0.400658518075943,26.649059295654297,-2.1653366088867188,-17.889198303222656,-0.06369996070861816,-0.3913612365722656,-0.9346504211425781,-3.110395669937134,9.529229164123535,2.913088083267212
6_20251106_152153,1762413678722,6,0.7033449411392212,0.48350459337234497,0.41942429542541504,0.30921271443367004,0.09546130150556564,1.994280219078064,-0.14224551618099213,-3.218386650085449,9.088788986206055,1.9963934421539307,1.0312923192977905,-0.18846704065799713,-0.45013856887817383,26.835189819335938,-2.0792922973632812,-17.75861167907715,-0.08639287948608398,-0.3523521423339844,-0.7333557605743408,-3.1319937705993652,9.441141128540039,2.7297492027282715
6_20251106_152153,1762413678741,6,0.7007014155387878,0.4896184802055359,0.422818124294281,0.3008589744567871,0.08347085118293762,1.9853144884109497,-0.15248852968215942,-3.3859734535217285,9.016965866088867,1.8515503406524658,0.9231692552566528,-0.09317214041948318,-0.5466551780700684,27.047821044921875,-1.9423751831054688,-17.531373977661133,-0.20318388938903809,-0.3393402099609375,-0.702559232711792,-3.1827895641326904,9.356306076049805,2.554109573364258
6_20251106_152153,1762413678760,6,0.6981544494628906,0.4945007562637329,0.42694559693336487,0.29285967350006104,0.06899570673704147,1.9737491607666016,-0.16642619669437408,-3.7809998989105225,8.665033340454102,1.5259528160095215,0.7625118494033813,-0.006429350934922695,-0.6028547286987305,27.24966049194336,-1.7927474975585938,-17.398977279663086,-0.47856831550598145,-0.5530185699462891,-0.8225255012512207,-3.302431583404541,9.21805191040039,2.348478317260742
6_20251106_152153,1762413678778,6,0.6962212920188904,0.4979683458805084,0.43142980337142944,0.2849065959453583,0.054842665791511536,1.9618476629257202,-0.1804567277431488,-4.024001121520996,8.40048599243164,1.4900414943695068,0.6317868232727051,-0.0021532978862524033,-0.5686463117599487,27.45391082763672,-1.6050491333007812,-17.306337356567383,-0.5772557258605957,-0.654052734375,-0.6867494583129883,-3.4467453956604004,9.05453872680664,2.176790952682495
6_20251106_152153,1762413678798,6,0.6947651505470276,0.5001760125160217,0.43588316440582275,0.27772510051727295,0.038370467722415924,1.9470856189727783,-0.19668486714363098,-3.9509806632995605,8.331056594848633,1.7102985382080078,0.5450440049171448,-0.007651080377399921,-0.5118359327316284,27.620914459228516,-1.4206771850585938,-17.120553970336914,-0.40338802337646484,-0.5787858963012695,-0.37319397926330566,-3.5475926399230957,8.909842491149902,2.0834925174713135
6_20251106_152153,1762413678817,6,0.693687379360199,0.5018935799598694,0.4397183954715729,0.271198034286499,0.0224041435867548,1.9317840337753296,-0.21252542734146118,-3.9485867023468018,8.188608169555664,1.6480519771575928,0.5450440049171448,0.009453131817281246,-0.46418845653533936,27.790931701660156,-1.1858062744140625,-16.96074867248535,-0.32079529762268066,-0.5769872665405273,-0.34835243225097656,-3.627791404724121,8.765595436096191,1.9964044094085693
6_20251106_152153,1762413678838,6,0.6926219463348389,0.5033361911773682,0.44329726696014404,0.2653583884239197,0.005156923085451126,1.9148558378219604,-0.22991260886192322,-4.049139022827148,8.230504989624023,1.487647294998169,0.5719220638275146,-0.04185950383543968,-0.3994368016719818,27.926002502441406,-0.9279327392578125,-16.82891845703125,-0.3370780944824219,-0.4280719757080078,-0.4070056676864624,-3.7120609283447266,8.658576965332031,1.8946529626846313
6_20251106_152153,1762413678856,6,0.691291332244873,0.5051780939102173,0.4465711712837219,0.2597798705101013,-0.011195562779903412,1.898633599281311,-0.24604466557502747,-3.9988627433776855,8.314298629760742,1.7342394590377808,0.5316050052642822,-0.020479239523410797,-0.3646174967288971,27.926002502441406,-0.9279327392578125,-16.82891845703125,-0.22944140434265137,-0.2754230499267578,-0.12833082675933838,-3.769421339035034,8.5897216796875,1.8625702857971191
6_20251106_152153,1762413678876,6,0.6899962425231934,0.5072950720787048,0.44925758242607117,0.2544100880622864,-0.027517560869455338,1.882151484489441,-0.2617616057395935,-4.056321144104004,8.199380874633789,1.7198748588562012,0.5328266620635986,0.12124138325452805,-0.3914955258369446,28.06366729736328,-0.6433334350585938,-16.858755111694336,-0.22951984405517578,-0.3122730255126953,-0.11415636539459229,-3.826801300048828,8.511653900146484,1.8340312242507935
6_20251106_152153,1762413678895,6,0.6884307861328125,0.5089550018310547,0.45244836807250977,0.24963633716106415,-0.0438009612262249,1.8650652170181274,-0.27788278460502625,-4.110188007354736,7.991094589233398,1.400262713432312,0.5798633098602295,0.27151408791542053,-0.39210641384124756,28.272048950195312,-0.38042449951171875,-16.751014709472656,-0.22670936584472656,-0.41644763946533203,-0.34701478481292725,-3.8834786415100098,8.40754222869873,1.7472774982452393
6_20251106_152153,1762413678914,6,0.6860708594322205,0.5102759599685669,0.4568411409854889,0.24540044367313385,-0.061013735830783844,1.84640371799469,-0.29651814699172974,-4.1891937255859375,7.889345169067383,0.9202460050582886,0.6073521971702576,0.32160496711730957,-0.33712857961654663,28.445072174072266,-0.10666656494140625,-16.712064743041992,-0.24457216262817383,-0.41455745697021484,-0.6616252660751343,-3.9446215629577637,8.303902626037598,1.5818712711334229
6_20251106_152153,1762413678932,6,0.6829171776771545,0.511701762676239,0.46193060278892517,0.24167251586914062,-0.07607939839363098,1.8294302225112915,-0.3145639896392822,-4.086247444152832,7.890542030334473,0.7239298820495605,0.5969674587249756,0.2788444757461548,-0.2656574249267578,28.641674041748047,0.16759490966796875,-16.564002990722656,-0.11330080032348633,-0.3306884765625,-0.6863532066345215,-3.9729466438293457,8.221230506896973,1.410283088684082
6_20251106_152153,1762413678951,6,0.6795141696929932,0.513495683670044,0.4666658043861389,0.23833948373794556,-0.07607939839363098,1.8294302225112915,-0.3145639896392822,-4.086247444152832,7.890542030334473,0.7239298820495605,0.6042978763580322,0.23608393967151642,-0.21251219511032104,28.836769104003906,0.4166107177734375,-16.402950286865234,-0.11330080032348633,-0.3306884765625,-0.6863532066345215,-3.9729466438293457,8.221230506896973,1.410283088684082
6_20251106_152153,1762413678970,6,0.6761426329612732,0.5156469941139221,0.47076866030693054,0.23519396781921387,-0.10683775693178177,1.7938387393951416,-0.35701480507850647,-4.193982124328613,7.944409370422363,0.23074552416801453,0.5621482133865356,0.2318078875541687,-0.18563416600227356,28.993995666503906,0.6382675170898438,-16.257415771484375,-0.15544414520263672,-0.17180252075195312,-0.8131285905838013,-4.038537979125977,8.116211891174316,1.0438741445541382
6_20251106_152153,1762413678990,6,0.6727073788642883,0.5179733633995056,0.47456714510917664,0.23228086531162262,-0.12187530100345612,1.7767250537872314,-0.38035058975219727,-4.251440048217773,7.969547271728516,0.1684989631175995,0.3886626958847046,0.2531881332397461,-0.1685299575328827,29.08858871459961,0.8304290771484375,-16.074312210083008,-0.17032146453857422,-0.11733150482177734,-0.7003002166748047,-4.081118583679199,8.086878776550293,0.8687991499900818
6_20251106_152153,1762413679011,6,0.6697278618812561,0.5196603536605835,0.47803768515586853,0.22999495267868042,-0.13693571090698242,1.759807825088501,-0.40514934062957764,-4.08864164352417,8.151498794555664,0.3875589966773987,0.22128574550151825,0.3747502267360687,-0.18441241979599,29.24371337890625,1.0260238647460938,-15.834691047668457,-0.006018161773681641,0.051695823669433594,-0.3849921226501465,-4.082623481750488,8.09980297088623,0.7725511193275452
6_20251106_152153,1762413679031,6,0.667335569858551,0.5200424194335938,0.48147010803222656,0.2289227396249771,-0.15248902142047882,1.7423856258392334,-0.43242737650871277,-4.032380104064941,8.169455528259277,0.40192359685897827,0.1834121197462082,0.49753403663635254,-0.24488800764083862,29.321407318115234,1.1529922485351562,-15.491202354431152,0.04019451141357422,0.05572223663330078,-0.2965020537376404,-4.072574615478516,8.113733291625977,0.6984256505966187
6_20251106_152153,1762413679047,6,0.6649225950241089,0.5191329121589661,0.48580029606819153,0.22886018455028534,-0.1635596603155136,1.730279803276062,-0.45214900374412537,-4.239469528198242,8.078479766845703,0.24870125949382782,0.1834121197462082,0.49753403663635254,-0.24488800764083862,29.388832092285156,1.3165664672851562,-15.120379447937012,-0.1335158348083496,-0.02820301055908203,-0.3597795367240906,-4.105953693389893,8.106682777404785,0.6084808111190796
6_20251106_152153,1762413679067,6,0.6621983647346497,0.5179156064987183,0.4907808303833008,0.22889064252376556,-0.17790888249874115,1.7154836654663086,-0.4768950343132019,-4.501623630523682,7.968350410461426,0.1720900982618332,0.23105956614017487,0.45721694827079773,-0.17708206176757812,29.468948364257812,1.4932174682617188,-14.721769332885742,-0.31653594970703125,-0.11066627502441406,-0.3491125702857971,-4.18508768081665,8.07901668548584,0.5212026834487915
6_20251106_152153,1762413679085,6,0.6594255566596985,0.5170973539352417,0.49537092447280884,0.2288578450679779,-0.19122809171676636,1.7024809122085571,-0.49951091408729553,-4.611752510070801,7.936030387878418,-0.07091093063354492,0.22861610352993011,0.4700450897216797,-0.08239801973104477,29.497798919677734,1.6168746948242188,-14.36672592163086,-0.34133195877075195,-0.11438941955566406,-0.4736908972263336,-4.270420551300049,8.050419807434082,0.4027799665927887
6_20251106_152153,1762413679104,6,0.656449019908905,0.5166960954666138,0.4995384216308594,0.2292623519897461,-0.20525802671909332,1.68953537940979,-0.5236961245536804,-4.515987873077393,8.084465026855469,-0.1463250368833542,0.22861610352993011,0.4700450897216797,-0.08239801973104477,29.535621643066406,1.6905593872070312,-13.958183288574219,-0.19645357131958008,0.027235984802246094,-0.4392840266227722,-4.3195343017578125,8.057229042053223,0.29295897483825684
6_20251106_152153,1762413679124,6,0.6532835364341736,0.5166330933570862,0.5032874345779419,0.2302446812391281,-0.22001618146896362,1.6767781972885132,-0.5495151877403259,-4.55908203125,8.119178771972656,-0.244483083486557,0.2084575742483139,0.47554290294647217,-0.012759439647197723,29.587844848632812,1.8028411865234375,-13.561873435974121,-0.19163799285888672,0.049559593200683594,-0.4299536347389221,-4.367444038391113,8.069619178771973,0.1854705661535263
6_20251106_152153,1762413679143,6,0.6500412225723267,0.5164915323257446,0.5069308280944824,0.23174123466014862,-0.22001618146896362,1.6767781972885132,-0.5495151877403259,-4.55908203125,8.119178771972656,-0.244483083486557,0.07406735420227051,0.5891637206077576,-0.04269180819392204,29.72667694091797,1.9456634521484375,-13.148086547851562,-0.19163799285888672,0.049559593200683594,-0.4299536347389221,-4.367444038391113,8.069619178771973,0.1854705661535263
6_20251106_152153,1762413679161,6,0.6468785405158997,0.5157288312911987,0.5108329057693481,0.23371268808841705,-0.24664881825447083,1.6556036472320557,-0.5969337224960327,-4.5830230712890625,8.147908210754395,-0.29236507415771484,0.07406735420227051,0.5891637206077576,-0.04269180819392204,29.812637329101562,2.010101318359375,-12.751361846923828,-0.1465892791748047,0.044933319091796875,-0.3178810775279999,-4.436433792114258,8.102974891662598,0.025516007095575333
6_20251106_152153,1762413679181,6,0.643858015537262,0.5139304995536804,0.5152374505996704,0.23633161187171936,-0.26071035861968994,1.6448581218719482,-0.6222326159477234,-4.605767250061035,8.021020889282227,-0.33067065477371216,-0.03283397853374481,0.7040062546730042,-0.07384590804576874,29.95824432373047,2.0767593383789062,-12.176473617553711,-0.1354665756225586,-0.06556320190429688,-0.28494933247566223,-4.470300674438477,8.086584091186523,-0.04572131857275963
6_20251106_152153,1762413679199,6,0.6407339572906494,0.5113875269889832,0.5200250148773193,0.23982663452625275,-0.27329057455062866,1.6350818872451782,-0.6447387337684631,-4.696743011474609,7.847448348999023,-0.4012965261936188,-0.015729766339063644,0.6985085010528564,0.0581008717417717,30.04259490966797,2.115814208984375,-11.753244400024414,-0.1811537742614746,-0.19130897521972656,-0.284460186958313,-4.515589237213135,8.03875732421875,-0.11683635413646698
6_20251106_152153,1762413679218,6,0.6374176740646362,0.5093334317207336,0.5243651270866394,0.24355575442314148,-0.2861367166042328,1.6247470378875732,-0.6680221557617188,-4.5997819900512695,7.845054626464844,-0.37735554575920105,0.023976441472768784,0.6820151209831238,0.156450092792511,30.103084564208984,2.1655654907226562,-11.303699493408203,-0.06735420227050781,-0.15496253967285156,-0.20841535925865173,-4.532427787780762,8.000017166137695,-0.16894018650054932
6_20251106_152153,1762413679238,6,0.6337108016014099,0.5079885125160217,0.528255820274353,0.24759653210639954,-0.29851439595222473,1.6143814325332642,-0.6918991208076477,-4.378327369689941,7.98989725112915,-0.364188015460968,0.033139411360025406,0.7211105227470398,0.20409753918647766,30.22199249267578,2.1810760498046875,-10.798429489135742,0.12328052520751953,-0.00809621810913086,-0.15619826316833496,-4.501607894897461,7.997993469238281,-0.20798975229263306
6_20251106_152153,1762413679257,6,0.6296489238739014,0.5072404742240906,0.5317836403846741,0.251903772354126,-0.3087558448314667,1.6053556203842163,-0.7134726643562317,-4.162858486175537,8.117981910705566,-0.21695095300674438,0.033139411360025406,0.7211105227470398,0.20409753918647766,30.22199249267578,2.1810760498046875,-10.798429489135742,0.2709994316101074,0.09599018096923828,-0.007168963551521301,-4.4338579177856445,8.021991729736328,-0.20978198945522308
6_20251106_152153,1762413679277,6,0.6253299117088318,0.5062604546546936,0.5355035662651062,0.2567075490951538,-0.318158894777298,1.596134066581726,-0.7357994318008423,-4.1580705642700195,7.957576751708984,-0.4575578570365906,-0.029779653996229172,0.8750484585762024,0.16866737604141235,30.287334442138672,2.1172561645507812,-10.215606689453125,0.22063016891479492,-0.05153179168701172,-0.19822070002555847,-4.3787007331848145,8.009108543395996,-0.2593371570110321
6_20251106_152153,1762413679295,6,0.6207815408706665,0.5046051144599915,0.5397341251373291,0.26208966970443726,-0.3260384202003479,1.5871706008911133,-0.7563555240631104,-4.313687324523926,7.570930004119873,-0.8549783229827881,-0.0016798777505755424,0.8787136077880859,0.22059088945388794,30.31511688232422,2.0380935668945312,-9.59397029876709,0.052010536193847656,-0.3505430221557617,-0.47651293873786926,-4.365697860717773,7.921473026275635,-0.3784653842449188
6_20251106_152153,1762413679315,6,0.6158414483070374,0.5028035640716553,0.5442747473716736,0.26775527000427246,-0.3341211676597595,1.5763815641403198,-0.7804556488990784,-4.288548946380615,7.484742164611816,-1.1686053276062012,0.0386371947824955,0.8500029444694519,0.37819400429725647,30.34209442138672,1.9462432861328125,-8.959081649780273,0.06171894073486328,-0.34938478469848633,-0.6321119666099548,-4.3502678871154785,7.834126949310303,-0.5364933609962463
6_20251106_152153,1762413679334,6,0.6105039119720459,0.501843273639679,0.5482416749000549,0.27362269163131714,-0.34013643860816956,1.5660537481307983,-0.8044230937957764,-3.883945941925049,7.61881160736084,-1.3445714712142944,0.069180428981781,0.813961923122406,0.5614534020423889,30.368072509765625,1.8414306640625,-8.28390884399414,0.37305736541748047,-0.17225217819213867,-0.6464625000953674,-4.257003307342529,7.7910637855529785,-0.698108971118927
6_20251106_152153,1762413679353,6,0.6045693755149841,0.50214684009552,0.5512655377388,0.2800905704498291,-0.3432871401309967,1.5566630363464355,-0.8285519480705261,-3.3225300312042236,7.944409370422363,-1.1937432289123535,0.027030762284994125,0.7803643345832825,0.6524722576141357,30.303306579589844,1.6308670043945312,-7.641312599182129,0.7475783824920654,0.12267684936523438,-0.3965074419975281,-4.070108413696289,7.821732521057129,-0.7972357869148254
6_20251106_152153,1762413679372,6,0.598332405090332,0.503358006477356,0.5533081889152527,0.2871917188167572,-0.34337863326072693,1.548699140548706,-0.851737916469574,-3.0124940872192383,8.170652389526367,-0.8932839035987854,-0.06765326857566833,0.8029664158821106,0.5742815732955933,30.297069549560547,1.3978118896484375,-6.861629486083984,0.8460915088653564,0.27913570404052734,-0.07683849334716797,-3.8585855960845947,7.89151668548584,-0.8164454102516174
6_20251106_152153,1762413679391,6,0.5923882126808167,0.5041393041610718,0.5549665689468384,0.29484206438064575,-0.3416532576084137,1.5418894290924072,-0.8738571405410767,-3.1980369091033936,8.167060852050781,-0.8501901030540466,-0.06765326857566833,0.8029664158821106,0.5742815732955933,30.200191497802734,1.0591506958007812,-6.128040313720703,0.5284390449523926,0.22043514251708984,-0.026995718479156494,-3.726475954055786,7.946625709533691,-0.8231943845748901
6_20251106_152153,1762413679410,6,0.5869486331939697,0.5031418800354004,0.557449996471405,0.3026368319988251,-0.33980247378349304,1.5354206562042236,-0.8956177234649658,-3.649324417114258,7.946803092956543,-1.0955852270126343,-0.19104795157909393,0.9178089499473572,0.35375940799713135,30.140575408935547,0.7354278564453125,-5.3927154541015625,0.0617213249206543,0.00014209747314453125,-0.2179126739501953,-3.711045742034912,7.946660995483398,-0.877672553062439
6_20251106_152153,1762413679429,6,0.5819778442382812,0.49981701374053955,0.561282753944397,0.3105583190917969,-0.33859413862228394,1.5285499095916748,-0.9182609915733337,-3.911478281021118,7.682255744934082,-1.595951795578003,-0.3987419307231903,1.2238521575927734,0.29755985736846924,30.03423309326172,0.4460601806640625,-4.645044326782227,-0.16034626960754395,-0.21152400970458984,-0.5746233463287354,-3.751132011413574,7.893779754638672,-1.0213284492492676
6_20251106_152153,1762413679448,6,0.5766077041625977,0.4950319826602936,0.5659665465354919,0.3196072280406952,-0.3371800482273102,1.5215080976486206,-0.941437304019928,-3.6541125774383545,7.7061967849731445,-1.6282721757888794,-0.3987419307231903,1.2238521575927734,0.29755985736846924,29.889015197753906,0.11637115478515625,-3.8726043701171875,0.07761549949645996,-0.15006637573242188,-0.48555493354797363,-3.7317280769348145,7.856263160705566,-1.1427172422409058
6_20251106_152153,1762413679468,6,0.5704774856567383,0.4908568859100342,0.5697658658027649,0.3301239311695099,-0.33361950516700745,1.5148470401763916,-0.9650634527206421,-3.0256614685058594,7.981517791748047,-1.2907042503356934,-0.30955567955970764,1.011271357536316,0.8955963850021362,29.715805053710938,-0.27782440185546875,-3.088947296142578,0.5648534297943115,0.1002035140991211,-0.11838960647583008,-3.590514898300171,7.881314277648926,-1.1723146438598633
6_20251106_152153,1762413679485,6,0.5635973215103149,0.4890594184398651,0.5714765191078186,0.34145796298980713,-0.33361950516700745,1.5148470401763916,-0.9650634527206421,-3.0256614685058594,7.981517791748047,-1.2907042503356934,-0.1824958473443985,0.8988721370697021,1.0196019411087036,29.506332397460938,-0.6740036010742188,-2.347311019897461,0.5648534297943115,0.1002035140991211,-0.11838960647583008,-3.590514898300171,7.881314277648926,-1.1723146438598633
6_20251106_152153,1762413679506,6,0.5561569929122925,0.4896078407764435,0.5715334415435791,0.3525948226451874,-0.3173319697380066,1.5061907768249512,-1.00607430934906,-1.9507113695144653,8.425623893737793,-1.0512943267822266,-0.1305723339319229,0.8762701153755188,0.9713436365127563,29.28125,-1.1336288452148438,-1.621002197265625,1.1278091669082642,0.3830251693725586,0.08894479274749756,-3.0785205364227295,8.042598724365234,-1.1402391195297241
6_20251106_152153,1762413679526,6,0.5484419465065002,0.49102240800857544,0.5712445974349976,0.3630262017250061,-0.3173319697380066,1.5061907768249512,-1.00607430934906,-1.9507113695144653,8.425623893737793,-1.0512943267822266,-0.15073087811470032,0.9483521580696106,0.8815464973449707,28.97952651977539,-1.6608047485351562,-0.8989543914794922,1.1278091669082642,0.3830251693725586,0.08894479274749756,-3.0785205364227295,8.042598724365234,-1.1402391195297241
6_20251106_152153,1762413679545,6,0.5406482815742493,0.49169570207595825,0.571496844291687,0.3732641637325287,-0.28763750195503235,1.5020455121994019,-1.0462201833724976,-1.68137526512146,8.244869232177734,-1.7826915979385376,-0.16539163887500763,0.9434652924537659,0.8723835349082947,28.713470458984375,-2.1868057250976562,-0.05378913879394531,0.9070053100585938,0.10149002075195312,-0.4910367727279663,-2.5883805751800537,8.143379211425781,-1.2916548252105713
6_20251106_152153,1762413679563,6,0.5326906442642212,0.49172529578208923,0.5721457600593567,0.3835311532020569,-0.2708243131637573,1.5010157823562622,-1.065839171409607,-1.4958326816558838,8.376544952392578,-1.986189842224121,-0.22586724162101746,0.84267258644104,0.9114788770675659,28.336219787597656,-2.7568206787109375,0.7050724029541016,0.8740382194519043,0.18653297424316406,-0.5556280612945557,-2.369870901107788,8.190011978149414,-1.4305617809295654
6_20251106_152153,1762413679582,6,0.5249888300895691,0.4919455349445343,0.5721943378448486,0.39366230368614197,-0.25127410888671875,1.5009711980819702,-1.08646559715271,-1.389295220375061,8.550117492675781,-1.7779033184051514,-0.36209002137184143,0.7846404910087585,0.8791030645370483,27.880905151367188,-3.4311141967773438,1.3642654418945312,0.7844606637954712,0.2880840301513672,-0.27787327766418457,-2.1737558841705322,8.262033462524414,-1.5000300407409668
6_20251106_152153,1762413679601,6,0.5181019902229309,0.49213457107543945,0.5712478756904602,0.4037942588329315,-0.23054590821266174,1.5018932819366455,-1.105811595916748,-1.3880982398986816,8.61355972290039,-1.4092121124267578,-0.504421591758728,0.8573333621025085,0.7862516641616821,27.45972442626953,-4.1527099609375,1.969808578491211,0.6285262107849121,0.2812213897705078,0.07265424728393555,-2.0166244506835938,8.332338333129883,-1.4818663597106934
6_20251106_152153,1762413679619,6,0.5124441981315613,0.4915214478969574,0.5696104168891907,0.41394639015197754,-0.21014533936977386,1.503000020980835,-1.1230175495147705,-1.3078958988189697,8.44477653503418,-1.3984386920928955,-0.5752819180488586,0.9630129337310791,0.7257760167121887,27.027570724487305,-4.850257873535156,2.6024227142333984,0.5669828653335571,0.0899505615234375,0.0667421817779541,-1.8748787641525269,8.354825973510742,-1.4651808738708496
6_20251106_152153,1762413679639,6,0.5066661238670349,0.488910049200058,0.5687673091888428,0.4251589775085449,-0.18657483160495758,1.504474401473999,-1.1409837007522583,-1.2049497365951538,8.455550193786621,-1.4008327722549438,-0.6094903349876404,0.9850040674209595,0.7459346055984497,26.605995178222656,-5.572395324707031,3.2620315551757812,0.5359432697296143,0.08057975769042969,0.05147850513458252,-1.740893006324768,8.374970436096191,-1.4523112773895264
6_20251106_152153,1762413679658,6,0.500800609588623,0.48558756709098816,0.5680524706840515,0.4367147982120514,-0.16318832337856293,1.5061936378479004,-1.1567548513412476,-0.9703279733657837,8.516599655151367,-1.2907042503356934,-0.6070468425750732,0.9117003083229065,0.8638314604759216,26.111783981323242,-6.310234069824219,3.7562389373779297,0.6164519786834717,0.11330318450927734,0.12928557395935059,-1.5867799520492554,8.40329647064209,-1.419989824295044
6_20251106_152153,1762413679677,6,0.4947088360786438,0.48254117369651794,0.5667625069618225,0.44855040311813354,-0.1383931040763855,1.508482575416565,-1.1710772514343262,-0.6471246480941772,8.642290115356445,-1.179378628730774,-0.5380191206932068,0.7999120354652405,1.0269323587417603,25.583229064941406,-7.012657165527344,4.236249923706055,0.7517242431640625,0.1911945343017578,0.19248902797698975,-1.3988488912582397,8.451095581054688,-1.3718676567077637
6_20251106_152153,1762413679701,6,0.4883417785167694,0.4808565080165863,0.5643216967582703,0.46026116609573364,-0.11145167052745819,1.5113162994384766,-1.1850224733352661,-0.1647137552499771,8.691368103027344,-1.4953997135162354,-0.446389377117157,0.7046172022819519,1.1943092346191406,25.063716888427734,-7.788139343261719,4.566488265991211,0.987308144569397,0.19221782684326172,-0.09882569313049316,-1.152021884918213,8.499150276184082,-1.3965740203857422
6_20251106_152153,1762413679716,6,0.481216162443161,0.4808748662471771,0.5609041452407837,0.47178056836128235,-0.07939454913139343,1.5149563550949097,-1.199446439743042,0.5307719707489014,8.764389038085938,-1.5540552139282227,-0.3993527889251709,0.5824442505836487,1.3115953207015991,24.54410743713379,-8.563758850097656,4.910243988037109,1.3462350368499756,0.2121906280517578,-0.12598490715026855,-0.815463125705719,8.55219841003418,-1.428070306777954
6_20251106_152153,1762413679735,6,0.47352033853530884,0.48250314593315125,0.5565096139907837,0.4829764664173126,-0.04464457184076309,1.519917368888855,-1.2122809886932373,1.3052629232406616,9.163005828857422,-1.3613301515579224,-0.42684170603752136,0.47187772393226624,1.2987672090530396,24.54410743713379,-8.563758850097656,4.910243988037109,1.6965808868408203,0.4886455535888672,0.05339217185974121,-0.3913179337978363,8.674360275268555,-1.4147223234176636
6_20251106_152153,1762413679755,6,0.4659741520881653,0.48511895537376404,0.5512007474899292,0.49366530776023865,-0.0032231472432613373,1.5280851125717163,-1.223210096359253,1.803235411643982,9.729209899902344,-0.7879435420036316,-0.5288561582565308,0.3655872344970703,1.15338134765625,23.984315872192383,-9.404678344726562,5.2647247314453125,1.7556426525115967,0.8438796997070312,0.5014230608940125,0.04759269952774048,8.885330200195312,-1.289366602897644
6_20251106_152153,1762413679774,6,0.459616482257843,0.4875037372112274,0.5452468991279602,0.5037842988967896,0.03706646338105202,1.5384434461593628,-1.230830430984497,2.0270838737487793,10.255911827087402,-0.5892333388328552,-0.6168206930160522,0.38818925619125366,0.9365243911743164,23.400436401367188,-10.258399963378906,5.482797622680664,1.5835928916931152,1.0964651107788086,0.5601065754890442,0.4434909224510193,9.159446716308594,-1.1493399143218994
6_20251106_152153,1762413679792,6,0.4546571671962738,0.488514244556427,0.539402425289154,0.51350337266922,0.081602543592453,1.55224609375,-1.2369779348373413,1.9504724740982056,10.404346466064453,-0.604794979095459,-0.7011200189590454,0.42606285214424133,0.7001197338104248,22.764694213867188,-11.165931701660156,5.738401412963867,1.205585241317749,0.9959201812744141,0.43563592433929443,0.7448872327804565,9.408426284790039,-1.0404309034347534
6_20251106_152153,1762413679811,6,0.4510290026664734,0.4877389371395111,0.534214437007904,0.5227795839309692,0.12653306126594543,1.567562222480774,-1.2411401271820068,1.7002891302108765,10.21162223815918,-0.42882871627807617,-0.7457131147384644,0.4138455390930176,0.5266340970993042,22.11846160888672,-12.060348510742188,5.858615875244141,0.7643215656280518,0.6425571441650391,0.48928171396255493,0.9359675645828247,9.56906509399414,-0.9181104302406311
6_20251106_152153,1762413679831,6,0.4485691487789154,0.48529714345932007,0.5298110246658325,0.5315756797790527,0.12653306126594543,1.567562222480774,-1.2411401271820068,1.7002891302108765,10.21162223815918,-0.42882871627807617,-0.6846266984939575,0.34298527240753174,0.4692128300666809,21.56064796447754,-12.898574829101562,5.942771911621094,0.7643215656280518,0.6425571441650391,0.48928171396255493,0.9359675645828247,9.56906509399414,-0.9181104302406311
6_20251106_152153,1762413679850,6,0.4469645619392395,0.4825243353843689,0.525663435459137,0.5395098924636841,0.2130659967660904,1.600776195526123,-1.2443329095840454,1.605722188949585,10.389982223510742,-0.5593070387840271,-0.5300778746604919,0.24952295422554016,0.4899822473526001,21.053369522094727,-13.719581604003906,5.880474090576172,0.41983258724212646,0.5410928726196289,0.17887932062149048,1.1858896017074585,9.848889350891113,-0.7381863594055176
6_20251106_152153,1762413679869,6,0.4453194737434387,0.4805571734905243,0.5218103528022766,0.5463234186172485,0.26068443059921265,1.6216487884521484,-1.2461494207382202,1.6559983491897583,10.604253768920898,-0.8753281235694885,-0.4341720640659332,0.12551742792129517,0.5602316856384277,20.537145614624023,-14.467391967773438,5.954431533813477,0.3760870695114136,0.6042919158935547,-0.10971337556838989,1.2799112796783447,9.999961853027344,-0.7656147480010986
6_20251106_152153,1762413679888,6,0.443355917930603,0.4801219403743744,0.5179407596588135,0.5519563555717468,0.3008689284324646,1.6409318447113037,-1.2474919557571411,1.8523144721984863,10.928654670715332,-0.710135281085968,-0.5154170989990234,0.02655734308063984,0.5883314609527588,20.03652000427246,-15.163368225097656,5.9488372802734375,0.4579225778579712,0.7429542541503906,0.04438358545303345,1.3943918943405151,10.185700416564941,-0.7545188665390015
6_20251106_152153,1762413679907,6,0.4414171874523163,0.48060092329978943,0.5134746432304382,0.557240903377533,0.3008689284324646,1.6409318447113037,-1.2474919557571411,1.8523144721984863,10.928654670715332,-0.710135281085968,-0.7041743397712708,0.021670425310730934,0.5138059854507446,19.630531311035156,-15.7135009765625,5.733320236206055,0.4579225778579712,0.7429542541503906,0.04438358545303345,1.3943918943405151,10.185700416564941,-0.7545188665390015
6_20251106_152153,1762413679925,6,0.44061073660850525,0.48070183396339417,0.508000373840332,0.5627819299697876,0.34793248772621155,1.6665754318237305,-1.2466366291046143,2.1479854583740234,11.46014404296875,-0.055349282920360565,-0.8098539113998413,0.04549415037035942,0.3397095203399658,19.27239990234375,-16.261672973632812,5.641410827636719,0.602874755859375,1.0195550918579102,0.5593356490135193,1.5451107025146484,10.44058895111084,-0.6146849393844604
6_20251106_152153,1762413679944,6,0.44121071696281433,0.4793199598789215,0.5021476745605469,0.5687118768692017,0.4286741614341736,1.7165369987487793,-1.2359904050827026,2.3191637992858887,11.76539134979248,0.9669308662414551,-0.718224287033081,0.014340049587190151,0.16011527180671692,18.956832885742188,-16.729690551757812,5.309263229370117,0.47413432598114014,0.8432769775390625,1.0647127628326416,1.8450294733047485,10.922114372253418,-0.09778189659118652
6_20251106_152153,1762413679964,6,0.44277825951576233,0.47683683037757874,0.4970933496952057,0.5739967226982117,0.47139227390289307,1.7457730770111084,-1.2253351211547852,1.99955153465271,11.639700889587402,1.0279803276062012,-0.5374082922935486,-0.03697258234024048,0.07520508021116257,18.655071258544922,-17.15991973876953,5.045980453491211,0.12361764907836914,0.5740690231323242,0.9006097912788391,1.8759338855743408,11.065631866455078,0.12737053632736206
6_20251106_152153,1762413679985,6,0.44474148750305176,0.47465789318084717,0.4931624233722687,0.5776640176773071,0.5113968253135681,1.7753653526306152,-1.2128386497497559,1.6859246492385864,11.663642883300781,0.9082754850387573,-0.39690932631492615,-0.0772896558046341,0.08314632624387741,18.38150405883789,-17.525367736816406,4.744449615478516,-0.1520073413848877,0.4784088134765625,0.6247239708900452,1.8379319906234741,11.185234069824219,0.28355151414871216
6_20251106_152153,1762413680002,6,0.446285218000412,0.47320446372032166,0.4901745021343231,0.5802034139633179,0.545070230960846,1.8021719455718994,-1.2004802227020264,1.6224809885025024,11.796514511108398,0.9633396863937378,-0.39690932631492615,-0.0772896558046341,0.08314632624387741,18.206947326660156,-17.84760284423828,4.528730392456055,-0.17236077785491943,0.48902416229248047,0.5438305139541626,1.7948417663574219,11.307490348815918,0.4195091426372528
6_20251106_152153,1762413680021,6,0.447498083114624,0.4724367558956146,0.4874878227710724,0.582155168056488,0.578315019607544,1.830273151397705,-1.1862144470214844,1.6045252084732056,11.75222396850586,1.1021974086761475,-0.3327685296535492,-0.047357283532619476,0.042829252779483795,18.061767578125,-18.103439331054688,4.112567901611328,-0.15225327014923096,0.3557863235473633,0.5461506247520447,1.7567784786224365,11.396437644958496,0.5560467839241028
6_20251106_152153,1762413680040,6,0.4489192068576813,0.47175151109695435,0.4849098026752472,0.5837675333023071,0.607598066329956,1.8553792238235474,-1.1722928285598755,1.4979878664016724,11.32128620147705,0.9956600666046143,-0.26312997937202454,-0.014981457032263279,-0.02375500276684761,17.953765869140625,-18.332855224609375,3.8065357208251953,-0.20703256130218506,-0.06012153625488281,0.3516906499862671,1.7050204277038574,11.381407737731934,0.6439694166183472
6_20251106_152153,1762413680059,6,0.45006462931632996,0.47041869163513184,0.4832576513290405,0.5853290557861328,0.6373727321624756,1.8805692195892334,-1.1569725275039673,1.3315980434417725,10.950201034545898,0.8496200442314148,-0.1715002804994583,-0.041248638182878494,-0.0347505658864975,17.90800666809082,-18.53331756591797,3.517000198364258,-0.2987380027770996,-0.34496498107910156,0.1645205020904541,1.630336046218872,11.295166015625,0.6850995421409607
6_20251106_152153,1762413680078,6,0.4511374533176422,0.4693225622177124,0.48224860429763794,0.5862146615982056,0.6633853316307068,1.902034878730774,-1.142973780632019,1.3172333240509033,10.832889556884766,0.7478708624839783,-0.11102466285228729,-0.06873755156993866,0.0006795860826969147,17.881580352783203,-18.607284545898438,3.2170772552490234,-0.2504822015762329,-0.36982154846191406,0.05021703243255615,1.5677155256271362,11.20271110534668,0.6976538300514221
6_20251106_152153,1762413680097,6,0.45183223485946655,0.46880021691322327,0.4815327227115631,0.5866857767105103,0.687653124332428,1.9213337898254395,-1.1295831203460693,1.4058150053024292,10.804161071777344,0.7311121821403503,-0.061544619500637054,-0.09561560302972794,0.02511417493224144,17.85598373413086,-18.64533233642578,3.093658447265625,-0.12952041625976562,-0.31884002685546875,0.026766717433929443,1.5353354215621948,11.123001098632812,0.7043454647064209
6_20251106_152153,1762413680117,6,0.4523044526576996,0.4688543975353241,0.4807826280593872,0.5868937969207764,0.7118765115737915,1.9399399757385254,-1.1158345937728882,1.5207316875457764,10.895136833190918,0.8220878839492798,-0.01084284856915474,-0.13165661692619324,0.00556650385260582,17.792713165283203,-18.710472106933594,2.9276905059814453,-0.011682987213134766,-0.18229198455810547,0.09419393539428711,1.5324146747589111,11.077428817749023,0.7278939485549927
6_20251106_152153,1762413680136,6,0.4526359438896179,0.4693578779697418,0.48015397787094116,0.5867503881454468,0.7118765115737915,1.9399399757385254,-1.1158345937728882,1.5207316875457764,10.895136833190918,0.8220878839492798,0.04230238497257233,-0.14509564638137817,-0.08239801973104477,17.792713165283203,-18.710472106933594,2.9276905059814453,-0.011682987213134766,-0.18229198455810547,0.09419393539428711,1.5324146747589111,11.077428817749023,0.7278939485549927
6_20251106_152153,1762413680155,6,0.45310696959495544,0.46996721625328064,0.4799882173538208,0.5860342979431152,0.7346858382225037,1.9567596912384033,-1.1024143695831299,1.465667486190796,10.795781135559082,0.8460289239883423,0.04230238497257233,-0.14509564638137817,-0.08239801973104477,17.793899536132812,-18.70885467529297,2.7654953002929688,-0.0533977746963501,-0.22531795501708984,0.09450799226760864,1.519065260887146,11.021099090576172,0.7515209317207336
6_20251106_152153,1762413680175,6,0.4539596736431122,0.47021445631980896,0.4804054796695709,0.5848329663276672,0.7716827988624573,1.9826661348342896,-1.0786527395248413,0.8970690965652466,10.36843490600586,0.7945557832717896,-0.027947060763835907,-0.07912225276231766,-0.19601884484291077,17.769811630249023,-18.721649169921875,2.629087448120117,-0.4457681179046631,-0.4560098648071289,0.03424572944641113,1.3428372144699097,10.824444770812988,0.7603100538253784
6_20251106_152153,1762413680194,6,0.45529961585998535,0.4698737561702728,0.48095494508743286,0.5836122632026672,0.7868507504463196,1.9921276569366455,-1.067378044128418,0.9090395569801331,10.185286521911621,0.8460289239883423,-0.04749472811818123,-0.05224420130252838,-0.17036253213882446,17.757007598876953,-18.746475219726562,2.519939422607422,-0.3470380902290344,-0.511326789855957,0.06857508420944214,1.2560776472091675,10.696613311767578,0.7774538397789001
6_20251106_152153,1762413680212,6,0.45663654804229736,0.4690212309360504,0.4814503490924835,0.5828444957733154,0.7996355891227722,1.9990390539169312,-1.0570265054702759,0.9042513370513916,10.045231819152832,0.8603935241699219,-0.0004581492394208908,-0.07301359623670578,-0.14959314465522766,17.770687103271484,-18.73204803466797,2.4125633239746094,-0.28146111965179443,-0.5211057662963867,0.06635177135467529,1.185712456703186,10.566337585449219,0.7940417528152466
6_20251106_152153,1762413680231,6,0.4578326344490051,0.46841439604759216,0.4818696975708008,0.5820471048355103,0.811342179775238,2.00394868850708,-1.046690821647644,0.7797582149505615,9.82976245880127,0.7777971029281616,0.04230238497257233,-0.10722202807664871,-0.12576940655708313,17.858598709106445,-18.688140869140625,2.3492069244384766,-0.3247634172439575,-0.5892610549926758,-0.012995719909667969,1.104521632194519,10.419023513793945,0.7907928228378296
6_20251106_152153,1762413680251,6,0.45872610807418823,0.46822038292884827,0.4824194610118866,0.5810434818267822,0.8219122886657715,2.0070269107818604,-1.036605715751648,0.7306791543960571,9.816595077514648,0.7083682417869568,0.05451967939734459,-0.1383761316537857,-0.07934369891881943,17.93471908569336,-18.644493103027344,2.231294631958008,-0.29907405376434326,-0.48194313049316406,-0.06593966484069824,1.0297532081604004,10.298538208007812,0.774307906627655
6_20251106_152153,1762413680271,6,0.4595224857330322,0.46854349970817566,0.4827704131603241,0.579861044883728,0.8308874368667603,2.0087621212005615,-1.0270870923995972,0.8240490555763245,9.918344497680664,0.9262312054634094,0.049021895974874496,-0.15731294453144073,-0.045135267078876495,17.997737884521484,-18.626075744628906,2.0447826385498047,-0.1645633578300476,-0.3041553497314453,0.12153863906860352,0.9886124134063721,10.22249984741211,0.8046925663948059
6_20251106_152153,1762413680288,6,0.460286945104599,0.4693118929862976,0.4827379882335663,0.5786590576171875,0.8308874368667603,2.0087621212005615,-1.0270870923995972,0.8240490555763245,9.918344497680664,0.9262312054634094,0.03802632912993431,-0.10416769981384277,-0.06590466946363449,18.134307861328125,-18.56751251220703,2.0917816162109375,-0.1645633578300476,-0.3041553497314453,0.12153863906860352,0.9886124134063721,10.22249984741211,0.8046925663948059
6_20251106_152153,1762413680308,6,0.4609079658985138,0.4699774980545044,0.48269036412239075,0.5776633620262146,0.8473270535469055,2.010392665863037,-1.0083117485046387,0.9473451375961304,10.008123397827148,0.9322164058685303,0.012980876490473747,-0.054687660187482834,-0.13981929421424866,18.260284423828125,-18.4959716796875,2.016908645629883,-0.029667019844055176,-0.13854217529296875,0.0770186185836792,0.9770121574401855,10.146665573120117,0.8551977872848511
6_20251106_152153,1762413680327,6,0.46141141653060913,0.46976998448371887,0.4832235276699066,0.576984167098999,0.853916347026825,2.010193347930908,-0.9997972249984741,0.748634934425354,9.864477157592773,0.9250341653823853,0.0013744458556175232,-0.061407171189785004,-0.16547563672065735,18.303285598754883,-18.38043975830078,2.0072402954101562,-0.18270176649093628,-0.22575092315673828,0.055869102478027344,0.9313367009162903,10.090228080749512,0.8691650629043579
6_20251106_152153,1762413680346,6,0.4624501168727875,0.469247967004776,0.48377725481987,0.5761126279830933,0.859810471534729,2.009122133255005,-0.9907963275909424,0.5822451114654541,9.807018280029297,0.8735610246658325,0.03252854943275452,-0.08645262569189072,-0.13493239879608154,18.417598724365234,-18.285797119140625,2.0540504455566406,-0.27927327156066895,-0.22656822204589844,0.0035167932510375977,0.861518383026123,10.033586502075195,0.8700442314147949
6_20251106_152153,1762413680366,6,0.463409423828125,0.46884971857070923,0.4843854308128357,0.5751542448997498,0.859810471534729,2.009122133255005,-0.9907963275909424,0.5822451114654541,9.807018280029297,0.8735610246658325,0.05207622051239014,-0.09195040911436081,-0.09033925831317902,18.494224548339844,-18.2298583984375,1.9634361267089844,-0.27927327156066895,-0.22656822204589844,0.0035167932510375977,0.861518383026123,10.033586502075195,0.8700442314147949
6_20251106_152153,1762413680384,6,0.46409013867378235,0.4688546061515808,0.4848971962928772,0.5741693377494812,0.8643807172775269,2.007101535797119,-0.9825403690338135,0.47091948986053467,9.749560356140137,0.6545009613037109,0.025809038430452347,-0.08462003618478775,-0.05368737131357193,18.489173889160156,-18.116561889648438,1.8571910858154297,-0.3124791383743286,-0.22722148895263672,-0.17243462800979614,0.7833986282348633,9.976781845092773,0.8269355893135071
6_20251106_152153,1762413680404,6,0.46464139223098755,0.46911919116973877,0.4852055311203003,0.5732461810112,0.869982898235321,2.0025110244750977,-0.9705835580825806,0.5966097116470337,9.966226577758789,0.6616833209991455,-0.032223112881183624,-0.08645262569189072,-0.04391353577375412,18.49209213256836,-18.066200256347656,1.8447303771972656,-0.1019243597984314,0.034422874450683594,-0.09426981210708618,0.6985340714454651,9.931803703308105,0.7559531331062317
6_20251106_152153,1762413680424,6,0.46529629826545715,0.469365656375885,0.4850594103336334,0.5726365447044373,0.872427225112915,2.000852346420288,-0.9638738632202148,0.6385064125061035,10.121843338012695,1.0495272874832153,-0.05971202626824379,-0.06323976814746857,-0.10561088472604752,18.54446029663086,-18.000099182128906,1.8344955444335938,-0.04802215099334717,0.15203189849853516,0.23485934734344482,0.6865285634994507,9.96981143951416,0.8146679401397705
6_20251106_152153,1762413680442,6,0.4662342965602875,0.4691953659057617,0.48486241698265076,0.5721797943115234,0.8740422129631042,1.9997819662094116,-0.95759117603302,0.4936634302139282,10.111068725585938,1.0363597869873047,-0.04627300053834915,0.008842267096042633,-0.15997785329818726,18.599323272705078,-17.90740203857422,1.6761093139648438,-0.15429210662841797,0.1130056381225586,0.17735350131988525,0.6479555368423462,9.998063087463379,0.8590062856674194
6_20251106_152153,1762413680460,6,0.4673250615596771,0.4683905243873596,0.48513171076774597,0.5717209577560425,0.8748634457588196,1.998592495918274,-0.9515367150306702,0.35839682817459106,9.927921295166016,0.8939108848571777,-0.023060142993927002,0.0516027994453907,-0.15020400285720825,18.67667007446289,-17.827293395996094,1.6806354522705078,-0.23164695501327515,-0.056113243103027344,0.02792370319366455,0.5900437831878662,9.984034538269043,0.8659871816635132
6_20251106_152153,1762413680480,6,0.46824130415916443,0.46719443798065186,0.4858745336532593,0.5713189840316772,0.8750579953193665,1.9967334270477295,-0.9457599520683289,0.3607909381389618,9.741180419921875,0.7586443424224854,0.03130682185292244,-0.0052076224237680435,-0.06285034865140915,18.814029693603516,-17.767654418945312,1.6195049285888672,-0.18340227007865906,-0.19428348541259766,-0.08587425947189331,0.5441932082176208,9.935463905334473,0.8445186018943787
6_20251106_152153,1762413680498,6,0.468624472618103,0.4662940800189972,0.4866698980331421,0.5710633397102356,0.8750318884849548,1.9948086738586426,-0.9403795003890991,0.4673283100128174,9.877645492553711,0.8053292036056519,0.10888662934303284,-0.08156570792198181,0.02572503872215748,18.793676376342773,-17.705780029296875,1.5522613525390625,-0.06149190664291382,-0.04625511169433594,-0.03135150671005249,0.5288202166557312,9.923900604248047,0.8366807103157043
6_20251106_152153,1762413680517,6,0.46856769919395447,0.46672260761260986,0.48703286051750183,0.5704500675201416,0.8753178715705872,1.9936052560806274,-0.935505211353302,0.642097532749176,10.151769638061523,0.7502650022506714,0.12476910650730133,-0.08523089438676834,0.05382481962442398,18.834970474243164,-17.615768432617188,1.5826129913330078,0.09062182903289795,0.1822948455810547,-0.06913256645202637,0.5514757037162781,9.969474792480469,0.8193975687026978
6_20251106_152153,1762413680537,6,0.4680863618850708,0.4678795337677002,0.4872283935546875,0.5697301030158997,0.875926673412323,1.9928104877471924,-0.9310921430587769,0.6576591730117798,10.103886604309082,0.6676685214042664,0.1058323085308075,-0.03941604495048523,0.003123044967651367,18.92089080810547,-17.58617401123047,1.6947040557861328,0.08494681119918823,0.1075296401977539,-0.12138324975967407,0.5727123618125916,9.996356964111328,0.7890517711639404
6_20251106_152153,1762413680557,6,0.46775946021080017,0.4687362313270569,0.4877112805843353,0.5688806176185608,0.8767086863517761,1.9921422004699707,-0.9276872277259827,0.6397034525871277,10.024881362915039,0.5300078392028809,0.1058323085308075,-0.03941604495048523,0.003123044967651367,18.98495101928711,-17.51995849609375,1.7525405883789062,0.05359286069869995,0.02281951904296875,-0.2072351574897766,0.5861105918884277,10.00206184387207,0.7372429966926575
6_20251106_152153,1762413680577,6,0.46751296520233154,0.46896275877952576,0.48849567770957947,0.5682231187820435,0.8772527575492859,1.9909579753875732,-0.9250876307487488,0.5271807909011841,9.790260314941406,0.5647222995758057,0.04718929901719093,0.013729184865951538,-0.054298244416713715,18.98495101928711,-17.51995849609375,1.7525405883789062,-0.04714387655258179,-0.16944122314453125,-0.13801658153533936,0.5743246674537659,9.959701538085938,0.702738881111145
6_20251106_152153,1762413680596,6,0.4676366448402405,0.4686742424964905,0.4893885552883148,0.5675907731056213,0.8776971697807312,1.9892404079437256,-0.9231041073799133,0.5415453910827637,9.78427505493164,0.5000816583633423,0.006872228346765041,0.01922696642577648,-0.0652938038110733,19.022424697875977,-17.493133544921875,1.8221206665039062,-0.026223421096801758,-0.14034175872802734,-0.162125825881958,0.5677688121795654,9.924616813659668,0.6622074842453003
6_20251106_152153,1762413680614,6,0.46783676743507385,0.46823039650917053,0.490327388048172,0.5669816136360168,0.8781540989875793,1.9877711534500122,-0.9214124083518982,0.5990037322044373,9.92432975769043,0.6604862809181213,0.02214384451508522,-0.044302958995103836,-0.032307110726833344,19.04901123046875,-17.45374298095703,1.8103771209716797,0.02498793601989746,-0.00022983551025390625,-0.0013769865036010742,0.5740157961845398,9.924559593200684,0.6618632674217224
