session_id,timestamp,label,quaternion_w,quaternion_x,quaternion_y,quaternion_z,position_x,position_y,position_z,accelerometer_x,accelerometer_y,accelerometer_z,gyroscope_x,gyroscope_y,gyroscope_z,magnetometer_x,magnetometer_y,magnetometer_z,linear_acceleration_x,linear_acceleration_y,linear_acceleration_z,gravity_x,gravity_y,gravity_z
6_20251106_152708,1762413990916,6,0.19084645807743073,0.2926364839076996,0.6714513897895813,0.6535246968269348,0.8267671465873718,2.047252655029297,-1.438935399055481,1.1927403211593628,10.169724464416504,-0.43720805644989014,0.20116156339645386,0.00740291690453887,-0.11158589273691177,20.64406394958496,3.1372909545898438,27.52545166015625,-0.1183621883392334,-6.29425048828125e-05,0.028568744659423828,1.3111025094985962,10.169787406921387,-0.46577680110931396
6_20251106_152708,1762413990935,6,0.1906987577676773,0.29203203320503235,0.6724603176116943,0.6528003811836243,0.8292571306228638,2.0494184494018555,-1.4376698732376099,1.0299415588378906,10.054808616638184,-0.5664893984794617,0.20482675731182098,0.031226640567183495,-0.131133571267128,20.696529388427734,3.203521728515625,27.50170135498047,-0.22492873668670654,-0.09198284149169922,-0.08057007193565369,1.2548702955245972,10.146791458129883,-0.485919326543808
6_20251106_152708,1762413990954,6,0.19067637622356415,0.291023850440979,0.6738060712814331,0.6518688797950745,0.8307657837867737,2.0509707927703857,-1.436928391456604,0.9425569176673889,9.962635040283203,-0.6538739800453186,0.20482675731182098,0.031226640567183495,-0.131133571267128,20.696529388427734,3.203521728515625,27.50170135498047,-0.24985069036483765,-0.1473255157470703,-0.13436371088027954,1.1924076080322266,10.109960556030273,-0.5195102691650391
6_20251106_152708,1762413990975,6,0.19070689380168915,0.2898365557193756,0.6753032207489014,0.6508389115333557,0.8313198685646057,2.0515732765197754,-1.436905026435852,0.8850985765457153,9.803427696228027,-0.7448497414588928,0.21154625713825226,0.03550269827246666,-0.08715131133794785,20.711238861083984,3.2541427612304688,27.54379653930664,-0.24584722518920898,-0.24522686004638672,-0.18027156591415405,1.1309458017349243,10.048654556274414,-0.5645781755447388
6_20251106_152708,1762413990993,6,0.19067342579364777,0.2887929081916809,0.6768901944160461,0.6496629118919373,0.8311797380447388,2.051224708557129,-1.4374854564666748,0.8731280565261841,9.678934097290039,-0.8370225429534912,0.22865046560764313,0.01656588725745678,-0.04622337222099304,20.70269012451172,3.327880859375,27.625988006591797,-0.206254243850708,-0.2957763671875,-0.21795547008514404,1.079382300376892,9.974710464477539,-0.6190670728683472
6_20251106_152708,1762413991013,6,0.19040894508361816,0.2879927456378937,0.6785112023353577,0.6484035849571228,0.8303881883621216,2.0497961044311523,-1.439478874206543,0.8922808170318604,9.670555114746094,-1.0105947256088257,0.26408064365386963,-0.011533889919519424,0.0008132131770253181,20.73089599609375,3.4042739868164062,27.6826171875,-0.1496812105178833,-0.24332427978515625,-0.31322216987609863,1.0419620275497437,9.91387939453125,-0.697372555732727
6_20251106_152708,1762413991031,6,0.18993404507637024,0.2876901924610138,0.6802084445953369,0.6468970775604248,0.8303881883621216,2.0497961044311523,-1.439478874206543,0.8922808170318604,9.670555114746094,-1.0105947256088257,0.26408064365386963,-0.011533889919519424,0.0008132131770253181,20.748943328857422,3.529022216796875,27.847942352294922,-0.1496812105178833,-0.24332427978515625,-0.31322216987609863,1.0419620275497437,9.91387939453125,-0.697372555732727
6_20251106_152708,1762413991050,6,0.1892540156841278,0.28804296255111694,0.6820014715194702,0.645048975944519,0.8289921879768372,2.045701503753662,-1.4468423128128052,1.1125378608703613,9.671751976013184,-1.3888622522354126,0.2854609489440918,-0.07200949639081955,0.09488638490438461,20.71964454650879,3.664093017578125,27.916954040527344,0.06585347652435303,-0.15419578552246094,-0.4716656804084778,1.0466843843460083,9.825947761535645,-0.9171965718269348
6_20251106_152708,1762413991069,6,0.18821105360984802,0.2889059782028198,0.683829128742218,0.643030047416687,0.8290436863899231,2.0430567264556885,-1.452735185623169,1.2681543827056885,9.662176132202148,-1.5109614133834839,0.2561393976211548,-0.07017689943313599,0.11565577238798141,20.6859188079834,3.7235565185546875,28.011417388916016,0.17717599868774414,-0.13101768493652344,-0.475011944770813,1.0909783840179443,9.793193817138672,-1.035949468612671
6_20251106_152708,1762413991088,6,0.18696975708007812,0.290235310792923,0.6855279803276062,0.6409813761711121,0.8301107287406921,2.0402109622955322,-1.4598665237426758,1.4620763063430786,9.671751022338867,-1.594754934310913,0.1828356236219406,-0.048185769468545914,0.10404934734106064,20.665184020996094,3.7965011596679688,28.093116760253906,0.2968783378601074,-0.09715461730957031,-0.44704437255859375,1.1651979684829712,9.768905639648438,-1.1477105617523193
6_20251106_152708,1762413991108,6,0.1855263113975525,0.2915476858615875,0.6869735717773438,0.6392552256584167,0.8325388431549072,2.037233591079712,-1.468280553817749,1.6129045486450195,9.725619316101074,-1.5696167945861816,0.08265381306409836,-0.01947513036429882,0.052736714482307434,20.555931091308594,3.8131179809570312,28.22439193725586,0.35816526412963867,-0.034628868103027344,-0.33752501010894775,1.2547392845153809,9.760248184204102,-1.2320917844772339
6_20251106_152708,1762413991126,6,0.18414713442325592,0.292558491230011,0.6880065202713013,0.6380802392959595,0.8325388431549072,2.037233591079712,-1.468280553817749,1.6129045486450195,9.725619316101074,-1.5696167945861816,-0.004088975489139557,0.025117991492152214,-0.02117791585624218,20.533178329467773,3.8485260009765625,28.291786193847656,0.35816526412963867,-0.034628868103027344,-0.33752501010894775,1.2547392845153809,9.760248184204102,-1.2320917844772339
6_20251106_152708,1762413991146,6,0.18293768167495728,0.29281479120254517,0.688640832901001,0.6376261711120605,0.8397653698921204,2.032447099685669,-1.4847763776779175,1.6081162691116333,9.836944580078125,-1.3792858123779297,-0.06273198872804642,0.06115901470184326,-0.08837303519248962,20.511032104492188,3.8963546752929688,28.37295913696289,0.2181171178817749,0.052916526794433594,-0.07715821266174316,1.3899991512298584,9.784028053283691,-1.3021275997161865
6_20251106_152708,1762413991166,6,0.1820695549249649,0.292290061712265,0.6889691352844238,0.6377606987953186,0.8439115285873413,2.0304484367370605,-1.4928369522094727,1.4716527462005615,9.862083435058594,-1.2691574096679688,-0.06273198872804642,0.06115901470184326,-0.08837303519248962,20.463315963745117,3.9293670654296875,28.520469665527344,0.0653228759765625,0.06244468688964844,0.02637624740600586,1.406329870223999,9.799638748168945,-1.2955336570739746
6_20251106_152708,1762413991184,6,0.18150468170642853,0.2911268472671509,0.6891754269599915,0.6382307410240173,0.8439115285873413,2.0304484367370605,-1.4928369522094727,1.4716527462005615,9.862083435058594,-1.2691574096679688,-0.06578630954027176,0.05138517543673515,-0.13235530257225037,20.47610855102539,3.9425811767578125,28.534740447998047,0.0653228759765625,0.06244468688964844,0.02637624740600586,1.406329870223999,9.799638748168945,-1.2955336570739746
6_20251106_152708,1762413991204,6,0.18126781284809113,0.28968706727027893,0.6893566250801086,0.6387572288513184,0.8506681323051453,2.027501344680786,-1.5060639381408691,1.3052629232406616,9.868067741394043,-1.200925588607788,-0.04012999311089516,7.254013326019049e-05,-0.10547725111246109,20.4520320892334,3.9413986206054688,28.493209838867188,-0.07732367515563965,0.04417705535888672,0.06342208385467529,1.3825865983963013,9.823890686035156,-1.2643476724624634
6_20251106_152708,1762413991222,6,0.181309774518013,0.2885293960571289,0.6895402669906616,0.639070987701416,0.8535167574882507,2.026688575744629,-1.5121484994888306,1.2968835830688477,10.011714935302734,-1.2296547889709473,-0.021804053336381912,-0.05246182158589363,-0.07126882672309875,20.502891540527344,3.9822463989257812,28.49596405029297,-0.06856250762939453,0.15025901794433594,0.02775430679321289,1.3654460906982422,9.861455917358398,-1.2574090957641602
6_20251106_152708,1762413991241,6,0.18158894777297974,0.2879253327846527,0.689643919467926,0.6391523480415344,0.8561596274375916,2.026486396789551,-1.5175702571868896,1.3423713445663452,10.069171905517578,-1.1267085075378418,-0.013251946307718754,-0.09827668219804764,-0.05294287949800491,20.47882843017578,3.99267578125,28.549312591552734,-0.018459796905517578,0.16617298126220703,0.1045604944229126,1.3608311414718628,9.902998924255371,-1.2312690019607544
6_20251106_152708,1762413991261,6,0.18235114216804504,0.28811609745025635,0.6895646452903748,0.6389349102973938,0.8585929870605469,2.0267961025238037,-1.5220950841903687,1.3830710649490356,10.102689743041992,-1.0872058868408203,-0.00469984021037817,-0.11171570420265198,-0.05294287949800491,20.568260192871094,4.0734405517578125,28.56784439086914,0.0177919864654541,0.15975284576416016,0.11525046825408936,1.3652790784835815,9.942936897277832,-1.2024563550949097
6_20251106_152708,1762413991279,6,0.18296319246292114,0.28826987743377686,0.6895110607147217,0.6387483477592468,0.8612993359565735,2.0279362201690674,-1.5263571739196777,1.4106031656265259,10.210424423217773,-1.0333386659622192,-0.0004237871617078781,-0.09888754785060883,-0.07798834145069122,20.619909286499023,4.1153717041015625,28.462467193603516,0.03625929355621338,0.2139902114868164,0.1352940797805786,1.3743438720703125,9.996434211730957,-1.1686327457427979
6_20251106_152708,1762413991298,6,0.18354518711566925,0.2883206605911255,0.6894527673721313,0.6386213898658752,0.863706648349762,2.029594898223877,-1.529592752456665,1.361524224281311,10.225985527038574,-0.9459540843963623,-0.008975893259048462,-0.053683552891016006,-0.12746837735176086,20.67236328125,4.169990539550781,28.34383773803711,-0.010255694389343262,0.1836404800415039,0.17814290523529053,1.3717799186706543,10.04234504699707,-1.1240969896316528
6_20251106_152708,1762413991317,6,0.18415352702140808,0.28798678517341614,0.6894587278366089,0.6385904550552368,0.8657059669494629,2.031641721725464,-1.5322206020355225,1.266957402229309,10.21401596069336,-0.9615156650543213,-0.0034781107679009438,0.0055703227408230305,-0.18366794288158417,20.762584686279297,4.251838684082031,28.254241943359375,-0.08385801315307617,0.13733673095703125,0.13006508350372314,1.3508154153823853,10.076679229736328,-1.0915807485580444
6_20251106_152708,1762413991337,6,0.18485845625400543,0.2870190143585205,0.6895559430122375,0.638717532157898,0.8671486377716064,2.0337166786193848,-1.5346328020095825,1.1843608617782593,10.124237060546875,-1.0608707666397095,0.010571776889264584,0.027561452239751816,-0.21604375541210175,20.82248878479004,4.2196197509765625,28.107223510742188,-0.1331636905670166,0.038046836853027344,0.02456796169281006,1.3175245523452759,10.086190223693848,-1.0854387283325195
6_20251106_152708,1762413991357,6,0.1855844110250473,0.28538399934768677,0.689926028251648,0.6388399600982666,0.8679426908493042,2.0357906818389893,-1.5370103120803833,1.104158639907837,10.085931777954102,-1.0740382671356201,0.010571776889264584,-0.00970129668712616,-0.21176771819591522,20.933473587036133,4.251747131347656,28.125682830810547,-0.1706928014755249,-0.00020694732666015625,0.009120345115661621,1.2748514413833618,10.086138725280762,-1.0831586122512817
6_20251106_152708,1762413991376,6,0.18644078075885773,0.28372031450271606,0.6904712915420532,0.6387425065040588,0.8676905035972595,2.037618637084961,-1.5386043787002563,0.9437539577484131,10.039246559143066,-0.8645547032356262,0.020956479012966156,-0.06834430992603302,-0.1971069574356079,20.933473587036133,4.251747131347656,28.125682830810547,-0.26487791538238525,-0.037514686584472656,0.17488306760787964,1.2086318731307983,10.076761245727539,-1.0394377708435059
6_20251106_152708,1762413991395,6,0.18763338029384613,0.28253769874572754,0.690977931022644,0.6383695006370544,0.866296112537384,2.039060354232788,-1.5389819145202637,0.7833493947982788,10.000940322875977,-0.6526769399642944,0.020956479012966156,-0.06834430992603302,-0.1971069574356079,20.998126983642578,4.3187713623046875,28.102420806884766,-0.34022605419158936,-0.06065654754638672,0.30940866470336914,1.1235754489898682,10.061596870422363,-0.9620856046676636
6_20251106_152708,1762413991414,6,0.18903543055057526,0.28151246905326843,0.6914708018302917,0.637874960899353,0.8635486364364624,2.0399186611175537,-1.5385475158691406,0.6049889922142029,9.875249862670898,-0.6730267405509949,0.09242764860391617,0.018398480489850044,-0.23498056828975677,21.140729904174805,4.47833251953125,28.09746551513672,-0.4148692488670349,-0.1490774154663086,0.23124712705612183,1.0198582410812378,10.024327278137207,-0.9042738676071167
6_20251106_152708,1762413991432,6,0.19036288559436798,0.2799280881881714,0.6921400427818298,0.6374514698982239,0.8592849969863892,2.0396461486816406,-1.5375841856002808,0.29255911707878113,9.599929809570312,-0.6718297004699707,0.11319704353809357,0.07276543974876404,-0.27713024616241455,21.28091049194336,4.588203430175781,28.037391662597656,-0.5818393230438232,-0.33951759338378906,0.18595534563064575,0.874398410320282,9.939447402954102,-0.8577850461006165
6_20251106_152708,1762413991451,6,0.19156137108802795,0.2775024175643921,0.6931707262992859,0.6370329856872559,0.8522735834121704,2.037919044494629,-1.5359405279159546,-0.1228170245885849,9.409598350524902,-0.6107801795005798,0.11319704353809357,0.07276543974876404,-0.27713024616241455,21.347999572753906,4.716529846191406,28.16413116455078,-0.7977723479270935,-0.42387962341308594,0.19760388135910034,0.6749553084373474,9.833477973937988,-0.8083840608596802
6_20251106_152708,1762413991470,6,0.19289016723632812,0.2746652066707611,0.6945396661758423,0.6363702416419983,0.8425011038780212,2.0348527431488037,-1.5341718196868896,-0.4591878652572632,9.313834190368652,-0.7328792810440063,0.17122919857501984,0.14729094505310059,-0.2801845669746399,21.45325469970703,4.872627258300781,28.26583480834961,-0.9073145389556885,-0.41571521759033203,0.06040382385253906,0.4481266736984253,9.729549407958984,-0.7932831048965454
6_20251106_152708,1762413991489,6,0.19425536692142487,0.2713161110877991,0.6962401866912842,0.6355328559875488,0.8297755122184753,2.030306577682495,-1.533022165298462,-0.8063321709632874,9.13427734375,-0.9866536855697632,0.17122919857501984,0.14729094505310059,-0.2801845669746399,21.509553909301758,5.013664245605469,28.297733306884766,-1.003567099571228,-0.47621726989746094,-0.15469646453857422,0.19723491370677948,9.610494613647461,-0.831957221031189
6_20251106_152708,1762413991509,6,0.1943955421447754,0.26859405636787415,0.6984418630599976,0.6342291235923767,0.8130602240562439,2.0244545936584473,-1.5326484441757202,-1.115170955657959,9.180962562561035,-1.0872058868408203,0.23231565952301025,0.1362953782081604,-0.19405263662338257,21.655906677246094,5.2595062255859375,28.45682144165039,-1.0499247312545776,-0.3436260223388672,-0.204198956489563,-0.06524623930454254,9.524588584899902,-0.8830069303512573
6_20251106_152708,1762413991528,6,0.19439028203487396,0.26632529497146606,0.7007099986076355,0.6326837539672852,0.7946638464927673,2.0181877613067627,-1.5331670045852661,-1.271984338760376,9.165400505065918,-1.1949403285980225,0.2353699952363968,0.19982530176639557,-0.11280763149261475,21.776264190673828,5.466758728027344,28.546554565429688,-0.9653905034065247,-0.2873506546020508,-0.24954670667648315,-0.3065938353538513,9.452751159667969,-0.9453936219215393
6_20251106_152708,1762413991547,6,0.19383670389652252,0.26440462470054626,0.7029397487640381,0.6311839818954468,0.7746240496635437,2.010657548904419,-1.5345642566680908,-1.240861177444458,8.878108024597168,-1.2751426696777344,0.2353699952363968,0.19982530176639557,-0.11280763149261475,21.87125015258789,5.659461975097656,28.675594329833984,-0.7474138736724854,-0.4597148895263672,-0.26379919052124023,-0.49344730377197266,9.337822914123535,-1.0113434791564941
6_20251106_152708,1762413991566,6,0.1923169642686844,0.2625698745250702,0.7050387859344482,0.6300726532936096,0.7538804411888123,2.001845121383667,-1.53697669506073,-1.115170955657959,8.733264923095703,-1.4068180322647095,0.1828356236219406,0.28351375460624695,0.11565577238798141,21.900569915771484,5.76055908203125,28.773300170898438,-0.497378945350647,-0.4836463928222656,-0.3163796663284302,-0.617792010307312,9.216911315917969,-1.0904383659362793
6_20251106_152708,1762413991585,6,0.18989230692386627,0.26118335127830505,0.7067539691925049,0.6294624209403992,0.733269214630127,1.9930003881454468,-1.5403237342834473,-0.9475840330123901,9.044498443603516,-1.4750499725341797,0.16450968384742737,0.28840065002441406,0.24576996266841888,21.870777130126953,5.89495849609375,28.909896850585938,-0.2638336420059204,-0.13792991638183594,-0.3076893091201782,-0.6837503910064697,9.182428359985352,-1.1673606634140015
6_20251106_152708,1762413991604,6,0.18666839599609375,0.26066043972969055,0.7080063223838806,0.629236102104187,0.733269214630127,1.9930003881454468,-1.5403237342834473,-0.9475840330123901,9.044498443603516,-1.4750499725341797,0.14496201276779175,0.3378807306289673,0.35633647441864014,21.861732482910156,5.968025207519531,29.059669494628906,-0.2638336420059204,-0.13792991638183594,-0.3076893091201782,-0.6837503910064697,9.182428359985352,-1.1673606634140015
6_20251106_152708,1762413991624,6,0.18254916369915009,0.2607647776603699,0.7088971138000488,0.6293984651565552,0.695586085319519,1.9774813652038574,-1.5501139163970947,-0.2257632315158844,9.38565731048584,-1.5696167945861816,0.14496201276779175,0.3378807306289673,0.35633647441864014,21.80173110961914,6.0001068115234375,29.220203399658203,0.35803982615470886,0.13964366912841797,-0.25093185901641846,-0.5838030576705933,9.246013641357422,-1.3186849355697632
6_20251106_152708,1762413991642,6,0.17751240730285645,0.26123759150505066,0.7094544172286987,0.6300148367881775,0.6820183992385864,1.9712079763412476,-1.5545907020568848,0.20397746562957764,9.297076225280762,-1.2739455699920654,0.07471257448196411,0.3794195055961609,0.5084418058395386,21.727231979370117,5.9934539794921875,29.40648651123047,0.6302244067192078,0.04084968566894531,0.03579151630401611,-0.4262469410896301,9.256226539611816,-1.3097370862960815
6_20251106_152708,1762413991661,6,0.17192873358726501,0.26211607456207275,0.7095718383789062,0.6310653686523438,0.6710387468338013,1.9649274349212646,-1.5585744380950928,0.5307719707489014,9.259967803955078,-1.1255114078521729,0.07349084317684174,0.3928585350513458,0.5023331642150879,21.49209976196289,5.938667297363281,29.59912109375,0.7656151056289673,0.0029935836791992188,0.14738059043884277,-0.2348431646823883,9.256974220275879,-1.2728919982910156
6_20251106_152708,1762413991681,6,0.16621483862400055,0.2632603049278259,0.7093871831893921,0.6323262453079224,0.6630731225013733,1.9591596126556396,-1.5617247819900513,0.6636444330215454,9.329395294189453,-1.0417180061340332,0.08692987263202667,0.403854101896286,0.4412466883659363,21.228675842285156,5.8189697265625,29.843521118164062,0.7187901139259338,0.057936668395996094,0.18493926525115967,-0.055145666003227234,9.271458625793457,-1.2266572713851929
6_20251106_152708,1762413991700,6,0.16045594215393066,0.263994038105011,0.7093405723571777,0.633558988571167,0.6576946377754211,1.9534581899642944,-1.5640361309051514,0.7426496744155884,9.19053840637207,-0.9782743453979492,0.08692987263202667,0.403854101896286,0.4412466883659363,20.901094436645508,5.6329193115234375,30.043598175048828,0.6382362842559814,-0.06473636627197266,0.1987062692642212,0.10441339761018753,9.255274772644043,-1.1769806146621704
6_20251106_152708,1762413991718,6,0.34264466166496277,0.4695352017879486,0.5939154028892517,0.5562336444854736,0.654546320438385,1.947509527206421,-1.5656505823135376,0.819260835647583,9.061256408691406,-0.9651068449020386,0.09670370817184448,0.49365121126174927,0.2549329400062561,33.25102615356445,-24.16686248779297,15.588138580322266,0.5718779563903809,-0.15521526336669922,0.16949903964996338,0.24738287925720215,9.216471672058105,-1.134605884552002
6_20251106_152708,1762413991738,6,0.33797410130500793,0.4689199924468994,0.5946123003959656,0.5588593482971191,0.6531183123588562,1.9406341314315796,-1.5667170286178589,0.8132755756378174,8.911624908447266,-0.9543334245681763,0.10953186452388763,0.5339683294296265,0.14497728645801544,32.89918518066406,-24.342750549316406,15.868595123291016,0.4527141749858856,-0.24387741088867188,0.14421796798706055,0.36056140065193176,9.155502319335938,-1.0985513925552368
6_20251106_152708,1762413991758,6,0.33360564708709717,0.46754252910614014,0.595911979675293,0.5612487196922302,0.6531183123588562,1.9406341314315796,-1.5667170286178589,0.8132755756378174,8.911624908447266,-0.9543334245681763,0.12052743136882782,0.6182676553726196,0.03746509552001953,32.43918991088867,-24.488929748535156,16.22652816772461,0.4527141749858856,-0.24387741088867188,0.14421796798706055,0.36056140065193176,9.155502319335938,-1.0985513925552368
6_20251106_152708,1762413991777,6,0.32945019006729126,0.46525880694389343,0.5979390144348145,0.5634409785270691,0.6528983116149902,1.9245502948760986,-1.5673816204071045,0.5894273519515991,8.463929176330566,-0.9663038849830627,0.11014272272586823,0.7239472270011902,-0.030340885743498802,32.43918991088867,-24.488929748535156,16.22652816772461,0.13153502345085144,-0.49776744842529297,0.0788925290107727,0.4578923285007477,8.96169662475586,-1.0451964139938354
6_20251106_152708,1762413991795,6,0.3251683712005615,0.4618471562862396,0.6007117033004761,0.5657810568809509,0.6534258723258972,1.9143292903900146,-1.56744384765625,0.6241418123245239,7.921665191650391,-1.0070035457611084,0.08937332034111023,0.7850337028503418,-0.038892991840839386,32.064697265625,-24.6292724609375,16.560863494873047,0.13299959897994995,-0.8320255279541016,0.03055429458618164,0.491142213344574,8.753690719604492,-1.03755784034729
6_20251106_152708,1762413991816,6,0.3205479681491852,0.4575232267379761,0.6039239764213562,0.5685044527053833,0.6546729803085327,1.8988683223724365,-1.5679038763046265,0.6887824535369873,7.52065372467041,-1.154240608215332,0.07410170137882233,0.7581556439399719,-0.0022411104291677475,31.657772064208984,-24.696792602539062,16.908824920654297,0.15811216831207275,-0.9864292144775391,-0.0933462381362915,0.5306702852249146,8.50708293914795,-1.0608943700790405
6_20251106_152708,1762413991835,6,0.31588292121887207,0.4532356858253479,0.6068661212921143,0.5714095830917358,0.6556006669998169,1.8831356763839722,-1.5691661834716797,0.4781017601490021,7.61641788482666,-1.376891851425171,0.07410170137882233,0.7581556439399719,-0.0022411104291677475,31.347139358520508,-24.771194458007812,17.32802963256836,-0.04205480217933655,-0.7125320434570312,-0.25279808044433594,0.5201565623283386,8.328949928283691,-1.124093770980835
6_20251106_152708,1762413991853,6,0.3113987445831299,0.4496482312679291,0.6094399094581604,0.5739601850509644,0.655826210975647,1.8682031631469727,-1.570744514465332,0.26382994651794434,7.618812084197998,-1.3541479110717773,0.16695313155651093,0.6817975640296936,0.01303050760179758,30.966110229492188,-24.800262451171875,17.758861541748047,-0.20506131649017334,-0.5681099891662598,-0.18404340744018555,0.4688912630081177,8.186922073364258,-1.1701045036315918
6_20251106_152708,1762413991872,6,0.30695977807044983,0.44657137989997864,0.612210214138031,0.5758023858070374,0.6561608910560608,1.8472758531570435,-1.5729769468307495,0.49605751037597656,6.792847633361816,-1.3242216110229492,0.11625136435031891,0.8901023864746094,0.06556487083435059,30.58639144897461,-24.804351806640625,18.203739166259766,0.021732985973358154,-1.1152596473693848,-0.12329363822937012,0.4743245244026184,7.908107280731201,-1.200927972793579
6_20251106_152708,1762413991891,6,0.3016451299190521,0.4427746534347534,0.6153463125228882,0.5781952142715454,0.6582566499710083,1.8215326070785522,-1.574939250946045,1.1280995607376099,5.409058570861816,-1.1817727088928223,-0.04196258634328842,0.9841755628585815,0.15902717411518097,30.232765197753906,-24.76972198486328,18.704456329345703,0.5230200290679932,-1.9992389678955078,0.015324234962463379,0.6050795316696167,7.408297538757324,-1.1970969438552856
6_20251106_152708,1762413991910,6,0.2951296269893646,0.438066303730011,0.6180275082588196,0.5822700262069702,0.6620044112205505,1.7916439771652222,-1.5765446424484253,1.245410442352295,5.428211688995361,-1.1027674674987793,-0.16718986630439758,0.8717764616012573,0.13520345091819763,29.842975616455078,-24.7369384765625,19.149635314941406,0.5122647285461426,-1.584068775177002,0.07546353340148926,0.7331457138061523,7.012280464172363,-1.1782310009002686
6_20251106_152708,1762413991929,6,0.28920799493789673,0.4335680902004242,0.6192870736122131,0.5872486233711243,0.6662017107009888,1.7617313861846924,-1.5785326957702637,0.9653009176254272,6.458870887756348,-1.3469655513763428,-0.16718986630439758,0.8717764616012573,0.13520345091819763,29.503129959106445,-24.687744140625,19.529457092285156,0.1857241988182068,-0.44272804260253906,-0.13498759269714355,0.7795767188072205,6.901598930358887,-1.2119779586791992
6_20251106_152708,1762413991948,6,0.2843952775001526,0.4287892282009125,0.6203539967536926,0.5919628739356995,0.6704787015914917,1.7333937883377075,-1.580791711807251,0.8850985765457153,6.930508613586426,-1.3469655513763428,-0.30768871307373047,1.0971856117248535,-0.0840969905257225,29.114652633666992,-24.629981994628906,19.98868179321289,0.08441746234893799,0.02312755584716797,-0.10799002647399902,0.8006811141967773,6.907381057739258,-1.2389755249023438
6_20251106_152708,1762413991968,6,0.27982863783836365,0.42239904403686523,0.6219597458839417,0.5970268249511719,0.6747421622276306,1.7091937065124512,-1.5841106176376343,0.968891978263855,7.436860084533691,-1.7611446380615234,-0.49888938665390015,1.347029209136963,-0.05721893906593323,28.71943473815918,-24.685768127441406,20.499595642089844,0.1345686912536621,0.4235830307006836,-0.41773533821105957,0.8343232870101929,7.013277053833008,-1.3434092998504639
6_20251106_152708,1762413991986,6,0.27457165718078613,0.4137307107448578,0.6233152747154236,0.6040822863578796,0.680342972278595,1.6856173276901245,-1.5889346599578857,1.1963313817977905,7.660708427429199,-1.7779033184051514,-0.5978494882583618,1.2529560327529907,0.06312141567468643,28.28925323486328,-24.73017120361328,20.887653350830078,0.2896064519882202,0.5179448127746582,-0.34759521484375,0.9067249298095703,7.142763614654541,-1.4303081035614014
6_20251106_152708,1762413992007,6,0.2688009440898895,0.40445998311042786,0.6236696839332581,0.6125310659408569,0.680342972278595,1.6856173276901245,-1.5889346599578857,1.1963313817977905,7.660708427429199,-1.7779033184051514,-0.5844104886054993,1.0208275318145752,0.25859811902046204,27.804786682128906,-24.878074645996094,21.258121490478516,0.2896064519882202,0.5179448127746582,-0.34759521484375,0.9067249298095703,7.142763614654541,-1.4303081035614014
6_20251106_152708,1762413992026,6,0.2635529935359955,0.39738574624061584,0.6225447654724121,0.6205339431762695,0.6875737309455872,1.6629865169525146,-1.5931189060211182,1.2813218832015991,7.688241004943848,-1.1973345279693604,-0.5752474665641785,0.9133152961730957,0.5609761476516724,27.272281646728516,-25.01659393310547,21.62689208984375,0.29967761039733887,0.43638181686401367,0.1863788366317749,0.9816442728042603,7.251859188079834,-1.3837133646011353
6_20251106_152708,1762413992044,6,0.25767678022384644,0.3927299976348877,0.6201387643814087,0.6283261775970459,0.706325888633728,1.6345293521881104,-1.5951266288757324,2.8614273071289062,8.530963897705078,-0.6790120005607605,-0.6448860764503479,0.7453274726867676,0.9042821526527405,26.685171127319336,-25.282241821289062,21.828868865966797,1.3779261112213135,0.9168806076049805,0.4672887921333313,1.4835011959075928,7.614083290100098,-1.1463007926940918
6_20251106_152708,1762413992064,6,0.25042951107025146,0.3905308246612549,0.6158424019813538,0.6367957592010498,0.7222639918327332,1.6273914575576782,-1.5933308601379395,3.601203441619873,9.500574111938477,-0.32348835468292236,-0.6448860764503479,0.7453274726867676,0.9042821526527405,26.08205223083496,-25.61187744140625,22.069583892822266,1.6941618919372559,1.509192943572998,0.6582499742507935,1.9070415496826172,7.9913811683654785,-0.9817383289337158
6_20251106_152708,1762413992082,6,0.2431740015745163,0.3913648724555969,0.6093820333480835,0.6452545523643494,0.7454059720039368,1.6250200271606445,-1.5859043598175049,3.9854564666748047,9.689708709716797,0.8376495838165283,-0.6509947180747986,0.4502798318862915,1.0258443355560303,25.395837783813477,-26.133827209472656,22.22229766845703,1.6627321243286133,1.3586616516113281,1.4555103778839111,2.3227243423461914,8.331047058105469,-0.6178607940673828
6_20251106_152708,1762413992100,6,0.23736141622066498,0.3936479985713959,0.6025292277336121,0.6524257063865662,0.7704627513885498,1.6271750926971436,-1.5753103494644165,4.463079452514648,10.029669761657715,1.1057887077331543,-0.5734148621559143,0.5938330292701721,0.6690992712974548,24.612207412719727,-26.685218811035156,22.167816162109375,1.7122840881347656,1.3588981628417969,1.3789196014404297,2.750795364379883,8.670771598815918,-0.2731309235095978
6_20251106_152708,1762413992121,6,0.23162540793418884,0.39403000473976135,0.5968121290206909,0.6594734787940979,0.804023802280426,1.6322308778762817,-1.561111330986023,5.090332984924316,9.585563659667969,0.7191416621208191,-0.6082342267036438,0.7563230991363525,0.40764909982681274,23.913372039794922,-27.24333953857422,22.08946990966797,1.8716301918029785,0.7318334579467773,0.7938181161880493,3.218702793121338,8.853730201721191,-0.07467642426490784
6_20251106_152708,1762413992140,6,0.22634419798851013,0.39145195484161377,0.5922502875328064,0.6669132113456726,0.8409451246261597,1.6405359506607056,-1.546566367149353,4.87606143951416,10.005728721618652,0.27264225482940674,-0.6173971891403198,0.6194893717765808,0.09732983261346817,23.164382934570312,-27.829750061035156,22.008636474609375,1.3258867263793945,0.9215984344482422,0.27785494923591614,3.5501747131347656,9.08413028717041,-0.005212690681219101
6_20251106_152708,1762413992158,6,0.22270329296588898,0.3874552547931671,0.5883945226669312,0.6738497614860535,0.8738205432891846,1.6500269174575806,-1.5324705839157104,4.081220626831055,10.054807662963867,0.6688656210899353,-0.6656554937362671,0.5883352756500244,-0.27774110436439514,22.540061950683594,-28.369606018066406,21.838882446289062,0.4248366355895996,0.7765417098999023,0.5392626523971558,3.656383991241455,9.278265953063965,0.12960296869277954
6_20251106_152708,1762413992178,6,0.2223549485206604,0.3825141191482544,0.5854593515396118,0.6793221235275269,0.9060808420181274,1.6604070663452148,-1.516337275505066,3.398902416229248,9.592747688293457,0.8579993844032288,-0.784163236618042,0.8070248365402222,-0.502539336681366,22.035682678222656,-28.938919067382812,21.646209716796875,-0.20598530769348145,0.2515859603881836,0.5827171802520752,3.6048877239227295,9.341161727905273,0.27528223395347595
6_20251106_152708,1762413992196,6,0.22375762462615967,0.3745969533920288,0.5834646224975586,0.6849662065505981,0.9353780746459961,1.669155478477478,-1.5004792213439941,3.112807512283325,8.935566902160645,0.46895837783813477,-0.8733494877815247,0.9206456542015076,-0.43534421920776367,21.645009994506836,-29.426010131835938,21.486568450927734,-0.3936641216278076,-0.3244762420654297,0.1549409031867981,3.506471633911133,9.260043144226074,0.31401747465133667
6_20251106_152708,1762413992216,6,0.22494833171367645,0.36428719758987427,0.581450879573822,0.6918150186538696,0.963649570941925,1.6754108667373657,-1.485325574874878,3.1690688133239746,8.43998908996582,0.08231139928102493,-0.8214259743690491,0.7025669813156128,-0.13174442946910858,21.645009994506836,-29.426010131835938,21.486568450927734,-0.26992225646972656,-0.6560430526733398,-0.18536487221717834,3.438991069793701,9.09603214263916,0.2676762640476227
6_20251106_152708,1762413992234,6,0.22521068155765533,0.35537368059158325,0.5783945322036743,0.6988915801048279,0.9876934885978699,1.678371548652649,-1.473365068435669,3.386931896209717,8.126361846923828,-0.13674864172935486,-0.637555718421936,0.21998384594917297,0.24332651495933533,21.25422477722168,-29.924850463867188,21.245563507080078,-0.04164719581604004,-0.7757358551025391,-0.3235399127006531,3.428579092025757,8.902097702026367,0.1867912858724594
6_20251106_152708,1762413992255,6,0.2246938943862915,0.35123366117477417,0.5742021799087524,0.7045845985412598,1.013594388961792,1.680899739265442,-1.4606938362121582,3.600006580352783,8.705733299255371,0.20201633870601654,-0.5086632370948792,-0.1874629408121109,0.539595901966095,21.0321102142334,-30.248641967773438,20.86568832397461,0.13714194297790527,-0.15709209442138672,0.012180045247077942,3.462864637374878,8.862825393676758,0.1898362934589386
6_20251106_152708,1762413992274,6,0.22386977076530457,0.3529284596443176,0.5689825415611267,0.7082250118255615,1.040043592453003,1.6858807802200317,-1.446734070777893,4.069249629974365,9.711255073547363,0.8220879435539246,-0.6399991512298584,-0.19662591814994812,0.6171756982803345,20.8518009185791,-30.683074951171875,20.566497802734375,0.4851078987121582,0.6787433624267578,0.5058013200759888,3.584141731262207,9.032511711120605,0.3162866234779358
6_20251106_152708,1762413992292,6,0.22303315997123718,0.3573683798313141,0.562585711479187,0.7113658785820007,1.06484854221344,1.694728970527649,-1.432934045791626,4.473852634429932,10.896333694458008,1.0734682083129883,-0.9625357389450073,0.037335291504859924,0.4491879343986511,20.591012954711914,-31.046920776367188,20.18436050415039,0.711768627166748,1.4910573959350586,0.605745255947113,3.7620840072631836,9.40527629852295,0.46772295236587524
6_20251106_152708,1762413992311,6,0.22244518995285034,0.35973823070526123,0.5549280643463135,0.7163528800010681,1.0919148921966553,1.708142638206482,-1.415565013885498,4.561237335205078,11.06032943725586,1.754589319229126,-1.275909423828125,0.21998383104801178,0.19751165807247162,20.377248764038086,-31.444717407226562,19.749324798583984,0.6393227577209473,1.3240432739257812,1.0294930934906006,3.921914577484131,9.736286163330078,0.7250962257385254
6_20251106_152708,1762413992331,6,0.22350063920021057,0.3585263788700104,0.5461825728416443,0.7233193516731262,1.119362235069275,1.7236708402633667,-1.3939573764801025,4.5540547370910645,10.751489639282227,2.586538791656494,-1.4035801887512207,0.23220112919807434,0.1009950265288353,20.120262145996094,-31.981544494628906,19.161235809326172,0.5057120323181152,0.8121623992919922,1.4891541004180908,4.048342704772949,9.939327239990234,1.0973846912384033
6_20251106_152708,1762413992351,6,0.22600620985031128,0.3549346923828125,0.5366449356079102,0.731406033039093,1.119362235069275,1.7236708402633667,-1.3939573764801025,4.5540547370910645,10.751489639282227,2.586538791656494,-1.3168373107910156,0.07276543974876404,0.1730770617723465,19.900325775146484,-32.51531219482422,18.507038116455078,0.5057120323181152,0.8121623992919922,1.4891541004180908,4.048342704772949,9.939327239990234,1.0973846912384033
6_20251106_152708,1762413992368,6,0.22909900546073914,0.35183849930763245,0.5266252756118774,0.739181399345398,1.1752663850784302,1.7580478191375732,-1.3366273641586304,4.793464660644531,10.759869575500488,3.341876983642578,-1.0853195190429688,-0.12332213670015335,0.28791964054107666,19.61905288696289,-33.065208435058594,17.809574127197266,0.5027341842651367,0.5494709014892578,1.4450938701629639,4.2907304763793945,10.21039867401123,1.8967831134796143
6_20251106_152708,1762413992388,6,0.23164792358875275,0.35086411237716675,0.5168681740760803,0.7457083463668823,1.1752663850784302,1.7580478191375732,-1.3366273641586304,4.793464660644531,10.759869575500488,3.341876983642578,-0.8794581294059753,-0.29192081093788147,0.27386975288391113,19.35236167907715,-33.58784484863281,16.97796630859375,0.5027341842651367,0.5494709014892578,1.4450938701629639,4.2907304763793945,10.21039867401123,1.8967831134796143
6_20251106_152708,1762413992408,6,0.23382793366909027,0.35203203558921814,0.5081259608268738,0.7504705190658569,1.2338321208953857,1.7992140054702759,-1.2664973735809326,4.625877857208252,11.049556732177734,3.2413246631622314,-0.8489149212837219,-0.29375338554382324,0.14070123434066772,19.082345962524414,-34.172996520996094,16.11800765991211,0.18346691131591797,0.545680046081543,0.8698914051055908,4.442410945892334,10.503876686096191,2.3714332580566406
6_20251106_152708,1762413992426,6,0.2367519587278366,0.35386592149734497,0.5003312826156616,0.7539204359054565,1.2589285373687744,1.8184914588928223,-1.2331739664077759,4.616301536560059,11.010053634643555,3.469961166381836,-0.9704769849777222,-0.14836758375167847,-0.019956188276410103,18.86459732055664,-34.69218444824219,15.261329650878906,0.1391124725341797,0.4049415588378906,0.8788223266601562,4.477189064025879,10.605112075805664,2.5911388397216797
6_20251106_152708,1762413992445,6,0.2406522035598755,0.354179322719574,0.49284037947654724,0.7574641108512878,1.2848834991455078,1.8375310897827148,-1.1970053911209106,4.764735698699951,10.498912811279297,3.594454288482666,-1.1018129587173462,-0.020085996016860008,-0.1360204964876175,18.72137451171875,-35.181495666503906,14.408123016357422,0.23003721237182617,-0.08495903015136719,0.8026523590087891,4.534698486328125,10.583871841430664,2.791801929473877
6_20251106_152708,1762413992466,6,0.24534907937049866,0.3522240221500397,0.48514389991760254,0.7618250846862793,1.3122613430023193,1.8552801609039307,-1.1567354202270508,4.5720109939575195,9.914752960205078,3.4759464263916016,-1.1018129587173462,-0.020085996016860008,-0.1360204964876175,18.60482406616211,-35.64289093017578,13.43478012084961,0.029850006103515625,-0.5352945327758789,0.5473155975341797,4.542160987854004,10.450047492980957,2.928630828857422
6_20251106_152708,1762413992484,6,0.25056105852127075,0.34954169392585754,0.4771674573421478,0.7663882970809937,1.3344985246658325,1.8690485954284668,-1.1218830347061157,4.519340515136719,10.172119140625,3.7656326293945312,-1.0859304666519165,-0.1257655918598175,-0.1464051753282547,18.603784561157227,-35.99641418457031,12.440929412841797,-0.018256187438964844,-0.22234249114990234,0.6696014404296875,4.537596702575684,10.394461631774902,3.0960311889648438
6_20251106_152708,1762413992502,6,0.2561604976654053,0.3487716317176819,0.46907371282577515,0.7698765993118286,1.3560593128204346,1.8829163312911987,-1.0859071016311646,4.714459419250488,10.71438217163086,4.260013580322266,-1.0230114459991455,-0.39149177074432373,-0.12930096685886383,18.53356170654297,-36.279762268066406,11.48626708984375,0.14148998260498047,0.2559356689453125,0.9311859607696533,4.572969436645508,10.458446502685547,3.3288276195526123
6_20251106_152708,1762413992521,6,0.2622787058353424,0.3493611514568329,0.4606855809688568,0.772609531879425,1.3780878782272339,1.8974230289459229,-1.047000527381897,4.721641540527344,10.677273750305176,4.360566139221191,-1.0052963495254517,-0.3328487277030945,-0.2966778874397278,18.547019958496094,-36.59455108642578,10.466663360595703,0.11893796920776367,0.17506122589111328,0.8253908157348633,4.60270357131958,10.502212524414062,3.535175323486328
6_20251106_152708,1762413992540,6,0.2687098979949951,0.34875404834747314,0.45267316699028015,0.7754048109054565,1.3984414339065552,1.9108964204788208,-1.0083659887313843,4.393650054931641,10.389982223510742,4.145096778869629,-0.8849559426307678,-0.3371247947216034,-0.4768829941749573,18.622337341308594,-36.86930847167969,9.612499237060547,-0.16724300384521484,-0.08978462219238281,0.48793721199035645,4.5608930587768555,10.479766845703125,3.6571595668792725
6_20251106_152708,1762413992558,6,0.27627405524253845,0.34734871983528137,0.4458845853805542,0.777308464050293,1.4151687622070312,1.9221882820129395,-0.9726793169975281,3.914830446243286,10.140995979309082,4.028983116149902,-0.8189825415611267,-0.4336414337158203,-0.5343042612075806,18.728059768676758,-37.041481018066406,8.70736312866211,-0.5168502330780029,-0.27101707458496094,0.2974588871002197,4.431680679321289,10.412013053894043,3.7315242290496826
6_20251106_152708,1762413992579,6,0.28470173478126526,0.3460516035556793,0.4401516020298004,0.7781129479408264,1.4307520389556885,1.933007001876831,-0.9338619112968445,3.7496376037597656,10.050020217895508,4.109185218811035,-0.7914935946464539,-0.5588686466217041,-0.43656593561172485,18.876981735229492,-37.09785461425781,7.765525817871094,-0.5456342697143555,-0.2895946502685547,0.30212879180908203,4.295271873474121,10.339614868164062,3.807056427001953
6_20251106_152708,1762413992597,6,0.2932415306568146,0.34575727581977844,0.4342898726463318,0.778365969657898,1.4436408281326294,1.9419829845428467,-0.898056149482727,3.8669486045837402,10.052413940429688,4.088835716247559,-0.7163572907447815,-0.6596614122390747,-0.3168364465236664,19.108078002929688,-37.210914611816406,6.771736145019531,-0.34265851974487305,-0.22976112365722656,0.22542333602905273,4.209607124328613,10.282175064086914,3.863412380218506
6_20251106_152708,1762413992617,6,0.30120429396629333,0.34690940380096436,0.42803138494491577,0.7782794833183289,1.4561574459075928,1.950573444366455,-0.861004650592804,4.08720588684082,10.15536117553711,4.273180961608887,-0.6803162097930908,-0.7567888498306274,-0.27835196256637573,19.108078002929688,-37.210914611816406,6.771736145019531,-0.09792089462280273,-0.10145187377929688,0.32781481742858887,4.185126781463623,10.256813049316406,3.945366144180298
6_20251106_152708,1762413992637,6,0.3087109923362732,0.3493737578392029,0.42169448733329773,0.777694821357727,1.4561574459075928,1.950573444366455,-0.861004650592804,4.08720588684082,10.15536117553711,4.273180961608887,-0.7218550443649292,-0.7677844762802124,-0.34921228885650635,19.356008529663086,-37.22407531738281,5.915712356567383,-0.09792089462280273,-0.10145187377929688,0.32781481742858887,4.185126781463623,10.256813049316406,3.945366144180298
6_20251106_152708,1762413992656,6,0.3166014552116394,0.3522392213344574,0.41504281759262085,0.7768079042434692,1.4790278673171997,1.9669936895370483,-0.7881526350975037,4.150649070739746,10.21401596069336,4.645463943481445,-0.7218550443649292,-0.7677844762802124,-0.34921228885650635,19.594573974609375,-37.18779754638672,5.060253143310547,-0.03470659255981445,-0.05975818634033203,0.4476795196533203,4.1853556632995605,10.273774147033691,4.197784423828125
6_20251106_152708,1762413992674,6,0.32518941164016724,0.35404038429260254,0.4086857736110687,0.7758113145828247,1.4882102012634277,1.9732128381729126,-0.7557783126831055,3.981865167617798,9.998546600341797,4.457526683807373,-0.6803162097930908,-0.6498875617980957,-0.6118841171264648,19.881574630737305,-37.160362243652344,4.152427673339844,-0.16279244422912598,-0.2201824188232422,0.2077937126159668,4.144657611846924,10.218729019165039,4.249732971191406
6_20251106_152708,1762413992694,6,0.33447641134262085,0.35475850105285645,0.40318214893341064,0.7744134068489075,1.49710214138031,1.9791263341903687,-0.7205843925476074,3.8813133239746094,10.004531860351562,4.585610866546631,-0.6491621136665344,-0.7060871124267578,-0.6607533097267151,20.137062072753906,-37.03565979003906,3.3263397216796875,-0.21067523956298828,-0.1713571548461914,0.26870203018188477,4.091988563537598,10.175889015197754,4.316908836364746
6_20251106_152708,1762413992712,6,0.34424889087677,0.35554659366607666,0.3980869948863983,0.7724027633666992,1.49710214138031,1.9791263341903687,-0.7205843925476074,3.8813133239746094,10.004531860351562,4.585610866546631,-0.5972386002540588,-0.781223475933075,-0.6809118390083313,20.489925384521484,-36.916351318359375,2.4228134155273438,-0.21067523956298828,-0.1713571548461914,0.26870203018188477,4.091988563537598,10.175889015197754,4.316908836364746
6_20251106_152708,1762413992731,6,0.3543255627155304,0.35668620467185974,0.39313051104545593,0.7698550224304199,1.5084670782089233,1.9868924617767334,-0.6584963202476501,3.339049816131592,9.765121459960938,4.4048566818237305,-0.4915590286254883,-0.8526946306228638,-0.6460925340652466,20.8199405670166,-36.76177215576172,1.6001949310302734,-0.5335934162139893,-0.2824277877807617,0.018747329711914062,3.872643232345581,10.0475492477417,4.386109352111816
6_20251106_152708,1762413992752,6,0.36434388160705566,0.3586280047893524,0.38845136761665344,0.7666453123092651,1.5111733675003052,1.9893378019332886,-0.629441499710083,3.207374334335327,9.761530876159668,4.215723037719727,-0.4042053520679474,-0.9070615768432617,-0.5336933732032776,21.148544311523438,-36.632301330566406,0.7770500183105469,-0.5322153568267822,-0.22881412506103516,-0.13630914688110352,3.7395896911621094,9.990345001220703,4.35203218460083
6_20251106_152708,1762413992770,6,0.3737606704235077,0.3616364300251007,0.38405337929725647,0.7629056572914124,1.5132005214691162,1.991025686264038,-0.6012996435165405,3.5162129402160645,9.741180419921875,4.051727294921875,-0.37121865153312683,-0.9412699937820435,-0.327221155166626,21.430234909057617,-36.457130432128906,0.08816146850585938,-0.17870140075683594,-0.19933128356933594,-0.24024391174316406,3.6949143409729004,9.940511703491211,4.291971206665039
6_20251106_152708,1762413992789,6,0.3818531632423401,0.3656021058559418,0.37940526008605957,0.7593252658843994,1.5158238410949707,1.9921565055847168,-0.5760549306869507,3.9842593669891357,9.797442436218262,4.236072540283203,-0.331512451171875,-1.0622212886810303,-0.14823777973651886,21.688047409057617,-36.282875061035156,-0.6692905426025391,0.2314760684967041,-0.1144552230834961,-0.04471874237060547,3.7527832984924316,9.911897659301758,4.280791282653809
6_20251106_152708,1762413992808,6,0.388415664434433,0.3709433674812317,0.3739878237247467,0.7560868859291077,1.5158238410949707,1.9921565055847168,-0.5760549306869507,3.9842593669891357,9.797442436218262,4.236072540283203,-0.31379735469818115,-1.187448501586914,-0.13724221289157867,21.959060668945312,-36.083251953125,-1.3716583251953125,0.2314760684967041,-0.1144552230834961,-0.04471874237060547,3.7527832984924316,9.911897659301758,4.280791282653809
6_20251106_152708,1762413992827,6,0.3945482075214386,0.3778958022594452,0.3678031861782074,0.7524940371513367,1.5235536098480225,1.9951478242874146,-0.5250691175460815,4.020171165466309,10.157754898071289,4.981834411621094,-0.31379735469818115,-1.187448501586914,-0.13724221289157867,22.205110549926758,-35.886024475097656,-1.9939098358154297,0.14776182174682617,0.1864604949951172,0.48639869689941406,3.8724093437194824,9.971294403076172,4.49543571472168
6_20251106_152708,1762413992846,6,0.40143731236457825,0.38480594754219055,0.3615726828575134,0.7483566403388977,1.5235536098480225,1.9951478242874146,-0.5250691175460815,4.020171165466309,10.157754898071289,4.981834411621094,-0.3987075686454773,-1.0090759992599487,-0.4964306950569153,22.449438095092773,-35.725929260253906,-2.671018600463867,0.14776182174682617,0.1864604949951172,0.48639869689941406,3.8724093437194824,9.971294403076172,4.49543571472168
6_20251106_152708,1762413992866,6,0.40941208600997925,0.38984012603759766,0.3561548590660095,0.7440162301063538,1.528047800064087,1.9984532594680786,-0.47209879755973816,3.133157253265381,9.890811920166016,5.006972312927246,-0.3987075686454773,-1.0090759992599487,-0.4964306950569153,22.610692977905273,-35.52197265625,-3.2694053649902344,-0.5533716678619385,-0.06778907775878906,0.3258514404296875,3.6865289211273193,9.958600997924805,4.681120872497559
6_20251106_152708,1762413992884,6,0.41834914684295654,0.393370121717453,0.351327121257782,0.7394682168960571,1.5270227193832397,2.0000905990600586,-0.4478852152824402,2.8542449474334717,10.095508575439453,5.1290717124938965,-0.4341377019882202,-0.9632611274719238,-0.5886712670326233,22.809518814086914,-35.29106140136719,-3.8117294311523438,-0.6658272743225098,0.10952568054199219,0.35836076736450195,3.5200722217559814,9.985982894897461,4.7707109451293945
6_20251106_152708,1762413992905,6,0.4274258315563202,0.39652392268180847,0.34646931290626526,0.7348706722259521,1.523949384689331,2.0024938583374023,-0.420341819524765,2.865018367767334,10.208029747009277,5.423545837402344,-0.3883228600025177,-1.0713841915130615,-0.46344396471977234,22.982364654541016,-35.087120056152344,-4.328529357910156,-0.524043083190918,0.17763805389404297,0.5222678184509277,3.389061450958252,10.030391693115234,4.901278018951416
6_20251106_152708,1762413992923,6,0.4360860586166382,0.4002211391925812,0.34129244089126587,0.7301859259605408,1.5198298692703247,2.0057215690612793,-0.39269790053367615,2.89853572845459,10.416316986083984,5.916729927062988,-0.27164772152900696,-1.1752312183380127,-0.43290072679519653,23.22952651977539,-34.86518096923828,-4.909704208374023,-0.39242053031921387,0.30873966217041016,0.8123617172241211,3.2909562587738037,10.107577323913574,5.104368209838867
6_20251106_152708,1762413992941,6,0.4441278278827667,0.40522265434265137,0.3359394669532776,0.7250446677207947,1.5149142742156982,2.009654998779297,-0.36575907468795776,2.800377368927002,10.525248527526855,5.940670967102051,-0.27164772152900696,-1.1752312183380127,-0.43290072679519653,23.502370834350586,-34.616676330566406,-5.475852966308594,-0.39246320724487305,0.3341360092163086,0.6690421104431152,3.192840576171875,10.191112518310547,5.2716288566589355
6_20251106_152708,1762413992961,6,0.4519294500350952,0.4108000099658966,0.3314186930656433,0.7191416621208191,1.5082809925079346,2.0141448974609375,-0.33775389194488525,2.5717411041259766,10.389982223510742,5.633028984069824,-0.04684950411319733,-1.0512256622314453,-0.6179927587509155,23.787216186523438,-34.35603332519531,-5.9196014404296875,-0.49687957763671875,0.15909576416015625,0.2891197204589844,3.0686206817626953,10.230886459350586,5.34390926361084
6_20251106_152708,1762413992980,6,0.4597152769565582,0.41588443517684937,0.32843875885009766,0.7126219272613525,1.4999006986618042,2.0193841457366943,-0.3094156086444855,2.4939332008361816,10.47736644744873,5.453471660614014,-0.03341048210859299,-0.9864740371704102,-0.6790792346000671,24.099042892456055,-34.055458068847656,-6.429159164428711,-0.4597501754760742,0.19718360900878906,0.08764982223510742,2.953683376312256,10.280182838439941,5.365821838378906
6_20251106_152708,1762413992998,6,0.46735525131225586,0.4203067123889923,0.3264930546283722,0.705920398235321,1.4912762641906738,2.0241076946258545,-0.2845785319805145,2.361060619354248,10.379207611083984,5.612679481506348,-0.03341048210859299,-0.9864740371704102,-0.6790792346000671,24.47382926940918,-33.701759338378906,-6.827077865600586,-0.47409820556640625,0.07921981811523438,0.19748640060424805,2.8351588249206543,10.29998779296875,5.4151930809021
6_20251106_152708,1762413993017,6,0.4752974808216095,0.42412346601486206,0.3248923718929291,0.6990397572517395,1.4808443784713745,2.0284671783447266,-0.2591306269168854,2.1850943565368652,10.162542343139648,5.612679481506348,0.013015237636864185,-0.9412699937820435,-0.7859805226325989,24.934213638305664,-33.34209442138672,-7.262111663818359,-0.5200517177581787,-0.10995674133300781,0.1579890251159668,2.705146074295044,10.272499084472656,5.454690456390381
6_20251106_152708,1762413993038,6,0.48338213562965393,0.4275531768798828,0.32371723651885986,0.6919155716896057,1.4677306413650513,2.0326318740844727,-0.23158392310142517,2.060601234436035,10.149374961853027,5.701260566711426,0.013015237636864185,-0.9412699937820435,-0.7859805226325989,24.934213638305664,-33.34209442138672,-7.262111663818359,-0.5156359672546387,-0.09849929809570312,0.19725608825683594,2.576237201690674,10.24787425994873,5.50400447845459
6_20251106_152708,1762413993057,6,0.4912770688533783,0.431392639875412,0.32317689061164856,0.6841812133789062,1.4545780420303345,2.03597092628479,-0.20769082009792328,1.8906199932098389,10.160148620605469,5.5827531814575195,0.21521145105361938,-0.9473786354064941,-0.8556191325187683,25.90050506591797,-32.457420349121094,-8.10024642944336,-0.5484938621520996,-0.07018089294433594,0.06299924850463867,2.4391138553619385,10.230329513549805,5.519753932952881
6_20251106_152708,1762413993076,6,0.498887300491333,0.4355604946613312,0.32334834337234497,0.6759026050567627,1.4402464628219604,2.0390851497650146,-0.1853647083044052,1.769718050956726,10.209226608276367,5.384042739868164,0.25675028562545776,-0.8936225175857544,-0.9050992131233215,25.90050506591797,-32.457420349121094,-8.10024642944336,-0.535516619682312,-0.016882896423339844,-0.10856914520263672,2.305234670639038,10.226109504699707,5.492611885070801
6_20251106_152708,1762413993095,6,0.506395161151886,0.43954840302467346,0.32433807849884033,0.6672075986862183,1.4246432781219482,2.041865825653076,-0.1644330620765686,1.5805842876434326,10.161345481872559,5.391225337982178,0.23659171164035797,-0.8734639883041382,-0.925868570804596,26.353242874145508,-32.011192321777344,-8.4798583984375,-0.5797202587127686,-0.051812171936035156,-0.08110952377319336,2.160304546356201,10.213157653808594,5.472334861755371
6_20251106_152708,1762413993115,6,0.5139363408088684,0.4430968165397644,0.32568883895874023,0.6583778262138367,1.4072247743606567,2.0441551208496094,-0.14446839690208435,1.2142871618270874,10.084733963012695,5.501353740692139,0.24147863686084747,-0.9076724648475647,-0.8849406838417053,26.85452651977539,-31.562057495117188,-8.830476760864258,-0.7568140029907227,-0.10273933410644531,0.02321481704711914,1.97110116481781,10.18747329711914,5.4781389236450195
6_20251106_152708,1762413993133,6,0.521442174911499,0.4465629756450653,0.32677868008613586,0.6495346426963806,1.3879505395889282,2.0468101501464844,-0.1255827695131302,0.977271318435669,10.362449645996094,5.448683738708496,0.3312757611274719,-0.9174462556838989,-0.8256867527961731,27.469701766967773,-31.04204559326172,-9.269973754882812,-0.795063853263855,0.13998126983642578,-0.02356433868408203,1.772335171699524,10.222468376159668,5.472248077392578
6_20251106_152708,1762413993153,6,0.5283939838409424,0.4505278468132019,0.32773706316947937,0.6406347155570984,1.3879505395889282,2.0468101501464844,-0.1255827695131302,0.977271318435669,10.362449645996094,5.448683738708496,0.4003034830093384,-0.8636901378631592,-0.8153020739555359,28.07119369506836,-30.536460876464844,-9.602096557617188,-0.795063853263855,0.13998126983642578,-0.02356433868408203,1.772335171699524,10.222468376159668,5.472248077392578
6_20251106_152708,1762413993172,6,0.5346803665161133,0.45489948987960815,0.32912036776542664,0.6315560936927795,1.3429211378097534,2.056211233139038,-0.08790382742881775,0.5678805112838745,10.910697937011719,5.907153606414795,0.4131316542625427,-0.7201370000839233,-0.8372932076454163,28.68405532836914,-30.05438995361328,-10.01535415649414,-0.8104972839355469,0.4747505187988281,0.32986021041870117,1.3783777952194214,10.43594741821289,5.577293395996094
6_20251106_152708,1762413993190,6,0.5405086874961853,0.4587060213088989,0.33125394582748413,0.6226636171340942,1.3200894594192505,2.0621213912963867,-0.06996390223503113,0.4338109493255615,10.897531509399414,6.122622489929199,0.49437665939331055,-0.5747511982917786,-0.8446235656738281,29.212430953979492,-29.553573608398438,-10.350419044494629,-0.7556535005569458,0.36926746368408203,0.4362630844116211,1.1894644498825073,10.528264045715332,5.686359405517578
6_20251106_152708,1762413993208,6,0.5457560420036316,0.46151071786880493,0.3344399929046631,0.6142540574073792,1.2962969541549683,2.0683181285858154,-0.05147237330675125,0.3356528878211975,10.764657974243164,6.2746477127075195,0.7436094284057617,-0.4971713423728943,-0.8586734533309937,29.811203002929688,-29.09808349609375,-10.697113037109375,-0.6830492615699768,0.1891155242919922,0.4706306457519531,1.0187021493911743,10.575542449951172,5.804017066955566
6_20251106_152708,1762413993229,6,0.5499162077903748,0.4643831253051758,0.3390958309173584,0.6057676672935486,1.2670918703079224,2.075916290283203,-0.030672043561935425,0.17285418510437012,10.793387413024902,5.895183086395264,0.7436094284057617,-0.4971713423728943,-0.8586734533309937,30.371118545532227,-28.671302795410156,-10.92416000366211,-0.6766783595085144,0.17427635192871094,0.07293272018432617,0.8495325446128845,10.619111061096191,5.8222503662109375
6_20251106_152708,1762413993247,6,0.5527242422103882,0.4681822657585144,0.3458673655986786,0.5963866710662842,1.240674614906311,2.082732915878296,-0.015043586492538452,-0.22097505629062653,10.874786376953125,5.29067325592041,1.1174585819244385,-0.25221461057662964,-1.045598030090332,30.934457778930664,-28.18187713623047,-11.136371612548828,-0.8564060926437378,0.20454025268554688,-0.4252614974975586,0.6354310512542725,10.670246124267578,5.715934753417969
6_20251106_152708,1762413993267,6,0.5546714663505554,0.47197940945625305,0.3547893166542053,0.5862589478492737,1.240674614906311,2.082732915878296,-0.015043586492538452,-0.22097505629062653,10.874786376953125,5.29067325592041,1.0056703090667725,-0.07323122769594193,-1.1115713119506836,31.480295181274414,-27.770065307617188,-11.201977729797363,-0.8564060926437378,0.20454025268554688,-0.4252614974975586,0.6354310512542725,10.670246124267578,5.715934753417969
6_20251106_152708,1762413993286,6,0.5566577315330505,0.4741421639919281,0.36498692631721497,0.5762863755226135,1.1740138530731201,2.094478130340576,0.010213900357484818,-1.452738881111145,10.148178100585938,4.98542594909668,0.8779996633529663,0.06543506681919098,-1.0382676124572754,32.013267517089844,-27.34838104248047,-11.078582763671875,-1.4300858974456787,-0.398284912109375,-0.45928955078125,-0.02265295386314392,10.546463012695312,5.44471549987793
6_20251106_152708,1762413993307,6,0.5586085319519043,0.47460654377937317,0.37522509694099426,0.5673722624778748,1.1740138530731201,2.094478130340576,0.010213900357484818,-1.452738881111145,10.148178100585938,4.98542594909668,0.8633388876914978,0.16011908650398254,-0.8733342289924622,32.596900939941406,-26.88611602783203,-10.92540168762207,-1.4300858974456787,-0.398284912109375,-0.45928955078125,-0.02265295386314392,10.546463012695312,5.44471549987793
6_20251106_152708,1762413993325,6,0.5597598552703857,0.4742918014526367,0.3850550651550293,0.5598649978637695,1.0974339246749878,2.0975770950317383,0.02716074138879776,-1.6526460647583008,9.669358253479004,4.7627739906311035,0.9458056688308716,0.18699714541435242,-0.695572555065155,33.16534423828125,-26.463531494140625,-10.651856422424316,-1.0393650531768799,-0.5866289138793945,-0.47704648971557617,-0.6132810115814209,10.255987167358398,5.23982048034668
6_20251106_152708,1762413993343,6,0.5594722628593445,0.47437208890914917,0.39458611607551575,0.5534109473228455,1.0578664541244507,2.0965676307678223,0.032908663153648376,-1.5844142436981201,9.707663536071777,4.767562389373779,1.0527069568634033,0.19677098095417023,-0.5746213793754578,33.7339973449707,-26.02906036376953,-10.310465812683105,-0.7769066095352173,-0.4386587142944336,-0.3778061866760254,-0.8075076341629028,10.146322250366211,5.145368576049805
6_20251106_152708,1762413993363,6,0.5578641891479492,0.4755379557609558,0.4038638770580292,0.5473071932792664,1.0578664541244507,2.0965676307678223,0.032908663153648376,-1.5844142436981201,9.707663536071777,4.767562389373779,1.1125717163085938,0.30917006731033325,-0.5263630747795105,34.28395080566406,-25.685440063476562,-9.755152702331543,-0.7769066095352173,-0.4386587142944336,-0.3778061866760254,-0.8075076341629028,10.146322250366211,5.145368576049805
6_20251106_152708,1762413993380,6,0.5551095008850098,0.47716420888900757,0.4134432077407837,0.5415094494819641,1.0135401487350464,2.0938007831573486,0.03684322535991669,-1.6370843648910522,9.63703727722168,4.518576622009277,1.1602190732955933,0.5199183821678162,-0.4390093684196472,34.85747146606445,-25.352928161621094,-9.185606002807617,-0.6636613607406616,-0.4074277877807617,-0.5014333724975586,-0.9734230041503906,10.044465065002441,5.020009994506836
6_20251106_152708,1762413993399,6,0.5511487126350403,0.478143572807312,0.42386394739151,0.5366127490997314,0.9411436915397644,2.083514928817749,0.03325480595231056,-1.4551329612731934,8.939157485961914,3.0497970581054688,1.2377989292144775,0.5260270833969116,-0.30706262588500977,35.40291213989258,-25.073440551757812,-8.496450424194336,-0.27726686000823975,-0.7487668991088867,-1.3743205070495605,-1.1778661012649536,9.6879243850708,4.424117565155029
6_20251106_152708,1762413993420,6,0.545624315738678,0.4793730080127716,0.434698224067688,0.5324782729148865,0.9411436915397644,2.083514928817749,0.03325480595231056,-1.4551329612731934,8.939157485961914,3.0497970581054688,1.2042014598846436,0.5730636119842529,-0.22215241193771362,35.924583435058594,-24.783119201660156,-7.79449462890625,-0.27726686000823975,-0.7487668991088867,-1.3743205070495605,-1.1778661012649536,9.6879243850708,4.424117565155029
6_20251106_152708,1762413993437,6,0.5393514633178711,0.4814876616001129,0.4449397027492523,0.5284867286682129,0.8695948123931885,2.0664312839508057,0.010218590497970581,-0.9368106126785278,9.078015327453613,2.021531343460083,1.074087142944336,0.7068430185317993,-0.23620228469371796,36.344764709472656,-24.551002502441406,-6.935323715209961,0.18913352489471436,-0.3930225372314453,-1.6301629543304443,-1.1259441375732422,9.471037864685059,3.6516942977905273
6_20251106_152708,1762413993457,6,0.5327139496803284,0.4826771318912506,0.4550532102584839,0.5255142450332642,0.8362999558448792,2.0553624629974365,-0.009640127420425415,-0.777603030204773,8.769176483154297,1.6875545978546143,1.074087142944336,0.7068430185317993,-0.23620228469371796,36.68427276611328,-24.461509704589844,-6.109031677246094,0.2786729335784912,-0.5614891052246094,-1.5713117122650146,-1.0562759637832642,9.330665588378906,3.258866310119629
6_20251106_152708,1762413993476,6,0.5262799859046936,0.48244112730026245,0.46515965461730957,0.5233606696128845,0.8075348138809204,2.043274164199829,-0.03189994394779205,-0.5884691476821899,8.565679550170898,1.6779781579971313,0.8566194176673889,0.869333028793335,-0.36081868410110474,36.97596740722656,-24.339141845703125,-5.121713638305664,0.37424546480178833,-0.6119890213012695,-1.264710545539856,-0.9627146124839783,9.177668571472168,2.9426887035369873
6_20251106_152708,1762413993496,6,0.5201418995857239,0.48102208971977234,0.47533896565437317,0.5216541290283203,0.7797836661338806,2.028946876525879,-0.05848119407892227,-0.6291688680648804,8.441184997558594,1.5211646556854248,0.8566194176673889,0.869333028793335,-0.36081868410110474,37.26593780517578,-24.25390625,-4.189252853393555,0.26683658361434937,-0.5891866683959961,-1.1372191905975342,-0.8960054516792297,9.03037166595459,2.658383846282959
6_20251106_152708,1762413993515,6,0.5143604874610901,0.4782966673374176,0.48583653569221497,0.520219624042511,0.7551977634429932,2.013477087020874,-0.08586671948432922,-0.7285239696502686,8.104814529418945,1.4206125736236572,0.6525905728340149,1.1961456537246704,-0.5532410740852356,37.26593780517578,-24.25390625,-4.189252853393555,0.1339852213859558,-0.7404460906982422,-0.9902169704437256,-0.8625091910362244,8.845260620117188,2.410829544067383
6_20251106_152708,1762413993535,6,0.5086622834205627,0.47368156909942627,0.49700745940208435,0.5194920897483826,0.7303641438484192,1.994293451309204,-0.11739060282707214,-0.9439928531646729,7.623600482940674,1.0495271682739258,0.562182605266571,1.4013962745666504,-0.5862277746200562,37.47627258300781,-24.05054473876953,-3.068357467651367,-0.06518691778182983,-0.977327823638916,-1.0890419483184814,-0.878805935382843,8.60092830657959,2.1385691165924072
6_20251106_152708,1762413993553,6,0.5027494430541992,0.4671212136745453,0.5088264346122742,0.5197464823722839,0.7082546353340149,1.9740524291992188,-0.1488291174173355,-1.2348757982254028,7.041833877563477,0.3169330656528473,0.53408282995224,1.4893608093261719,-0.5062045454978943,37.63957214355469,-23.82483673095703,-1.9894447326660156,-0.2848559021949768,-1.2472753524780273,-1.4573088884353638,-0.950019896030426,8.289109230041504,1.7742419242858887
6_20251106_152708,1762413993573,6,0.4959821403026581,0.45934033393859863,0.5210265517234802,0.5210945010185242,0.6846190690994263,1.949203372001648,-0.18600520491600037,-1.4838621616363525,6.630049705505371,-0.28518277406692505,0.5059830546379089,1.4215548038482666,-0.327221155166626,37.805294036865234,-23.54944610595703,-0.8554115295410156,-0.4270738363265991,-1.3272476196289062,-1.6475398540496826,-1.0567883253097534,7.957297325134277,1.3623570203781128
6_20251106_152708,1762413993592,6,0.4885835349559784,0.4521919786930084,0.5324271321296692,0.522809624671936,0.6846190690994263,1.949203372001648,-0.18600520491600037,-1.4838621616363525,6.630049705505371,-0.28518277406692505,0.4345118999481201,1.2969383001327515,-0.11097503453493118,37.970916748046875,-23.274185180664062,0.29213714599609375,-0.4270738363265991,-1.3272476196289062,-1.6475398540496826,-1.0567883253097534,7.957297325134277,1.3623570203781128
6_20251106_152708,1762413993611,6,0.48086896538734436,0.44641754031181335,0.5420897603034973,0.5249905586242676,0.6362913846969604,1.8904786109924316,-0.27118077874183655,-1.5018178224563599,6.57857608795166,-0.5545188784599304,0.36059728264808655,1.2572321891784668,0.07717130333185196,38.024452209472656,-23.044151306152344,1.4750289916992188,-0.29286301136016846,-0.8741459846496582,-1.257636547088623,-1.2089548110961914,7.452722072601318,0.7031177282333374
6_20251106_152708,1762413993629,6,0.4728103578090668,0.4417543411254883,0.5500307083129883,0.5279864072799683,0.6146486401557922,1.861660122871399,-0.31337904930114746,-1.4383741617202759,6.489994525909424,-0.8621605634689331,0.2610263228416443,1.2969383001327515,0.2500460147857666,37.99522399902344,-22.75823974609375,2.7909698486328125,-0.18353545665740967,-0.7701821327209473,-1.2522226572036743,-1.2548387050628662,7.260176658630371,0.3900620937347412
6_20251106_152708,1762413993648,6,0.46402689814567566,0.43749696016311646,0.5568068027496338,0.5322045087814331,0.592862606048584,1.830162525177002,-0.3594224452972412,-1.2851519584655762,6.312830924987793,-0.9686979651451111,0.10586667060852051,1.3384771347045898,0.4045947790145874,37.97484588623047,-22.54566192626953,3.984172821044922,-0.02425062656402588,-0.7578763961791992,-1.0870081186294556,-1.2609013319015503,7.070707321166992,0.1183101087808609
6_20251106_152708,1762413993668,6,0.45449551939964294,0.43318673968315125,0.5624812841415405,0.5379571318626404,0.5728579759597778,1.7982819080352783,-0.4044250547885895,-1.0086336135864258,6.35712194442749,-0.34144407510757446,-0.07494928687810898,1.3213729858398438,0.5322655439376831,37.882164001464844,-22.31354522705078,5.2560577392578125,0.2018141746520996,-0.5708684921264648,-0.36780333518981934,-1.2104477882385254,6.927990436553955,0.026359274983406067
6_20251106_152708,1762413993687,6,0.4449285566806793,0.42889392375946045,0.5665143728256226,0.5451146960258484,0.554241955280304,1.764957070350647,-0.44897371530532837,-0.7536619901657104,6.452885627746582,0.1756812483072281,-0.13420316576957703,1.3329793214797974,0.5988497734069824,37.692378997802734,-22.311805725097656,6.398111343383789,0.3654285669326782,-0.3800835609436035,0.11945758014917374,-1.1190905570983887,6.8329691886901855,0.05622366815805435
6_20251106_152708,1762413993706,6,0.43534132838249207,0.42449137568473816,0.5692446231842041,0.5533945560455322,0.5388804078102112,1.7341439723968506,-0.4886179566383362,-0.5944544076919556,6.564211845397949,0.2606717646121979,-0.06395372003316879,1.386124610900879,0.640388548374176,37.411865234375,-22.404197692871094,7.602466583251953,0.41970884799957275,-0.21500587463378906,0.1635584831237793,-1.0141632556915283,6.779217720031738,0.09711328148841858
6_20251106_152708,1762413993725,6,0.4251326024532318,0.41999322175979614,0.5719029903411865,0.5619563460350037,0.52610844373703,1.704189658164978,-0.5268887877464294,-0.35025638341903687,6.530694007873535,-0.1247781440615654,-0.01447367575019598,1.41422438621521,0.7295748591423035,37.03173828125,-22.552230834960938,8.707229614257812,0.5311254858970642,-0.19881916046142578,-0.17751313745975494,-0.8813818693161011,6.729513168334961,0.05273499712347984
6_20251106_152708,1762413993745,6,0.41387060284614563,0.41571831703186035,0.574799656867981,0.5705214738845825,0.52610844373703,1.704189658164978,-0.5268887877464294,-0.35025638341903687,6.530694007873535,-0.1247781440615654,-0.01447367575019598,1.41422438621521,0.7295748591423035,36.50144577026367,-22.78472900390625,9.763973236083984,0.5311254858970642,-0.19881916046142578,-0.17751313745975494,-0.8813818693161011,6.729513168334961,0.05273499712347984
6_20251106_152708,1762413993765,6,0.4019363224506378,0.4122294485569,0.5770295858383179,0.5792676210403442,0.5078779458999634,1.645508050918579,-0.6060110926628113,0.059134505689144135,6.615684509277344,-0.7568202614784241,-0.09510782361030579,1.1185657978057861,1.1022024154663086,35.87978744506836,-23.147010803222656,10.679481506347656,0.6440666317939758,-0.05274009704589844,-0.5267341136932373,-0.5849321484565735,6.668424606323242,-0.23008611798286438
6_20251106_152708,1762413993783,6,0.389901340007782,0.4105459153652191,0.5775147676467896,0.5881375074386597,0.5037575364112854,1.6195263862609863,-0.6435980200767517,0.5044368505477905,6.857488632202148,-0.6239477396011353,-0.1201532781124115,0.9744017720222473,1.2927920818328857,35.24211120605469,-23.58489227294922,11.53885269165039,0.871495246887207,0.15125131607055664,-0.31508928537368774,-0.3670583665370941,6.706237316131592,-0.3088584542274475
6_20251106_152708,1762413993801,6,0.377832293510437,0.4109638035297394,0.5760790705680847,0.5970631837844849,0.5037575364112854,1.6195263862609863,-0.6435980200767517,0.5044368505477905,6.857488632202148,-0.6239477396011353,-0.11404462158679962,0.9017088413238525,1.4033586978912354,34.50341033935547,-24.10352325439453,12.298099517822266,0.871495246887207,0.15125131607055664,-0.31508928537368774,-0.3670583665370941,6.706237316131592,-0.3088584542274475
6_20251106_152708,1762413993821,6,0.3654218912124634,0.41271069645881653,0.5734719634056091,0.606025218963623,0.5089573860168457,1.5750006437301636,-0.7168564796447754,1.7936590909957886,7.390175819396973,-0.8980720639228821,-0.14886392652988434,0.8870481252670288,1.4901014566421509,33.64928436279297,-24.74150848388672,12.969459533691406,1.4947115182876587,0.4854111671447754,-0.4065920114517212,0.29894760251045227,6.904764652252197,-0.4914800524711609
6_20251106_152708,1762413993839,6,0.352597713470459,0.41517189145088196,0.5701331496238708,0.6150246858596802,0.5192488431930542,1.5584313869476318,-0.750201940536499,2.596879243850708,7.78280782699585,-0.746046781539917,-0.2649281919002533,0.8607809543609619,1.5175904035568237,32.63310241699219,-25.46435546875,13.551761627197266,1.8383452892303467,0.7024345397949219,-0.20365339517593384,0.7585338950157166,7.080373287200928,-0.5423933863639832
6_20251106_152708,1762413993859,6,0.33972275257110596,0.41787275671958923,0.5657749176025391,0.6243953108787537,0.5379822850227356,1.544889211654663,-0.7850401401519775,3.3474292755126953,8.378938674926758,-0.42404046654701233,-0.3993184268474579,0.8607808947563171,1.4577255249023438,31.616413116455078,-26.199485778808594,14.106769561767578,2.0711164474487305,1.0388526916503906,0.09468236565589905,1.2763129472732544,7.340085983276367,-0.5187228322029114
6_20251106_152708,1762413993878,6,0.3274771571159363,0.42021259665489197,0.5603778958320618,0.6341582536697388,0.5625157952308655,1.5372517108917236,-0.8151446580886841,4.056082248687744,9.010980606079102,-0.03140828385949135,-0.5184370875358582,0.8919349908828735,1.3031768798828125,30.570714950561523,-27.023704528808594,14.618400573730469,2.223815441131592,1.3367156982421875,0.3898516297340393,1.8322668075561523,7.674264907836914,-0.42125990986824036
6_20251106_152708,1762413993898,6,0.31605565547943115,0.4213050603866577,0.5545224547386169,0.6442947387695312,0.5933525562286377,1.5347275733947754,-0.8411833047866821,4.576799392700195,9.398824691772461,0.5120521187782288,-0.6467186808586121,0.9438585042953491,1.086930751800537,30.570714950561523,-27.023704528808594,14.618400573730469,2.1956260204315186,1.379648208618164,0.7466496229171753,2.3811733722686768,8.019176483154297,-0.23459751904010773
6_20251106_152708,1762413993917,6,0.3059590756893158,0.42067068815231323,0.5486066937446594,0.6545654535293579,0.6318792700767517,1.5375438928604126,-0.8631362318992615,4.910775184631348,9.775896072387695,1.109379768371582,-0.7450678944587708,0.9921168684959412,0.8609107136726379,28.419225692749023,-28.721359252929688,15.138050079345703,2.023681640625,1.4053754806518555,1.0751818418502808,2.8870935440063477,8.37052059173584,0.034197911620140076
6_20251106_152708,1762413993936,6,0.2973604202270508,0.41806650161743164,0.5428197979927063,0.6649389863014221,0.6701947450637817,1.5446091890335083,-0.8781354427337646,5.06998348236084,10.261898040771484,1.5654555559158325,-0.7927153706550598,1.0116645097732544,0.6562710404396057,27.361881256103516,-29.592018127441406,15.188579559326172,1.746311902999878,1.5131025314331055,1.225006103515625,3.323671579360962,8.748795509338379,0.34044942259788513
6_20251106_152708,1762413993955,6,0.2902621924877167,0.4138307571411133,0.5373170375823975,0.6751165390014648,0.7131680846214294,1.556436538696289,-0.8892176747322083,4.982598304748535,10.47736644744873,1.7833185195922852,-0.8055434823036194,0.989673376083374,0.4980570673942566,27.361881256103516,-29.592018127441406,15.188579559326172,1.327141523361206,1.382857322692871,1.1542953252792358,3.655456781387329,9.09450912475586,0.6290231943130493
6_20251106_152708,1762413993975,6,0.284384161233902,0.40841230750083923,0.5322415828704834,0.684867799282074,0.7626538872718811,1.573285460472107,-0.8968328237533569,4.957460403442383,10.416316986083984,1.8288064002990723,-0.7420135736465454,0.8943784832954407,0.4302511215209961,26.33556365966797,-30.33605194091797,15.296794891357422,1.0416028499603271,1.0574464797973633,0.9598265886306763,3.9158575534820557,9.358870506286621,0.868979811668396
6_20251106_152708,1762413993992,6,0.27947989106178284,0.4026893377304077,0.5274960398674011,0.6938877105712891,0.8031405806541443,1.588355302810669,-0.9008965492248535,5.022101402282715,10.320552825927734,1.6851603984832764,-0.6106776595115662,0.7080647945404053,0.44735532999038696,25.43301010131836,-31.046356201171875,15.34286117553711,0.8849949836730957,0.7693462371826172,0.6529444456100464,4.137106418609619,9.551206588745117,1.03221595287323
6_20251106_152708,1762413994012,6,0.2749958336353302,0.39801251888275146,0.5231369137763977,0.7016345858573914,0.8512991666793823,1.6077553033828735,-0.9034206867218018,5.093924522399902,10.392375946044922,1.6959340572357178,-0.6106776595115662,0.7080647945404053,0.44735532999038696,24.63678741455078,-31.610694885253906,15.247074127197266,0.7654542922973633,0.6729354858398438,0.5309745073318481,4.328470230102539,9.719440460205078,1.1649595499038696
6_20251106_152708,1762413994030,6,0.27093029022216797,0.39540162682533264,0.5188178420066833,0.7078717350959778,0.8944656848907471,1.6266919374465942,-0.9033722877502441,5.137018203735352,10.673683166503906,2.0610339641571045,-0.4915589988231659,0.24747273325920105,0.5212699770927429,23.830167770385742,-32.16178894042969,15.002384185791016,0.6468381881713867,0.7633943557739258,0.7168595790863037,4.490180015563965,9.91028881072998,1.3441743850708008
6_20251106_152708,1762413994050,6,0.26754412055015564,0.3948139250278473,0.5140711069107056,0.7129327058792114,0.9424079656600952,1.6501659154891968,-0.8993843197822571,5.272284507751465,11.056737899780273,2.639209032058716,-0.48850467801094055,0.18699714541435242,0.4705681800842285,23.112375259399414,-32.64453887939453,14.762447357177734,0.6256837844848633,0.9171590805053711,1.0360276699066162,4.646600723266602,10.139578819274902,1.6031813621520996
6_20251106_152708,1762413994069,6,0.26494932174682617,0.3951450288295746,0.5089887380599976,0.7173511981964111,0.9877373576164246,1.6738313436508179,-0.8924139738082886,5.397974967956543,11.043571472167969,2.8319339752197266,-0.41703349351882935,0.24197494983673096,0.34656262397766113,22.41975975036621,-33.113006591796875,14.510238647460938,0.6010994911193848,0.7231941223144531,0.9830021858215332,4.796875476837158,10.320377349853516,1.8489317893981934
6_20251106_152708,1762413994089,6,0.2627532184123993,0.3948637545108795,0.5044575333595276,0.7215025424957275,1.0323673486709595,1.6977425813674927,-0.8839195370674133,5.368048667907715,10.841269493103027,2.5314745903015137,-0.26737165451049805,0.26335519552230835,0.2091180831193924,22.037643432617188,-33.44927978515625,14.340248107910156,0.4569387435913086,0.4167137145996094,0.5460343360900879,4.911109924316406,10.424555778503418,1.9854402542114258
6_20251106_152708,1762413994108,6,0.2608422338962555,0.39378973841667175,0.5013302564620972,0.7249544858932495,1.077782392501831,1.7225421667099,-0.8748131990432739,5.169338226318359,10.716775894165039,2.1867241859436035,-0.26737165451049805,0.26335519552230835,0.2091180831193924,21.620677947998047,-33.762420654296875,14.128765106201172,0.20658254623413086,0.23377609252929688,0.161027193069458,4.9627556800842285,10.482999801635742,2.0256969928741455
6_20251106_152708,1762413994126,6,0.25934281945228577,0.3927357494831085,0.49967899918556213,0.7272006869316101,1.1163220405578613,1.7442095279693604,-0.8663359880447388,4.844937801361084,10.67128849029541,2.306429147720337,-0.06700804084539413,0.059937287122011185,0.033799909055233,21.2542724609375,-34.03511047363281,13.960582733154297,-0.0942544937133789,0.15063095092773438,0.22458577156066895,4.939192295074463,10.520657539367676,2.081843376159668
6_20251106_152708,1762413994146,6,0.25877493619918823,0.3925098478794098,0.49875637888908386,0.7281576991081238,1.1163220405578613,1.7442095279693604,-0.8663359880447388,4.844937801361084,10.67128849029541,2.306429147720337,-0.03585394099354744,0.07581976801156998,-0.012014945968985558,20.865102767944336,-34.28401184082031,13.764915466308594,-0.0942544937133789,0.15063095092773438,0.22458577156066895,4.939192295074463,10.520657539367676,2.081843376159668
6_20251106_152708,1762413994165,6,0.2585698962211609,0.3923587203025818,0.498272567987442,0.7286430597305298,1.1902740001678467,1.7884469032287598,-0.8491187691688538,4.340980529785156,10.488140106201172,1.9078116416931152,-0.0028672460466623306,0.08803705871105194,-0.06149498373270035,20.6134033203125,-34.461524963378906,13.589481353759766,-0.41924571990966797,-0.047432899475097656,-0.15638947486877441,4.760226249694824,10.53557300567627,2.0642011165618896
6_20251106_152708,1762413994185,6,0.2584691047668457,0.39178213477134705,0.4982995092868805,0.7289705872535706,1.2211190462112427,1.8075644969940186,-0.8424164652824402,4.131496429443359,10.276262283325195,1.7797273397445679,0.00018707755953073502,0.06726765632629395,-0.0944816842675209,20.435441970825195,-34.61023712158203,13.525646209716797,-0.5029840469360352,-0.20744800567626953,-0.2275789976119995,4.6344804763793945,10.483710289001465,2.0073063373565674
6_20251106_152708,1762413994203,6,0.2586871385574341,0.3911416828632355,0.49866703152656555,0.7289858460426331,1.2472342252731323,1.8238261938095093,-0.8370302319526672,3.966303825378418,10.100296020507812,1.7450129985809326,-0.02608010545372963,0.03183750808238983,-0.10547725111246109,20.355361938476562,-34.752052307128906,13.411670684814453,-0.534541130065918,-0.306732177734375,-0.20983469486236572,4.500844955444336,10.407028198242188,1.9548476934432983
6_20251106_152708,1762413994223,6,0.25922584533691406,0.3905286192893982,0.49897757172584534,0.7289106845855713,1.273552417755127,1.8405406475067139,-0.8314709067344666,3.7173173427581787,10.016502380371094,1.832397699356079,-0.02974529191851616,-0.024362048134207726,-0.11280762404203415,20.26773452758789,-34.807167053222656,13.339599609375,-0.6268222332000732,-0.3124208450317383,-0.09795999526977539,4.344139575958252,10.328923225402832,1.9303576946258545
6_20251106_152708,1762413994240,6,0.26018407940864563,0.3902074694633484,0.4990403652191162,0.728698194026947,1.2920502424240112,1.8526692390441895,-0.8271687626838684,3.5509276390075684,9.998546600341797,1.94252610206604,-0.01630626991391182,-0.04635317623615265,-0.13174442946910858,20.24506950378418,-34.783241271972656,13.298599243164062,-0.6345696449279785,-0.2643013000488281,0.009734749794006348,4.185497283935547,10.262847900390625,1.9327913522720337
6_20251106_152708,1762413994260,6,0.2612503170967102,0.39001283049583435,0.499218225479126,0.7282990217208862,1.309722900390625,1.8649729490280151,-0.8223541975021362,3.4683310985565186,10.053610801696777,2.022728443145752,-0.03524307534098625,-0.04574231058359146,-0.1622876673936844,20.285560607910156,-34.70591735839844,13.342201232910156,-0.5737330913543701,-0.1673898696899414,0.07194972038269043,4.042064189910889,10.221000671386719,1.9507787227630615
6_20251106_152708,1762413994279,6,0.26268747448921204,0.3897891640663147,0.4993777573108673,0.7277922630310059,1.3250582218170166,1.87643301486969,-0.8168150782585144,3.27321195602417,9.9434814453125,2.1891183853149414,-0.034021347761154175,-0.04513144865632057,-0.19344176352024078,20.336307525634766,-34.67681884765625,13.263591766357422,-0.615081787109375,-0.222015380859375,0.19067168235778809,3.888293743133545,10.165496826171875,1.9984467029571533
6_20251106_152708,1762413994298,6,0.26436424255371094,0.3892790973186493,0.49960407614707947,0.727302610874176,1.33637535572052,1.8856257200241089,-0.8112647533416748,3.1594924926757812,9.919541358947754,2.3291730880737305,-0.018749728798866272,-0.037801068276166916,-0.20382647216320038,20.449195861816406,-34.61890411376953,13.214996337890625,-0.5830409526824951,-0.19676494598388672,0.26458120346069336,3.7425334453582764,10.11630630493164,2.064591884613037
6_20251106_152708,1762413994317,6,0.26609867811203003,0.38862934708595276,0.49998337030410767,0.726756751537323,1.33637535572052,1.8856257200241089,-0.8112647533416748,3.1594924926757812,9.919541358947754,2.3291730880737305,-0.018749728798866272,-0.037801068276166916,-0.20382647216320038,20.535907745361328,-34.588233947753906,13.218955993652344,-0.5830409526824951,-0.19676494598388672,0.26458120346069336,3.7425334453582764,10.11630630493164,2.064591884613037
6_20251106_152708,1762413994337,6,0.2678464353084564,0.3879159688949585,0.5006423592567444,0.7260417938232422,1.352454662322998,1.9011199474334717,-0.7977781891822815,2.7572836875915527,9.590353012084961,2.2082712650299072,0.08509726822376251,-0.03657934069633484,-0.24292181432247162,20.535907745361328,-34.588233947753906,13.218955993652344,-0.6598637104034424,-0.3630409240722656,0.07050347328186035,3.417147397994995,9.953393936157227,2.137767791748047
6_20251106_152708,1762413994356,6,0.26955968141555786,0.38721030950546265,0.5018190145492554,0.7249712944030762,1.3560705184936523,1.9060454368591309,-0.792106032371521,2.582514524459839,9.501771926879883,2.004772663116455,0.11075358837842941,-0.05979219824075699,-0.223374143242836,20.651418685913086,-34.48036193847656,13.198448181152344,-0.6677062511444092,-0.361297607421875,-0.10639619827270508,3.250220775604248,9.863069534301758,2.11116886138916
6_20251106_152708,1762413994376,6,0.27109214663505554,0.38660740852355957,0.5032033324241638,0.7237611413002014,1.3572707176208496,1.909683346748352,-0.7869356274604797,2.45562744140625,9.439523696899414,1.9461171627044678,0.12785778939723969,-0.08422678709030151,-0.19466350972652435,20.703786849975586,-34.41426086425781,13.188213348388672,-0.6356744766235352,-0.338836669921875,-0.13204145431518555,3.091301918029785,9.778360366821289,2.0781586170196533
6_20251106_152708,1762413994395,6,0.2725391983985901,0.3864131271839142,0.5045965909957886,0.722350001335144,1.3572707176208496,1.909683346748352,-0.7869356274604797,2.45562744140625,9.439523696899414,1.9461171627044678,0.14496199786663055,-0.07078777253627777,-0.1665637195110321,20.840862274169922,-34.343414306640625,13.262508392333984,-0.6356744766235352,-0.338836669921875,-0.13204145431518555,3.091301918029785,9.778360366821289,2.0781586170196533
6_20251106_152708,1762413994414,6,0.273750364780426,0.38643714785575867,0.5059762001037598,0.7209126949310303,1.3533331155776978,1.9122487306594849,-0.7798897624015808,2.1970646381378174,9.145050048828125,1.70790433883667,0.15656843781471252,-0.03963366150856018,-0.15801161527633667,20.952144622802734,-34.310882568359375,13.24041748046875,-0.5956783294677734,-0.4355802536010742,-0.2603292465209961,2.792742967605591,9.5806303024292,1.968233585357666
6_20251106_152708,1762413994431,6,0.27461904287338257,0.38638895750045776,0.5075090527534485,0.719529390335083,1.3492834568023682,1.9116965532302856,-0.7782192826271057,2.094118595123291,9.141458511352539,1.5786230564117432,0.13335557281970978,-0.001760054030455649,-0.13479875028133392,21.066654205322266,-34.215972900390625,13.260196685791016,-0.5588996410369873,-0.3513374328613281,-0.3116884231567383,2.6530182361602783,9.492795944213867,1.8903114795684814
6_20251106_152708,1762413994451,6,0.2753360867500305,0.38618406653404236,0.5090477466583252,0.7182772755622864,1.34318208694458,1.9102333784103394,-0.7776892185211182,2.1348180770874023,9.214479446411133,1.4505387544631958,0.09792543202638626,0.002515999134629965,-0.08348611742258072,21.191137313842773,-34.15807342529297,13.293190002441406,-0.41456007957458496,-0.22265338897705078,-0.3518182039260864,2.5493781566619873,9.437132835388184,1.8023569583892822
6_20251106_152708,1762413994470,6,0.27572986483573914,0.38583505153656006,0.5103297829627991,0.7174035310745239,1.3369355201721191,1.9087486267089844,-0.7779757380485535,2.279661178588867,9.377277374267578,1.5235588550567627,0.05149971693754196,-0.023751184344291687,-0.01812359131872654,21.293262481689453,-34.06422424316406,13.33951187133789,-0.2157735824584961,-0.04788398742675781,-0.2230384349822998,2.4954347610473633,9.425161361694336,1.7465972900390625
6_20251106_152708,1762413994489,6,0.2760060131549835,0.3859030604362488,0.5110381245613098,0.716756284236908,1.3369355201721191,1.9087486267089844,-0.7779757380485535,2.279661178588867,9.377277374267578,1.5235588550567627,0.014236967079341412,-0.01580994203686714,-0.0016302457079291344,21.45652961730957,-33.95452117919922,13.456130981445312,-0.2157735824584961,-0.04788398742675781,-0.2230384349822998,2.4954347610473633,9.425161361694336,1.7465972900390625
6_20251106_152708,1762413994508,6,0.2761830687522888,0.3861711025238037,0.5112177729606628,0.716415524482727,1.3247703313827515,1.906175971031189,-0.7791733145713806,2.4975242614746094,9.476633071899414,1.7438158988952637,-0.007754163816571236,0.00740291690453887,-0.016901863738894463,21.59099578857422,-33.922019958496094,13.597217559814453,0.01819157600402832,0.039071083068847656,0.016989707946777344,2.479332685470581,9.437561988830566,1.7268261909484863
6_20251106_152708,1762413994527,6,0.27632617950439453,0.38615474104881287,0.5113131999969482,0.7163010239601135,1.3247703313827515,1.906175971031189,-0.7791733145713806,2.4975242614746094,9.476633071899414,1.7438158988952637,-0.007754163816571236,0.02267453446984291,-0.03644953668117523,21.7064208984375,-33.80266571044922,13.685104370117188,0.01819157600402832,0.039071083068847656,0.016989707946777344,2.479332685470581,9.437561988830566,1.7268261909484863
6_20251106_152708,1762413994546,6,0.2764831483364105,0.38583728671073914,0.5114037394523621,0.7163468599319458,1.3142046928405762,1.9050419330596924,-0.7810297012329102,2.4927358627319336,9.552047729492188,1.6552342176437378,0.0032414011657238007,-0.021918589249253273,-0.055386342108249664,21.769664764404297,-33.76074981689453,13.66131591796875,0.0013000965118408203,0.06848335266113281,-0.03834939002990723,2.4914357662200928,9.483564376831055,1.693583607673645
6_20251106_152708,1762413994566,6,0.27686598896980286,0.3855907917022705,0.5116091370582581,0.7161850929260254,1.3086985349655151,1.9047003984451294,-0.7821234464645386,2.3658485412597656,9.513742446899414,1.6516430377960205,0.00507399532943964,-0.03657934069633484,-0.05660807341337204,21.797870635986328,-33.684356689453125,13.717945098876953,-0.10046982765197754,0.02414226531982422,-0.03355240821838379,2.466318368911743,9.48960018157959,1.6851954460144043
6_20251106_152708,1762413994585,6,0.2771705687046051,0.38538858294487,0.5119296908378601,0.7159469723701477,1.3032039403915405,1.9044157266616821,-0.7830679416656494,2.2748730182647705,9.498180389404297,1.7007222175598145,0.0026305364444851875,-0.01947513222694397,-0.06760364025831223,21.822650909423828,-33.670616149902344,13.75973892211914,-0.15315628051757812,0.0068645477294921875,0.012421488761901855,2.4280292987823486,9.491315841674805,1.6883007287979126
6_20251106_152708,1762413994605,6,0.2780817449092865,0.3855116367340088,0.5119975805282593,0.7154787182807922,1.3032039403915405,1.9044157266616821,-0.7830679416656494,2.2748730182647705,9.498180389404297,1.7007222175598145,-0.010197622701525688,0.014122428372502327,-0.061494991183280945,21.799489974975586,-33.647361755371094,13.786319732666016,-0.15315628051757812,0.0068645477294921875,0.012421488761901855,2.4280292987823486,9.491315841674805,1.6883007287979126
6_20251106_152708,1762413994624,6,0.27861714363098145,0.38516363501548767,0.5122352838516235,0.7152876853942871,1.2924264669418335,1.9048504829406738,-0.7839973568916321,2.3682427406311035,9.622673034667969,1.8323974609375,0.003852265886962414,0.011068104766309261,-0.058440662920475006,21.814607620239258,-33.58458709716797,13.86922836303711,-0.035007476806640625,0.08540916442871094,0.10045766830444336,2.403250217437744,9.537263870239258,1.7319397926330566
6_20251106_152708,1762413994643,6,0.27904102206230164,0.3847004473209381,0.5125008225440979,0.7151814699172974,1.286757230758667,1.9054477214813232,-0.7841039299964905,2.280858039855957,9.615489959716797,1.7881066799163818,0.015458694659173489,0.0012942695757374167,-0.04377990961074829,21.779953002929688,-33.561180114746094,13.800704956054688,-0.09791374206542969,0.06258106231689453,0.04493355751037598,2.3787717819213867,9.552908897399902,1.7431731224060059
6_20251106_152708,1762413994662,6,0.27937546372413635,0.38441407680511475,0.5128065347671509,0.714985728263855,1.2810864448547363,1.906063199043274,-0.7844414114952087,2.1767148971557617,9.58077621459961,1.6552342176437378,0.015458694659173489,0.0012942695757374167,-0.04377990961074829,21.80744171142578,-33.50895690917969,13.762191772460938,-0.16164541244506836,0.022294044494628906,-0.07035112380981445,2.33836030960083,9.55848217010498,1.7255853414535522
6_20251106_152708,1762413994680,6,0.2795468866825104,0.3841271698474884,0.5131551623344421,0.7148228287696838,1.2756789922714233,1.9066749811172485,-0.7849714159965515,2.2150204181671143,9.581974029541016,1.6336872577667236,-0.011419352144002914,0.037946153432130814,-0.010793214663863182,21.819826126098633,-33.507896423339844,13.735649108886719,-0.09867191314697266,0.018793106079101562,-0.07351839542388916,2.313692331314087,9.563180923461914,1.7072056531906128
6_20251106_152708,1762413994699,6,0.2796105146408081,0.38372671604156494,0.5134320855140686,0.7148141860961914,1.270100712776184,1.907395839691162,-0.7854057550430298,2.2569172382354736,9.602323532104492,1.7426187992095947,-0.020582322031259537,0.018398480489850044,0.033189043402671814,21.882673263549805,-33.466522216796875,13.765926361083984,-0.045420169830322266,0.03131389617919922,0.028330564498901367,2.302337408065796,9.571009635925293,1.7142882347106934
6_20251106_152708,1762413994719,6,0.27955368161201477,0.38348016142845154,0.5133797526359558,0.7150062322616577,1.265001893043518,1.9082913398742676,-0.7855074405670166,2.375425100326538,9.647810935974121,1.8276093006134033,0.012404373846948147,-0.010923025198280811,0.06800833344459534,21.904830932617188,-33.50273895263672,13.779632568359375,0.05847024917602539,0.061440467834472656,0.09065675735473633,2.3169548511505127,9.586370468139648,1.736952543258667
6_20251106_152708,1762413994738,6,0.27952840924263,0.38334110379219055,0.5135807394981384,0.7149463295936584,1.2605154514312744,1.9095044136047363,-0.7856640219688416,2.4472479820251465,9.718437194824219,1.7150866985321045,0.06371700763702393,-0.02924896590411663,0.06556487083435059,21.929500579833984,-33.50074768066406,13.740062713623047,0.10423445701599121,0.10565376281738281,-0.01749265193939209,2.3430135250091553,9.612783432006836,1.7325793504714966
6_20251106_152708,1762413994757,6,0.2792741358280182,0.38354796171188354,0.513794481754303,0.7147812247276306,1.256529450416565,1.9111535549163818,-0.7860742807388306,2.4436569213867188,9.793851852416992,1.6372785568237305,0.06371700763702393,-0.011533889919519424,0.02830212563276291,21.99224853515625,-33.459510803222656,13.783855438232422,0.08051466941833496,0.14485454559326172,-0.07624053955078125,2.363142251968384,9.64899730682373,1.7135190963745117
6_20251106_152708,1762413994777,6,0.27898427844047546,0.38388872146606445,0.5142565369606018,0.714379072189331,1.2527118921279907,1.9132722616195679,-0.786497950553894,2.4185187816619873,9.803427696228027,1.7091014385223389,0.007517455145716667,0.04527653381228447,-0.0071280281990766525,21.99224853515625,-33.459510803222656,13.783855438232422,0.04430127143859863,0.12354469299316406,-0.003534078598022461,2.3742175102233887,9.679883003234863,1.7126355171203613
6_20251106_152708,1762413994795,6,0.2789601981639862,0.3838317096233368,0.514807403087616,0.7140222191810608,1.2494012117385864,1.9152343273162842,-0.7865451574325562,2.423306941986084,9.698087692260742,1.834791660308838,-0.021804053336381912,0.09109137952327728,-0.01751272939145565,22.012279510498047,-33.545013427734375,13.701892852783203,0.03927159309387207,0.014563560485839844,0.09772491455078125,2.384035348892212,9.683524131774902,1.7370667457580566
6_20251106_152708,1762413994814,6,0.2790175676345825,0.3831244707107544,0.5152655243873596,0.714049220085144,1.2465147972106934,1.9171119928359985,-0.7864795327186584,2.4783711433410645,9.68851089477539,1.7773332595825195,0.005073996260762215,0.10269781947135925,0.00508926622569561,22.06153106689453,-33.52954864501953,13.731151580810547,0.07546854019165039,0.003989219665527344,0.03221321105957031,2.402902603149414,9.684521675109863,1.7451200485229492
6_20251106_152708,1762413994835,6,0.2788812518119812,0.38211989402770996,0.5156641006469727,0.7143529653549194,1.2442104816436768,1.9190688133239746,-0.7866918444633484,2.6196231842041016,9.680131912231445,1.6612194776535034,0.04539107158780098,0.0593264177441597,0.04784979671239853,22.03484535217285,-33.56907653808594,13.756412506103516,0.17337656021118164,-0.0035114288330078125,-0.06712055206298828,2.44624662399292,9.683643341064453,1.7283400297164917
6_20251106_152708,1762413994853,6,0.27833592891693115,0.3814653158187866,0.5161141157150269,0.7145904302597046,1.2432266473770142,1.9206054210662842,-0.7869735956192017,2.805166006088257,9.698086738586426,1.674386978149414,0.04539107158780098,0.0593264177441597,0.04784979671239853,22.021955490112305,-33.582427978515625,13.755657196044922,0.28713560104370117,0.011554718017578125,-0.04316246509552002,2.5180304050445557,9.686532020568848,1.717549443244934
6_20251106_152708,1762413994872,6,0.2776806950569153,0.3818722069263458,0.5164085626602173,0.7144153118133545,1.2432266473770142,1.9206054210662842,-0.7869735956192017,2.805166006088257,9.698086738586426,1.674386978149414,0.0704365223646164,-0.03230328857898712,0.09488637745380402,21.971702575683594,-33.61085510253906,13.766681671142578,0.28713560104370117,0.011554718017578125,-0.04316246509552002,2.5180304050445557,9.686532020568848,1.717549443244934
6_20251106_152708,1762413994891,6,0.2770932912826538,0.3833670914173126,0.5163846611976624,0.7138598561286926,1.245038390159607,1.9249948263168335,-0.787347674369812,3.0649256706237793,9.951861381530762,1.8144416809082031,0.09364937990903854,-0.09949840605258942,0.054569311439991,21.97291374206543,-33.58601379394531,13.794242858886719,0.36456894874572754,0.19796466827392578,0.07714176177978516,2.7003567218780518,9.753896713256836,1.737299919128418
6_20251106_152708,1762413994910,6,0.2767323851585388,0.3852519989013672,0.516300618648529,0.7130454182624817,1.2476661205291748,1.9280341863632202,-0.7868198156356812,3.1379456520080566,10.021289825439453,1.9437230825424194,0.0704365223646164,-0.04268798977136612,-0.03461693972349167,21.89879608154297,-33.603736877441406,13.831584930419922,0.3500709533691406,0.2139148712158203,0.16513848304748535,2.787874698638916,9.807374954223633,1.778584599494934
6_20251106_152708,1762413994929,6,0.27660897374153137,0.3864172697067261,0.5162807703018188,0.712476909160614,1.2508634328842163,1.9311996698379517,-0.7859013676643372,3.0433788299560547,9.908767700195312,1.9305555820465088,0.09364937990903854,0.011678969487547874,-0.1409074068069458,21.849742889404297,-33.618934631347656,13.77529525756836,0.20440340042114258,0.08111381530761719,0.12157678604125977,2.838975429534912,9.827653884887695,1.808978796005249
6_20251106_152708,1762413994948,6,0.2767936587333679,0.38659486174583435,0.5166860222816467,0.71201491355896,1.2538869380950928,1.934156894683838,-0.7850795388221741,2.833894968032837,9.809412956237793,1.7905007600784302,0.11258618533611298,0.04466566443443298,-0.22520674765110016,21.827091217041016,-33.58338928222656,13.829170227050781,-0.004064321517944336,-0.014592170715332031,-0.014782309532165527,2.8379592895507812,9.824005126953125,1.8052830696105957
6_20251106_152708,1762413994967,6,0.2773641347885132,0.3860284388065338,0.517665684223175,0.711388349533081,1.256005883216858,1.9364204406738281,-0.7848845720291138,2.563361644744873,9.625066757202148,1.5917906761169434,0.07715603709220886,0.07093285024166107,-0.26674553751945496,21.80402946472168,-33.55999755859375,13.842235565185547,-0.21967792510986328,-0.1591510772705078,-0.17079401016235352,2.7830395698547363,9.784217834472656,1.7625846862792969
6_20251106_152708,1762413994987,6,0.2782832384109497,0.3848889172077179,0.5190218687057495,0.7106583118438721,1.256005883216858,1.9364204406738281,-0.7848845720291138,2.563361644744873,9.625066757202148,1.5917906761169434,0.04905625805258751,0.07154370844364166,-0.272854208946228,21.879865646362305,-33.50513458251953,13.859748840332031,-0.21967792510986328,-0.1591510772705078,-0.17079401016235352,2.7830395698547363,9.784217834472656,1.7625846862792969
6_20251106_152708,1762413995006,6,0.27959343791007996,0.38340455293655396,0.5204517841339111,0.7099003195762634,1.2564367055892944,1.9377392530441284,-0.7855449318885803,2.266493558883667,9.465860366821289,1.524755835533142,0.03683896362781525,0.07887408882379532,-0.23253710567951202,21.946151733398438,-33.389495849609375,13.999740600585938,-0.4132368564605713,-0.2546863555908203,-0.19026315212249756,2.6797304153442383,9.72054672241211,1.7150189876556396
6_20251106_152708,1762413995026,6,0.2809321880340576,0.3817709982395172,0.5219714045524597,0.7091360092163086,1.2551910877227783,1.9377806186676025,-0.7868244051933289,2.0378570556640625,9.321016311645508,1.4038538932800293,0.0148478327319026,0.04955258592963219,-0.1622876673936844,22.034793853759766,-33.30980682373047,14.12640380859375,-0.5134985446929932,-0.3196239471435547,-0.2489321231842041,2.5513556003570557,9.640640258789062,1.6527860164642334
6_20251106_152708,1762413995044,6,0.2819947600364685,0.38016629219055176,0.5234079360961914,0.7085172533988953,1.2479887008666992,1.9354865550994873,-0.7909073233604431,1.8475263118743896,9.33178997039795,1.549893856048584,0.0148478327319026,0.04955258592963219,-0.1622876673936844,22.1240291595459,-33.22930908203125,14.17197036743164,-0.4592611789703369,-0.193450927734375,-0.03750479221343994,2.3067874908447266,9.525240898132324,1.587398648262024
6_20251106_152708,1762413995063,6,0.28297579288482666,0.37919607758522034,0.5243739485740662,0.7079314589500427,1.2479887008666992,1.9354865550994873,-0.7909073233604431,1.8475263118743896,9.33178997039795,1.549893856048584,-0.007754163816571236,-0.001760054030455649,0.03074558451771736,22.274503707885742,-33.13282012939453,14.27431869506836,-0.4592611789703369,-0.193450927734375,-0.03750479221343994,2.3067874908447266,9.525240898132324,1.587398648262024
6_20251106_152708,1762413995081,6,0.28350451588630676,0.3786081373691559,0.5247963070869446,0.7077215909957886,1.2377444505691528,1.9320191144943237,-0.7940396070480347,2.1300299167633057,9.458677291870117,1.6636135578155518,0.03989328816533089,-0.02252945490181446,0.1260404735803604,22.400705337524414,-33.03778839111328,14.362167358398438,-0.07979893684387207,-0.03244972229003906,0.04513859748840332,2.2098288536071777,9.491127014160156,1.6184749603271484
6_20251106_152708,1762413995101,6,0.2832088768482208,0.37839552760124207,0.5249741673469543,0.707821786403656,1.2327826023101807,1.9303051233291626,-0.7957718372344971,2.3047990798950195,9.514938354492188,1.5379233360290527,0.08326467871665955,-0.06284652650356293,0.1773531138896942,22.504240036010742,-32.9188232421875,14.409015655517578,0.07597613334655762,0.019048690795898438,-0.06444132328033447,2.228822946548462,9.495889663696289,1.6023646593093872
6_20251106_152708,1762413995120,6,0.28227588534355164,0.37905073165893555,0.5249906182289124,0.7078316807746887,1.2288743257522583,1.929099440574646,-0.7974429726600647,2.4364748001098633,9.620279312133789,1.5630614757537842,0.08326467871665955,-0.06284652650356293,0.1773531138896942,22.61332130432129,-32.91248321533203,14.494525909423828,0.1661214828491211,0.09951210021972656,-0.03144252300262451,2.270353317260742,9.520767211914062,1.5945039987564087
6_20251106_152708,1762413995139,6,0.28129416704177856,0.3804885149002075,0.5248390436172485,0.7075634598731995,1.225837230682373,1.9283649921417236,-0.7994419932365417,2.516676902770996,9.670555114746094,1.4445536136627197,0.07959948480129242,-0.06590084731578827,0.16880100965499878,22.602445602416992,-32.88829803466797,14.508079528808594,0.19705891609191895,0.11983013153076172,-0.11996030807495117,2.319617986679077,9.550724983215332,1.564513921737671
6_20251106_152708,1762413995157,6,0.2804161012172699,0.38168641924858093,0.5246873497962952,0.7073792815208435,1.223630428314209,1.9274449348449707,-0.802087664604187,2.533435821533203,9.445509910583496,1.220705270767212,0.04172588139772415,0.026950588449835777,0.06128881871700287,22.625198364257812,-32.9237060546875,14.440685272216797,0.17105436325073242,-0.08417224884033203,-0.27504682540893555,2.3623814582824707,9.529682159423828,1.4957520961761475
6_20251106_152708,1762413995178,6,0.27959921956062317,0.382196843624115,0.5247182846069336,0.7074040770530701,1.223630428314209,1.9274449348449707,-0.802087664604187,2.533435821533203,9.445509910583496,1.220705270767212,0.04172588139772415,0.026950588449835777,0.06128881871700287,22.625198364257812,-32.9237060546875,14.440685272216797,0.17105436325073242,-0.08417224884033203,-0.27504682540893555,2.3623814582824707,9.529682159423828,1.4957520961761475
6_20251106_152708,1762413995196,6,0.27923762798309326,0.3827451169490814,0.5248956084251404,0.7071188688278198,1.2204152345657349,1.9260624647140503,-0.80979984998703,2.5884997844696045,9.6346435546875,1.2183111906051636,-0.007754163816571236,0.03183750435709953,0.033799909055233,22.54100799560547,-32.90455627441406,14.478328704833984,0.16118717193603516,0.07751750946044922,-0.17411470413208008,2.4273126125335693,9.55712604522705,1.3924258947372437
6_20251106_152708,1762413995216,6,0.27906885743141174,0.3831365406513214,0.5246809124946594,0.707132875919342,1.2204152345657349,1.9260624647140503,-0.80979984998703,2.5884997844696045,9.6346435546875,1.2183111906051636,-0.08594484627246857,-0.026805507019162178,0.05151498317718506,22.54100799560547,-32.90455627441406,14.478328704833984,0.16118717193603516,0.07751750946044922,-0.17411470413208008,2.4273126125335693,9.55712604522705,1.3924258947372437
6_20251106_152708,1762413995235,6,0.27908656001091003,0.38369444012641907,0.5241797566413879,0.7071951031684875,1.220044493675232,1.9259135723114014,-0.8157299757003784,2.612441062927246,9.78547191619873,1.8671119213104248,-0.08044706284999847,-0.054905280470848083,-0.0028519751504063606,22.45751190185547,-32.88446044921875,14.42136001586914,0.10507535934448242,0.17257213592529297,0.36585402488708496,2.5073657035827637,9.612899780273438,1.5012578964233398
6_20251106_152708,1762413995254,6,0.279497355222702,0.3844984769821167,0.5233766436576843,0.7071909308433533,1.219872236251831,1.926838994026184,-0.8167429566383362,2.450839042663574,9.844127655029297,1.9090087413787842,-0.08044706284999847,-0.054905280470848083,-0.0028519751504063606,22.406455993652344,-32.925575256347656,14.445636749267578,-0.04522132873535156,0.1849822998046875,0.3262007236480713,2.496060371398926,9.65914535522461,1.582808017730713
6_20251106_152708,1762413995273,6,0.28010421991348267,0.38440799713134766,0.5227542519569397,0.707460343837738,1.2194021940231323,1.9279353618621826,-0.8174650073051453,2.3814101219177246,9.754348754882812,1.6528401374816895,-0.026690971106290817,0.05505036935210228,-0.09203822165727615,22.353086471557617,-33.00463104248047,14.49615478515625,-0.0917201042175293,0.07616233825683594,0.05602574348449707,2.473130226135254,9.678186416625977,1.5968143939971924
6_20251106_152708,1762413995291,6,0.28058668971061707,0.38312289118766785,0.5227445960044861,0.7079731822013855,1.2194021940231323,1.9279353618621826,-0.8174650073051453,2.3814101219177246,9.754348754882812,1.6528401374816895,-0.030967023223638535,0.025117991492152214,-0.07493401318788528,22.266881942749023,-33.02301788330078,14.519489288330078,-0.0917201042175293,0.07616233825683594,0.05602574348449707,2.473130226135254,9.678186416625977,1.5968143939971924
6_20251106_152708,1762413995311,6,0.2811054587364197,0.3820468485355377,0.5230302214622498,0.7081379294395447,1.2185332775115967,1.9292632341384888,-0.8180494904518127,2.3419077396392822,9.754348754882812,1.6420667171478271,-0.027912698686122894,0.010457240045070648,-0.06027325987815857,22.25107192993164,-33.08673095703125,14.531196594238281,-0.10497784614562988,0.060929298400878906,0.0362018346786499,2.446885585784912,9.693419456481934,1.6058648824691772
6_20251106_152708,1762413995330,6,0.28168943524360657,0.38135504722595215,0.5232378840446472,0.7081253528594971,1.2158666849136353,1.9315451383590698,-0.8184798955917358,2.2712817192077637,9.665766716003418,1.6516430377960205,-0.0022563813254237175,0.013511563651263714,-0.038892991840839386,22.238182067871094,-33.10008239746094,14.530441284179688,-0.11525940895080566,-0.02459239959716797,0.021062254905700684,2.3865411281585693,9.690359115600586,1.6305807828903198
6_20251106_152708,1762413995349,6,0.2821323275566101,0.38073840737342834,0.5234822034835815,0.7081002593040466,1.214234471321106,1.9326825141906738,-0.8186153769493103,2.3215579986572266,9.724422454833984,1.6432636976242065,-0.018749728798866272,0.015955021604895592,-0.026675699278712273,22.275035858154297,-33.09729766845703,14.491363525390625,-0.0519864559173584,0.027250289916992188,0.010146260261535645,2.373544454574585,9.697172164916992,1.633117437362671
6_20251106_152708,1762413995368,6,0.2824319303035736,0.38019558787345886,0.5237282514572144,0.7080905437469482,1.212659478187561,1.9340183734893799,-0.8182925581932068,2.364651679992676,9.790260314941406,1.7976831197738647,-0.047460369765758514,0.02267453446984291,-0.020567050203680992,22.27634620666504,-33.07231903076172,14.505409240722656,-0.0071141719818115234,0.07447052001953125,0.13165247440338135,2.3717658519744873,9.715789794921875,1.6660306453704834
6_20251106_152708,1762413995388,6,0.2827500104904175,0.37970390915870667,0.5237382650375366,0.7082200050354004,1.2110083103179932,1.935471534729004,-0.817347526550293,2.346695899963379,9.754348754882812,1.8707032203674316,-0.01264108158648014,0.03000490926206112,-0.023010510951280594,22.359027862548828,-33.11671447753906,14.480754852294922,-0.02005600929260254,0.030846595764160156,0.16373801231384277,2.3667519092559814,9.723502159118652,1.7069652080535889
6_20251106_152708,1762413995407,6,0.28295472264289856,0.3791024684906006,0.5237284302711487,0.7084676623344421,1.209295630455017,1.9366804361343384,-0.8163541555404663,2.285646438598633,9.686117172241211,1.7581803798675537,0.025232531130313873,0.04161134362220764,-0.023010509088635445,22.383188247680664,-33.12700653076172,14.413890838623047,-0.06488442420959473,-0.029908180236816406,0.040972113609313965,2.3505308628082275,9.716025352478027,1.7172082662582397
6_20251106_152708,1762413995427,6,0.2829650342464447,0.3784921169281006,0.5238871574401855,0.7086725234985352,1.209295630455017,1.9366804361343384,-0.8163541555404663,2.285646438598633,9.686117172241211,1.7581803798675537,0.047223664820194244,0.05260691046714783,-0.018734456971287727,22.4177303314209,-33.16216278076172,14.401054382324219,-0.06488442420959473,-0.029908180236816406,0.040972113609313965,2.3505308628082275,9.716025352478027,1.7172082662582397
6_20251106_152708,1762413995445,6,0.28287968039512634,0.37788504362106323,0.5243093967437744,0.7087182998657227,1.2053475379943848,1.9374933242797852,-0.8159474730491638,2.3251490592956543,9.548456192016602,1.390686273574829,0.04172588139772415,0.03489182889461517,0.02769125998020172,22.444107055664062,-33.13465118408203,14.321464538574219,0.0004184246063232422,-0.10303020477294922,-0.24019312858581543,2.324730634689331,9.65148639678955,1.6308794021606445
6_20251106_152708,1762413995464,6,0.2825618088245392,0.37745368480682373,0.5248611569404602,0.7086665630340576,1.2053475379943848,1.9374933242797852,-0.8159474730491638,2.3251490592956543,9.548456192016602,1.390686273574829,0.020345613360404968,-0.02924896590411663,0.058845363557338715,22.42123031616211,-33.12260437011719,14.212615966796875,0.0004184246063232422,-0.10303020477294922,-0.24019312858581543,2.324730634689331,9.65148639678955,1.6308794021606445
6_20251106_152708,1762413995483,6,0.2822875678539276,0.3778262734413147,0.5250859260559082,0.7084107995033264,1.2024834156036377,1.9378726482391357,-0.8168327808380127,2.437671661376953,9.675342559814453,1.6731899976730347,0.020345613360404968,-0.02924896590411663,0.058845363557338715,22.4354190826416,-33.09588623046875,14.132537841796875,0.07745361328125,0.02158832550048828,0.05197727680206299,2.360218048095703,9.653754234313965,1.6212127208709717
6_20251106_152708,1762413995501,6,0.28218939900398254,0.37876084446907043,0.524909257888794,0.7080816626548767,1.20158052444458,1.9378783702850342,-0.8169839382171631,2.453233242034912,9.574790954589844,1.6839635372161865,0.006295724771916866,0.01962021179497242,0.02463693730533123,22.385461807250977,-33.12390899658203,14.103015899658203,0.07441210746765137,-0.0631704330444336,0.050200581550598145,2.3788211345672607,9.637961387634277,1.6337629556655884
6_20251106_152708,1762413995521,6,0.28207457065582275,0.3790980577468872,0.5246968269348145,0.7081043720245361,1.2010401487350464,1.9377928972244263,-0.8172769546508789,2.5118887424468994,9.604717254638672,1.5822142362594604,0.006906589493155479,0.043443936854600906,0.019139155745506287,22.398439407348633,-33.122039794921875,13.995376586914062,0.10645413398742676,-0.026595115661621094,-0.041239023208618164,2.4054346084594727,9.631312370300293,1.6234532594680786
6_20251106_152708,1762413995539,6,0.28170937299728394,0.37890446186065674,0.5247510671615601,0.7083131670951843,1.2009961605072021,1.9377799034118652,-0.8174484372138977,2.5765295028686523,9.656190872192383,1.6624165773391724,0.006906589493155479,0.043443936854600906,0.019139155745506287,22.312728881835938,-33.13975524902344,13.951129913330078,0.13687586784362793,0.019903182983398438,0.03117060661315918,2.4396536350250244,9.636287689208984,1.6312459707260132
6_20251106_152708,1762413995559,6,0.28138473629951477,0.3788984715938568,0.5246193408966064,0.7085430026054382,1.2012577056884766,1.9378091096878052,-0.8169674873352051,2.550194263458252,9.651402473449707,1.8659149408340454,-0.025469239801168442,-0.015199078246951103,0.01486310176551342,22.25139045715332,-33.15587615966797,13.90786361694336,0.08843255043029785,0.012091636657714844,0.1877351999282837,2.461761713027954,9.639310836791992,1.6781797409057617
6_20251106_152708,1762413995578,6,0.2814294397830963,0.3793245851993561,0.5241875648498535,0.7086167335510254,1.2014496326446533,1.937387466430664,-0.8163124918937683,2.438868522644043,9.490998268127441,1.7354366779327393,0.020956479012966156,0.025728857144713402,-0.02423224039375782,22.21744155883789,-33.119911193847656,13.839603424072266,-0.018314599990844727,-0.11864948272705078,0.04580545425415039,2.4571831226348877,9.609647750854492,1.6896312236785889
6_20251106_152708,1762413995597,6,0.2814074754714966,0.3793206214904785,0.5239372253417969,0.7088127136230469,1.2015331983566284,1.9365631341934204,-0.8167714476585388,2.424504280090332,9.447904586791992,1.3068928718566895,0.03867155686020851,0.053828638046979904,-0.03339520841836929,22.182279586791992,-33.108795166015625,13.743782043457031,-0.02614307403564453,-0.12939453125,-0.3061906099319458,2.4506473541259766,9.577299118041992,1.6130834817886353
6_20251106_152708,1762413995616,6,0.28188398480415344,0.379276841878891,0.523855984210968,0.7087068557739258,1.201432466506958,1.9357469081878662,-0.8181788921356201,2.3850016593933105,9.565214157104492,1.259010910987854,-0.024247508496046066,0.0055703227408230305,-0.010182352736592293,22.196889877319336,-33.058311462402344,13.799392700195312,-0.05251646041870117,-0.009668350219726562,-0.2832580804824829,2.4375181198120117,9.574882507324219,1.542268991470337
6_20251106_152708,1762413995636,6,0.2819210886955261,0.37917184829711914,0.5241124629974365,0.7085586190223694,1.2012048959732056,1.935196042060852,-0.8194394111633301,2.3957748413085938,9.662175178527832,1.5905935764312744,-0.08227965980768204,-0.010923025198280811,0.011197913438081741,22.196889877319336,-33.058311462402344,13.799392700195312,-0.033394575119018555,0.06983470916748047,0.03865969181060791,2.4291694164276123,9.592340469360352,1.5519338846206665
6_20251106_152708,1762413995655,6,0.2824293076992035,0.3797599673271179,0.5238559246063232,0.7082309126853943,1.2009472846984863,1.9347361326217651,-0.8202148079872131,2.410139560699463,9.605914115905762,1.6839635372161865,-0.0688406378030777,0.015344157814979553,0.00020234845578670502,22.17110824584961,-33.08501434326172,13.79788589477539,-0.015223979949951172,0.010858535766601562,0.10562372207641602,2.425363540649414,9.59505558013916,1.5783398151397705
6_20251106_152708,1762413995674,6,0.28282925486564636,0.37980374693870544,0.5234335660934448,0.7083601355552673,1.2006312608718872,1.9343880414962769,-0.8206977844238281,2.3993661403656006,9.627461433410645,1.6707959175109863,-0.04196259006857872,0.033670101314783096,-0.005906298756599426,22.145015716552734,-33.12373352050781,13.742046356201172,-0.0207979679107666,0.0259246826171875,0.07396495342254639,2.420164108276367,9.601536750793457,1.59683096408844
6_20251106_152708,1762413995693,6,0.2830387353897095,0.37949493527412415,0.5231342911720276,0.7086629867553711,1.2003659009933472,1.9344043731689453,-0.8208584189414978,2.4328832626342773,9.72801399230957,1.7055103778839111,-0.05967766419053078,0.030615774914622307,-0.0022411104291677475,22.119741439819336,-33.138145446777344,13.767833709716797,0.010175228118896484,0.1011819839477539,0.0869436264038086,2.422708034515381,9.626832008361816,1.6185667514801025
6_20251106_152708,1762413995712,6,0.28312140703201294,0.3790830969810486,0.5229057669639587,0.7090189456939697,1.200098991394043,1.934641718864441,-0.8201912045478821,2.4173216819763184,9.707663536071777,1.9173879623413086,-0.050514694303274155,0.004348593298345804,-0.0010193809866905212,22.120954513549805,-33.113304138183594,13.795394897460938,-0.004309177398681641,0.0646657943725586,0.23905694484710693,2.421630859375,9.642997741699219,1.6783310174942017
6_20251106_152708,1762413995732,6,0.283355712890625,0.378846675157547,0.5225484371185303,0.7093151211738586,1.1996004581451416,1.9349395036697388,-0.8189343214035034,2.3323311805725098,9.669358253479004,1.905417561531067,-0.005310704931616783,0.015955021604895592,-0.00773889385163784,22.156721115112305,-33.11199951171875,13.90499496459961,-0.07143974304199219,0.021088600158691406,0.1816692352294922,2.403770923614502,9.648269653320312,1.7237483263015747
6_20251106_152708,1762413995750,6,0.28348031640052795,0.3785790801048279,0.5223091840744019,0.7095842957496643,1.1989177465438843,1.9353492259979248,-0.8177968859672546,2.327543020248413,9.694496154785156,1.7031161785125732,0.003852265886962414,0.041000477969646454,0.006921860389411449,22.194194793701172,-33.085174560546875,13.97457504272461,-0.060982465744018555,0.036980628967285156,-0.016505718231201172,2.3885254859924316,9.657515525817871,1.7196218967437744
6_20251106_152708,1762413995770,6,0.2832995355129242,0.3779662251472473,0.5223473906517029,0.7099549770355225,1.1981041431427002,1.9358822107315063,-0.8168078660964966,2.345499038696289,9.698087692260742,1.6707959175109863,-0.02302578091621399,0.026950588449835777,0.036243364214897156,22.20337677001953,-33.123268127441406,14.09592056274414,-0.03442120552062988,0.03245735168457031,-0.03906071186065674,2.379920244216919,9.665630340576172,1.709856629371643
6_20251106_152708,1762413995789,6,0.2830778956413269,0.37755316495895386,0.5223351120948792,0.7102721929550171,1.1973474025726318,1.93622624874115,-0.8160407543182373,2.3550753593444824,9.620279312133789,1.677978277206421,-0.01264108158648014,0.022063670679926872,0.054569311439991,22.16691780090332,-33.125518798828125,14.0809326171875,-0.01987600326538086,-0.03628063201904297,-0.025502681732177734,2.3749513626098633,9.656559944152832,1.7034809589385986
6_20251106_152708,1762413995808,6,0.282821923494339,0.3774998188018799,0.5222023129463196,0.7105001211166382,1.19687020778656,1.9365737438201904,-0.8157088160514832,2.4807653427124023,9.651402473449707,1.5463027954101562,0.01179350633174181,0.012289834208786488,0.0698409229516983,22.140838623046875,-33.152626037597656,14.119972229003906,0.08465123176574707,-0.0041255950927734375,-0.12574243545532227,2.3961141109466553,9.65552806854248,1.6720452308654785
6_20251106_152708,1762413995827,6,0.2824041545391083,0.37760430574417114,0.522140383720398,0.7106562256813049,1.19693124294281,1.9371289014816284,-0.815796971321106,2.5753321647644043,9.743574142456055,1.5307410955429077,0.01179350633174181,0.012289834208786488,0.0698409229516983,22.11617088317871,-33.15461730957031,14.159542083740234,0.14337444305419922,0.07043647766113281,-0.11304330825805664,2.431957721710205,9.673137664794922,1.6437844038009644
6_20251106_152708,1762413995847,6,0.2819848358631134,0.37815120816230774,0.5219780206680298,0.7106512188911438,1.19693124294281,1.9371289014816284,-0.815796971321106,2.5753321647644043,9.743574142456055,1.5307410955429077,-0.02608010545372963,-0.024972913786768913,0.046017199754714966,22.090290069580078,-33.18145751953125,14.171550750732422,0.14337444305419922,0.07043647766113281,-0.11304330825805664,2.431957721710205,9.673137664794922,1.6437844038009644
6_20251106_152708,1762413995865,6,0.2817824184894562,0.3790253698825836,0.5216678380966187,0.7104935646057129,1.1982781887054443,1.9390814304351807,-0.8154205083847046,2.581317663192749,9.82377815246582,1.7833185195922852,-0.05295814946293831,0.02023107372224331,-0.005295434035360813,22.099458694458008,-33.231163024902344,14.198017120361328,0.09310054779052734,0.10330486297607422,0.10481560230255127,2.4882171154022217,9.720473289489746,1.6785029172897339
6_20251106_152708,1762413995885,6,0.28184470534324646,0.3793364465236664,0.5212637186050415,0.710599422454834,1.1992242336273193,1.9404069185256958,-0.814613401889801,2.5310416221618652,9.78547191619873,1.8240182399749756,-0.03157788887619972,0.047109127044677734,-0.05599720776081085,22.088781356811523,-33.206703186035156,14.184539794921875,0.03425955772399902,0.05199909210205078,0.11641216278076172,2.496782064437866,9.73347282409668,1.7076060771942139
