session_id,timestamp,label,quaternion_w,quaternion_x,quaternion_y,quaternion_z,position_x,position_y,position_z,accelerometer_x,accelerometer_y,accelerometer_z,gyroscope_x,gyroscope_y,gyroscope_z,magnetometer_x,magnetometer_y,magnetometer_z,linear_acceleration_x,linear_acceleration_y,linear_acceleration_z,gravity_x,gravity_y,gravity_z
8_20251106_181636,1762424159217,8,0.11829246580600739,0.0885058343410492,0.7290086150169373,0.6683712005615234,0.10579801350831985,2.0707039833068848,-1.0445963144302368,-0.44961151480674744,10.095507621765137,-0.6000067591667175,0.017993785440921783,0.0837419182062149,0.0647936537861824,11.996856689453125,-23.881927490234375,35.28462600708008,0.1259320080280304,0.20730018615722656,0.1195116639137268,-0.5755435228347778,9.88820743560791,-0.7195184230804443
8_20251106_181636,1762424159235,8,0.11723417788743973,0.08864188194274902,0.7290739417076111,0.6684683561325073,0.10579801350831985,2.0707039833068848,-1.0445963144302368,-0.44961151480674744,10.095507621765137,-0.6000067591667175,0.027156755328178406,0.14788271486759186,0.021422261372208595,11.889904022216797,-23.83898162841797,35.29478454589844,0.1259320080280304,0.20730018615722656,0.1195116639137268,-0.5755435228347778,9.88820743560791,-0.7195184230804443
8_20251106_181636,1762424159255,8,0.11603846400976181,0.08798124641180038,0.7291466593742371,0.6686848998069763,0.10927572101354599,2.0726301670074463,-1.0545463562011719,-0.5585429668426514,9.888418197631836,-0.868145763874054,0.049758750945329666,0.1765933483839035,-0.0005688685923814774,11.754348754882812,-23.872962951660156,35.3023796081543,-3.6716461181640625e-05,-0.019783973693847656,-0.13246941566467285,-0.5585062503814697,9.908202171325684,-0.7356763482093811
8_20251106_181636,1762424159274,8,0.11476396769285202,0.08689951151609421,0.729467511177063,0.668696403503418,0.11081942915916443,2.073066473007202,-1.0602550506591797,-0.5824840068817139,9.754348754882812,-1.0572795867919922,0.053423941135406494,0.14971530437469482,0.009204966947436333,11.608230590820312,-23.870742797851562,35.37785720825195,-0.019182205200195312,-0.12308311462402344,-0.2572826147079468,-0.5633018016815186,9.877431869506836,-0.7999969720840454
8_20251106_181636,1762424159293,8,0.11368116736412048,0.08602792024612427,0.7300466895103455,0.6683619022369385,0.11081942915916443,2.073066473007202,-1.0602550506591797,-0.5824840068817139,9.754348754882812,-1.0572795867919922,0.03448713198304176,0.110009104013443,0.020811397582292557,11.514984130859375,-23.790138244628906,35.470394134521484,-0.019182205200195312,-0.12308311462402344,-0.2572826147079468,-0.5633018016815186,9.877431869506836,-0.7999969720840454
8_20251106_181636,1762424159313,8,0.11277129501104355,0.08540338277816772,0.7306752800941467,0.6679090857505798,0.11276598274707794,2.0729761123657227,-1.0683856010437012,-0.5597400069236755,9.743574142456055,-1.0093976259231567,0.010052544064819813,0.12222639471292496,0.0006528608500957489,11.395633697509766,-23.759872436523438,35.41221618652344,0.0028494596481323242,-0.107086181640625,-0.16752052307128906,-0.5625894665718079,9.85066032409668,-0.8418771028518677
8_20251106_181636,1762424159332,8,0.11196385324001312,0.08461272716522217,0.7311006188392639,0.6676800847053528,0.11486036330461502,2.0718021392822266,-1.0782402753829956,-0.6662774085998535,9.665766716003418,-0.7771700620651245,-0.03331885114312172,0.1668195277452469,-0.059822745621204376,11.311347961425781,-23.740859985351562,35.463375091552734,-0.08340626955032349,-0.11680030822753906,0.059033095836639404,-0.58287113904953,9.782567024230957,-0.8362031579017639
8_20251106_181636,1762424159350,8,0.11124233901500702,0.08301742374897003,0.7312171459197998,0.6678732633590698,0.11486036330461502,2.0718021392822266,-1.0782402753829956,-0.6662774085998535,9.665766716003418,-0.7771700620651245,-0.10356829315423965,0.20896919071674347,-0.10563760250806808,11.20047378540039,-23.76123809814453,35.52627944946289,-0.08340626955032349,-0.11680030822753906,0.059033095836639404,-0.58287113904953,9.782567024230957,-0.8362031579017639
8_20251106_181636,1762424159370,8,0.11064961552619934,0.08059144765138626,0.7308710813522339,0.6686472296714783,0.11503235995769501,2.070887804031372,-1.0828529596328735,-0.8853375315666199,9.738786697387695,-0.6263418197631836,-0.1420527696609497,0.223019078373909,-0.07814868539571762,11.093334197998047,-23.706947326660156,35.658348083496094,-0.24197310209274292,-0.03502464294433594,0.1678890585899353,-0.643364429473877,9.773811340332031,-0.7942308783531189
8_20251106_181636,1762424159389,8,0.10984806716442108,0.07773169875144958,0.730168342590332,0.6698845624923706,0.11347278207540512,2.068786144256592,-1.0880801677703857,-0.812317430973053,9.696889877319336,-0.26004475355148315,-0.06813813745975494,0.15215876698493958,-0.00301232747733593,10.995857238769531,-23.701690673828125,35.74930191040039,-0.0880194902420044,-0.054976463317871094,0.36562854051589966,-0.7242979407310486,9.751866340637207,-0.6256732940673828
8_20251106_181636,1762424159410,8,0.10899558663368225,0.07574423402547836,0.729590654373169,0.6708801984786987,0.11248711496591568,2.067727565765381,-1.0887376070022583,-0.7476767897605896,9.77230453491211,-0.21575388312339783,0.06686296314001083,0.06785943359136581,0.07578922063112259,10.877647399902344,-23.623489379882812,35.92195510864258,-0.018703043460845947,0.016350746154785156,0.3279355466365814,-0.7289737462997437,9.755953788757324,-0.5436894297599792
8_20251106_181636,1762424159428,8,0.10807307064533234,0.07517673820257187,0.7295429110527039,0.6711451411247253,0.11172686517238617,2.0671355724334717,-1.0889928340911865,-0.6818390488624573,9.888418197631836,-0.4204493463039398,0.18842503428459167,0.04647916927933693,0.11549543589353561,10.818733215332031,-23.589927673339844,35.93381118774414,0.037707746028900146,0.1059713363647461,0.09859207272529602,-0.7195467948913574,9.78244686126709,-0.5190414190292358
8_20251106_181636,1762424159446,8,0.10692019015550613,0.0752209946513176,0.7301362156867981,0.67067950963974,0.11119444668292999,2.0670583248138428,-1.08952796459198,-0.6578980684280396,9.967423439025879,-0.6431005001068115,0.2434028685092926,0.10145699977874756,0.08922825008630753,10.707759857177734,-23.610443115234375,36.010231018066406,0.04931902885437012,0.1479806900024414,-0.0992472767829895,-0.7072170972824097,9.819442749023438,-0.543853223323822
8_20251106_181636,1762424159465,8,0.10552768409252167,0.0750068947672844,0.7313233613967896,0.6696297526359558,0.11052655428647995,2.067078113555908,-1.0909773111343384,-0.7560561895370483,9.854900360107422,-0.8765252232551575,0.21591395139694214,0.23584723472595215,0.03608301654458046,10.586219787597656,-23.594757080078125,36.15453338623047,-0.03907132148742676,0.0283660888671875,-0.26613759994506836,-0.7169848680496216,9.826534271240234,-0.6103876233100891
8_20251106_181636,1762424159484,8,0.10353788733482361,0.07363113015890121,0.7327057719230652,0.6685810089111328,0.10956481844186783,2.0665080547332764,-1.0940532684326172,-0.8362583518028259,9.611900329589844,-1.2296547889709473,0.14810797572135925,0.36901575326919556,0.0391373373568058,10.443031311035156,-23.530563354492188,36.31242752075195,-0.09541881084442139,-0.1717071533203125,-0.49541378021240234,-0.7408395409584045,9.783607482910156,-0.7342410087585449
8_20251106_181636,1762424159504,8,0.10066534578800201,0.07117056846618652,0.7340418696403503,0.667820155620575,0.1085641011595726,2.065030336380005,-1.099133849143982,-0.7536620497703552,9.48501205444336,-1.3936505317687988,0.0790802612900734,0.3824547529220581,0.10938677936792374,10.312633514404297,-23.453155517578125,36.48459243774414,-0.010258018970489502,-0.2388763427734375,-0.5275276303291321,-0.7434040307998657,9.723888397216797,-0.8661229014396667
8_20251106_181636,1762424159524,8,0.09739852696657181,0.06899195909500122,0.7353001832962036,0.6671485900878906,0.10806258767843246,2.0625765323638916,-1.1051092147827148,-0.5956515073776245,9.378475189208984,-1.2440192699432373,0.03876318782567978,0.2938793897628784,0.19124263525009155,10.106796264648438,-23.430068969726562,36.58517837524414,0.11820203065872192,-0.27633094787597656,-0.3023170828819275,-0.7138535380363464,9.654806137084961,-0.9417021870613098
8_20251106_181636,1762424159542,8,0.09424681216478348,0.06806574016809464,0.7363168001174927,0.6665749549865723,0.10806258767843246,2.0625765323638916,-1.1051092147827148,-0.5956515073776245,9.378475189208984,-1.2440192699432373,0.04426096752285957,0.20896919071674347,0.24805305898189545,10.106796264648438,-23.430068969726562,36.58517837524414,0.11820203065872192,-0.27633094787597656,-0.3023170828819275,-0.7138535380363464,9.654806137084961,-0.9417021870613098
8_20251106_181636,1762424159563,8,0.09122334420681,0.06820753961801529,0.7370494604110718,0.6661711931228638,0.10794864594936371,2.0566704273223877,-1.1150403022766113,-0.6016367673873901,9.388051986694336,-0.754426121711731,0.052813075482845306,0.21019090712070465,0.2920353412628174,9.708206176757812,-23.370269775390625,36.760066986083984,0.07392555475234985,-0.17838382720947266,0.1524164080619812,-0.67556232213974,9.566435813903809,-0.9068425297737122
8_20251106_181636,1762424159579,8,0.08794441819190979,0.06844306737184525,0.737465500831604,0.666127622127533,0.10857856273651123,2.0529685020446777,-1.1192750930786133,-0.444823294878006,9.251587867736816,-0.9088454842567444,0.06747382879257202,0.24562107026576996,0.3647282123565674,9.708206176757812,-23.370269775390625,36.760066986083984,0.18459120392799377,-0.2518777847290039,-0.0016023516654968262,-0.6294144988059998,9.50346565246582,-0.9072431325912476
8_20251106_181636,1762424159599,8,0.08398067206144333,0.06883259117603302,0.737718939781189,0.6663182973861694,0.11068527400493622,2.048651933670044,-1.124623417854309,-0.1551373451948166,9.368898391723633,-1.1961374282836914,0.07174988090991974,0.2236299365758896,0.4502493143081665,9.431476593017578,-23.302528381347656,36.93986129760742,0.37942177057266235,-0.10765361785888672,-0.231115460395813,-0.5345591306686401,9.47655200958252,-0.9650219678878784
8_20251106_181636,1762424159620,8,0.07955513894557953,0.07013080269098282,0.7380805611610413,0.6663255095481873,0.11068527400493622,2.048651933670044,-1.124623417854309,-0.1551373451948166,9.368898391723633,-1.1961374282836914,0.03937404975295067,0.1460501104593277,0.4905663728713989,9.164508819580078,-23.28368377685547,37.065025329589844,0.37942177057266235,-0.10765361785888672,-0.231115460395813,-0.5345591306686401,9.47655200958252,-0.9650219678878784
8_20251106_181636,1762424159639,8,0.07540208846330643,0.07273752242326736,0.7383880615234375,0.6661882996559143,0.12140767276287079,2.0423710346221924,-1.1358846426010132,0.4206433892250061,9.856098175048828,-1.1063586473464966,0.04120664298534393,0.09168316423892975,0.45391446352005005,8.882339477539062,-23.316123962402344,37.215675354003906,0.6465708017349243,0.28083229064941406,-0.08796560764312744,-0.22592738270759583,9.575265884399414,-1.0183930397033691
8_20251106_181636,1762424159657,8,0.07171078771352768,0.07592378556728363,0.7384951114654541,0.6661216616630554,0.1284920871257782,2.0409443378448486,-1.1404627561569214,0.41824930906295776,9.869264602661133,-0.9220130443572998,0.049758750945329666,0.11611774563789368,0.37572377920150757,8.602371215820312,-23.322372436523438,37.258724212646484,0.5153413414955139,0.235198974609375,0.07710397243499756,-0.09709204733371735,9.634065628051758,-0.9991170167922974
8_20251106_181636,1762424159676,8,0.0683051273226738,0.07871069014072418,0.7386189103126526,0.6660189032554626,0.13689512014389038,2.039952039718628,-1.144970178604126,0.37635254859924316,9.793851852416992,-0.9686979651451111,0.049758750945329666,0.11611774563789368,0.37572377920150757,8.284221649169922,-23.368003845214844,37.231929779052734,0.37875568866729736,0.12782859802246094,0.024335265159606934,-0.0024031326174736023,9.666023254394531,-0.993033230304718
8_20251106_181636,1762424159694,8,0.0643535926938057,0.08016853779554367,0.738514244556427,0.6663544774055481,0.14557325839996338,2.0394210815429688,-1.149467945098877,0.45056962966918945,9.813004493713379,-1.172196388244629,0.029600217938423157,0.24989710748195648,0.3311306834220886,8.027313232421875,-23.39764404296875,37.26191711425781,0.36237820982933044,0.1175851821899414,-0.14333045482635498,0.08819141983985901,9.695419311523438,-1.028865933418274
8_20251106_181636,1762424159714,8,0.05984090641140938,0.08065428584814072,0.738426923751831,0.6668130159378052,0.15623542666435242,2.03957462310791,-1.1547350883483887,0.5822451114654541,9.930315017700195,-1.1997284889221191,0.009441678412258625,0.34824633598327637,0.3183025121688843,7.693567276000977,-23.49510955810547,37.314674377441406,0.39524295926094055,0.18791675567626953,-0.13669002056121826,0.18700215220451355,9.742398262023926,-1.0630384683609009
8_20251106_181636,1762424159733,8,0.05573951080441475,0.0809425488114357,0.7382366061210632,0.6673440933227539,0.1668636053800583,2.040231943130493,-1.1589637994766235,0.5535158514976501,9.931511878967285,-0.8717369437217712,-0.024155881255865097,0.2120235115289688,0.3183025121688843,7.338565826416016,-23.54352569580078,37.32695770263672,0.2932109534740448,0.1512908935546875,0.15304118394851685,0.26030489802360535,9.780220985412598,-1.024778127670288
8_20251106_181636,1762424159753,8,0.052233994007110596,0.08192827552556992,0.7379628419876099,0.6678100228309631,0.1782703399658203,2.040759801864624,-1.1616464853286743,0.5164073705673218,9.737589836120605,-0.5162132978439331,-0.024155881255865097,0.2120235115289688,0.3183025121688843,7.031898498535156,-23.600921630859375,37.30038833618164,0.2048819661140442,-0.034104347229003906,0.4068518280982971,0.3115254044532776,9.77169418334961,-0.9230651259422302
8_20251106_181636,1762424159772,8,0.048714976757764816,0.08344145119190216,0.7379439473152161,0.6679095029830933,0.1782703399658203,2.040759801864624,-1.1616464853286743,0.5164073705673218,9.737589836120605,-0.5162132978439331,0.033876266330480576,0.17353902757167816,0.3586195707321167,6.739841461181641,-23.607833862304688,37.329429626464844,0.2048819661140442,-0.034104347229003906,0.4068518280982971,0.3115254044532776,9.77169418334961,-0.9230651259422302
8_20251106_181636,1762424159791,8,0.04444069787859917,0.08500786870718002,0.7385033965110779,0.6673914790153503,0.2004149705171585,2.0394673347473145,-1.164019227027893,0.65047687292099,9.32819938659668,-0.8070963025093079,0.2537875771522522,0.2688339352607727,0.4520818889141083,6.423610687255859,-23.616065979003906,37.33045959472656,0.23359188437461853,-0.3196525573730469,0.028444945812225342,0.41688498854637146,9.647851943969727,-0.8355412483215332
8_20251106_181636,1762424159811,8,0.03952096775174141,0.08664513379335403,0.7397594451904297,0.6660981178283691,0.2004149705171585,2.0394673347473145,-1.164019227027893,0.65047687292099,9.32819938659668,-0.8070963025093079,0.3301456570625305,0.3103727102279663,0.4667426347732544,6.00587272644043,-23.694107055664062,37.39382553100586,0.23359188437461853,-0.3196525573730469,0.028444945812225342,0.41688498854637146,9.647851943969727,-0.8355412483215332
8_20251106_181636,1762424159830,8,0.034107405692338943,0.08811993151903152,0.7415262460708618,0.6642367243766785,0.21311655640602112,2.036823034286499,-1.1662591695785522,0.7031470537185669,9.231237411499023,-1.1578316688537598,0.3454172909259796,0.326866090297699,0.45330363512039185,5.607271194458008,-23.645919799804688,37.473838806152344,0.2290096879005432,-0.33329200744628906,-0.2578323483467102,0.4741373658180237,9.564529418945312,-0.8999993205070496
8_20251106_181636,1762424159849,8,0.02863958291709423,0.08938484638929367,0.7434306740760803,0.662194013595581,0.2356109917163849,2.0291590690612793,-1.1732374429702759,0.8455959558486938,8.929580688476562,-1.4403355121612549,0.31731751561164856,0.3091509938240051,0.454525351524353,5.232139587402344,-23.608970642089844,37.581600189208984,0.24730992317199707,-0.43643760681152344,-0.35615766048431396,0.5982860326766968,9.366018295288086,-1.084177851676941
8_20251106_181636,1762424159867,8,0.023329084739089012,0.09078529477119446,0.7451504468917847,0.6602761745452881,0.2356109917163849,2.0291590690612793,-1.1732374429702759,0.8455959558486938,8.929580688476562,-1.4403355121612549,0.2910503149032593,0.28227293491363525,0.48934465646743774,4.834848403930664,-23.535804748535156,37.6756591796875,0.24730992317199707,-0.43643760681152344,-0.35615766048431396,0.5982860326766968,9.366018295288086,-1.084177851676941
8_20251106_181636,1762424159885,8,0.018048405647277832,0.09262990206480026,0.7466428875923157,0.6584970355033875,0.24922625720500946,2.022111654281616,-1.1785411834716797,0.9198129773139954,8.718900680541992,-1.3625272512435913,0.23240730166435242,0.3103727102279663,0.5748656988143921,4.3826751708984375,-23.35399627685547,37.81018829345703,0.257221519947052,-0.5176935195922852,-0.2226794958114624,0.6625914573669434,9.236594200134277,-1.139847755432129
8_20251106_181636,1762424159904,8,0.01201951876282692,0.09482037276029587,0.7476598620414734,0.6571676731109619,0.27305158972740173,2.0070478916168213,-1.1868396997451782,1.2394251823425293,8.50103759765625,-0.9914419054985046,0.20125320553779602,0.3311421275138855,0.6658845543861389,3.9261741638183594,-23.247665405273438,37.95664978027344,0.40384018421173096,-0.49163246154785156,0.13500899076461792,0.8355849981307983,8.992670059204102,-1.1264508962631226
8_20251106_181636,1762424159924,8,0.00526879308745265,0.09748154878616333,0.7483464479446411,0.6560847163200378,0.27305158972740173,2.0070478916168213,-1.1868396997451782,1.2394251823425293,8.50103759765625,-0.9914419054985046,0.265394002199173,0.3910068869590759,0.767288088798523,3.42333984375,-23.10643768310547,38.06139373779297,0.40384018421173096,-0.49163246154785156,0.13500899076461792,0.8355849981307983,8.992670059204102,-1.1264508962631226
8_20251106_181636,1762424159943,8,0.002582975896075368,-0.10054675489664078,-0.7492427825927734,-0.6546135544776917,0.3041456937789917,1.9838507175445557,-1.1939713954925537,1.7828856706619263,8.082070350646973,-1.2296547889709473,0.265394002199173,0.3910068869590759,0.767288088798523,2.908529281616211,-22.954124450683594,38.23349380493164,0.6568359136581421,-0.6061496734619141,-0.11297488212585449,1.1260497570037842,8.688220024108887,-1.1166799068450928
8_20251106_181636,1762424159963,8,0.011175551451742649,-0.10451360046863556,-0.7508942484855652,-0.6520044803619385,0.3230139911174774,1.968895673751831,-1.1987509727478027,2.1001036167144775,7.74091100692749,-1.5109612941741943,0.4168884754180908,0.3812330365180969,0.8772437572479248,2.408823013305664,-22.750648498535156,38.39362335205078,0.7792431116104126,-0.7578473091125488,-0.31542515754699707,1.320860505104065,8.498758316040039,-1.1955361366271973
8_20251106_181636,1762424159983,8,0.02004954032599926,-0.10916532576084137,-0.7530737519264221,-0.6485066413879395,0.3443267047405243,1.9522062540054321,-1.2061536312103271,2.4352774620056152,7.682255744934082,-2.1370179653167725,0.5525004267692566,0.3201465606689453,1.0067471265792847,1.8740673065185547,-22.524307250976562,38.53929138183594,0.891533613204956,-0.6532020568847656,-0.753185510635376,1.5437438488006592,8.335457801818848,-1.3838324546813965
8_20251106_181636,1762424160001,8,0.02915719896554947,-0.11454090476036072,-0.7553277611732483,-0.6446008086204529,0.3656286895275116,1.9358360767364502,-1.2147325277328491,2.7943921089172363,7.482348442077637,-2.2974226474761963,0.5525004267692566,0.3201465606689453,1.0067471265792847,1.8740673065185547,-22.524307250976562,38.53929138183594,1.000518560409546,-0.6824874877929688,-0.7308721542358398,1.7938735485076904,8.164835929870605,-1.5665504932403564
8_20251106_181636,1762424160019,8,0.037882912904024124,-0.12027137726545334,-0.7575551867485046,-0.6404762864112854,0.3891368806362152,1.9179259538650513,-1.225327730178833,3.1223840713500977,7.207027435302734,-2.5595765113830566,0.4743097424507141,0.3574092984199524,0.9731495380401611,1.3427238464355469,-22.246932983398438,38.60491943359375,1.0628085136413574,-0.7662467956542969,-0.7944207191467285,2.0595755577087402,7.973274230957031,-1.7651557922363281
8_20251106_181636,1762424160039,8,0.046904057264328,-0.12541252374649048,-0.75922030210495,-0.6369115114212036,0.41847753524780273,1.897007942199707,-1.239774465560913,3.5485334396362305,7.3111701011657715,-2.838489055633545,0.2800547480583191,0.43132394552230835,0.9780364036560059,0.7660617828369141,-21.910079956054688,38.68342208862305,1.1911664009094238,-0.5296835899353027,-0.8586666584014893,2.3573670387268066,7.840853691101074,-1.9798223972320557
8_20251106_181636,1762424160059,8,0.0563436783850193,-0.130195751786232,-0.7596160173416138,-0.634710967540741,0.41847753524780273,1.897007942199707,-1.239774465560913,3.5485334396362305,7.3111701011657715,-2.838489055633545,-0.04064922779798508,0.40016984939575195,1.033014178276062,0.1723785400390625,-21.661788940429688,38.74606704711914,1.1911664009094238,-0.5296835899353027,-0.8586666584014893,2.3573670387268066,7.840853691101074,-1.9798223972320557
8_20251106_181636,1762424160077,8,0.06548546254634857,-0.13580700755119324,-0.7579510807991028,-0.6346480846405029,0.48237377405166626,1.8596469163894653,-1.271009087562561,4.138678550720215,7.979124069213867,-2.3907926082611084,-0.3063753843307495,0.24623192846775055,1.1331959962844849,-0.4197959899902344,-21.38825225830078,38.79572677612305,1.185814380645752,0.13254451751708984,-0.18775033950805664,2.952864170074463,7.846579551696777,-2.2030422687530518
8_20251106_181636,1762424160097,8,0.07379358261823654,-0.1431885063648224,-0.7545462250709534,-0.63616943359375,0.5182432532310486,1.8435029983520508,-1.2844115495681763,4.564828395843506,8.168257713317871,-1.720444917678833,-0.38273346424102783,0.08740711212158203,1.2462060451507568,-1.0639419555664062,-21.180274963378906,38.80155563354492,1.2895715236663818,0.2573423385620117,0.386077880859375,3.275256872177124,7.910915374755859,-2.106522798538208
8_20251106_181636,1762424160115,8,0.08139190822839737,-0.15252509713172913,-0.750408947467804,-0.6379638314247131,0.5573450922966003,1.8290168046951294,-1.2950468063354492,5.107091903686523,8.220928192138672,-1.342177391052246,-0.38273346424102783,0.08740711212158203,1.2462060451507568,-1.6967182159423828,-20.995803833007812,38.72624969482422,1.465467929840088,0.24801015853881836,0.6114763021469116,3.6416239738464355,7.9729180335998535,-1.9536536931991577
8_20251106_181636,1762424160136,8,0.08877331763505936,-0.16324776411056519,-0.7465972900390625,-0.6387972831726074,0.5998261570930481,1.816552758216858,-1.303751826286316,5.585911750793457,8.445972442626953,-1.4439265727996826,-0.1475505530834198,-0.16488002240657806,1.4074742794036865,-2.3177051544189453,-20.811080932617188,38.70549774169922,1.5554304122924805,0.37844371795654297,0.407781720161438,4.030481338500977,8.06752872467041,-1.8517082929611206
8_20251106_181636,1762424160153,8,0.09598686546087265,-0.17501585185527802,-0.743384063243866,-0.638385534286499,0.6453275680541992,1.8059144020080566,-1.3112213611602783,5.905523300170898,8.505825996398926,-1.5600404739379883,-0.04920133203268051,-0.24245984852313995,1.3744876384735107,-2.9211692810058594,-20.75006866455078,38.65605545043945,1.5000338554382324,0.35063838958740234,0.23333430290222168,4.405489444732666,8.155187606811523,-1.79337477684021
8_20251106_181636,1762424160173,8,0.10261210054159164,-0.18691618740558624,-0.7407419681549072,-0.6370513439178467,0.695891261100769,1.796309232711792,-1.3190696239471436,6.070716381072998,8.495052337646484,-1.91795814037323,-0.047979604452848434,-0.21130575239658356,1.2572015523910522,-3.539949417114258,-20.752098083496094,38.55073547363281,1.332181453704834,0.27189159393310547,-0.09966671466827393,4.738534927368164,8.223160743713379,-1.818291425704956
8_20251106_181636,1762424160192,8,0.10871611535549164,-0.19778284430503845,-0.7381528615951538,-0.6357617974281311,0.7456660270690918,1.788370132446289,-1.32776939868927,6.247879981994629,8.489067077636719,-2.4075512886047363,-0.22574123740196228,-0.22535564005374908,1.1600741147994995,-4.065568923950195,-20.82324981689453,38.461273193359375,1.2074761390686035,0.2127246856689453,-0.4714078903198242,5.040403842926025,8.276342391967773,-1.936143398284912
8_20251106_181636,1762424160211,8,0.11372940987348557,-0.2082335501909256,-0.7346155643463135,-0.6356449127197266,0.7969348430633545,1.7820028066635132,-1.3369662761688232,6.492077827453613,8.704536437988281,-2.2758758068084717,-0.22574123740196228,-0.22535564005374908,1.1600741147994995,-4.517070770263672,-20.876670837402344,38.334468841552734,1.1613388061523438,0.34255504608154297,-0.2717859745025635,5.3307390213012695,8.361981391906738,-2.004089832305908
8_20251106_181636,1762424160230,8,0.11717633157968521,-0.21988080441951752,-0.7295259833335876,-0.6369568109512329,0.7969348430633545,1.7820028066635132,-1.3369662761688232,6.492077827453613,8.704536437988281,-2.2758758068084717,-0.6991614103317261,-0.530788004398346,1.1722913980484009,-4.93412971496582,-20.96538543701172,38.208343505859375,1.1613388061523438,0.34255504608154297,-0.2717859745025635,5.3307390213012695,8.361981391906738,-2.004089832305908
8_20251106_181636,1762424160251,8,0.11913105845451355,-0.2326420247554779,-0.7232454419136047,-0.6392194628715515,0.909581184387207,1.7735480070114136,-1.3515338897705078,6.961320877075195,8.891276359558105,-1.187757968902588,-0.6991614103317261,-0.530788004398346,1.1722913980484009,-5.268100738525391,-21.086341857910156,38.0983772277832,1.0772809982299805,0.35234737396240234,0.6207062005996704,5.884039878845215,8.538928985595703,-1.8084641695022583
8_20251106_181636,1762424160269,8,0.11957955360412598,-0.2454608678817749,-0.7169567346572876,-0.64142245054245,0.961449384689331,1.7716983556747437,-1.3547465801239014,7.191154479980469,8.978660583496094,-1.0704472064971924,-0.6838898062705994,-0.7042735815048218,0.8906827569007874,-5.446781158447266,-21.25922393798828,37.93939971923828,1.0456914901733398,0.35178565979003906,0.5904135704040527,6.145462989807129,8.626874923706055,-1.6608607769012451
8_20251106_181636,1762424160288,8,0.11866472661495209,-0.25712406635284424,-0.7111735939979553,-0.6434578895568848,1.0162944793701172,1.7710124254226685,-1.356696367263794,7.177987098693848,9.052877426147461,-1.1973344087600708,-0.6838898062705994,-0.7042735815048218,0.8906827569007874,-5.533414840698242,-21.52593231201172,37.75520324707031,0.826019287109375,0.3408021926879883,0.37082111835479736,6.351967811584473,8.712075233459473,-1.5681555271148682
8_20251106_181636,1762424160307,8,0.11609968543052673,-0.2669752836227417,-0.7058111429214478,-0.6458140015602112,1.0702104568481445,1.772018313407898,-1.3578991889953613,7.012794494628906,9.316228866577148,-1.3314039707183838,-0.8213343620300293,-0.6352458596229553,0.34151536226272583,-5.581995010375977,-21.776626586914062,37.4646110534668,0.5286612510681152,0.4833230972290039,0.1894012689590454,6.484133243560791,8.832905769348145,-1.5208052396774292
8_20251106_181636,1762424160326,8,0.1118069663643837,-0.2746270000934601,-0.7002742290496826,-0.649380624294281,1.119405746459961,1.7736598253250122,-1.357896327972412,6.756626129150391,9.131882667541504,-1.0800235271453857,-0.8213343620300293,-0.6352458596229553,0.34151536226272583,-5.573663711547852,-22.086807250976562,37.242733001708984,0.21799421310424805,0.2391815185546875,0.35262537002563477,6.538631916046143,8.892701148986816,-1.4326488971710205
8_20251106_181636,1762424160345,8,0.1055559515953064,-0.2807730734348297,-0.6944717764854431,-0.6540132761001587,1.1709669828414917,1.7753409147262573,-1.355831503868103,6.417860984802246,8.875714302062988,-0.754426121711731,-0.9679418802261353,-0.650517463684082,0.10266726464033127,-5.366640090942383,-22.54578399658203,36.931148529052734,-0.09661674499511719,-0.013589859008789062,0.5425782203674316,6.514477729797363,8.889304161071777,-1.2970043420791626
8_20251106_181636,1762424160363,8,0.09799832850694656,-0.2864561080932617,-0.6886032223701477,-0.6589118242263794,1.1709669828414917,1.7753409147262573,-1.355831503868103,6.417860984802246,8.875714302062988,-0.754426121711731,-1.043689250946045,-0.798346757888794,-0.05249236524105072,-5.114805221557617,-23.076522827148438,36.57939147949219,-0.09661674499511719,-0.013589859008789062,0.5425782203674316,6.514477729797363,8.889304161071777,-1.2970043420791626
8_20251106_181636,1762424160383,8,0.08951029926538467,-0.29245561361312866,-0.6826445460319519,-0.6636671423912048,1.2574348449707031,1.7759158611297607,-1.343714714050293,5.777439117431641,8.408864974975586,0.020064838230609894,-1.0070372819900513,-0.8655418157577515,-0.020727403461933136,-4.681999206542969,-23.632614135742188,36.19364929199219,-0.5146064758300781,-0.34885120391845703,0.8913809061050415,6.292045593261719,8.757716178894043,-0.8713160753250122
8_20251106_181636,1762424160403,8,0.08092764019966125,-0.2988669276237488,-0.6767695546150208,-0.6679163575172424,1.2964138984680176,1.7740670442581177,-1.3335158824920654,5.554788112640381,8.259233474731445,0.026050083339214325,-1.0070372819900513,-0.8655418157577515,-0.020727403461933136,-4.681999206542969,-23.632614135742188,36.19364929199219,-0.589806079864502,-0.3987865447998047,0.7178929448127747,6.144594192504883,8.65802001953125,-0.6918428540229797
8_20251106_181636,1762424160421,8,0.07258246093988419,-0.3059861361980438,-0.6709685325622559,-0.6714949607849121,1.3265178203582764,1.7714589834213257,-1.3235774040222168,5.520073890686035,8.15030288696289,0.0835084468126297,-0.9441182017326355,-0.9192979335784912,0.13382135331630707,-4.250490188598633,-24.202072143554688,35.88874435424805,-0.4996166229248047,-0.4061737060546875,0.6202810406684875,6.01969051361084,8.556476593017578,-0.536772608757019
8_20251106_181636,1762424160440,8,0.06482841074466705,-0.31346890330314636,-0.6648982763290405,-0.6748664975166321,1.3590703010559082,1.7675422430038452,-1.3104894161224365,5.660128593444824,8.226913452148438,0.11463172733783722,-0.9795482754707336,-0.9223523139953613,0.14481692016124725,-3.706697463989258,-24.726036071777344,35.521461486816406,-0.28764963150024414,-0.26365089416503906,0.521123468875885,5.947778224945068,8.490564346313477,-0.406491756439209
8_20251106_181636,1762424160459,8,0.05692308023571968,-0.32109877467155457,-0.6584199666976929,-0.6783350706100464,1.3872820138931274,1.7626731395721436,-1.2976123094558716,5.522468090057373,8.00426197052002,-0.018240749835968018,-0.9990959763526917,-0.9858821630477905,0.11183024197816849,-3.178121566772461,-25.312904357910156,35.08478927612305,-0.34024810791015625,-0.3890419006347656,0.31060081720352173,5.862716197967529,8.393303871154785,-0.32884156703948975
8_20251106_181636,1762424160479,8,0.048352934420108795,-0.32889318466186523,-0.6518331170082092,-0.6816192865371704,1.4134513139724731,1.7566614151000977,-1.2833287715911865,5.190885543823242,8.01742935180664,0.13378451764583588,-0.9990959763526917,-0.9858821630477905,0.11183024197816849,-2.591928482055664,-25.94670867919922,34.71709442138672,-0.5374646186828613,-0.30069923400878906,0.37010088562965393,5.7283501625061035,8.31812858581543,-0.23631636798381805
8_20251106_181636,1762424160498,8,0.039206840097904205,-0.3369348347187042,-0.644705057144165,-0.6850497126579285,1.4134513139724731,1.7566614151000977,-1.2833287715911865,5.190885543823242,8.01742935180664,0.13378451764583588,-1.1701381206512451,-0.9889365434646606,0.13015617430210114,-1.9577102661132812,-26.60150146484375,34.25621795654297,-0.5374646186828613,-0.30069923400878906,0.37010088562965393,5.7283501625061035,8.31812858581543,-0.23631636798381805
8_20251106_181636,1762424160518,8,0.030172374099493027,-0.34469255805015564,-0.6367639899253845,-0.6890633702278137,1.4559473991394043,1.745530128479004,-1.249566912651062,5.236372947692871,8.55610179901123,1.093818187713623,-1.2428309917449951,-0.8875329494476318,0.1527581661939621,-1.3097972869873047,-27.230255126953125,33.78284454345703,-0.28900909423828125,0.21435832977294922,0.9313448071479797,5.525382041931152,8.341743469238281,0.16247336566448212
8_20251106_181636,1762424160536,8,0.02175431326031685,-0.35168397426605225,-0.6281311511993408,-0.6937552690505981,1.4735201597213745,1.7426506280899048,-1.2300153970718384,5.492541790008545,8.959507942199707,1.6468548774719238,-1.2446637153625488,-0.8740939497947693,0.12221493571996689,-0.6506137847900391,-27.882652282714844,33.241851806640625,-0.026272296905517578,0.49421215057373047,1.1875052452087402,5.5188140869140625,8.465295791625977,0.4593496322631836
8_20251106_181636,1762424160555,8,0.01320199016481638,-0.3582755923271179,-0.6194010376930237,-0.6984316110610962,1.4907346963882446,1.7410632371902466,-1.2067574262619019,5.3704423904418945,8.939157485961914,1.7905008792877197,-1.0766758918762207,-0.917465329170227,0.01714620739221573,-0.1147003173828125,-28.56810760498047,32.69542694091797,-0.1186976432800293,0.37908935546875,1.0649210214614868,5.489140033721924,8.560068130493164,0.7255798578262329
8_20251106_181636,1762424160573,8,0.004301856737583876,-0.3643769919872284,-0.6119767427444458,-0.701922595500946,1.4907346963882446,1.7410632371902466,-1.2067574262619019,5.3704423904418945,8.939157485961914,1.7905008792877197,-0.9435073137283325,-0.8777591586112976,-0.141067773103714,0.4938087463378906,-29.27269744873047,32.02976989746094,-0.1186976432800293,0.37908935546875,1.0649210214614868,5.489140033721924,8.560068130493164,0.7255798578262329
8_20251106_181636,1762424160593,8,0.004940125625580549,0.3691735565662384,0.6059072017669678,0.7046722173690796,1.505682349205017,1.739938497543335,-1.1825320720672607,4.9766130447387695,8.699748039245605,1.502012014389038,-0.9874895215034485,-0.7158800363540649,-0.274236261844635,1.125478744506836,-30.00054168701172,31.33753204345703,-0.4100217819213867,0.11174392700195312,0.6211457252502441,5.386634826660156,8.588004112243652,0.880866289138794
8_20251106_181636,1762424160613,8,0.01433421578258276,0.3720717430114746,0.6000000834465027,0.7080656886100769,1.525438666343689,1.7378478050231934,-1.1338015794754028,4.077629089355469,8.714112281799316,1.394277572631836,-1.192129373550415,-0.5558334589004517,-0.3060012459754944,1.7617855072021484,-30.640892028808594,30.68769073486328,-0.8898591995239258,0.10828971862792969,0.37301766872406006,4.9674882888793945,8.605822563171387,1.0212599039077759
8_20251106_181636,1762424160634,8,0.023944826796650887,0.373725026845932,0.5927937030792236,0.712988018989563,1.5304111242294312,1.7381961345672607,-1.1079225540161133,4.090796947479248,9.008586883544922,2.228621006011963,-1.289867639541626,-0.45687335729599,-0.31272074580192566,2.457612991333008,-31.302383422851562,30.039775848388672,-0.7013530731201172,0.32221126556396484,0.9658888578414917,4.792150020599365,8.686375617980957,1.2627321481704712
8_20251106_181636,1762424160653,8,0.03329158201813698,0.3743981719017029,0.5849533677101135,0.7187122106552124,1.5333303213119507,1.738993525505066,-1.0818904638290405,4.160225868225098,8.882896423339844,2.3758583068847656,-1.2196182012557983,-0.46420371532440186,-0.306001216173172,3.0667285919189453,-31.994552612304688,29.387897491455078,-0.5055394172668457,0.15721702575683594,0.8905010223388672,4.665765285491943,8.725679397583008,1.4853572845458984
8_20251106_181636,1762424160670,8,0.042321935296058655,0.3749833405017853,0.5774061679840088,0.724015474319458,1.534540057182312,1.7402476072311401,-1.0525492429733276,4.050097465515137,8.861350059509277,2.098142623901367,-1.116382122039795,-0.5821006298065186,-0.2546885907649994,3.7004146575927734,-32.68486022949219,28.70996856689453,-0.49253416061401367,0.1085367202758789,0.4902282953262329,4.54263162612915,8.752813339233398,1.6079143285751343
8_20251106_181636,1762424160689,8,0.051213182508945465,0.37665650248527527,0.5702403783798218,0.7282396554946899,1.533869981765747,1.7426854372024536,-1.0246121883392334,3.900465965270996,9.228843688964844,2.1388423442840576,-1.122490644454956,-0.6279155015945435,-0.26079726219177246,4.385763168334961,-33.321632385253906,28.021541595458984,-0.5137324333190918,0.38082408905029297,0.42474234104156494,4.414198398590088,8.84801959991455,1.7141000032424927
8_20251106_181636,1762424160709,8,0.06055813282728195,0.37870246171951294,0.5629350543022156,0.7321346998214722,1.5306919813156128,1.7469323873519897,-0.9945541620254517,3.589233160018921,9.443116188049316,2.411769390106201,-1.2458853721618652,-0.5002447366714478,-0.34876173734664917,5.049966812133789,-33.897605895996094,27.374000549316406,-0.6599719524383545,0.4760770797729492,0.5581355094909668,4.249205112457275,8.967039108276367,1.8536338806152344
8_20251106_181636,1762424160726,8,0.07032963633537292,0.3792366087436676,0.5551056265830994,0.7369471192359924,1.5306919813156128,1.7469323873519897,-0.9945541620254517,3.589233160018921,9.443116188049316,2.411769390106201,-1.2825372219085693,-0.42327582836151123,-0.38663536310195923,5.755550384521484,-34.395050048828125,26.648418426513672,-0.6599719524383545,0.4760770797729492,0.5581355094909668,4.249205112457275,8.967039108276367,1.8536338806152344
8_20251106_181636,1762424160746,8,0.07997792959213257,0.3787629306316376,0.5472031831741333,0.7420989274978638,1.5260519981384277,1.751806616783142,-0.9662362933158875,3.4683310985565186,9.471845626831055,2.916924476623535,-1.2825372219085693,-0.42327582836151123,-0.38663536310195923,6.409358978271484,-34.95777893066406,25.851974487304688,-0.6246993541717529,0.40384578704833984,0.8506324291229248,4.0930304527282715,9.067999839782715,2.0662920475006104
8_20251106_181636,1762424160765,8,0.08911066502332687,0.3785378932952881,0.5400643348693848,0.7463905215263367,1.511274814605713,1.767015814781189,-0.9044056534767151,3.1283693313598633,10.054807662963867,2.999520778656006,-0.9771048426628113,-0.46970152854919434,-0.3463183045387268,6.985626220703125,-35.60088348388672,25.07803726196289,-0.6512835025787354,0.6710119247436523,0.5645151138305664,3.7796528339385986,9.383795738220215,2.4350056648254395
8_20251106_181636,1762424160784,8,0.09777115285396576,0.37874770164489746,0.5338662266731262,0.7496517896652222,1.511274814605713,1.767015814781189,-0.9044056534767151,3.1283693313598633,10.054807662963867,2.999520778656006,-0.875701367855072,-0.46847978234291077,-0.30783382058143616,7.56732177734375,-36.155418395996094,24.238365173339844,-0.6512835025787354,0.6710119247436523,0.5645151138305664,3.7796528339385986,9.383795738220215,2.4350056648254395
8_20251106_181636,1762424160802,8,0.10565824061632156,0.3790920376777649,0.5283516645431519,0.7523097991943359,1.4890474081039429,1.785090684890747,-0.8448419570922852,2.8554420471191406,9.200115203857422,1.989211082458496,-0.7791846394538879,-0.47458845376968384,-0.19482386112213135,8.227165222167969,-36.617149353027344,23.389965057373047,-0.6117968559265137,-0.2069988250732422,-0.39026594161987305,3.4672389030456543,9.407114028930664,2.379477024078369
8_20251106_181636,1762424160823,8,0.11247207224369049,0.38022369146347046,0.52308189868927,0.7544304132461548,1.4890474081039429,1.785090684890747,-0.8448419570922852,2.8554420471191406,9.200115203857422,1.989211082458496,-0.7761303782463074,-0.49963387846946716,-0.0225600004196167,8.81741714477539,-37.02086639404297,22.53994369506836,-0.6117968559265137,-0.2069988250732422,-0.39026594161987305,3.4672389030456543,9.407114028930664,2.379477024078369
8_20251106_181636,1762424160842,8,0.11822526156902313,0.3825445771217346,0.517167329788208,0.7564525008201599,1.4609448909759521,1.7980399131774902,-0.794528067111969,3.0134525299072266,9.064847946166992,1.959284782409668,-0.817669153213501,-0.4868057370185852,0.12282580137252808,9.330337524414062,-37.493072509765625,21.7802734375,-0.2643752098083496,-0.20449447631835938,-0.23540568351745605,3.277827739715576,9.269342422485352,2.194690465927124
8_20251106_181636,1762424160861,8,0.12311316281557083,0.3855401873588562,0.5103700160980225,0.7587649822235107,1.4483742713928223,1.803910493850708,-0.7724166512489319,3.3474292755126953,9.469450950622559,2.368675708770752,-0.817669153213501,-0.4868057370185852,0.12282580137252808,9.330337524414062,-37.493072509765625,21.7802734375,0.05568122863769531,0.16008663177490234,0.13918805122375488,3.291748046875,9.309364318847656,2.229487657546997
8_20251106_181636,1762424160879,8,0.1272761970758438,0.3882156014442444,0.5033127069473267,0.7614234685897827,1.438008427619934,1.8107141256332397,-0.7513394355773926,3.6766176223754883,9.92672348022461,2.7074408531188965,-0.8311082124710083,-0.4153345823287964,0.17658188939094543,9.810619354248047,-37.904335021972656,20.966384887695312,0.3078956604003906,0.49388694763183594,0.38236260414123535,3.3687219619750977,9.432836532592773,2.325078248977661
8_20251106_181636,1762424160900,8,0.13120970129966736,0.389801025390625,0.4964643716812134,0.7644359469413757,1.4279688596725464,1.8202712535858154,-0.7249360680580139,3.8011107444763184,10.03445816040039,3.232945442199707,-0.7932345867156982,-0.24795763194561005,0.03852647542953491,10.191608428955078,-38.34761047363281,20.202110290527344,0.34591102600097656,0.48129749298095703,0.7262938022613525,3.455199718475342,9.553160667419434,2.5066516399383545
8_20251106_181636,1762424160919,8,0.13536237180233002,0.39054033160209656,0.4902975261211395,0.7673093676567078,1.4200422763824463,1.8292546272277832,-0.6997958421707153,3.711332321166992,9.833353996276855,3.3981382846832275,-0.6857224106788635,-0.18626029789447784,-0.058601014316082,10.475334167480469,-38.77374267578125,19.596637725830078,0.20490598678588867,0.22415447235107422,0.7131893634796143,3.5064263343811035,9.609199523925781,2.6849489212036133
8_20251106_181636,1762424160937,8,0.1395222693681717,0.3904459774494171,0.4852735698223114,0.769801914691925,1.4131240844726562,1.8367714881896973,-0.6760442852973938,3.5940213203430176,9.378475189208984,3.141969680786133,-0.5769885182380676,-0.12944985926151276,-0.13373738527297974,10.830039978027344,-39.03144836425781,18.875404357910156,0.07007598876953125,-0.18457984924316406,0.3656165599822998,3.5239453315734863,9.563055038452148,2.776353120803833
8_20251106_181636,1762424160956,8,0.14326776564121246,0.3895237445831299,0.48150962591171265,0.7719417810440063,1.4060438871383667,1.8419735431671143,-0.6525866389274597,3.4719223976135254,8.71171760559082,2.6451940536499023,-0.5006303787231445,-0.10929133743047714,-0.14778727293014526,11.133590698242188,-39.330406188964844,18.19196319580078,-0.04161834716796875,-0.6810703277587891,-0.10492706298828125,3.513540744781494,9.39278793334961,2.7501211166381836
8_20251106_181636,1762424160975,8,0.14696602523326874,0.3886915147304535,0.478259801864624,0.7736843228340149,1.398891568183899,1.8440550565719604,-0.6313713788986206,3.3582024574279785,8.350210189819336,2.3602964878082275,-0.5220106244087219,-0.15938223898410797,-0.10380501300096512,11.352954864501953,-39.61021423339844,17.546165466308594,-0.12427067756652832,-0.8340616226196289,-0.3118596076965332,3.482473134994507,9.184271812438965,2.6721560955047607
8_20251106_181636,1762424160995,8,0.1507069170475006,0.3885403871536255,0.4745847284793854,0.7753019332885742,1.3909757137298584,1.8437429666519165,-0.6098232269287109,3.2313153743743896,8.396894454956055,2.7816576957702637,-0.6313554048538208,-0.17526473104953766,-0.07326177507638931,11.527294158935547,-39.83014678955078,16.872692108154297,-0.2009263038635254,-0.6299018859863281,0.0876011848449707,3.432241678237915,9.026796340942383,2.694056510925293
8_20251106_181636,1762424161013,8,0.15472252666950226,0.38854551315307617,0.46995729207992554,0.7773245573043823,1.3835949897766113,1.8426884412765503,-0.5893769860267639,3.1834335327148438,8.706930160522461,3.515449047088623,-0.7626913189888,-0.07813723385334015,-0.06959658116102219,11.963626861572266,-39.97235107421875,16.277355194091797,-0.19904661178588867,-0.2558927536010742,0.6571140289306641,3.3824801445007324,8.962822914123535,2.858335018157959
8_20251106_181636,1762424161032,8,0.15883155167102814,0.38759732246398926,0.4644129276275635,0.7802957892417908,1.3759695291519165,1.8414051532745361,-0.56522536277771,3.30074405670166,8.880502700805664,4.188190460205078,-0.7950671315193176,0.028764095157384872,-0.05249237269163132,12.162239074707031,-40.190826416015625,15.618378639221191,-0.06538891792297363,-0.0658559799194336,1.0638842582702637,3.366132974624634,8.946358680725098,3.1243062019348145
8_20251106_181636,1762424161052,8,0.16232529282569885,0.385657399892807,0.458730548620224,0.7838910222053528,1.3687456846237183,1.8408787250518799,-0.537348210811615,3.4982573986053467,9.19532585144043,4.34979248046875,-0.7950671315193176,0.028764095157384872,-0.05249237269163132,12.377071380615234,-40.33343505859375,14.988511085510254,0.10569953918457031,0.1991739273071289,0.9803891181945801,3.3925578594207764,8.9961519241333,3.36940336227417
8_20251106_181636,1762424161070,8,0.16517122089862823,0.3831595480442047,0.4536580443382263,0.7874652743339539,1.3687456846237183,1.8408787250518799,-0.537348210811615,3.4982573986053467,9.19532585144043,4.34979248046875,-0.6362423300743103,0.12466984987258911,-0.08181387931108475,12.561180114746094,-40.37770080566406,14.332249641418457,0.10569953918457031,0.1991739273071289,0.9803891181945801,3.3925578594207764,8.9961519241333,3.36940336227417
8_20251106_181636,1762424161091,8,0.16790086030960083,0.3805614113807678,0.4492972195148468,0.790641725063324,1.357297658920288,1.8431073427200317,-0.48136278986930847,3.522198438644409,9.398824691772461,4.185796737670898,-0.5415583252906799,0.13627628982067108,-0.13434825837612152,12.729888916015625,-40.47352600097656,13.728508949279785,0.0737767219543457,0.2548379898071289,0.5023813247680664,3.4484217166900635,9.143986701965332,3.683415412902832
8_20251106_181636,1762424161109,8,0.1706792563199997,0.3778481185436249,0.445854127407074,0.7932928204536438,1.3518061637878418,1.8448567390441895,-0.454316645860672,3.3306705951690674,9.251587867736816,3.8051350116729736,-0.5415583252906799,0.13627628982067108,-0.13434825837612152,12.813407897949219,-40.56316375732422,13.2026948928833,-0.09420084953308105,0.08608150482177734,0.09737563133239746,3.4248714447021484,9.165506362915039,3.707759380340576
8_20251106_181636,1762424161129,8,0.17353518307209015,0.37434113025665283,0.4433264136314392,0.7957487106323242,1.3457592725753784,1.8461735248565674,-0.4284246265888214,3.1223838329315186,9.039709091186523,3.779996871948242,-0.4352678060531616,0.28288382291793823,-0.2956165075302124,12.933372497558594,-40.66217041015625,12.596991539001465,-0.2419900894165039,-0.10063743591308594,0.05779004096984863,3.3643739223480225,9.14034652709961,3.7222068309783936
8_20251106_181636,1762424161147,8,0.17648112773895264,0.3700391948223114,0.44159671664237976,0.7980712652206421,1.3388384580612183,1.846468448638916,-0.40360623598098755,2.9356441497802734,8.79192066192627,3.802741050720215,-0.3692944347858429,0.41116541624069214,-0.347540020942688,13.079143524169922,-40.71124267578125,12.1825532913208,-0.3429839611053467,-0.27874088287353516,0.06442737579345703,3.27862811088562,9.070661544799805,3.738313674926758
8_20251106_181636,1762424161166,8,0.17914533615112305,0.36469605565071106,0.44071298837661743,0.8004222512245178,1.3314605951309204,1.8453238010406494,-0.38006219267845154,2.9859201908111572,8.551313400268555,3.7261295318603516,-0.2617822289466858,0.5333383679389954,-0.3725854754447937,13.242839813232422,-40.658935546875,11.75719928741455,-0.23416638374328613,-0.4154787063598633,-0.00974726676940918,3.2200865745544434,8.966792106628418,3.7358767986297607
8_20251106_181636,1762424161185,8,0.18107181787490845,0.35846713185310364,0.4409328103065491,0.8026784062385559,1.3237369060516357,1.8428829908370972,-0.35886502265930176,2.959585189819336,8.473505973815918,3.309556722640991,-0.21657827496528625,0.612750768661499,-0.3524269461631775,13.395561218261719,-40.58257293701172,11.358916282653809,-0.20840120315551758,-0.39462852478027344,-0.34105610847473145,3.1679863929748535,8.868134498596191,3.6506128311157227
8_20251106_181636,1762424161204,8,0.18231917917728424,0.3518323600292206,0.4415256679058075,0.8050023317337036,1.3154648542404175,1.840419054031372,-0.34099289774894714,2.631593704223633,8.759599685668945,3.1611223220825195,-0.21657827496528625,0.612750768661499,-0.3524269461631775,13.571765899658203,-40.505836486816406,11.083260536193848,-0.42911434173583984,-0.08682823181152344,-0.39159250259399414,3.0607080459594727,8.846427917480469,3.5527148246765137
8_20251106_181636,1762424161223,8,0.183781698346138,0.3458154499530792,0.4410845637321472,0.8075149059295654,1.304795503616333,1.8386459350585938,-0.3205999433994293,2.423306941986084,9.118715286254883,4.0553178787231445,-0.3118731379508972,0.5596055388450623,-0.2956165373325348,13.702045440673828,-40.382049560546875,10.8066987991333,-0.5099208354949951,0.21782970428466797,0.4020824432373047,2.933227777481079,8.900885581970215,3.65323543548584
8_20251106_181636,1762424161243,8,0.18551082909107208,0.3405485451221466,0.4390016198158264,0.8104875087738037,1.2925163507461548,1.8389627933502197,-0.29635798931121826,2.2281880378723145,9.559228897094727,5.254761695861816,-0.5030738115310669,0.4551476538181305,-0.13923516869544983,13.841705322265625,-40.29608154296875,10.624449729919434,-0.5640316009521484,0.5266742706298828,1.2812209129333496,2.792219638824463,9.032554626464844,3.973540782928467
8_20251106_181636,1762424161263,8,0.18679898977279663,0.3354071378707886,0.4364428222179413,0.8137111663818359,1.2791380882263184,1.8413177728652954,-0.27035361528396606,1.9552606344223022,9.78666877746582,5.477412700653076,-0.4047245979309082,0.5382252931594849,-0.0842573344707489,14.01055908203125,-40.13237762451172,10.363667488098145,-0.6695672273635864,0.6032915115356445,1.2030973434448242,2.6248278617858887,9.183377265930176,4.274315357208252
8_20251106_181636,1762424161281,8,0.18686135113239288,0.32973867654800415,0.4345811903476715,0.8170033097267151,1.263777256011963,1.8445237874984741,-0.2434554249048233,1.6583924293518066,9.53648567199707,5.074007034301758,-0.29965585470199585,0.6414613723754883,-0.001179734244942665,14.05877685546875,-39.940155029296875,10.220419883728027,-0.7731482982635498,0.2824869155883789,0.6397533416748047,2.4315407276153564,9.253998756408691,4.434253692626953
8_20251106_181636,1762424161300,8,0.18555259704589844,0.32372844219207764,0.43346917629241943,0.8202893137931824,1.2470861673355103,1.848058819770813,-0.21676763892173767,1.6667717695236206,9.432342529296875,4.84776496887207,-0.2770538330078125,0.7563040256500244,0.1112193688750267,14.05877685546875,-39.940155029296875,10.220419883728027,-0.6118150949478149,0.14267539978027344,0.3308091163635254,2.2785868644714355,9.289667129516602,4.516955852508545
8_20251106_181636,1762424161319,8,0.18277783691883087,0.31730735301971436,0.4324541985988617,0.823948860168457,1.2309764623641968,1.8514111042022705,-0.19081535935401917,2.186291217803955,9.287498474121094,4.735241889953613,-0.2770538330078125,0.7563040256500244,0.1112193688750267,14.045852661132812,-39.76378631591797,10.006875038146973,-0.0738365650177002,-0.0017347335815429688,0.17462873458862305,2.2601277828216553,9.289233207702637,4.56061315536499
8_20251106_181636,1762424161340,8,0.1783284842967987,0.3107987940311432,0.4314527213573456,0.8279200196266174,1.216381549835205,1.855635404586792,-0.16459301114082336,2.9524030685424805,9.49937629699707,4.2540283203125,-0.19703060388565063,0.8485445380210876,0.4148191213607788,13.965457916259766,-39.704673767089844,9.815533638000488,0.5538201332092285,0.16811466217041016,-0.2452678680419922,2.398582935333252,9.33126163482666,4.499296188354492
8_20251106_181636,1762424161359,8,0.1725500524044037,0.30523502826690674,0.4302206337451935,0.831846296787262,1.2080774307250977,1.8603549003601074,-0.14443175494670868,3.72809100151062,10.000940322875977,4.4970293045043945,-0.17137429118156433,0.7153760194778442,0.44902756810188293,13.79806900024414,-39.66502380371094,9.755658149719238,1.0636065006256104,0.5357437133789062,-0.0018134117126464844,2.6644845008850098,9.46519660949707,4.498842716217041
8_20251106_181636,1762424161376,8,0.1666172295808792,0.30096039175987244,0.4289889931678772,0.8352424502372742,1.2030620574951172,1.8679786920547485,-0.12207779288291931,4.0500969886779785,10.417513847351074,4.844173908233643,-0.14144191145896912,0.6646742820739746,0.26393556594848633,13.548294067382812,-39.58057403564453,9.679888725280762,1.108489990234375,0.7618541717529297,0.27626514434814453,2.9416069984436035,9.655659675598145,4.567908763885498
8_20251106_181636,1762424161396,8,0.16269734501838684,0.29673364758491516,0.4282194674015045,0.8379181027412415,1.2010529041290283,1.8776826858520508,-0.0999850407242775,3.945953845977783,10.552780151367188,4.880084991455078,-0.12250509858131409,0.6915523409843445,-0.0586010217666626,13.222091674804688,-39.551788330078125,9.667702674865723,0.8034775257110596,0.7176961898803711,0.2497410774230957,3.1424763202667236,9.835083961486816,4.630343914031982
8_20251106_181636,1762424161415,8,0.16116216778755188,0.291024774312973,0.42851969599723816,0.840060830116272,1.1999430656433105,1.8888212442398071,-0.07815409451723099,3.433616876602173,10.53482437133789,4.9375433921813965,-0.14510709047317505,0.7092673778533936,-0.39579835534095764,12.888538360595703,-39.43603515625,9.670390129089355,0.23291230201721191,0.5597925186157227,0.2457594871520996,3.200704574584961,9.975031852722168,4.691783905029297
8_20251106_181636,1762424161434,8,0.16225020587444305,0.28372272849082947,0.42962631583213806,0.8417823314666748,1.196946620941162,1.901082992553711,-0.05461897701025009,2.58012056350708,10.344493865966797,5.2523674964904785,-0.18725675344467163,0.7526388168334961,-0.6572484374046326,12.536552429199219,-39.43395233154297,9.656695365905762,-0.49646735191345215,0.29556941986083984,0.44846677780151367,3.0765879154205322,10.048924446105957,4.803900718688965
8_20251106_181636,1762424161453,8,0.16530151665210724,0.2748098373413086,0.4311981201171875,0.8433404564857483,1.190032720565796,1.9115840196609497,-0.03085085190832615,1.5422786474227905,9.84292984008789,5.725201606750488,-0.18725675344467163,0.7526388168334961,-0.6572484374046326,12.366962432861328,-39.420501708984375,9.704422950744629,-1.2274473905563354,-0.1647958755493164,0.7370405197143555,2.769726037979126,10.007725715637207,4.988161087036133
8_20251106_181636,1762424161471,8,0.16833867132663727,0.2647024095058441,0.4333466589450836,0.8448700308799744,1.1792579889297485,1.9197566509246826,-0.006895953789353371,0.9210100769996643,9.488603591918945,6.029252529144287,-0.05897516757249832,1.0165324211120605,-0.53324294090271,12.151248931884766,-39.360267639160156,9.778275489807129,-1.4789729118347168,-0.4152975082397461,0.8328733444213867,2.3999829292297363,9.903901100158691,5.1963791847229
8_20251106_181636,1762424161491,8,0.16886043548583984,0.253867506980896,0.4359704256057739,0.8467391729354858,1.1635595560073853,1.9270771741867065,0.021227382123470306,0.977271318435669,9.474239349365234,6.129804611206055,0.0479261539876461,1.2040677070617676,-0.17100012302398682,12.015491485595703,-39.18157958984375,9.78986644744873,-1.138169288635254,-0.34372901916503906,0.7467403411865234,2.115440607070923,9.817968368530273,5.383064270019531
8_20251106_181636,1762424161511,8,0.16530773043632507,0.24298712611198425,0.4388112425804138,0.8491615056991577,1.1635595560073853,1.9270771741867065,0.021227382123470306,0.977271318435669,9.474239349365234,6.129804611206055,0.15177315473556519,1.2480499744415283,0.22850538790225983,11.916389465332031,-39.00037384033203,9.789410591125488,-1.138169288635254,-0.34372901916503906,0.7467403411865234,2.115440607070923,9.817968368530273,5.383064270019531
8_20251106_181636,1762424161530,8,0.1581607609987259,0.23364019393920898,0.4415144920349121,0.8517407774925232,1.1317354440689087,1.9412682056427002,0.07810913771390915,2.13840913772583,10.369632720947266,6.279436111450195,0.22080087661743164,1.2480500936508179,0.44841670989990234,11.80038070678711,-38.89598083496094,9.854462623596191,0.11774182319641113,0.4532337188720703,0.6089191436767578,2.020667314529419,9.916399002075195,5.6705169677734375
8_20251106_181636,1762424161550,8,0.14910058677196503,0.2254728376865387,0.4441952109336853,0.8541789054870605,1.1185411214828491,1.9518983364105225,0.10878464579582214,2.5705440044403076,10.934638977050781,6.537998676300049,0.2953263819217682,1.3164669275283813,0.41665172576904297,11.648445129394531,-38.75831604003906,10.12157917022705,0.43990135192871094,0.8145923614501953,0.6939854621887207,2.1306426525115967,10.120046615600586,5.844013214111328
8_20251106_181636,1762424161568,8,0.13963791728019714,0.2167404443025589,0.4475964903831482,0.8562605977058411,1.1087440252304077,1.9627512693405151,0.13695688545703888,2.7333428859710693,10.836481094360352,6.633762359619141,0.4022276997566223,1.4111509323120117,0.25721603631973267,11.44533920288086,-38.67351531982422,10.331612586975098,0.4821603298187256,0.5731468200683594,0.6317996978759766,2.2511825561523438,10.263334274291992,6.001962661743164
8_20251106_181636,1762424161587,8,0.13086728751659393,0.2067859023809433,0.4522065818309784,0.8576844334602356,1.1003773212432861,1.974425196647644,0.1662379652261734,2.7824220657348633,10.551583290100098,6.377593994140625,0.49263566732406616,1.478956937789917,0.1466495245695114,11.136505126953125,-38.509315490722656,10.674242973327637,0.4249916076660156,0.23059940338134766,0.3005046844482422,2.3574304580688477,10.32098388671875,6.077089309692383
8_20251106_181636,1762424161606,8,0.1225634515285492,0.19598223268985748,0.4576890766620636,0.8585394024848938,1.0940481424331665,1.98505437374115,0.19434741139411926,2.9476146697998047,10.152966499328613,6.183671951293945,0.5983152985572815,1.403820514678955,0.14542779326438904,10.714584350585938,-38.403297424316406,11.092501640319824,0.47214746475219727,-0.1344137191772461,0.08526611328125,2.4754672050476074,10.28738021850586,6.098405838012695
8_20251106_181636,1762424161627,8,0.11431999504566193,0.18592074513435364,0.4638502299785614,0.858607828617096,1.0901684761047363,1.9953352212905884,0.22311300039291382,3.30074405670166,10.024881362915039,5.874833106994629,0.6991079449653625,1.2419414520263672,0.20712512731552124,10.206371307373047,-38.30419158935547,11.642489433288574,0.6602215766906738,-0.20999908447265625,-0.17885780334472656,2.6405224800109863,10.234880447387695,6.0536909103393555
8_20251106_181636,1762424161644,8,0.10610518604516983,0.17764092981815338,0.4704032242298126,0.8578497767448425,1.0892060995101929,2.002328395843506,0.24281492829322815,3.589233160018921,10.004531860351562,5.478610038757324,0.7620269656181335,1.075175404548645,0.1674189269542694,9.609149932861328,-38.2620849609375,12.309636116027832,0.7589685916900635,-0.1842784881591797,-0.4600648880004883,2.8302645683288574,10.188810348510742,5.9386749267578125
8_20251106_181636,1762424161664,8,0.09875817596912384,0.1706809401512146,0.47728896141052246,0.8563352823257446,1.0900524854660034,2.01007342338562,0.2645910680294037,3.4407992362976074,9.897994041442871,5.106327056884766,0.7699682116508484,0.9560567140579224,-0.025003455579280853,9.02835464477539,-38.132232666015625,13.07373332977295,0.48842763900756836,-0.23265361785888672,-0.6658782958984375,2.952371597290039,10.130647659301758,5.772205352783203
8_20251106_181636,1762424161683,8,0.09351077675819397,0.16394121944904327,0.48438096046447754,0.8542564511299133,1.0900524854660034,2.01007342338562,0.2645910680294037,3.4407992362976074,9.897994041442871,5.106327056884766,0.7094926238059998,0.9383416771888733,-0.2833992540836334,9.02835464477539,-38.132232666015625,13.07373332977295,0.48842763900756836,-0.23265361785888672,-0.6658782958984375,2.952371597290039,10.130647659301758,5.772205352783203
8_20251106_181636,1762424161703,8,0.09054483473300934,0.15610823035240173,0.4913340210914612,0.8520696759223938,1.0895402431488037,2.016664981842041,0.2948710024356842,2.300010919570923,8.988237380981445,4.991411209106445,0.6331345438957214,1.0220301151275635,-0.39091143012046814,8.081445693969727,-37.75599670410156,14.355568885803223,-0.5117425918579102,-0.8021984100341797,-0.48955726623535156,2.811753511428833,9.790435791015625,5.480968475341797
8_20251106_181636,1762424161720,8,0.08818569034337997,0.1469356119632721,0.49781930446624756,0.8501818180084229,1.0866949558258057,2.016343832015991,0.3057074248790741,2.074965476989746,9.001404762268066,4.8106560707092285,0.6331345438957214,1.0220301151275635,-0.39091143012046814,8.081445693969727,-37.75599670410156,14.355568885803223,-0.5894303321838379,-0.6312246322631836,-0.5362496376037598,2.664395809173584,9.63262939453125,5.346905708312988
8_20251106_181636,1762424161739,8,0.08427347242832184,0.1372695416212082,0.5041598677635193,0.8484562039375305,1.0866949558258057,2.016343832015991,0.3057074248790741,2.074965476989746,9.001404762268066,4.8106560707092285,0.6911666989326477,1.1374835968017578,0.009204964153468609,7.638406753540039,-37.56596374511719,15.004471778869629,-0.5894303321838379,-0.6312246322631836,-0.5362496376037598,2.664395809173584,9.63262939453125,5.346905708312988
8_20251106_181636,1762424161760,8,0.07789399474859238,0.12886802852153778,0.5105279088020325,0.8465735912322998,1.0802156925201416,2.013016700744629,0.3219427764415741,3.0098612308502197,9.555638313293457,4.481467247009277,0.8420502543449402,1.0183649063110352,0.3280763626098633,7.231023788452148,-37.386375427246094,15.681612968444824,0.3287365436553955,0.013930320739746094,-0.5960168838500977,2.681124687194824,9.541707992553711,5.077484130859375
8_20251106_181636,1762424161779,8,0.06927680969238281,0.12312962859869003,0.5175458192825317,0.8439112305641174,1.0808846950531006,2.0131325721740723,0.32555726170539856,3.717317581176758,10.090719223022461,4.086441516876221,0.981327474117279,0.8381598591804504,0.5021728277206421,6.880138397216797,-37.06547546386719,16.36362075805664,0.8289542198181152,0.439208984375,-0.7928342819213867,2.8883633613586426,9.651510238647461,4.879275798797607
8_20251106_181636,1762424161797,8,0.06010200083255768,0.1200440302491188,0.5252721905708313,0.8402774930000305,1.0843851566314697,2.015669107437134,0.325592964887619,4.077629089355469,10.641361236572266,3.6387453079223633,1.021033525466919,0.6830002069473267,0.44841670989990234,6.477886199951172,-36.79771423339844,17.015575408935547,0.9514126777648926,0.7918815612792969,-0.992424488067627,3.126216411590576,9.849479675292969,4.63116979598999
8_20251106_181636,1762424161816,8,0.0519401878118515,0.11804945021867752,0.5332703590393066,0.8360558152198792,1.0843851566314697,2.015669107437134,0.325592964887619,4.077629089355469,10.641361236572266,3.6387453079223633,0.9410104155540466,0.6634525060653687,0.23766836524009705,6.085508346557617,-36.567100524902344,17.694263458251953,0.9514126777648926,0.7918815612792969,-0.992424488067627,3.126216411590576,9.849479675292969,4.63116979598999
8_20251106_181636,1762424161835,8,0.045804597437381744,0.11529920995235443,0.5408321022987366,0.8319306969642639,1.0995535850524902,2.0294077396392822,0.31950315833091736,4.119525909423828,11.196792602539062,3.861396312713623,0.8939737677574158,0.67566978931427,-0.0030123284086585045,5.633399963378906,-36.32722473144531,18.303184509277344,0.6161823272705078,0.90863037109375,-0.4855685234069824,3.5033435821533203,10.288162231445312,4.3469648361206055
8_20251106_181636,1762424161855,8,0.04154137149453163,0.11121181398630142,0.5481731295585632,0.8278964161872864,1.109359622001648,2.0420005321502686,0.3146589994430542,3.9531359672546387,11.716312408447266,4.00384521484375,0.8884760141372681,0.5889270305633545,-0.13923516869544983,5.168413162231445,-36.089088439941406,19.0062255859375,0.3598337173461914,1.1425199508666992,-0.27449560165405273,3.5933022499084473,10.573792457580566,4.278340816497803
8_20251106_181636,1762424161873,8,0.038755614310503006,0.10702592879533768,0.5555124282836914,0.8236804008483887,1.1177839040756226,2.0564208030700684,0.3101007044315338,3.6095829010009766,12.057472229003906,4.109185218811035,0.8884760141372681,0.5889270305633545,-0.13923516869544983,4.681873321533203,-35.80231475830078,19.70934295654297,0.013024330139160156,1.1869440078735352,-0.13532447814941406,3.5965585708618164,10.870528221130371,4.244509696960449
8_20251106_181636,1762424161893,8,0.037066031247377396,0.10315682739019394,0.5630478262901306,0.8191226720809937,1.1177839040756226,2.0564208030700684,0.3101007044315338,3.6095829010009766,12.057472229003906,4.109185218811035,0.9416212439537048,0.419106662273407,-0.24002785980701447,4.246303558349609,-35.46294403076172,20.49657440185547,0.013024330139160156,1.1869440078735352,-0.13532447814941406,3.5965585708618164,10.870528221130371,4.244509696960449
8_20251106_181636,1762424161913,8,0.035794295370578766,0.09955405443906784,0.5707026124000549,0.8143134117126465,1.1328985691070557,2.094104290008545,0.3031541109085083,3.221738815307617,11.504434585571289,4.5736403465271,1.0369160175323486,0.47713881731033325,-0.2131498157978058,3.874570846557617,-35.08085632324219,21.17892074584961,-0.2642085552215576,0.3386650085449219,0.21964550018310547,3.485947370529175,11.165769577026367,4.353994846343994
8_20251106_181636,1762424161930,8,0.033855095505714417,0.09557954221963882,0.5789128541946411,0.8090600967407227,1.1374257802963257,2.1101293563842773,0.2994352877140045,3.0338022708892822,11.490070343017578,3.7464795112609863,1.0369160175323486,0.47713881731033325,-0.2131498157978058,3.509990692138672,-34.78600311279297,21.873424530029297,-0.36171627044677734,0.25944042205810547,-0.48601245880126953,3.3955185413360596,11.230629920959473,4.232491970062256
8_20251106_181636,1762424161949,8,0.03159891813993454,0.09215175360441208,0.5879939198493958,0.8029773831367493,1.1405242681503296,2.1271533966064453,0.2929217517375946,2.772845506668091,11.233901977539062,3.297585964202881,1.2385014295578003,0.37451350688934326,-0.11785490065813065,3.2469310760498047,-34.40972137451172,22.600467681884766,-0.498138427734375,0.0026178359985351562,-0.7479248046875,3.270983934402466,11.231284141540527,4.045510768890381
8_20251106_181636,1762424161970,8,0.029360748827457428,0.0895395502448082,0.5974977016448975,0.7963147163391113,1.1416267156600952,2.1429269313812256,0.28226786851882935,2.629199504852295,10.604253768920898,2.9073479175567627,1.2385014295578003,0.37451350688934326,-0.11785490065813065,3.0006942749023438,-33.945152282714844,23.370399475097656,-0.5134274959564209,-0.5016241073608398,-0.9105303287506104,3.142627000808716,11.105877876281738,3.817878246307373
8_20251106_181636,1762424161989,8,0.027275530621409416,0.08725123107433319,0.6074340343475342,0.7890926003456116,1.1416267156600952,2.1429269313812256,0.28226786851882935,2.629199504852295,10.604253768920898,2.9073479175567627,1.297755241394043,0.3201465606689453,-0.11968749016523361,2.8154869079589844,-33.476478576660156,24.129268646240234,-0.5134274959564209,-0.5016241073608398,-0.9105303287506104,3.142627000808716,11.105877876281738,3.817878246307373
8_20251106_181636,1762424162008,8,0.025169098749756813,0.08488044142723083,0.6172149181365967,0.7817976474761963,1.1401680707931519,2.154348611831665,0.26745525002479553,2.3347253799438477,10.168527603149414,2.116098403930664,1.2110124826431274,0.2883816063404083,-0.07753781974315643,2.656160354614258,-32.98096466064453,24.876129150390625,-0.6463212966918945,-0.7498807907104492,-1.3614239692687988,2.981046676635742,10.918408393859863,3.477522373199463
8_20251106_181636,1762424162026,8,0.02302185818552971,0.08292706310749054,0.6263021230697632,0.7748152613639832,1.1328396797180176,2.164790630340576,0.22668339312076569,2.3419079780578613,9.38924789428711,0.78019118309021,1.068681001663208,0.13749800622463226,-0.021338269114494324,2.5095272064208984,-32.47236633300781,25.650775909423828,-0.3937265872955322,-1.0401439666748047,-1.8109474182128906,2.7356345653533936,10.429391860961914,2.5911386013031006
8_20251106_181636,1762424162045,8,0.021498877555131912,0.08241243660449982,0.6342751979827881,0.768401563167572,1.1328396797180176,2.164790630340576,0.22668339312076569,2.3419079780578613,9.38924789428711,0.78019118309021,1.068681001663208,0.13749800622463226,-0.021338269114494324,2.3888721466064453,-31.936798095703125,26.399898529052734,-0.3937265872955322,-1.0401439666748047,-1.8109474182128906,2.7356345653533936,10.429391860961914,2.5911386013031006
8_20251106_181636,1762424162064,8,0.021396642550826073,0.08306147158145905,0.6414488554000854,0.7623558044433594,1.1222962141036987,2.1639184951782227,0.17089059948921204,2.374228000640869,9.456283569335938,1.1740204095840454,0.9031367897987366,-0.16488002240657806,-0.18321743607521057,2.3044795989990234,-31.399253845214844,27.191043853759766,-0.24298357963562012,-0.6155109405517578,-0.884738564491272,2.6172115802764893,10.071794509887695,2.0587589740753174
8_20251106_181636,1762424162083,8,0.02294018305838108,0.08374593406915665,0.6481290459632874,0.7565640211105347,1.116109013557434,2.16021466255188,0.14034339785575867,2.285646438598633,9.242011070251465,0.8603935241699219,0.822502613067627,-0.22230131924152374,-0.3359335958957672,2.2114124298095703,-30.81133270263672,27.888137817382812,-0.26525211334228516,-0.6638269424438477,-0.9586924314498901,2.550898551940918,9.905838012695312,1.819085955619812
8_20251106_181636,1762424162105,8,0.02599291130900383,0.08385366946458817,0.6542338728904724,0.7511796951293945,1.1069668531417847,2.1524789333343506,0.10188524425029755,1.9157581329345703,8.910429000854492,0.4988845884799957,0.6758950352668762,-0.30049198865890503,-0.45260876417160034,2.2496700286865234,-30.2647705078125,28.57605743408203,-0.5081121921539307,-0.7963275909423828,-1.0561610460281372,2.423870325088501,9.706756591796875,1.5550456047058105
8_20251106_181636,1762424162123,8,0.03047613799571991,0.08374900370836258,0.6593438982963562,0.7465406656265259,1.0982588529586792,2.143794298171997,0.0703214704990387,1.5147465467453003,8.338238716125488,0.03802056610584259,0.4559837877750397,-0.43793654441833496,-0.46299344301223755,2.359212875366211,-29.76232147216797,29.130699157714844,-0.7272990942001343,-1.0948143005371094,-1.2136200666427612,2.2420456409454346,9.433053016662598,1.2516406774520874
8_20251106_181636,1762424162142,8,0.036078620702028275,0.08441426604986191,0.6628650426864624,0.7430898547172546,1.08682382106781,2.1323249340057373,0.03480859473347664,1.4441205263137817,8.61355972290039,0.5228255987167358,0.284330815076828,-0.640743613243103,-0.4245089888572693,2.359212875366211,-29.76232147216797,29.130699157714844,-0.6383401155471802,-0.6555948257446289,-0.5830521583557129,2.082460641860962,9.26915454864502,1.1058777570724487
8_20251106_181636,1762424162160,8,0.042817384004592896,0.08660194277763367,0.6651025414466858,0.7404764890670776,1.0740318298339844,2.120474338531494,0.002545733004808426,1.3794798851013184,8.921201705932617,1.6432636976242065,0.284330815076828,-0.640743613243103,-0.4245089888572693,2.5740890502929688,-29.339813232421875,29.606807708740234,-0.5623846054077148,-0.2783622741699219,0.42990875244140625,1.9418644905090332,9.199563980102539,1.2133549451828003
8_20251106_181636,1762424162179,8,0.050212323665618896,0.08815082162618637,0.6674444079399109,0.7377168536186218,1.0740318298339844,2.120474338531494,0.002545733004808426,1.3794798851013184,8.921201705932617,1.6432636976242065,0.30693280696868896,-0.6358567476272583,-0.5210255980491638,2.8005447387695312,-28.928932189941406,30.069629669189453,-0.5623846054077148,-0.2783622741699219,0.42990875244140625,1.9418644905090332,9.199563980102539,1.2133549451828003
8_20251106_181636,1762424162199,8,0.05713632330298424,0.0880202203989029,0.670344889163971,0.7345921397209167,1.0432064533233643,2.0983595848083496,-0.05719568580389023,0.9030542969703674,9.206100463867188,1.0255863666534424,0.48286184668540955,-0.4416017532348633,-0.6939003467559814,3.1937599182128906,-28.593345642089844,30.388790130615234,-0.7194240689277649,-0.00749969482421875,-0.21267986297607422,1.6224783658981323,9.213600158691406,1.2382662296295166
8_20251106_181636,1762424162217,8,0.0643020048737526,0.08707968145608902,0.6738684177398682,0.7308787703514099,1.0261152982711792,2.0890796184539795,-0.08474311232566833,0.4900722801685333,9.279119491577148,0.5347960591316223,0.3777931332588196,-0.37746095657348633,-0.7232218384742737,3.657369613647461,-28.303085327148438,30.696319580078125,-0.905924916267395,0.05241584777832031,-0.5627761483192444,1.395997166633606,9.226703643798828,1.0975722074508667
8_20251106_181636,1762424162236,8,0.07143400609493256,0.08546099811792374,0.6767604351043701,0.7277286052703857,1.005696415901184,2.080233097076416,-0.11435774713754654,0.20038631558418274,9.394036293029785,0.3719973564147949,0.17926207184791565,-0.38784563541412354,-0.6767960786819458,4.104663848876953,-28.088829040527344,30.988262176513672,-0.9564887285232544,0.1338663101196289,-0.5804598927497864,1.1568750143051147,9.260169982910156,0.9524572491645813
8_20251106_181636,1762424162255,8,0.07832575589418411,0.08385783433914185,0.6782939434051514,0.7257756590843201,0.9828006029129028,2.0712602138519287,-0.14446845650672913,-0.11802880465984344,9.052877426147461,0.2319425791501999,-0.006440802477300167,-0.4703123867511749,-0.5729491114616394,4.652759552001953,-27.81732177734375,31.217601776123047,-1.0199230909347534,-0.1658334732055664,-0.5764117240905762,0.9018942713737488,9.218710899353027,0.8083543181419373
8_20251106_181636,1762424162274,8,0.08510977774858475,0.08323326706886292,0.6784034371376038,0.724980890750885,0.9575944542884827,2.061584711074829,-0.1736501008272171,-0.35743871331214905,8.799102783203125,0.5982397198677063,-0.13655498623847961,-0.4660363495349884,-0.4232872724533081,5.294708251953125,-27.613990783691406,31.368183135986328,-1.007466435432434,-0.33568668365478516,-0.16809165477752686,0.6500276923179626,9.13478946685791,0.7663313746452332
8_20251106_181636,1762424162294,8,0.09101182967424393,0.08344025164842606,0.6774922609329224,0.7250922322273254,0.9293729662895203,2.0512306690216064,-0.20117023587226868,-0.3418770432472229,8.911625862121582,1.312878131866455,-0.005219073034822941,-0.364632785320282,-0.31272071599960327,5.8475189208984375,-27.49102020263672,31.45968246459961,-0.7935237884521484,-0.17853069305419922,0.43723738193511963,0.45164674520492554,9.090156555175781,0.8756407499313354
8_20251106_181636,1762424162313,8,0.09547530859708786,0.08377894014120102,0.6774013042449951,0.7245640158653259,0.9024320244789124,2.0427329540252686,-0.22584208846092224,-0.08451142907142639,9.398824691772461,0.9358076453208923,0.11267781257629395,-0.19725584983825684,-0.2180367261171341,6.389469146728516,-27.332252502441406,31.65961456298828,-0.4289265275001526,0.2469348907470703,0.04813355207443237,0.3444150984287262,9.15188980102539,0.88767409324646
8_20251106_181636,1762424162332,8,0.09799758344888687,0.08356405049562454,0.6780755519866943,0.7236208319664001,0.8764857053756714,2.0363099575042725,-0.2509513199329376,0.2159479558467865,9.753150939941406,0.27862751483917236,0.19025763869285583,-0.23085342347621918,-0.22658881545066833,6.927473068237305,-27.260040283203125,31.7225341796875,-0.10277372598648071,0.48100948333740234,-0.48723727464675903,0.3187216818332672,9.272141456604004,0.7658647894859314
8_20251106_181636,1762424162351,8,0.10077009350061417,0.08374811708927155,0.6793040037155151,0.7220648527145386,0.8764857053756714,2.0363099575042725,-0.2509513199329376,0.2159479558467865,9.753150939941406,0.27862751483917236,0.12428424507379532,-0.30537891387939453,-0.3200511336326599,7.380483627319336,-27.181365966796875,31.836349487304688,-0.10277372598648071,0.48100948333740234,-0.48723727464675903,0.3187216818332672,9.272141456604004,0.7658647894859314
8_20251106_181636,1762424162371,8,0.10471533983945847,0.08391834050416946,0.6801713109016418,0.7206659317016602,0.8240780234336853,2.0253872871398926,-0.30636632442474365,-0.34307408332824707,9.129488945007324,-0.37615853548049927,-0.02659934014081955,-0.35669153928756714,-0.40129613876342773,7.784427642822266,-27.129501342773438,31.798995971679688,-0.49077558517456055,-0.16178035736083984,-0.77705317735672,0.14770151674747467,9.291269302368164,0.4008946418762207
8_20251106_181636,1762424162391,8,0.10965579003095627,0.08373583108186722,0.6800668835639954,0.7200506329536438,0.7961947321891785,2.0194637775421143,-0.3350703716278076,-0.5681194067001343,9.14026165008545,0.052385181188583374,-0.2880494296550751,-0.3951760232448578,-0.3872462213039398,8.252826690673828,-27.010879516601562,31.76541519165039,-0.5726567506790161,-0.12080574035644531,-0.2788075804710388,0.004537343978881836,9.261067390441895,0.3311927616596222
8_20251106_181636,1762424162409,8,0.11497379094362259,0.08353985846042633,0.6781599521636963,0.721041738986969,0.7710711359977722,2.0147650241851807,-0.3579142391681671,-0.5166462659835815,9.409598350524902,1.0207980871200562,-0.4719197154045105,-0.40250641107559204,-0.3011143207550049,8.61749267578125,-27.011489868164062,31.712017059326172,-0.4169468879699707,0.11882495880126953,0.5516842603683472,-0.09969937056303024,9.290773391723633,0.469113826751709
8_20251106_181636,1762424162427,8,0.11989652365446091,0.08368039131164551,0.6748288869857788,0.7233452796936035,0.7457761764526367,2.0099451541900635,-0.37720516324043274,-0.6794449687004089,9.146246910095215,1.4481446743011475,-0.4719197154045105,-0.40250641107559204,-0.3011143207550049,8.953853607177734,-27.08863067626953,31.615509033203125,-0.4637964963912964,-0.11562061309814453,0.7832247018814087,-0.21564847230911255,9.26186752319336,0.6649199724197388
8_20251106_181636,1762424162447,8,0.12402177602052689,0.0843551829457283,0.6722670793533325,0.7249550223350525,0.7204064130783081,2.0051023960113525,-0.3942631781101227,-0.7596472501754761,9.154626846313477,1.180005669593811,-0.07730110734701157,-0.3383656144142151,-0.15817198157310486,9.314289093017578,-27.164581298828125,31.560527801513672,-0.4351990222930908,-0.08579254150390625,0.41206854581832886,-0.32444822788238525,9.240419387817383,0.7679371237754822
8_20251106_181636,1762424162465,8,0.12726746499538422,0.08539742231369019,0.6713538765907288,0.7251167297363281,0.7204064130783081,2.0051023960113525,-0.3942631781101227,-0.7596472501754761,9.154626846313477,1.180005669593811,0.002111302688717842,-0.28399866819381714,-0.10747019946575165,9.676616668701172,-27.226364135742188,31.343616485595703,-0.4351990222930908,-0.08579254150390625,0.41206854581832886,-0.32444822788238525,9.240419387817383,0.7679371237754822
8_20251106_181636,1762424162484,8,0.12967899441719055,0.08641264587640762,0.671068012714386,0.7248337268829346,0.665897786617279,1.996362566947937,-0.42803776264190674,-0.6770508289337158,9.316228866577148,0.559934139251709,0.002111302688717842,-0.28399866819381714,-0.10747019946575165,10.063228607177734,-27.27507781982422,31.236080169677734,-0.20689591765403748,0.03740978240966797,-0.1961345672607422,-0.47015491127967834,9.27881908416748,0.7560687065124512
8_20251106_181636,1762424162504,8,0.1316516399383545,0.0878906399011612,0.6712847948074341,0.724099338054657,0.6398607492446899,1.992897629737854,-0.44560834765434265,-0.41848817467689514,9.479026794433594,0.3552386462688446,0.05281307175755501,-0.46970152854919434,0.10144554078578949,10.39908218383789,-27.364501953125,31.112274169921875,0.041333407163619995,0.16016674041748047,-0.32066407799720764,-0.45982158184051514,9.318860054016113,0.6759027242660522
8_20251106_181636,1762424162524,8,0.1338639110326767,0.09173834323883057,0.6710220575332642,0.7234597206115723,0.6398607492446899,1.992897629737854,-0.44560834765434265,-0.41848817467689514,9.479026794433594,0.3552386462688446,0.1609361320734024,-0.5063533782958984,0.15153643488883972,10.747333526611328,-27.441253662109375,31.056804656982422,0.041333407163619995,0.16016674041748047,-0.32066407799720764,-0.45982158184051514,9.318860054016113,0.6759027242660522
8_20251106_181636,1762424162543,8,0.13579566776752472,0.0963197872042656,0.671432614326477,0.722122073173523,0.5939988493919373,1.9884706735610962,-0.47531262040138245,-0.39933541417121887,9.863280296325684,1.1692322492599487,0.11939731985330582,-0.4397691488265991,0.18513399362564087,10.747333526611328,-27.441253662109375,31.056804656982422,0.04981979727745056,0.42120933532714844,0.3883199691772461,-0.44915521144866943,9.442070960998535,0.7809122800827026
8_20251106_181636,1762424162563,8,0.13712632656097412,0.10056787729263306,0.6715304851531982,0.7211998701095581,0.5717101097106934,1.9885475635528564,-0.48636358976364136,-0.14556095004081726,9.909965515136719,1.7940919399261475,0.08213458210229874,-0.2510119378566742,0.12282580137252808,11.045528411865234,-27.546157836914062,30.985328674316406,0.24287542700767517,0.3743152618408203,0.8105437755584717,-0.38843637704849243,9.535650253295898,0.9835481643676758
8_20251106_181636,1762424162579,8,0.13769876956939697,0.10305175185203552,0.6715928316116333,0.72068190574646,0.5717101097106934,1.9885475635528564,-0.48636358976364136,-0.14556095004081726,9.909965515136719,1.7940919399261475,0.23668336868286133,-0.168545201420784,0.028141774237155914,11.378376007080078,-27.674468994140625,30.982376098632812,0.24287542700767517,0.3743152618408203,0.8105437755584717,-0.38843637704849243,9.535650253295898,0.9835481643676758
8_20251106_181636,1762424162600,8,0.13826735317707062,0.10463250428438187,0.6727842688560486,0.7192325592041016,0.5380122661590576,1.990335464477539,-0.5033688545227051,-0.024658948183059692,9.737589836120605,0.6712597012519836,0.2959372401237488,-0.20764055848121643,-0.020727403461933136,11.5577392578125,-27.725204467773438,30.974895477294922,0.23185992240905762,0.12004756927490234,-0.3266561031341553,-0.2565188705921173,9.617542266845703,0.9979158043861389
8_20251106_181636,1762424162619,8,0.1393270045518875,0.10626707971096039,0.6744211316108704,0.7172527313232422,0.5225000381469727,1.9915105104446411,-0.5137873291969299,-0.1970340758562088,9.664569854736328,0.34566226601600647,0.2696700692176819,-0.35119375586509705,-0.043940264731645584,11.767608642578125,-27.67322540283203,30.90292739868164,0.04758782684803009,0.037621498107910156,-0.5218027830123901,-0.2446219027042389,9.626948356628418,0.867465078830719
8_20251106_181636,1762424162638,8,0.14152367413043976,0.10876628011465073,0.6758264303207397,0.7151220440864563,0.5071648955345154,1.9922045469284058,-0.5255237221717834,-0.46277904510498047,9.473041534423828,0.19722814857959747,0.2696700692176819,-0.35119375586509705,-0.043940264731645584,11.915054321289062,-27.63884735107422,30.93637466430664,-0.17452570796012878,-0.12312507629394531,-0.5361895561218262,-0.2882533371448517,9.596166610717773,0.7334176898002625
8_20251106_181636,1762424162658,8,0.14410866796970367,0.1113341823220253,0.6764094829559326,0.7136578559875488,0.4914010465145111,1.9934486150741577,-0.5341084599494934,-0.4292616546154022,9.777092933654785,1.7701510190963745,-0.016214638948440552,-0.3108766973018646,-0.04516199231147766,12.073177337646484,-27.628929138183594,30.983299255371094,-0.11280664801597595,0.14474105834960938,0.8293866515159607,-0.31645500659942627,9.632351875305176,0.9407643675804138
8_20251106_181636,1762424162675,8,0.14645257592201233,0.11313261091709137,0.6759864687919617,0.7132986187934875,0.47878679633140564,1.9946132898330688,-0.5391585230827332,-0.2640688717365265,9.705268859863281,1.7976830005645752,0.1450536549091339,-0.19175806641578674,-0.10013981908559799,12.296642303466797,-27.551040649414062,30.912349700927734,0.04190891981124878,0.058333396911621094,0.6855349540710449,-0.30597779154777527,9.64693546295166,1.1121480464935303
8_20251106_181636,1762424162695,8,0.14808563888072968,0.11377845704555511,0.6766296029090881,0.7122482061386108,0.46432939171791077,1.9963843822479248,-0.5446955561637878,-0.6938096284866333,9.8417329788208,1.048330307006836,0.31304144859313965,-0.23085342347621918,-0.15450680255889893,12.484058380126953,-27.463241577148438,30.867225646972656,-0.3102654814720154,0.1558380126953125,-0.05105423927307129,-0.3835441470146179,9.685894966125488,1.0993845462799072
8_20251106_181636,1762424162714,8,0.1502123475074768,0.11468444019556046,0.678379237651825,0.7099896669387817,0.46432939171791077,1.9963843822479248,-0.5446955561637878,-0.6938096284866333,9.8417329788208,1.048330307006836,0.28188735246658325,-0.26322925090789795,-0.15023073554039001,12.681644439697266,-27.412185668945312,30.808284759521484,-0.3102654814720154,0.1558380126953125,-0.05105423927307129,-0.3835441470146179,9.685894966125488,1.0993845462799072
8_20251106_181636,1762424162733,8,0.1525600254535675,0.11570834368467331,0.6800010800361633,0.7077680230140686,0.43180975317955017,1.9998210668563843,-0.5603265166282654,-1.1415060758590698,9.583169937133789,0.22954846918582916,0.1609361320734024,-0.17587558925151825,-0.1306830644607544,12.845897674560547,-27.301132202148438,30.789737701416016,-0.5172723531723022,-0.091217041015625,-0.6116636395454407,-0.6242337226867676,9.674386978149414,0.8412120938301086
8_20251106_181636,1762424162752,8,0.154363214969635,0.11606509238481522,0.6809890866279602,0.7063673138618469,0.43180975317955017,1.9998210668563843,-0.5603265166282654,-1.1415060758590698,9.583169937133789,0.22954846918582916,0.0039438968524336815,-0.11295652389526367,-0.09158771485090256,13.047218322753906,-27.17540740966797,30.79996109008789,-0.5172723531723022,-0.091217041015625,-0.6116636395454407,-0.6242337226867676,9.674386978149414,0.8412120938301086
8_20251106_181636,1762424162771,8,0.15566818416118622,0.11597804725170135,0.6810324192047119,0.7060533761978149,0.39883843064308167,2.003106117248535,-0.5766252279281616,-0.8242879509925842,9.815399169921875,0.9010931849479675,0.023491568863391876,-0.13433678448200226,-0.06165533512830734,13.242603302001953,-27.150543212890625,30.848621368408203,-0.09221899509429932,0.10595321655273438,0.06896835565567017,-0.7320689558982849,9.70944595336914,0.8321248292922974
8_20251106_181636,1762424162792,8,0.1568634808063507,0.11624187976121902,0.6810569167137146,0.7057217359542847,0.38113924860954285,2.005265951156616,-0.5858933329582214,-0.9368105530738831,9.795047760009766,0.5132491588592529,0.15421661734580994,-0.30904409289360046,-0.033555563539266586,13.45309066772461,-27.07452392578125,30.885311126708984,-0.16379326581954956,0.0684814453125,-0.2551005482673645,-0.7730172872543335,9.726566314697266,0.7683497071266174
8_20251106_181636,1762424162810,8,0.15883776545524597,0.11810512840747833,0.6816198229789734,0.7044261693954468,0.36585506796836853,2.007205009460449,-0.5941744446754456,-1.1271413564682007,9.799836158752441,0.47015541791915894,0.21102702617645264,-0.475810170173645,0.05868501216173172,13.616950988769531,-26.964012145996094,30.92082977294922,-0.28329920768737793,0.058615684509277344,-0.2385554313659668,-0.8438421487808228,9.741220474243164,0.7087108492851257
8_20251106_181636,1762424162830,8,0.1612401306629181,0.12178408354520798,0.6822597980499268,0.7026320695877075,0.34834742546081543,2.009845018386841,-0.6018613576889038,-1.2959253787994385,9.936300277709961,1.055512547492981,0.1810946762561798,-0.3432525396347046,0.13993000984191895,13.800163269042969,-26.928329467773438,31.06387710571289,-0.36166656017303467,0.15606403350830078,0.2774413824081421,-0.9342588186264038,9.78023624420166,0.7780711650848389
8_20251106_181636,1762424162849,8,0.1622259020805359,0.1249435767531395,0.6828188896179199,0.7013061046600342,0.33294177055358887,2.012937545776367,-0.6075559854507446,-1.1115797758102417,10.1194486618042,1.134517788887024,0.12917116284370422,-0.021937677636742592,0.12954530119895935,13.983867645263672,-26.89197540283203,31.13934326171875,-0.14185678958892822,0.27136993408203125,0.2851572632789612,-0.9697229862213135,9.848078727722168,0.8493605256080627
8_20251106_181636,1762424162866,8,0.1612854152917862,0.1257340908050537,0.6834378242492676,0.700778603553772,0.3187028169631958,2.0172009468078613,-0.6114442348480225,-0.8087263703346252,10.386390686035156,1.4672975540161133,0.14810797572135925,0.05503127723932266,0.07762181758880615,14.094356536865234,-26.860519409179688,31.225383758544922,0.12879729270935059,0.4306497573852539,0.4943495988845825,-0.9375236630439758,9.955740928649902,0.9729479551315308
8_20251106_181636,1762424162886,8,0.160198375582695,0.1257837861776352,0.6843301653862,0.7001479268074036,0.3187028169631958,2.0172009468078613,-0.6114442348480225,-0.8087263703346252,10.386390686035156,1.4672975540161133,0.3405303657054901,-0.007887790910899639,0.004318049177527428,14.203327178955078,-26.865928649902344,31.229534149169922,0.12879729270935059,0.4306497573852539,0.4943495988845825,-0.9375236630439758,9.955740928649902,0.9729479551315308
8_20251106_181636,1762424162904,8,0.15973111987113953,0.12609851360321045,0.6864219307899475,0.6981475949287415,0.3019522726535797,2.022850275039673,-0.6139071583747864,-0.9966630935668945,10.145784378051758,1.5307412147521973,0.4749206304550171,0.011049015447497368,-0.008510109968483448,14.31381607055664,-26.83447265625,31.315574645996094,-0.04731154441833496,0.15203475952148438,0.4462345838546753,-0.9493515491485596,9.993749618530273,1.084506630897522
8_20251106_181636,1762424162924,8,0.15911667048931122,0.1263815313577652,0.6894218921661377,0.6952747702598572,0.27433401346206665,2.0298409461975098,-0.6216779947280884,-1.5149853229522705,9.646614074707031,-0.1535073220729828,0.408336341381073,0.03304014354944229,0.054408960044384,14.454826354980469,-26.688690185546875,31.432003021240234,-0.3892024755477905,-0.2558765411376953,-0.9367409944534302,-1.12578284740448,9.902490615844727,0.783233642578125
8_20251106_181636,1762424162944,8,0.15802863240242004,0.12676164507865906,0.692065417766571,0.6928231120109558,0.25811657309532166,2.0319912433624268,-0.6298132538795471,-1.451541781425476,9.530500411987305,-0.04337877407670021,0.2647831439971924,-0.009720385074615479,0.126490980386734,14.506107330322266,-26.62407684326172,31.570446014404297,-0.26060712337493896,-0.2975921630859375,-0.6612899303436279,-1.190934658050537,9.828092575073242,0.617911159992218
8_20251106_181636,1762424162963,8,0.1569863259792328,0.12774108350276947,0.6937427520751953,0.6912007927894592,0.2432251274585724,2.033003807067871,-0.6383850574493408,-1.2839548587799072,9.489800453186035,0.16969600319862366,0.1658230423927307,0.025709768757224083,0.19674041867256165,14.5821533203125,-26.557334899902344,31.655807495117188,-0.0744161605834961,-0.2706336975097656,-0.3585721552371979,-1.2095386981964111,9.7604341506958,0.5282681584358215
8_20251106_181636,1762424162982,8,0.15531675517559052,0.12875297665596008,0.6947133541107178,0.6904149055480957,0.22897355258464813,2.033622980117798,-0.6461182236671448,-0.9990571737289429,9.63105297088623,0.8041321635246277,0.12061905115842819,0.11428515613079071,0.21506637334823608,14.524761199951172,-26.486907958984375,31.749553680419922,0.16838526725769043,-0.10350513458251953,0.22069120407104492,-1.1674424409866333,9.73455810546875,0.5834409594535828
8_20251106_181636,1762424163002,8,0.15303044021129608,0.12930046021938324,0.6954365372657776,0.6900950074195862,0.21726973354816437,2.0337138175964355,-0.6522718667984009,-0.7452827095985413,9.564018249511719,0.8843345046043396,0.19270110130310059,0.2224082052707672,0.16497546434402466,14.524761199951172,-26.486907958984375,31.749553680419922,0.33772772550582886,-0.13643169403076172,0.24071484804153442,-1.0830104351043701,9.70044994354248,0.6436196565628052
8_20251106_181636,1762424163021,8,0.1501891314983368,0.12887251377105713,0.6967357993125916,0.6894884705543518,0.20635607838630676,2.033426284790039,-0.6582250595092773,-0.8230908513069153,9.57598876953125,0.709565281867981,0.2910503149032593,0.2596709728240967,0.07212403416633606,14.480060577392578,-26.403396606445312,31.87108612060547,0.207935631275177,-0.09956932067871094,0.05275648832321167,-1.0310264825820923,9.675558090209961,0.6568087935447693
8_20251106_181636,1762424163039,8,0.1476406753063202,0.12784677743911743,0.6987963318824768,0.688143253326416,0.19688844680786133,2.0323309898376465,-0.6633118391036987,-1.0864417552947998,9.33059310913086,0.6580921411514282,0.3301456570625305,0.3060966730117798,0.021422261372208595,14.468902587890625,-26.368003845214844,32.02006530761719,-0.044332265853881836,-0.2759723663330078,0.0010266304016113281,-1.042109489440918,9.606565475463867,0.6570655107498169
8_20251106_181636,1762424163059,8,0.1450844258069992,0.1262291520833969,0.701251208782196,0.6864863038063049,0.18578116595745087,2.030015707015991,-0.6698426008224487,-1.4084479808807373,9.225252151489258,0.2750363349914551,0.3301456570625305,0.3060966730117798,0.021422261372208595,14.373371124267578,-26.30211639404297,32.3286018371582,-0.29307079315185547,-0.3050508499145508,-0.3056233525276184,-1.1153771877288818,9.530303001403809,0.5806596875190735
8_20251106_181636,1762424163078,8,0.14175356924533844,0.12396634370088577,0.7038788199424744,0.6849035620689392,0.17527391016483307,2.026754379272461,-0.677010178565979,-1.525758981704712,9.009784698486328,-0.06253156810998917,0.2592853605747223,0.4808039963245392,0.11854974180459976,14.242073059082031,-26.237533569335938,32.52753448486328,-0.3283054828643799,-0.4164142608642578,-0.5145530104637146,-1.197453498840332,9.426198959350586,0.45202144980430603
8_20251106_181636,1762424163096,8,0.13749803602695465,0.12159135937690735,0.706048846244812,0.6839625835418701,0.16426368057727814,2.022266149520874,-0.6851627826690674,-1.3701424598693848,8.98225212097168,0.10026714205741882,0.16704478859901428,0.5046277046203613,0.2395009547472,14.024063110351562,-26.20362091064453,32.72250747680664,-0.1381511688232422,-0.35515785217285156,-0.28140345215797424,-1.2319912910461426,9.337409973144531,0.38167059421539307
8_20251106_181636,1762424163116,8,0.13242775201797485,0.11974817514419556,0.7075422406196594,0.6837450265884399,0.1538650244474411,2.0170607566833496,-0.6925532817840576,-1.209737777709961,8.994222640991211,0.5108550786972046,0.18353812396526337,0.43071305751800537,0.34456968307495117,13.782890319824219,-26.146453857421875,32.94405746459961,0.017802834510803223,-0.2745504379272461,0.10334759950637817,-1.2275406122207642,9.268773078918457,0.4075074791908264
8_20251106_181636,1762424163135,8,0.1271483153104782,0.11913587152957916,0.7088712453842163,0.683477520942688,0.14379341900348663,2.0111844539642334,-0.6987053155899048,-1.1199591159820557,9.048089981079102,0.81490558385849,0.25562018156051636,0.45148247480392456,0.41115397214889526,13.51644515991211,-26.10370635986328,33.1913948059082,0.08606517314910889,-0.1765460968017578,0.3259184956550598,-1.2060242891311646,9.22463607788086,0.4889870882034302
8_20251106_181636,1762424163154,8,0.12116997689008713,0.11888805031776428,0.7105225920677185,0.6828917264938354,0.13505814969539642,2.0048482418060303,-0.7044602632522583,-1.076865315437317,8.848182678222656,0.4150911569595337,0.29776984453201294,0.6054203510284424,0.45269274711608887,13.214950561523438,-26.0380859375,33.42427444458008,0.10332715511322021,-0.3011627197265625,-0.05911672115325928,-1.180192470550537,9.149345397949219,0.47420787811279297
8_20251106_181636,1762424163173,8,0.1138833612203598,0.1180078312754631,0.7124754786491394,0.6822634339332581,0.12694132328033447,1.9971518516540527,-0.7119419574737549,-1.11397385597229,8.538146018981934,-0.2600446939468384,0.24584633111953735,0.7550822496414185,0.5327160358428955,12.777503967285156,-26.006996154785156,33.71881103515625,0.052974820137023926,-0.48895931243896484,-0.5874021053314209,-1.166948676109314,9.027105331420898,0.32735738158226013
8_20251106_181636,1762424163194,8,0.10509346425533295,0.1166234239935875,0.7141804099082947,0.6821295022964478,0.12694132328033447,1.9971518516540527,-0.7119419574737549,-1.11397385597229,8.538146018981934,-0.2600446939468384,0.24584633111953735,0.7550822496414185,0.5327160358428955,12.297359466552734,-25.866470336914062,34.0543098449707,0.052974820137023926,-0.48895931243896484,-0.5874021053314209,-1.166948676109314,9.027105331420898,0.32735738158226013
8_20251106_181636,1762424163212,8,0.09460093826055527,0.11533251404762268,0.7146230936050415,0.6834200024604797,0.1154949739575386,1.9775052070617676,-0.7341960668563843,-0.2712511420249939,8.279583930969238,-0.9184218645095825,-0.1793155074119568,0.899246335029602,0.8503656983375549,11.82394790649414,-25.836952209472656,34.26627731323242,0.6680527329444885,-0.4743919372558594,-0.8130040168762207,-0.9393038749694824,8.753975868225098,-0.10541784018278122
8_20251106_181636,1762424163230,8,0.08324544876813889,0.11485099792480469,0.7133980989456177,0.6862525939941406,0.1154949739575386,1.9775052070617676,-0.7341960668563843,-0.2712511420249939,8.279583930969238,-0.9184218645095825,-0.3601314425468445,0.9206266403198242,0.8931262493133545,11.086578369140625,-25.962646484375,34.505592346191406,0.6680527329444885,-0.4743919372558594,-0.8130040168762207,-0.9393038749694824,8.753975868225098,-0.10541784018278122
8_20251106_181636,1762424163250,8,0.07170329242944717,0.11458037793636322,0.7108444571495056,0.6902391910552979,0.11489614099264145,1.9656473398208618,-0.7476838827133179,0.32368239760398865,8.524978637695312,-0.23969487845897675,-0.39800506830215454,1.0751752853393555,0.8253202438354492,10.345882415771484,-26.150856018066406,34.716556549072266,1.010388970375061,-0.1831979751586914,-0.1074216216802597,-0.6867066025733948,8.708176612854004,-0.13227325677871704
8_20251106_181636,1762424163269,8,0.05939265340566635,0.11271080374717712,0.7080023288726807,0.6946232318878174,0.12727166712284088,1.9475656747817993,-0.7650219798088074,1.4920026063919067,9.016965866088867,0.5228255987167358,-0.26972347497940063,1.2401087284088135,0.6982603669166565,9.580406188964844,-26.352806091308594,34.88572692871094,1.4937769174575806,0.2140970230102539,0.40949535369873047,-0.0017743110656738281,8.802868843078613,0.11333023011684418
8_20251106_181636,1762424163286,8,0.04671734571456909,0.10910206288099289,0.7059471607208252,0.698249876499176,0.13899856805801392,1.9410663843154907,-0.7725812792778015,1.9947633743286133,9.103153228759766,-0.34144407510757446,-0.10723348706960678,1.1875745058059692,0.5528745651245117,8.643211364746094,-26.590591430664062,35.006954193115234,1.5972301959991455,0.24022769927978516,-0.3638194501399994,0.39753320813179016,8.86292552947998,0.022375375032424927
8_20251106_181636,1762424163307,8,0.03521231189370155,0.10512460023164749,0.7049681544303894,0.700520396232605,0.158222034573555,1.9347178936004639,-0.7840558886528015,2.0270838737487793,9.244405746459961,-0.754426121711731,-0.0546991191804409,0.9212374687194824,0.4343668222427368,7.653652191162109,-26.89447021484375,35.1384162902832,1.303640604019165,0.30518436431884766,-0.6214412450790405,0.723443329334259,8.939221382141113,-0.13298490643501282
8_20251106_181636,1762424163326,8,0.02620645985007286,0.10227958112955093,0.7044206857681274,0.7018857598304749,0.17787835001945496,1.9297109842300415,-0.7953838109970093,1.865481972694397,9.103154182434082,-0.667041540145874,-0.0705816000699997,0.6738372445106506,0.41787344217300415,6.689775466918945,-27.171783447265625,35.2849006652832,0.9136309623718262,0.13114643096923828,-0.4272453188896179,0.9518510103225708,8.972007751464844,-0.2397962212562561
8_20251106_181636,1762424163344,8,0.018950946629047394,0.10092311352491379,0.7037520408630371,0.7029853463172913,0.19790129363536835,1.9255512952804565,-0.8063951730728149,1.8989993333816528,9.112730026245117,-0.5712775588035583,-0.0705816000699997,0.6738372445106506,0.41787344217300415,5.771413803100586,-27.50830078125,35.3914794921875,0.7577186822891235,0.1125783920288086,-0.26518505811691284,1.1412806510925293,9.000151634216309,-0.3060925006866455
8_20251106_181636,1762424163364,8,0.012151112779974937,0.10037142038345337,0.702772855758667,0.7041932940483093,0.2221115678548813,1.9219648838043213,-0.818234920501709,2.152773857116699,9.264755249023438,-0.37735557556152344,-0.15976785123348236,0.5534968972206116,0.47468388080596924,4.821725845336914,-27.758895874023438,35.4578857421875,0.8091945648193359,0.2116832733154297,-0.0570104718208313,1.3435792922973633,9.053071975708008,-0.32034510374069214
8_20251106_181636,1762424163383,8,0.005475315731018782,0.10014447569847107,0.7013385891914368,0.7057374119758606,0.24710430204868317,1.9195256233215332,-0.8283278942108154,2.489144802093506,9.343759536743164,-0.10442831367254257,-0.15915697813034058,0.5473881959915161,0.46307745575904846,4.020286560058594,-27.962425231933594,35.54448699951172,0.9164524078369141,0.23254966735839844,0.17273345589637756,1.5726923942565918,9.111209869384766,-0.27716177701950073
8_20251106_181636,1762424163402,8,0.0010966387344524264,-0.09990547597408295,-0.699851393699646,-0.7072663903236389,0.27394309639930725,1.9183521270751953,-0.8378265500068665,2.7010226249694824,9.528106689453125,-0.244483083486557,-0.08646408468484879,0.5406687259674072,0.4368102550506592,3.207365036010742,-28.154190063476562,35.630859375,0.9026641845703125,0.33351707458496094,0.02614295482635498,1.79835844039917,9.194589614868164,-0.270626038312912
8_20251106_181636,1762424163422,8,0.007594892755150795,-0.09952836483716965,-0.6988028883934021,-0.7083155512809753,0.3020905554294586,1.9188059568405151,-0.8470249176025391,2.7644662857055664,9.766319274902344,-0.33426177501678467,-0.0498121976852417,0.4698083996772766,0.3677825629711151,3.207365036010742,-28.154190063476562,35.630859375,0.7728862762451172,0.4573841094970703,-0.05090859532356262,1.9915800094604492,9.308935165405273,-0.28335317969322205
8_20251106_181636,1762424163441,8,0.013179909437894821,-0.09921130537986755,-0.6980674862861633,-0.7090029716491699,0.33264946937561035,1.9206392765045166,-0.8558758497238159,2.784816026687622,9.762727737426758,-0.16906896233558655,-0.0498121976852417,0.4698083996772766,0.3677825629711151,2.469575881958008,-28.30364990234375,35.7344856262207,0.6345889568328857,0.3630342483520508,0.09142735600471497,2.1502270698547363,9.399693489074707,-0.2604963183403015
8_20251106_181636,1762424163459,8,0.01757066510617733,-0.09914106875658035,-0.6974159479141235,-0.7095585465431213,0.36053743958473206,1.9231125116348267,-0.863368570804596,2.865018367767334,9.767515182495117,-0.23011846840381622,-0.007662532851099968,0.26577961444854736,0.2651572823524475,1.8415603637695312,-28.445831298828125,35.82900619506836,0.5718331336975098,0.29425716400146484,0.02430228888988495,2.293185234069824,9.473258018493652,-0.25442075729370117
8_20251106_181636,1762424163479,8,0.021100321784615517,-0.09952164441347122,-0.6970508098602295,-0.7097678184509277,0.39185503125190735,1.9272618293762207,-0.8709562420845032,2.911703109741211,9.97939395904541,-0.14871914684772491,-0.009495127014815807,0.19003237783908844,0.23889008164405823,1.2659969329833984,-28.53338623046875,35.804901123046875,0.494814395904541,0.4049081802368164,0.0845613032579422,2.41688871383667,9.574485778808594,-0.23328045010566711
8_20251106_181636,1762424163498,8,0.023997224867343903,-0.10020019114017487,-0.696722686290741,-0.7099024653434753,0.421785444021225,1.932399868965149,-0.8773422241210938,3.024225950241089,10.082340240478516,-0.06492568552494049,-0.044925279915332794,0.17842595279216766,0.18757745623588562,0.7251739501953125,-28.65583038330078,35.74092483520508,0.4858696460723877,0.4062833786010742,0.13468381762504578,2.538356304168701,9.676056861877441,-0.19960950314998627
8_20251106_181636,1762424163516,8,0.026452120393514633,-0.10059260576963425,-0.6961920857429504,-0.710280179977417,0.44991037249565125,1.9381572008132935,-0.8822391629219055,3.020634651184082,10.136207580566406,0.14575502276420593,-0.044925279915332794,0.17842595279216766,0.18757745623588562,0.1975383758544922,-28.76451873779297,35.63715362548828,0.3858225345611572,0.3681201934814453,0.2762916088104248,2.634812116622925,9.768087387084961,-0.13053660094738007
8_20251106_181636,1762424163536,8,0.028196783736348152,-0.10046759247779846,-0.6956272721290588,-0.7107840180397034,0.48072704672813416,1.9454407691955566,-0.8864991068840027,3.006269931793213,10.164936065673828,0.1684989482164383,-0.05592084676027298,0.16193260252475739,0.020811397582292557,-0.24599456787109375,-28.880874633789062,35.60413360595703,0.297166109085083,0.31747913360595703,0.23922844231128693,2.70910382270813,9.847456932067871,-0.07072949409484863
8_20251106_181636,1762424163554,8,0.029350949451327324,-0.09992174059152603,-0.6951249837875366,-0.7113054394721985,0.48072704672813416,1.9454407691955566,-0.8864991068840027,3.006269931793213,10.164936065673828,0.1684989482164383,-0.02049069106578827,0.12894590198993683,-0.043940264731645584,-0.5499534606933594,-28.89978790283203,35.497257232666016,0.297166109085083,0.31747913360595703,0.23922844231128693,2.70910382270813,9.847456932067871,-0.07072949409484863
8_20251106_181636,1762424163574,8,0.029871366918087006,-0.09916158020496368,-0.6949306130409241,-0.7115799784660339,0.5341714024543762,1.9598302841186523,-0.8934330940246582,2.6375789642333984,10.089522361755371,-0.15590141713619232,-0.02049069106578827,0.12894590198993683,-0.043940264731645584,-0.842926025390625,-28.931137084960938,35.45819091796875,-0.07891035079956055,0.15089893341064453,-0.0861121341586113,2.716489315032959,9.938623428344727,-0.06978928297758102
8_20251106_181636,1762424163593,8,0.029675116762518883,-0.09865497052669525,-0.694973886013031,-0.7116163969039917,0.5598277449607849,1.9679155349731445,-0.8973760008811951,2.422110080718994,10.150571823120117,-0.17984241247177124,-0.007662532851099968,-0.020715948194265366,-0.09586376696825027,-1.0780963897705078,-29.02075958251953,35.36619186401367,-0.2355034351348877,0.16955947875976562,-0.08804250508546829,2.657613515853882,9.981012344360352,-0.09179990738630295
8_20251106_181636,1762424163613,8,0.028899744153022766,-0.09841809421777725,-0.6950368881225586,-0.7116195559501648,0.5830923318862915,1.976206660270691,-0.901134729385376,2.2928285598754883,10.181694984436035,-0.09604896605014801,-0.0394274964928627,-0.05858955904841423,-0.10624846071004868,-1.2462902069091797,-28.993804931640625,35.3195686340332,-0.291827917098999,0.16054630279541016,-0.0033992454409599304,2.5846564769744873,10.021148681640625,-0.09264972060918808
8_20251106_181636,1762424163631,8,0.02772749774158001,-0.09835103154182434,-0.6949126124382019,-0.7117968201637268,0.6021323204040527,1.9837881326675415,-0.904062032699585,2.2389614582061768,10.221198081970215,0.023655973374843597,-0.07607938349246979,-0.08730020374059677,-0.10258328169584274,-1.3299713134765625,-28.962364196777344,35.3845100402832,-0.27655601501464844,0.16003894805908203,0.09304455667734146,2.515517473220825,10.061159133911133,-0.06938858330249786
8_20251106_181636,1762424163651,8,0.026374291628599167,-0.0984523817896843,-0.6945374608039856,-0.7122002840042114,0.6021323204040527,1.9837881326675415,-0.904062032699585,2.2389614582061768,10.221198081970215,0.023655973374843597,-0.06447295099496841,-0.16060397028923035,-0.0946420356631279,-1.3076152801513672,-28.998313903808594,35.37118148803711,-0.27655601501464844,0.16003894805908203,0.09304455667734146,2.515517473220825,10.061159133911133,-0.06938858330249786
8_20251106_181636,1762424163670,8,0.02463645674288273,-0.09904869645833969,-0.6942373514175415,-0.7124723792076111,0.637860894203186,2.0005178451538086,-0.9091886281967163,2.1180593967437744,10.254714965820312,0.08231139928102493,-0.0137711800634861,-0.2968267798423767,-0.08547906577587128,-1.2947235107421875,-28.984962463378906,35.3719367980957,-0.27275967597961426,0.12598228454589844,0.11030341684818268,2.3908190727233887,10.128732681274414,-0.027992015704512596
8_20251106_181636,1762424163689,8,0.022046098485589027,-0.10068023949861526,-0.6942955851554871,-0.7122718095779419,0.6525579690933228,2.008571147918701,-0.9109761118888855,2.0558128356933594,10.241547584533691,0.09308484196662903,-0.0137711800634861,-0.2968267798423767,-0.08547906577587128,-1.2813377380371094,-28.97093963623047,35.305110931396484,-0.2680048942565918,0.09025192260742188,0.09686148911714554,2.323817729949951,10.15129566192627,-0.0037766452878713608
8_20251106_181636,1762424163708,8,0.019056737422943115,-0.10291688144207001,-0.6946390271186829,-0.7117033004760742,0.6657257676124573,2.0166139602661133,-0.912503719329834,2.0342659950256348,10.294218063354492,0.05837040767073631,0.02960021421313286,-0.38540220260620117,-0.07081831246614456,-1.1839485168457031,-28.9647216796875,35.32255172729492,-0.23164129257202148,0.11433792114257812,0.04971764236688614,2.2659072875976562,10.179880142211914,0.0086527643725276
8_20251106_181636,1762424163726,8,0.015956616029143333,-0.10502496361732483,-0.6948457360267639,-0.7112696766853333,0.6768147945404053,2.023918867111206,-0.9131665825843811,1.9564577341079712,10.206832885742188,0.29778027534484863,-0.034540582448244095,-0.3377547264099121,-0.12762874364852905,-0.9511165618896484,-28.936264038085938,35.25103759765625,-0.24755966663360596,0.021561622619628906,0.23130200803279877,2.204017400741577,10.185271263122559,0.06647826731204987
8_20251106_181636,1762424163745,8,0.01282733678817749,-0.10655557364225388,-0.694786548614502,-0.7111631631851196,0.6867003440856934,2.0310568809509277,-0.912651538848877,1.7541563510894775,10.11705493927002,0.496490478515625,-0.04920133203268051,-0.22657735645771027,-0.18321743607521057,-0.7673244476318359,-28.911392211914062,35.218109130859375,-0.35988879203796387,-0.05457305908203125,0.34400975704193115,2.1140451431274414,10.17162799835205,0.15248070657253265
8_20251106_181636,1762424163765,8,0.01000154111534357,-0.1069878488779068,-0.6946170926094055,-0.7113091349601746,0.6945853233337402,2.037701368331909,-0.9113530516624451,1.5650227069854736,10.121843338012695,0.447411447763443,-0.034540582448244095,-0.11539997905492783,-0.2388060986995697,-0.5749702453613281,-28.948638916015625,35.19786834716797,-0.43921804428100586,-0.03982734680175781,0.23594459891319275,2.0042407512664795,10.161670684814453,0.21146684885025024
8_20251106_181636,1762424163784,8,0.007595635950565338,-0.10619673132896423,-0.6945680975914001,-0.7115052342414856,0.7009022235870361,2.0440428256988525,-0.9092608690261841,1.4884114265441895,10.061989784240723,0.4725494980812073,-0.01682550460100174,-0.08180242776870728,-0.27362537384033203,-0.30980873107910156,-28.993141174316406,35.12623977661133,-0.41266345977783203,-0.07974433898925781,0.20886611938476562,1.9010748863220215,10.14173412322998,0.26368337869644165
8_20251106_181636,1762424163802,8,0.005204508546739817,-0.10488811135292053,-0.6946851015090942,-0.7116066217422485,0.7049686908721924,2.0490474700927734,-0.9069076180458069,1.3591301441192627,9.972211837768555,0.4928993582725525,0.023491568863391876,-0.08180242776870728,-0.29744911193847656,-0.10084152221679688,-28.95398712158203,35.08103942871094,-0.43355584144592285,-0.13561725616455078,0.18337279558181763,1.7926859855651855,10.107829093933105,0.30952656269073486
8_20251106_181636,1762424163823,8,0.002653884468600154,-0.10345210134983063,-0.6950835585594177,-0.7114418148994446,0.7075900435447693,2.0537831783294678,-0.9043283462524414,1.2430163621902466,9.927921295166016,0.3408740758895874,0.0888540968298912,-0.1318933218717575,-0.29317307472229004,0.14086341857910156,-28.97563934326172,35.076541900634766,-0.43973565101623535,-0.14392662048339844,0.025077998638153076,1.682752013206482,10.071847915649414,0.3157960772514343
8_20251106_181636,1762424163841,8,0.00011392491433070973,0.10233937948942184,0.695915699005127,0.7107939124107361,0.7075900435447693,2.0537831783294678,-0.9043283462524414,1.2430163621902466,9.927921295166016,0.3408740758895874,0.1352798193693161,-0.18442769348621368,-0.28706443309783936,0.14086341857910156,-28.97563934326172,35.076541900634766,-0.43973565101623535,-0.14392662048339844,0.025077998638153076,1.682752013206482,10.071847915649414,0.3157960772514343
8_20251106_181636,1762424163860,8,0.0031415594276040792,0.10160508751869202,0.6970738172531128,0.7097567319869995,0.7070273160934448,2.0600717067718506,-0.900681734085083,0.9126306772232056,9.710057258605957,0.16610485315322876,0.1303928941488266,-0.1777081936597824,-0.26751673221588135,0.4334259033203125,-28.956443786621094,35.07479476928711,-0.5139458179473877,-0.2531900405883789,-0.10327199101448059,1.4265764951705933,9.963247299194336,0.26937684416770935
8_20251106_181636,1762424163880,8,0.006021395791321993,0.10093380510807037,0.6981927752494812,0.7087333798408508,0.7070273160934448,2.0600717067718506,-0.900681734085083,0.9126306772232056,9.710057258605957,0.16610485315322876,0.09740620106458664,-0.09035453200340271,-0.24613648653030396,0.6895294189453125,-28.939498901367188,35.05805969238281,-0.5139458179473877,-0.2531900405883789,-0.10327199101448059,1.4265764951705933,9.963247299194336,0.26937684416770935
8_20251106_181636,1762424163900,8,0.008219536393880844,0.09980282187461853,0.6990721225738525,0.7080042362213135,0.6986311674118042,2.0617835521698,-0.9004725217819214,0.6756149530410767,9.505361557006836,-0.244483083486557,0.06441950798034668,-0.023159407079219818,-0.2021542340517044,0.9100894927978516,-28.900360107421875,35.09444808959961,-0.4869358539581299,-0.30607032775878906,-0.3690912127494812,1.1625508069992065,9.811431884765625,0.12460814416408539
8_20251106_181636,1762424163919,8,0.009725509211421013,0.09848449379205704,0.6997169256210327,0.7075326442718506,0.692977786064148,2.0610482692718506,-0.9023992419242859,0.6133683919906616,9.429948806762695,-0.44439035654067993,0.04487183317542076,-0.05248091369867325,-0.13801343739032745,1.1444435119628906,-28.835037231445312,35.10482406616211,-0.43934595584869385,-0.30518627166748047,-0.45519882440567017,1.0527143478393555,9.735135078430176,0.01080845296382904
8_20251106_181636,1762424163939,8,0.011003800667822361,0.09778853505849838,0.7002072930335999,0.7071252465248108,0.692977786064148,2.0610482692718506,-0.9023992419242859,0.6133683919906616,9.429948806762695,-0.44439035654067993,-0.031486257910728455,-0.08913280069828033,-0.03477729111909866,1.3676261901855469,-28.745941162109375,35.1693000793457,-0.43934595584869385,-0.30518627166748047,-0.45519882440567017,1.0527143478393555,9.735135078430176,0.01080845296382904
8_20251106_181636,1762424163956,8,0.011897015385329723,0.09800847619771957,0.700118362903595,0.7071683406829834,0.6791229248046875,2.0594053268432617,-0.90714031457901,0.8132755756378174,9.804624557495117,0.21518388390541077,-0.031486257910728455,-0.08913280069828033,-0.03477729111909866,1.5525321960449219,-28.69635772705078,35.17744827270508,-0.12872523069381714,0.06477546691894531,0.20070795714855194,0.9420008063316345,9.739849090576172,0.014475923031568527
8_20251106_181636,1762424163975,8,0.012230228632688522,0.09869691729545593,0.6997360587120056,0.7074452638626099,0.6725586652755737,2.0590031147003174,-0.9085775017738342,0.953330397605896,9.83095932006836,0.1684989631175995,-0.05897516757249832,-0.08607847988605499,0.044024258852005005,1.7025985717773438,-28.612022399902344,35.238983154296875,0.009063661098480225,0.07288837432861328,0.12321843206882477,0.9442667365074158,9.758070945739746,0.04528053104877472
8_20251106_181636,1762424163994,8,0.012234547175467014,0.0994342491030693,0.6998412609100342,0.7072378396987915,0.666692316532135,2.059109926223755,-0.9106622934341431,1.0790205001831055,9.936300277709961,-0.216950923204422,0.06380864232778549,-0.059811294078826904,0.05563068389892578,1.8793487548828125,-28.4881591796875,35.2752571105957,0.10780298709869385,0.14258289337158203,-0.20978516340255737,0.9712175130844116,9.793717384338379,-0.0071657560765743256
8_20251106_181636,1762424164013,8,0.012166835367679596,0.10008423775434494,0.7001999616622925,0.7067921757698059,0.6614741683006287,2.0595762729644775,-0.9130837321281433,1.1005674600601196,9.92672348022461,-0.16787193715572357,0.004554763436317444,-0.07447204738855362,0.04341339319944382,1.9786548614501953,-28.444534301757812,35.32052230834961,0.10347998142242432,0.10640525817871094,-0.1285649538040161,0.9970874786376953,9.820318222045898,-0.03930698707699776
8_20251106_181636,1762424164033,8,0.012388711795210838,0.10084380209445953,0.7002225518226624,0.7066579461097717,0.6567344069480896,2.0603697299957275,-0.915495753288269,1.1544346809387207,9.9279203414917,-0.03619648516178131,-0.051033928990364075,-0.06225475296378136,0.03974820300936699,2.016622543334961,-28.417037963867188,35.3225212097168,0.1258777379989624,0.08608150482177734,0.002488400787115097,1.0285569429397583,9.841838836669922,-0.03868488594889641
8_20251106_181636,1762424164051,8,0.012581215240061283,0.10146834701299667,0.6998699307441711,0.7069144248962402,0.6530449390411377,2.061413526535034,-0.9173544049263,1.1759815216064453,9.990167617797852,0.04400582239031792,-0.03881663456559181,-0.04820486530661583,0.02020053192973137,2.019441604614258,-28.366806030273438,35.323577880859375,0.11793971061706543,0.11866283416748047,0.06615256518125534,1.0580418109893799,9.871504783630371,-0.022146744653582573
8_20251106_181636,1762424164071,8,0.01277901604771614,0.10186216980218887,0.699598491191864,0.7071228623390198,0.6495490074157715,2.0625665187835693,-0.919399082660675,1.189149022102356,9.888418197631836,-0.04936404526233673,-0.01010599173605442,-0.018272491171956062,0.007983237504959106,2.045024871826172,-28.340370178222656,35.35211944580078,0.10488581657409668,0.013530731201171875,-0.021773841232061386,1.0842632055282593,9.874887466430664,-0.027590204030275345
8_20251106_181636,1762424164089,8,0.01282300055027008,0.10196948051452637,0.6995232105255127,0.7071810960769653,0.6470983028411865,2.063777446746826,-0.9211006760597229,1.3028688430786133,9.966226577758789,-0.008664362132549286,-0.017436368390917778,-0.017661623656749725,0.02020053192973137,2.0559005737304688,-28.36455535888672,35.338565826416016,0.17488455772399902,0.07307147979736328,0.015140675008296967,1.1279842853546143,9.893155097961426,-0.023805037140846252
8_20251106_181636,1762424164109,8,0.012812145054340363,0.10218849778175354,0.6993986964225769,0.7072728276252747,0.6451886892318726,2.0653576850891113,-0.9226542711257935,1.3507506847381592,9.992561340332031,0.05597631260752678,-0.02354501560330391,-0.013385573402047157,0.014091884717345238,2.0679874420166016,-28.36389923095703,35.35257339477539,0.17821311950683594,0.07952499389648438,0.0638250783085823,1.1725375652313232,9.913036346435547,-0.00784876849502325
8_20251106_181636,1762424164128,8,0.012798952870070934,0.10235045850276947,0.6992307901382446,0.7074156403541565,0.643993616104126,2.0670151710510254,-0.9241341352462769,1.3651152849197388,9.99734878540039,-0.03619649261236191,0.002111302688717842,-0.003000873140990734,-0.01889481022953987,2.0938682556152344,-28.337059020996094,35.3405647277832,0.1540621519088745,0.06745052337646484,-0.022678179666399956,1.2110531330108643,9.929898262023926,-0.013518312945961952
8_20251106_181636,1762424164147,8,0.012832080945372581,0.10215860605239868,0.6992678046226501,0.7074061632156372,0.6434320211410522,2.0689456462860107,-0.9255332350730896,1.4201796054840088,10.059595108032227,-0.01105845719575882,0.002111302688717842,-0.003000873140990734,-0.01889481022953987,2.091245651245117,-28.38701629638672,35.312477111816406,0.16730117797851562,0.10375785827636719,0.001967884600162506,1.2528784275054932,9.95583724975586,-0.013026341795921326
8_20251106_181636,1762424164166,8,0.0127411475405097,0.10166885703802109,0.6994852423667908,0.7072633504867554,0.643042266368866,2.0709526538848877,-0.9265483021736145,1.305262804031372,10.018896102905273,0.10146418958902359,0.017993785440921783,-0.03843102976679802,-0.08059214800596237,2.1042346954345703,-28.37352752685547,35.29971694946289,0.041907548904418945,0.05044746398925781,0.09159242361783981,1.2633552551269531,9.968448638916016,0.009871763177216053
