session_id,timestamp,label,quaternion_w,quaternion_x,quaternion_y,quaternion_z,position_x,position_y,position_z,accelerometer_x,accelerometer_y,accelerometer_z,gyroscope_x,gyroscope_y,gyroscope_z,magnetometer_x,magnetometer_y,magnetometer_z,linear_acceleration_x,linear_acceleration_y,linear_acceleration_z,gravity_x,gravity_y,gravity_z
2_20251106_213813,1762436256076,2,0.06672623753547668,-0.12396369874477386,-0.7737747430801392,-0.617618978023529,1.081292748451233,2.8267362117767334,1.5271873474121094,3.4838929176330566,7.491925239562988,-1.9023964405059814,-0.08017218112945557,0.39676427841186523,0.10279326885938644,-10.192239761352539,-17.347694396972656,32.746055603027344,-0.08458805084228516,0.9574623107910156,-1.0376852750778198,3.568480968475342,6.534462928771973,-0.8647111654281616
2_20251106_213813,1762436256095,2,0.07155124098062515,-0.12117519974708557,-0.7730749249458313,-0.618507981300354,1.0845054388046265,2.807997465133667,1.4857028722763062,3.570080280303955,7.8809661865234375,-2.552394151687622,-0.07650698721408844,0.34911683201789856,0.12783871591091156,-10.6314697265625,-17.41180419921875,32.511348724365234,0.001279592514038086,1.0772027969360352,-1.3501464128494263,3.568800687789917,6.803763389587402,-1.2022477388381958
2_20251106_213813,1762436256115,2,0.07613198459148407,-0.11896059662103653,-0.7724162936210632,-0.6192135214805603,1.0879185199737549,2.7933411598205566,1.4396371841430664,3.634721040725708,8.146711349487305,-2.709207534790039,-0.07650698721408844,0.34911683201789856,0.12783871591091156,-10.969181060791016,-17.394485473632812,32.309181213378906,0.05273628234863281,1.0743584632873535,-1.2055678367614746,3.581984758377075,7.072352886199951,-1.5036396980285645
2_20251106_213813,1762436256134,2,0.08023356646299362,-0.11702102422714233,-0.7713742256164551,-0.620363175868988,1.0910844802856445,2.784466505050659,1.3972264528274536,3.682602882385254,8.55729866027832,-2.7319517135620117,-0.26526421308517456,0.28803032636642456,0.1003498062491417,-11.22408676147461,-17.39820098876953,32.25859832763672,0.08049440383911133,1.1879568099975586,-0.9826496839523315,3.6021084785461426,7.369341850280762,-1.7493020296096802
2_20251106_213813,1762436256153,2,0.0839231088757515,-0.11515844613313675,-0.769751250743866,-0.6222366690635681,1.094467282295227,2.7807300090789795,1.3504003286361694,3.615568161010742,9.221662521362305,-2.426703929901123,-0.35445040464401245,0.26237404346466064,0.06553051620721817,-11.476396560668945,-17.37519073486328,32.046348571777344,0.010767698287963867,1.4818568229675293,-0.5419216156005859,3.6048004627227783,7.739805698394775,-1.884782314300537
2_20251106_213813,1762436256171,2,0.08709200471639633,-0.1132740005850792,-0.7676407098770142,-0.6247493624687195,1.097150206565857,2.7820332050323486,1.3104207515716553,3.5198042392730713,9.566411972045898,-1.861696720123291,-0.34406572580337524,0.25687626004219055,0.022159118205308914,-11.808660507202148,-17.47063446044922,31.896358489990234,-0.06799674034118652,1.4612855911254883,0.018468379974365234,3.587800979614258,8.10512638092041,-1.8801651000976562
2_20251106_213813,1762436256191,2,0.08875801414251328,-0.11249163001775742,-0.7653678059577942,-0.6274390816688538,1.0998083353042603,2.7881057262420654,1.2684763669967651,3.5305776596069336,9.6502046585083,-1.7958590984344482,-0.34406572580337524,0.25687626004219055,0.022159118205308914,-12.039628982543945,-17.508140563964844,31.616188049316406,-0.045778751373291016,1.2360620498657227,0.0674448013305664,3.5763564109802246,8.414142608642578,-1.8633038997650146
2_20251106_213813,1762436256210,2,0.09188912808895111,-0.10980477184057236,-0.7638373970985413,-0.6293264031410217,1.0998083353042603,2.7881057262420654,1.2684763669967651,3.5305776596069336,9.6502046585083,-1.7958590984344482,-0.1711910218000412,0.24832414090633392,0.04659371078014374,-12.285787582397461,-17.5853271484375,31.456378936767578,-0.045778751373291016,1.2360620498657227,0.0674448013305664,3.5763564109802246,8.414142608642578,-1.8633038997650146
2_20251106_213813,1762436256229,2,0.09501675516366959,-0.10757621377706528,-0.7626879811286926,-0.6306395530700684,1.1041876077651978,2.80898380279541,1.1946686506271362,3.555715799331665,9.860885620117188,-1.8425440788269043,-0.13820432126522064,0.14875319600105286,0.1156214252114296,-12.459238052368164,-17.669898986816406,31.25870132446289,-0.008613348007202148,0.9517717361450195,0.014818549156188965,3.564329147338867,8.909113883972168,-1.8573626279830933
2_20251106_213813,1762436256249,2,0.09787427634000778,-0.10640247911214828,-0.7617636919021606,-0.6315181851387024,1.1063477993011475,2.8228580951690674,1.1612935066223145,3.619159460067749,9.871659278869629,-1.5971488952636719,-0.09055687487125397,0.061399538069963455,0.15838193893432617,-12.670036315917969,-17.7579345703125,31.167682647705078,0.04386425018310547,0.7700366973876953,0.20817101001739502,3.5752952098846436,9.101622581481934,-1.805319905281067
2_20251106_213813,1762436256268,2,0.10035581141710281,-0.10606258362531662,-0.7611531019210815,-0.6319219470024109,1.1087396144866943,2.8397791385650635,1.1290024518966675,3.651479721069336,10.103886604309082,-1.4487147331237793,-0.061846233904361725,0.044295329600572586,0.16937750577926636,-12.84699821472168,-17.89368438720703,31.06356430053711,0.06094765663146973,0.8018112182617188,0.285284161567688,3.590532064437866,9.302075386047363,-1.7339988946914673
2_20251106_213813,1762436256286,2,0.10284778475761414,-0.10584476590156555,-0.7606873512268066,-0.6321187019348145,1.1109111309051514,2.8564746379852295,1.1023554801940918,3.6419034004211426,10.206832885742188,-1.3433743715286255,-0.049018073827028275,0.07850375771522522,0.1357799470424652,-12.999191284179688,-18.027305603027344,30.906360626220703,0.04109692573547363,0.7238063812255859,0.31249964237213135,3.600806474685669,9.483026504516602,-1.6558740139007568
2_20251106_213813,1762436256306,2,0.10537125170230865,-0.10517389327287674,-0.7602688670158386,-0.6323184370994568,1.1132153272628784,2.8763198852539062,1.0750471353530884,3.60479474067688,10.214015007019043,-1.3864681720733643,-0.049018073827028275,0.07850375771522522,0.1357799470424652,-13.088933944702148,-18.120094299316406,30.833499908447266,0.0031905174255371094,0.5847902297973633,0.21552467346191406,3.6016042232513428,9.62922477722168,-1.6019928455352783
2_20251106_213813,1762436256324,2,0.1080150380730629,-0.1040344387292862,-0.7598455548286438,-0.6325696110725403,1.1152080297470093,2.8943707942962646,1.0522027015686035,3.6107802391052246,10.069171905517578,-1.3972415924072266,0.0022945627570152283,0.09927315264940262,0.09729548543691635,-13.209892272949219,-18.115211486816406,30.80182647705078,0.007340669631958008,0.3519573211669922,0.16380095481872559,3.6034395694732666,9.717214584350586,-1.5610425472259521
2_20251106_213813,1762436256344,2,0.11036328226327896,-0.10303366929292679,-0.7597239017486572,-0.6324741840362549,1.1152080297470093,2.8943707942962646,1.0522027015686035,3.6107802391052246,10.069171905517578,-1.3972415924072266,0.07987438142299652,0.016195550560951233,0.12478438764810562,-13.344446182250977,-18.13623809814453,30.769134521484375,0.007340669631958008,0.3519573211669922,0.16380095481872559,3.6034395694732666,9.717214584350586,-1.5610425472259521
2_20251106_213813,1762436256363,2,0.11245531588792801,-0.10253266245126724,-0.7601495385169983,-0.6316751837730408,1.1188207864761353,2.933323621749878,1.0080794095993042,3.605991840362549,10.021289825439453,-1.264369249343872,0.14218257367610931,-0.04061486944556236,0.19381210207939148,-13.430763244628906,-18.16637420654297,30.711109161376953,0.013508319854736328,0.18867015838623047,0.20634222030639648,3.5924835205078125,9.832619667053223,-1.4707114696502686
2_20251106_213813,1762436256382,2,0.11457941681146622,-0.10279950499534607,-0.7609363794326782,-0.6303012371063232,1.1212326288223267,2.9519333839416504,0.9886685609817505,3.870539665222168,10.108675003051758,-1.4355473518371582,0.18311052024364471,-0.05527561902999878,0.25673118233680725,-13.490482330322266,-18.14550018310547,30.736217498779297,0.22244477272033691,0.22084426879882812,0.02813136577606201,3.648094892501831,9.88783073425293,-1.4636787176132202
2_20251106_213813,1762436256401,2,0.11696705222129822,-0.10363056510686874,-0.7618916034698486,-0.6285702586174011,1.1249618530273438,2.9707210063934326,0.9697306752204895,4.172196388244629,10.291824340820312,-1.6450307369232178,0.22098413109779358,-0.06932549923658371,0.25734204053878784,-13.512641906738281,-18.109283447265625,30.722511291503906,0.4192812442779541,0.3231954574584961,-0.1450815200805664,3.752915143966675,9.968628883361816,-1.4999492168426514
2_20251106_213813,1762436256421,2,0.11923199892044067,-0.10463344305753708,-0.7630835771560669,-0.6265293955802917,1.1306461095809937,2.990330934524536,0.9503881335258484,4.396044731140137,10.239152908325195,-1.633060336112976,0.24908392131328583,-0.07726674526929855,0.19503381848335266,-13.633079528808594,-18.08049774169922,30.813011169433594,0.5145034790039062,0.21641921997070312,-0.10648882389068604,3.8815412521362305,10.022733688354492,-1.52657151222229
2_20251106_213813,1762436256439,2,0.12107912451028824,-0.10527131706476212,-0.7645168304443359,-0.6243170499801636,1.1306461095809937,2.990330934524536,0.9503881335258484,4.396044731140137,10.239152908325195,-1.633060336112976,0.2619120478630066,-0.07299069315195084,0.12783871591091156,-13.682718276977539,-17.87194061279297,30.90966033935547,0.5145034790039062,0.21641921997070312,-0.10648882389068604,3.8815412521362305,10.022733688354492,-1.52657151222229
2_20251106_213813,1762436256461,2,0.12266479432582855,-0.10532505810260773,-0.7660802006721497,-0.6220780611038208,1.1382180452346802,3.009563684463501,0.9319874048233032,4.595952033996582,10.221198081970215,-1.5349023342132568,0.3162790536880493,-0.10231219977140427,0.06614138185977936,-13.819168090820312,-17.694190979003906,31.015865325927734,0.5715289115905762,0.15877056121826172,-0.006664633750915527,4.024423122406006,10.062427520751953,-1.5282377004623413
2_20251106_213813,1762436256479,2,0.1236591786146164,-0.10517428070306778,-0.7680109739303589,-0.6195206642150879,1.1575616598129272,3.043002128601074,0.8977556824684143,4.849726676940918,9.79384994506836,-1.9754164218902588,0.4011892080307007,-0.16523127257823944,0.01055268943309784,-13.862964630126953,-17.597854614257812,31.11063003540039,0.5387282371520996,-0.21747398376464844,-0.3350338935852051,4.310998439788818,10.011323928833008,-1.6403825283050537
2_20251106_213813,1762436256498,2,0.12397962063550949,-0.1049126535654068,-0.7705702781677246,-0.6163147687911987,1.1689643859863281,3.0563418865203857,0.8794559240341187,4.889228820800781,9.378475189208984,-2.350092887878418,0.4494475722312927,-0.24036763608455658,-0.011438440531492233,-13.862964630126953,-17.597854614257812,31.11063003540039,0.4625840187072754,-0.5062789916992188,-0.5677683353424072,4.426644802093506,9.884754180908203,-1.7823245525360107
2_20251106_213813,1762436256516,2,0.12363043427467346,-0.10494876652956009,-0.7735384702682495,-0.6126495599746704,1.1805927753448486,3.0666115283966064,0.8607273697853088,4.981401443481445,9.179764747619629,-2.6996312141418457,0.44761496782302856,-0.3374951481819153,-0.015103628858923912,-13.868274688720703,-17.450119018554688,31.329566955566406,0.4438052177429199,-0.5639915466308594,-0.7338452339172363,4.537596225738525,9.743756294250488,-1.9657859802246094
2_20251106_213813,1762436256536,2,0.1224924623966217,-0.10562310367822647,-0.7766351103782654,-0.6088327169418335,1.1805927753448486,3.0666115283966064,0.8607273697853088,4.981401443481445,9.179764747619629,-2.6996312141418457,0.44761496782302856,-0.3374951481819153,-0.015103628858923912,-13.893331527709961,-17.22808837890625,31.495040893554688,0.4438052177429199,-0.5639915466308594,-0.7338452339172363,4.537596225738525,9.743756294250488,-1.9657859802246094
2_20251106_213813,1762436256555,2,0.12032826244831085,-0.10685162991285324,-0.7796958088874817,-0.605126678943634,1.2089470624923706,3.0798070430755615,0.817060649394989,5.242358207702637,8.528570175170898,-2.633793354034424,0.4097413420677185,-0.45722460746765137,-0.03831648826599121,-13.89913558959961,-17.081031799316406,31.781558990478516,0.4711580276489258,-0.8443708419799805,-0.40952110290527344,4.771200180053711,9.372941017150879,-2.2242722511291504
2_20251106_213813,1762436256573,2,0.11688350886106491,-0.10847257077693939,-0.7825784087181091,-0.6017831563949585,1.2231714725494385,3.0806846618652344,0.7967324256896973,5.329743385314941,7.997079849243164,-2.650552272796631,0.35537439584732056,-0.565958559513092,-0.09879209846258163,-13.851879119873047,-16.866928100585938,31.96323013305664,0.4468345642089844,-1.1006889343261719,-0.34102392196655273,4.882908821105957,9.097768783569336,-2.309528350830078
2_20251106_213813,1762436256593,2,0.11261356621980667,-0.10992500931024551,-0.7852194309234619,-0.5988866090774536,1.2391802072525024,3.0768730640411377,0.774206817150116,5.518877029418945,7.387781620025635,-3.089869260787964,0.24358613789081573,-0.6966835856437683,-0.24112358689308167,-13.620719909667969,-16.61620330810547,32.19333267211914,0.5087747573852539,-1.3679900169372559,-0.6242725849151611,5.010102272033691,8.75577163696289,-2.4655966758728027
2_20251106_213813,1762436256613,2,0.10638894140720367,-0.1126965880393982,-0.7874864339828491,-0.5965282917022705,1.2578109502792358,3.06563401222229,0.747732400894165,5.553590774536133,6.596531867980957,-3.307732343673706,0.15134555101394653,-0.8860516548156738,-0.32542288303375244,-13.42238998413086,-16.51775360107422,32.419288635253906,0.43479061126708984,-1.727391242980957,-0.6737086772918701,5.118800163269043,8.323923110961914,-2.634023666381836
2_20251106_213813,1762436256631,2,0.09909720718860626,-0.11492228507995605,-0.7896875143051147,-0.5944461822509766,1.2726495265960693,3.0512852668762207,0.725934624671936,5.351289749145508,5.726276874542236,-3.2885794639587402,0.00046196579933166504,-1.0674785375595093,-0.4237721264362335,-13.09897232055664,-16.348976135253906,32.6920166015625,0.1859912872314453,-2.0781168937683105,-0.5236446857452393,5.1652984619140625,7.804393768310547,-2.764934778213501
2_20251106_213813,1762436256650,2,0.08973564952611923,-0.1176641434431076,-0.7912793755531311,-0.593278706073761,1.2882744073867798,3.0273842811584473,0.6988815665245056,4.84972620010376,5.217530727386475,-3.6500885486602783,-0.19501475989818573,-1.1737689971923828,-0.5294517278671265,-12.681293487548828,-16.236228942871094,32.92679977416992,-0.2524580955505371,-2.069490432739258,-0.708122968673706,5.102184295654297,7.287021160125732,-2.9419655799865723
2_20251106_213813,1762436256669,2,0.07878069579601288,-0.12037253379821777,-0.7919062376022339,-0.5934548377990723,1.2997816801071167,2.998871326446533,0.6723493337631226,4.156634330749512,4.756667137145996,-3.713531970977783,-0.19501475989818573,-1.1737689971923828,-0.5294517278671265,-12.099355697631836,-16.225372314453125,33.166072845458984,-0.7564401626586914,-2.0242834091186523,-0.6172530651092529,4.913074493408203,6.780950546264648,-3.0962789058685303
2_20251106_213813,1762436256689,2,0.06616897881031036,-0.1229865550994873,-0.7913389205932617,-0.5952131748199463,1.2997816801071167,2.998871326446533,0.6723493337631226,4.156634330749512,4.756667137145996,-3.713531970977783,-0.7087520360946655,-1.32953941822052,-0.7334805727005005,-11.329488754272461,-16.327377319335938,33.410552978515625,-0.7564401626586914,-2.0242834091186523,-0.6172530651092529,4.913074493408203,6.780950546264648,-3.0962789058685303
2_20251106_213813,1762436256708,2,0.052085991948843,-0.12531156837940216,-0.7892333269119263,-0.5989113450050354,1.3062076568603516,2.962156295776367,0.6420605778694153,3.225330114364624,4.759060859680176,-3.8212664127349854,-1.0331212282180786,-1.3362590074539185,-0.8874184489250183,-10.47212028503418,-16.39763641357422,33.550865173339844,-1.3501956462860107,-1.6175117492675781,-0.5799901485443115,4.575525760650635,6.376572608947754,-3.241276264190674
2_20251106_213813,1762436256727,2,0.03656760975718498,-0.12648217380046844,-0.7853105068206787,-0.6049400568008423,1.2952179908752441,2.8928027153015137,0.5925323963165283,0.5403483510017395,5.3946943283081055,-2.7858188152313232,-1.3526034355163574,-1.2128642797470093,-1.0706778764724731,-9.46872329711914,-16.683189392089844,33.652252197265625,-2.8282439708709717,-0.5590691566467285,0.3958754539489746,3.3685922622680664,5.953763484954834,-3.181694269180298
2_20251106_213813,1762436256746,2,0.020511802285909653,-0.12525130808353424,-0.7794746160507202,-0.6134416460990906,1.2739205360412598,2.858074188232422,0.5730199217796326,-0.8314701914787292,5.614951133728027,-1.9634459018707275,-1.570682168006897,-0.951414167881012,-1.1507011651992798,-8.237028121948242,-17.24059295654297,33.64924621582031,-3.3600499629974365,-0.27104997634887695,0.9745988845825195,2.5285797119140625,5.886001110076904,-2.938044786453247
2_20251106_213813,1762436256765,2,0.005563161801546812,-0.12147466093301773,-0.7720766663551331,-0.6237873435020447,1.2439264059066772,2.8270766735076904,0.5591790676116943,-1.868114948272705,5.9908246994018555,-1.4271678924560547,-1.660479187965393,-0.694240152835846,-1.0089805126190186,-6.938375473022461,-17.917587280273438,33.524898529052734,-3.5173559188842773,0.08385896682739258,1.2087016105651855,1.6492409706115723,5.906965732574463,-2.6358695030212402
2_20251106_213813,1762436256784,2,0.00730736693367362,0.11738791316747665,0.7635101675987244,0.6349952220916748,1.1994953155517578,2.7963767051696777,0.5497721433639526,-2.5516300201416016,6.5713934898376465,-0.9244071841239929,-1.6360446214675903,-0.628877580165863,-0.6198596954345703,-5.62342643737793,-18.75475311279297,33.249420166015625,-3.360696792602539,0.5315423011779785,1.3691699504852295,0.8090668320655823,6.039851188659668,-2.293577194213867
2_20251106_213813,1762436256803,2,0.01703600212931633,0.11503610759973526,0.7544215321540833,0.64600670337677,1.150110125541687,2.7710349559783936,0.5467991828918457,-2.575571060180664,6.9017791748046875,-0.2827886939048767,-1.4876044988632202,-0.7290593981742859,-0.06519453972578049,-4.297417640686035,-19.62744903564453,32.838478088378906,-2.7077102661132812,0.689542293548584,1.608630895614624,0.13213926553726196,6.2122368812561035,-1.891419529914856
2_20251106_213813,1762436256822,2,0.02388794720172882,0.1170654296875,0.7453774809837341,0.6558486223220825,1.0975420475006104,2.750497341156006,0.5503851175308228,-1.9279674291610718,7.501501083374023,0.44501736760139465,-1.4876044988632202,-0.7290593981742859,-0.06519453972578049,-3.0074987411499023,-20.52507781982422,32.16872787475586,-1.648085355758667,1.0314111709594727,1.8691495656967163,-0.2798820734024048,6.470089912414551,-1.424132227897644
2_20251106_213813,1762436256841,2,0.028334254398941994,0.12479003518819809,0.7363496422767639,0.6643897891044617,1.0975420475006104,2.750497341156006,0.5503851175308228,-1.9279674291610718,7.501501083374023,0.44501736760139465,-1.1968328952789307,-0.999672532081604,0.9525060653686523,-1.8167877197265625,-21.46619415283203,31.440196990966797,-1.648085355758667,1.0314111709594727,1.8691495656967163,-0.2798820734024048,6.470089912414551,-1.424132227897644
2_20251106_213813,1762436256861,2,0.030654357746243477,0.136268749833107,0.7272659540176392,0.6719935536384583,0.9962800741195679,2.733954906463623,0.5736802816390991,-0.12880225479602814,10.150571823120117,1.0327686071395874,-1.2029415369033813,-0.9373642802238464,1.006262183189392,-0.7742385864257812,-22.465858459472656,30.583080291748047,0.24895577132701874,2.5560379028320312,1.636195421218872,-0.3777580261230469,7.594533920288086,-0.6034268140792847
2_20251106_213813,1762436256879,2,0.03221231698989868,0.14789734780788422,0.7178310751914978,0.6795640587806702,0.9962800741195679,2.733954906463623,0.5736802816390991,-0.12880225479602814,10.150571823120117,1.0327686071395874,-1.2951821088790894,-0.6881315112113953,0.764359712600708,0.11874580383300781,-23.324623107910156,29.668689727783203,0.24895577132701874,2.5560379028320312,1.636195421218872,-0.3777580261230469,7.594533920288086,-0.6034268140792847
2_20251106_213813,1762436256900,2,0.03370535373687744,0.1563616245985031,0.7079483866691589,0.6879128813743591,0.9114483594894409,2.75544810295105,0.6227684020996094,0.8455959558486938,11.383532524108887,2.5685830116271973,-1.3361101150512695,-0.31428226828575134,0.41066908836364746,0.6782617568969727,-24.07910919189453,28.648590087890625,0.8304455280303955,2.4881629943847656,2.1302554607391357,0.015150457620620728,8.895369529724121,0.4383275806903839
2_20251106_213813,1762436256919,2,0.03496216982603073,0.15999184548854828,0.6981596350669861,0.6969600915908813,0.8755218386650085,2.7782726287841797,0.6562238931655884,0.9281923174858093,11.588228225708008,2.538656711578369,-1.304956078529358,-0.010682497173547745,0.11317796260118484,0.6782617568969727,-24.07910919189453,28.648590087890625,0.730433464050293,2.154287338256836,1.6802632808685303,0.19775882363319397,9.433940887451172,0.8583934307098389
2_20251106_213813,1762436256937,2,0.036111269146203995,0.15967054665088654,0.6889290809631348,0.706100583076477,0.8464617729187012,2.803053855895996,0.6897616386413574,0.8707339763641357,11.572667121887207,2.8618602752685547,-1.2279869318008423,0.07911462336778641,-0.06397280842065811,1.1941652297973633,-24.74860382080078,27.60134506225586,0.5383801460266113,1.7109804153442383,1.6027734279632568,0.3323538303375244,9.861686706542969,1.2590868473052979
2_20251106_213813,1762436256957,2,0.03782914951443672,0.15772645175457,0.680432140827179,0.7146351337432861,0.8196704983711243,2.8311541080474854,0.7254601120948792,0.6636444330215454,11.71272087097168,2.8175692558288574,-1.1174205541610718,0.09744056314229965,-0.11833976954221725,1.6300101280212402,-25.323745727539062,26.606842041015625,0.26503250002861023,1.4808273315429688,1.2467858791351318,0.3986119329929352,10.231893539428711,1.5707833766937256
2_20251106_213813,1762436256975,2,0.03960967808961868,0.15530909597873688,0.6726734042167664,0.722371518611908,0.7911484837532043,2.866394281387329,0.7665899991989136,0.3188942074775696,12.067048072814941,2.7050466537475586,-1.1174205541610718,0.09744056314229965,-0.11833976954221725,1.9731030464172363,-25.817611694335938,25.637298583984375,-0.06377419829368591,1.468123435974121,0.9074106216430664,0.3826684057712555,10.59892463684082,1.7976360321044922
2_20251106_213813,1762436256994,2,0.04160656780004501,0.1531040370464325,0.665434718132019,0.7294002175331116,0.7641026377677917,2.9030935764312744,0.8078184127807617,-0.09289076924324036,12.383069038391113,3.295192241668701,-1.0380080938339233,0.061399538069963455,-0.1268918812274933,2.1740939617156982,-26.24579620361328,24.67696762084961,-0.3804473578929901,1.4273147583007812,1.198045015335083,0.28755658864974976,10.955754280090332,2.097147226333618
2_20251106_213813,1762436257013,2,0.043880440294742584,0.15040223300457,0.6586689352989197,0.7359408140182495,0.7358742356300354,2.9419198036193848,0.8518553972244263,-0.6363512277603149,12.39982795715332,3.8721699714660645,-0.8956766128540039,0.27764564752578735,-0.28816014528274536,2.3052096366882324,-26.604751586914062,23.850440979003906,-0.7391262650489807,1.155259132385254,1.420018196105957,0.10277503728866577,11.244568824768066,2.4521517753601074
2_20251106_213813,1762436257032,2,0.04543690383434296,0.14547038078308105,0.6526677012443542,0.7421581745147705,0.7057124376296997,2.980900287628174,0.8979838490486145,-1.1163679361343384,12.008392333984375,4.017012596130371,-0.7221910357475281,0.5189372301101685,-0.2924362123012543,2.5026967525482178,-26.85955047607422,23.055511474609375,-0.9753143787384033,0.6110591888427734,1.2518887519836426,-0.14105354249477386,11.397333145141602,2.7651238441467285
2_20251106_213813,1762436257051,2,0.045163966715335846,0.138614684343338,0.6479203104972839,0.747626543045044,0.673627495765686,3.0189285278320312,0.9442487359046936,-1.391689419746399,11.760602951049805,3.655503749847412,-0.7221910357475281,0.5189372301101685,-0.2924362123012543,2.6377580165863037,-27.1319580078125,22.365997314453125,-1.0005087852478027,0.2906160354614258,0.7123041152954102,-0.39118069410324097,11.469986915588379,2.943199634552002
2_20251106_213813,1762436257071,2,0.04258281737565994,0.13187465071678162,0.6442582011222839,0.7521483302116394,0.6387302279472351,3.057647466659546,0.9911761283874512,-1.3162752389907837,11.697158813476562,3.1611223220825195,-0.3807176351547241,0.6936445236206055,0.14555378258228302,2.802645683288574,-27.290977478027344,21.801483154296875,-0.7400756478309631,0.18173694610595703,0.17433834075927734,-0.5761995911598206,11.515421867370605,2.986783981323242
2_20251106_213813,1762436257090,2,0.037746232002973557,0.12653973698616028,0.6414403319358826,0.7557229995727539,0.606689453125,3.093230962753296,1.033753514289856,-0.7752089500427246,11.748632431030273,3.0689496994018555,-0.26098811626434326,0.7028074860572815,0.3972300887107849,2.834810733795166,-27.422142028808594,21.340499877929688,-0.15920746326446533,0.1865682601928711,0.06573247909545898,-0.6160014867782593,11.562064170837402,3.0032172203063965
2_20251106_213813,1762436257109,2,0.03099384345114231,0.12284867465496063,0.6392245292663574,0.7585114240646362,0.5779092311859131,3.127819776535034,1.0747108459472656,-0.01149141788482666,11.84798812866211,3.188654661178589,-0.1766888052225113,0.762061357498169,0.5493353605270386,2.795776605606079,-27.520668029785156,20.904396057128906,0.48360806703567505,0.22873878479003906,0.14835000038146973,-0.4950994849205017,11.61924934387207,3.040304660797119
2_20251106_213813,1762436257129,2,0.022676805034279823,0.11983116716146469,0.6374142169952393,0.7608083486557007,0.5535271167755127,3.1615400314331055,1.1145495176315308,0.5834420919418335,11.932977676391602,3.3789854049682617,-0.07650698721408844,0.8396411538124084,0.545059323310852,2.671156644821167,-27.613548278808594,20.600284576416016,0.8628332614898682,0.25098228454589844,0.27094459533691406,-0.27939119935035706,11.681995391845703,3.1080408096313477
2_20251106_213813,1762436257147,2,0.013832708820700645,0.11647482961416245,0.6362469792366028,0.7625169157981873,0.53326016664505,3.193152666091919,1.153986930847168,0.776167094707489,11.528375625610352,3.687824249267578,0.023063961416482925,0.9673119187355042,0.4082256257534027,2.3053650856018066,-27.649261474609375,20.51772689819336,0.8444466590881348,-0.12289619445800781,0.46382665634155273,-0.06827954947948456,11.65127182006836,3.2239975929260254
2_20251106_213813,1762436257165,2,0.005110635422170162,0.11153676360845566,0.6358563303947449,0.7636885046958923,0.5171021819114685,3.2199132442474365,1.1900272369384766,0.7773641347885132,10.96456527709961,3.4460201263427734,0.08231784403324127,1.1933318376541138,0.2964373826980591,1.893141508102417,-27.65020751953125,20.406967163085938,0.6765149831771851,-0.5493650436401367,0.17761802673339844,0.10084917396306992,11.513930320739746,3.268402099609375
2_20251106_213813,1762436257185,2,0.004478768445551395,-0.10412582010030746,-0.6359091997146606,-0.7646942138671875,0.5026599168777466,3.2448017597198486,1.2265064716339111,0.960512638092041,10.409134864807129,2.7541255950927734,0.12568922340869904,1.3527674674987793,0.33431100845336914,1.3700447082519531,-27.671531677246094,20.359107971191406,0.6877307891845703,-0.8838367462158203,-0.4114212989807129,0.2727818489074707,11.29297161102295,3.1655468940734863
2_20251106_213813,1762436257204,2,0.015279234386980534,-0.09585815668106079,-0.6361490488052368,-0.7654359340667725,0.49287229776382446,3.2645037174224854,1.2570061683654785,1.4560911655426025,10.28703498840332,2.2824881076812744,0.12568922340869904,1.3527674674987793,0.33431100845336914,0.7770595550537109,-27.63524627685547,20.350177764892578,0.9466474652290344,-0.80474853515625,-0.7064471244812012,0.5094437003135681,11.09178352355957,2.9889352321624756
2_20251106_213813,1762436257223,2,0.02724955417215824,-0.08881399035453796,-0.6365157961845398,-0.7656481862068176,0.49287229776382446,3.2645037174224854,1.2570061683654785,1.4560911655426025,10.28703498840332,2.2824881076812744,0.24969477951526642,1.2202098369598389,0.6941102743148804,-0.04603767395019531,-27.57732391357422,20.42733383178711,0.9466474652290344,-0.80474853515625,-0.7064471244812012,0.5094437003135681,11.09178352355957,2.9889352321624756
2_20251106_213813,1762436257242,2,0.03988904133439064,-0.08394046872854233,-0.6373070478439331,-0.7649853825569153,0.4896417558193207,3.293139696121216,1.3056952953338623,2.9859204292297363,9.993758201599121,1.6049582958221436,0.33032894134521484,1.0876522064208984,0.8113963603973389,-0.9144535064697266,-27.459922790527344,20.517364501953125,1.706756830215454,-0.716526985168457,-0.9679110050201416,1.2791635990142822,10.710285186767578,2.572869300842285
2_20251106_213813,1762436257261,2,0.05279422923922539,-0.0807894617319107,-0.6385421752929688,-0.7635114789009094,0.4974052309989929,3.3037490844726562,1.3230202198028564,3.61796236038208,10.1876802444458,1.2721784114837646,0.33032894134521484,1.0876522064208984,0.8113963603973389,-1.8195133209228516,-27.33342742919922,20.714317321777344,1.8710390329360962,-0.41808414459228516,-1.0405528545379639,1.7469233274459839,10.605764389038086,2.3127312660217285
2_20251106_213813,1762436257281,2,0.06464238464832306,-0.07863301038742065,-0.6399918794631958,-0.7616091966629028,0.5115189552307129,3.3140554428100586,1.3384336233139038,3.8358254432678223,10.506095886230469,1.6839635372161865,0.2606903314590454,0.9172210097312927,0.5456701517105103,-2.7604265213012695,-27.196754455566406,20.910064697265625,1.671121597290039,-0.07973480224609375,-0.503014087677002,2.164703845977783,10.585830688476562,2.1869776248931885
2_20251106_213813,1762436257300,2,0.07446742057800293,-0.07553184032440186,-0.6409304141998291,-0.7602353692054749,0.5115189552307129,3.3140554428100586,1.3384336233139038,3.8358254432678223,10.506095886230469,1.6839635372161865,0.14523689448833466,1.1010912656784058,0.19625556468963623,-3.62530517578125,-27.004959106445312,21.096290588378906,1.671121597290039,-0.07973480224609375,-0.503014087677002,2.164703845977783,10.585830688476562,2.1869776248931885
2_20251106_213813,1762436257319,2,0.0828203409910202,-0.06904563307762146,-0.6410133838653564,-0.7599179744720459,0.5290101170539856,3.3234548568725586,1.3533085584640503,3.50783371925354,10.457015991210938,2.2633354663848877,0.14523689448833466,1.1010912656784058,0.19625556468963623,-3.62530517578125,-27.004959106445312,21.096290588378906,1.0745038986206055,-0.10305213928222656,0.061086177825927734,2.4333298206329346,10.560068130493164,2.20224928855896
2_20251106_213813,1762436257339,2,0.09116632491350174,-0.059071607887744904,-0.6405786275863647,-0.7601698637008667,0.5465517044067383,3.330059051513672,1.3669663667678833,3.0733046531677246,9.875250816345215,2.287276268005371,0.10430897772312164,1.3582652807235718,-0.037094756960868835,-4.5654144287109375,-26.85559844970703,21.278785705566406,0.5119798183441162,-0.5478534698486328,0.06802153587341309,2.5613248348236084,10.423104286193848,2.219254732131958
2_20251106_213813,1762436257358,2,0.10048012435436249,-0.04851309582591057,-0.640072762966156,-0.7601691484451294,0.5811908841133118,3.3306097984313965,1.386808156967163,2.941629409790039,8.486673355102539,1.0076305866241455,0.12630009651184082,1.4547818899154663,0.008109230548143387,-5.4916181564331055,-26.668312072753906,21.516624450683594,0.2686767578125,-1.3316316604614258,-0.8857595920562744,2.672952651977539,9.818305015563965,1.89339017868042
2_20251106_213813,1762436257376,2,0.11070001125335693,-0.040978457778692245,-0.6402258276939392,-0.7590633630752563,0.5986805558204651,3.3254575729370117,1.3909568786621094,3.4539666175842285,8.472309112548828,0.6161954402923584,0.27901631593704224,0.9379904270172119,0.6336346864700317,-6.409371376037598,-26.554901123046875,21.685791015625,0.6248111724853516,-1.076796531677246,-1.0217558145523071,2.829155445098877,9.549105644226074,1.6379512548446655
2_20251106_213813,1762436257395,2,0.12135449051856995,-0.037895213812589645,-0.6410762667655945,-0.7568739652633667,0.5986805558204651,3.3254575729370117,1.3909568786621094,3.4539666175842285,8.472309112548828,0.6161954402923584,0.28940099477767944,0.6637121438980103,0.7900160551071167,-7.323797225952148,-26.37897491455078,21.88330841064453,0.6248111724853516,-1.076796531677246,-1.0217558145523071,2.829155445098877,9.549105644226074,1.6379512548446655
2_20251106_213813,1762436257414,2,0.1316281408071518,-0.03770547732710838,-0.64225834608078,-0.7541595101356506,0.6424884796142578,3.309593439102173,1.3923708200454712,4.307462692260742,8.920004844665527,0.90468430519104,0.24480785429477692,0.5818563103675842,0.7539750337600708,-8.215768814086914,-26.238861083984375,22.05398178100586,0.9999361038208008,-0.37561893463134766,-0.4376887083053589,3.3075265884399414,9.295623779296875,1.342373013496399
2_20251106_213813,1762436257434,2,0.14109304547309875,-0.0380566269159317,-0.6431509852409363,-0.7516656517982483,0.6692717671394348,3.3003504276275635,1.3909244537353516,4.545675277709961,9.004995346069336,0.8903197050094604,0.15195640921592712,0.6350014805793762,0.628136932849884,-9.018221855163574,-26.029457092285156,22.134796142578125,0.9905190467834473,-0.23250293731689453,-0.3616427183151245,3.5551562309265137,9.23749828338623,1.251962423324585
2_20251106_213813,1762436257453,2,0.14984694123268127,-0.03751189261674881,-0.6432559490203857,-0.7499070167541504,0.6952325105667114,3.2920873165130615,1.3881133794784546,4.798253059387207,9.091182708740234,0.6126042604446411,0.15195640921592712,0.6350014805793762,0.628136932849884,-9.83991527557373,-25.733474731445312,22.18944549560547,0.9944775104522705,-0.11705303192138672,-0.5114865303039551,3.8037755489349365,9.208235740661621,1.1240907907485962
2_20251106_213813,1762436257472,2,0.15757979452610016,-0.035997211933135986,-0.6428476572036743,-0.7487454414367676,0.7259171009063721,3.2834970951080322,1.382965326309204,4.883243560791016,9.251587867736816,0.40671178698539734,0.02734001725912094,0.6747077107429504,0.33431100845336914,-10.644891738891602,-25.573890686035156,22.228652954101562,0.8635745048522949,0.034682273864746094,-0.5739032030105591,4.019669055938721,9.21690559387207,0.980614960193634
2_20251106_213813,1762436257491,2,0.1643972545862198,-0.03364185616374016,-0.6420876979827881,-0.7480409145355225,0.7259171009063721,3.2834970951080322,1.382965326309204,4.883243560791016,9.251587867736816,0.40671178698539734,-0.05573758855462074,0.6038473844528198,0.21519236266613007,-11.358827590942383,-25.30815887451172,22.259891510009766,0.8635745048522949,0.034682273864746094,-0.5739032030105591,4.019669055938721,9.21690559387207,0.980614960193634
2_20251106_213813,1762436257510,2,0.16996043920516968,-0.031131664291024208,-0.6409081816673279,-0.7479177713394165,0.7856950759887695,3.271009922027588,1.3715966939926147,4.728823661804199,9.753150939941406,0.8472259640693665,-0.1143805980682373,0.5739150643348694,0.14494292438030243,-12.122917175292969,-25.070716857910156,22.288639068603516,0.44428253173828125,0.3876314163208008,-0.04553109407424927,4.284541130065918,9.365519523620605,0.8927570581436157
2_20251106_213813,1762436257530,2,0.17480741441249847,-0.028452536091208458,-0.6393375396728516,-0.7482515573501587,0.7856950759887695,3.271009922027588,1.3715966939926147,4.728823661804199,9.753150939941406,0.8472259640693665,-0.1143805980682373,0.5739150643348694,0.14494292438030243,-12.80381965637207,-24.865386962890625,22.320026397705078,0.44428253173828125,0.3876314163208008,-0.04553109407424927,4.284541130065918,9.365519523620605,0.8927570581436157
2_20251106_213813,1762436257549,2,0.17924194037914276,-0.02564329281449318,-0.6377338171005249,-0.748672366142273,0.8463627099990845,3.2677724361419678,1.3604919910430908,4.716853618621826,10.403149604797363,1.047133207321167,-0.12904134392738342,0.4181445240974426,0.09118683636188507,-13.330038070678711,-24.724403381347656,22.28862762451172,0.26806116104125977,0.7016229629516602,0.14629966020584106,4.448792457580566,9.701526641845703,0.9008335471153259
2_20251106_213813,1762436257568,2,0.18273966014385223,-0.02369949407875538,-0.6363176107406616,-0.7490957379341125,0.8463627099990845,3.2677724361419678,1.3604919910430908,4.716853618621826,10.403149604797363,1.047133207321167,-0.1143805980682373,0.29780417680740356,0.09240856766700745,-13.805509567260742,-24.55431365966797,22.178619384765625,0.26806116104125977,0.7016229629516602,0.14629966020584106,4.448792457580566,9.701526641845703,0.9008335471153259
2_20251106_213813,1762436257586,2,0.1855522096157074,-0.022530050948262215,-0.6351674795150757,-0.7494164705276489,0.8762826919555664,3.2701191902160645,1.3577392101287842,4.6785478591918945,10.564750671386719,1.6396725177764893,-0.04718548059463501,0.22205697000026703,0.08263472467660904,-14.29598617553711,-24.43524932861328,22.067066192626953,0.18380403518676758,0.6905794143676758,0.5910712480545044,4.494743824005127,9.874171257019043,1.0486012697219849
2_20251106_213813,1762436257605,2,0.1879061609506607,-0.02165696769952774,-0.6345292329788208,-0.7493963837623596,0.9270820021629333,3.2802910804748535,1.3599766492843628,4.5720109939575195,10.788599014282227,2.17714786529541,-0.04718548059463501,0.22205697000026703,0.08263472467660904,-14.645561218261719,-24.395095825195312,22.013614654541016,0.03489494323730469,0.5827436447143555,0.7525312900543213,4.537116050720215,10.205855369567871,1.4246165752410889
2_20251106_213813,1762436257625,2,0.1895974725484848,-0.02086644247174263,-0.6347145438194275,-0.7488356828689575,0.9529146552085876,3.28782057762146,1.3648252487182617,4.422379493713379,10.642559051513672,2.228621006011963,0.14829121530056,0.09621883183717728,-0.005329793319106102,-14.898859024047852,-24.373435974121094,21.936527252197266,-0.09178924560546875,0.3493633270263672,0.6432034969329834,4.514168739318848,10.293195724487305,1.5854175090789795
2_20251106_213813,1762436257644,2,0.19056256115436554,-0.01999320089817047,-0.6356143355369568,-0.7478506565093994,0.9529146552085876,3.28782057762146,1.3648252487182617,4.422379493713379,10.642559051513672,2.228621006011963,0.14829121530056,0.09621883183717728,-0.005329793319106102,-15.152750015258789,-24.352577209472656,21.940536499023438,-0.09178924560546875,0.3493633270263672,0.6432034969329834,4.514168739318848,10.293195724487305,1.5854175090789795
2_20251106_213813,1762436257663,2,0.1908866912126541,-0.018900038674473763,-0.6370469927787781,-0.7465763092041016,0.9953057765960693,3.3000667095184326,1.3765349388122559,3.899268865585327,9.918344497680664,1.8467621803283691,0.22892536222934723,0.024136792868375778,-0.10734420269727707,-15.349952697753906,-24.414703369140625,21.850536346435547,-0.44160914421081543,-0.29678916931152344,0.13067865371704102,4.340878009796143,10.215133666992188,1.7160835266113281
2_20251106_213813,1762436257681,2,0.1907399594783783,-0.017679423093795776,-0.6386500000953674,-0.7452729940414429,1.0112587213516235,3.3033225536346436,1.38201904296875,3.5640950202941895,9.549653053283691,1.7773332595825195,0.19532780349254608,-0.007628173101693392,-0.13422226905822754,-15.493366241455078,-24.374008178710938,21.845706939697266,-0.6214265823364258,-0.532383918762207,0.048999786376953125,4.185521602630615,10.082036972045898,1.7283334732055664
2_20251106_213813,1762436257701,2,0.19024062156677246,-0.016489237546920776,-0.6400952339172363,-0.7441872358322144,1.0112587213516235,3.3033225536346436,1.38201904296875,3.5640950202941895,9.549653053283691,1.7773332595825195,0.16783888638019562,-0.011293360963463783,-0.15926772356033325,-15.575651168823242,-24.329071044921875,21.816299438476562,-0.6214265823364258,-0.532383918762207,0.048999786376953125,4.185521602630615,10.082036972045898,1.7283334732055664
2_20251106_213813,1762436257720,2,0.18948258459568024,-0.015204505063593388,-0.6413437128067017,-0.7433326244354248,1.0344465970993042,3.3018572330474854,1.3915517330169678,2.8219244480133057,8.854167938232422,1.4637062549591064,0.13546307384967804,-0.02900843694806099,-0.15804597735404968,-15.621971130371094,-24.282554626464844,21.869457244873047,-0.9324588775634766,-0.8394641876220703,-0.18755674362182617,3.7543833255767822,9.693632125854492,1.6512629985809326
2_20251106_213813,1762436257740,2,0.18863655626773834,-0.014017637819051743,-0.6424102187156677,-0.7426499128341675,1.0400352478027344,3.2970855236053467,1.3950281143188477,2.565755844116211,8.715309143066406,1.470888614654541,0.10003291815519333,-0.047334376722574234,-0.120783232152462,-15.611083984375,-24.295127868652344,21.950782775878906,-0.950901985168457,-0.782658576965332,-0.14429950714111328,3.516657829284668,9.497967720031738,1.6151881217956543
2_20251106_213813,1762436257759,2,0.18796995282173157,-0.013141958974301815,-0.6432562470436096,-0.7421023845672607,1.0400352478027344,3.2970855236053467,1.3950281143188477,2.565755844116211,8.715309143066406,1.470888614654541,0.11591540277004242,-0.07360155880451202,-0.06275107711553574,-15.660421371459961,-24.299110412597656,22.029918670654297,-0.950901985168457,-0.782658576965332,-0.14429950714111328,3.516657829284668,9.497967720031738,1.6151881217956543
2_20251106_213813,1762436257779,2,0.18750092387199402,-0.01276281289756298,-0.6442409753799438,-0.7413731217384338,1.0421010255813599,3.2793445587158203,1.4001585245132446,2.5262532234191895,8.46153450012207,1.2458434104919434,0.14890208840370178,-0.10475566238164902,0.022159118205308914,-15.631708145141602,-24.210426330566406,22.113845825195312,-0.6223676204681396,-0.6740436553955078,-0.27545225620269775,3.148620843887329,9.135578155517578,1.5212956666946411
2_20251106_213813,1762436257797,2,0.18750543892383575,-0.012995181605219841,-0.6454886794090271,-0.7402818202972412,1.0406593084335327,3.2696263790130615,1.400551438331604,2.6303963661193848,8.632713317871094,0.9992511868476868,0.11102847754955292,-0.14995965361595154,0.09790634363889694,-15.631708145141602,-24.210426330566406,22.113845825195312,-0.4145796298980713,-0.40229225158691406,-0.41763561964035034,3.044975996017456,9.035005569458008,1.416886806488037
2_20251106_213813,1762436257815,2,0.18770430982112885,-0.014145084656774998,-0.6465767621994019,-0.7392600774765015,1.0385164022445679,3.259995937347412,1.4000465869903564,2.7309489250183105,8.873320579528809,1.0603008270263672,0.11102847754955292,-0.14995965361595154,0.09790634363889694,-15.595756530761719,-24.22046661376953,22.10153579711914,-0.2512216567993164,-0.1293478012084961,-0.28526878356933594,2.982170581817627,9.002668380737305,1.3455696105957031
2_20251106_213813,1762436257835,2,0.18798206746578217,-0.01583578996360302,-0.6470272541046143,-0.7387609481811523,1.0361857414245605,3.249884843826294,1.3990795612335205,2.959585189819336,9.020557403564453,1.2027496099472046,-0.048407211899757385,-0.16950732469558716,0.13272562623023987,-15.531190872192383,-24.14196014404297,22.186668395996094,-0.018068313598632812,0.014311790466308594,-0.11425602436065674,2.9776535034179688,9.006245613098145,1.3170056343078613
2_20251106_213813,1762436257854,2,0.1882932484149933,-0.017615297809243202,-0.6470640301704407,-0.7386091947555542,1.0347388982772827,3.2408974170684814,1.398307204246521,3.2169508934020996,9.056468963623047,1.3535778522491455,-0.010533597320318222,-0.1988288313150406,0.1253952533006668,-15.472375869750977,-24.1756591796875,22.18832778930664,0.1914379596710205,0.04017829895019531,0.029257774353027344,3.025512933731079,9.016290664672852,1.3243200778961182
2_20251106_213813,1762436257872,2,0.18829353153705597,-0.019613219425082207,-0.6473951935768127,-0.7382684946060181,1.034382700920105,3.232975482940674,1.3976192474365234,3.4096755981445312,9.084001541137695,1.3272427320480347,0.007792344316840172,-0.2086026668548584,0.11195623129606247,-15.412137985229492,-24.172630310058594,22.28539276123047,0.3073301315307617,0.054168701171875,0.0023380517959594727,3.1023454666137695,9.02983283996582,1.3249046802520752
2_20251106_213813,1762436257892,2,0.18812640011310577,-0.021648310124874115,-0.6478437781333923,-0.7378606200218201,1.034382700920105,3.232975482940674,1.3976192474365234,3.4096755981445312,9.084001541137695,1.3272427320480347,-0.02397262118756771,-0.22020909190177917,0.08874338120222092,-15.363380432128906,-24.1578369140625,22.382232666015625,0.3073301315307617,0.054168701171875,0.0023380517959594727,3.1023454666137695,9.02983283996582,1.3249046802520752
2_20251106_213813,1762436257912,2,0.18737490475177765,-0.02402610518038273,-0.6480848789215088,-0.7377665042877197,1.0382188558578491,3.2178800106048584,1.3943032026290894,3.7017557621002197,9.208494186401367,1.163246989250183,-0.02397262118756771,-0.22020909190177917,0.08874338120222092,-15.339305877685547,-24.156654357910156,22.423763275146484,0.39760422706604004,0.121429443359375,-0.08967101573944092,3.3041515350341797,9.087064743041992,1.252918004989624
2_20251106_213813,1762436257931,2,0.18641521036624908,-0.02646535448729992,-0.6480377912521362,-0.7379674911499023,1.0382188558578491,3.2178800106048584,1.3943032026290894,3.7017557621002197,9.208494186401367,1.163246989250183,-0.08933514356613159,-0.2806847095489502,0.05942186713218689,-15.267190933227539,-24.16484832763672,22.466991424560547,0.39760422706604004,0.121429443359375,-0.08967101573944092,3.3041515350341797,9.087064743041992,1.252918004989624
2_20251106_213813,1762436257950,2,0.18488460779190063,-0.02867034077644348,-0.6479716300964355,-0.7383280992507935,1.0459328889846802,3.2047276496887207,1.390798568725586,3.7101352214813232,8.854167938232422,1.0722712278366089,-0.10888281464576721,-0.27213260531425476,-0.06641626358032227,-15.233848571777344,-24.213233947753906,22.521472930908203,0.2611703872680664,-0.18314552307128906,-0.1456838846206665,3.448964834213257,9.037313461303711,1.2179551124572754
2_20251106_213813,1762436257970,2,0.18307991325855255,-0.030343255028128624,-0.6477591395378113,-0.7388972043991089,1.0459328889846802,3.2047276496887207,1.390798568725586,3.7101352214813232,8.854167938232422,1.0722712278366089,-0.17485621571540833,-0.3423820436000824,-0.06763798743486404,-15.17542839050293,-24.247474670410156,22.577198028564453,0.2611703872680664,-0.18314552307128906,-0.1456838846206665,3.448964834213257,9.037313461303711,1.2179551124572754
2_20251106_213813,1762436257989,2,0.1808137744665146,-0.03263504058122635,-0.6472283005714417,-0.7398222088813782,1.0510832071304321,3.1962215900421143,1.388001561164856,3.5928242206573486,8.730871200561523,1.0423449277877808,-0.20845375955104828,-0.45233768224716187,-0.033429570496082306,-15.05699348449707,-24.30218505859375,22.56726837158203,0.11508750915527344,-0.24515342712402344,-0.1404881477355957,3.477736711502075,8.976024627685547,1.1828330755233765
2_20251106_213813,1762436258006,2,0.17811419069766998,-0.03592889755964279,-0.6466342806816101,-0.7408431172370911,1.0576865673065186,3.1831626892089844,1.3843101263046265,3.275606155395508,8.927186965942383,1.3499866724014282,-0.22861231863498688,-0.4853243827819824,-0.005329793319106102,-14.899068832397461,-24.29253387451172,22.64122772216797,-0.14679241180419922,-0.00942230224609375,0.13398373126983643,3.422398567199707,8.936609268188477,1.2160029411315918
2_20251106_213813,1762436258026,2,0.1753709614276886,-0.03961436077952385,-0.6459102034568787,-0.7419405579566956,1.0605932474136353,3.176685333251953,1.3827892541885376,3.273212194442749,9.146247863769531,1.3068928718566895,-0.26648592948913574,-0.4498942494392395,-0.012049304321408272,-14.720211029052734,-24.355560302734375,22.60645294189453,-0.11934900283813477,0.1677103042602539,0.07271194458007812,3.392561197280884,8.978537559509277,1.2341809272766113
2_20251106_213813,1762436258045,2,0.17269191145896912,-0.04309772700071335,-0.6448207497596741,-0.7433211207389832,1.0627315044403076,3.1722323894500732,1.3815603256225586,3.2157537937164307,9.486209869384766,1.2865430116653442,-0.3263506293296814,-0.43156829476356506,-0.044425129890441895,-14.522422790527344,-24.517181396484375,22.543514251708984,-0.14144611358642578,0.40613746643066406,0.04188966751098633,3.3571999073028564,9.080072402954102,1.244653344154358
2_20251106_213813,1762436258064,2,0.1698630005121231,-0.04632719233632088,-0.6432973742485046,-0.7450965046882629,1.0641053915023804,3.169848680496216,1.3815062046051025,3.117595672607422,9.753150939941406,1.6504460573196411,-0.37521982192993164,-0.4706636369228363,-0.08290960639715195,-14.298246383666992,-24.639678955078125,22.495864868164062,-0.19168353080749512,0.5384626388549805,0.3246341943740845,3.309279203414917,9.214688301086426,1.3258118629455566
2_20251106_213813,1762436258083,2,0.16650712490081787,-0.04961385577917099,-0.6415154933929443,-0.7471758723258972,1.064864993095398,3.169511556625366,1.3836065530776978,3.1104133129119873,9.917147636413574,2.1101131439208984,-0.36483514308929443,-0.4950982332229614,-0.1055116057395935,-14.047088623046875,-24.722244262695312,22.382408142089844,-0.15909290313720703,0.5619668960571289,0.6274410486221313,3.2695062160491943,9.355180740356445,1.482672095298767
2_20251106_213813,1762436258102,2,0.16284796595573425,-0.052861880511045456,-0.6397889852523804,-0.7492371201515198,1.065215826034546,3.1705524921417236,1.387750267982483,3.134354591369629,9.851308822631836,2.2657294273376465,-0.29764002561569214,-0.5103698372840881,-0.11711803823709488,-13.724533081054688,-24.837173461914062,22.21703338623047,-0.10812139511108398,0.39690208435058594,0.6264458894729614,3.242475986480713,9.45440673828125,1.639283537864685
2_20251106_213813,1762436258122,2,0.15907727181911469,-0.05600123852491379,-0.6384812593460083,-0.7509327530860901,1.065215826034546,3.1705524921417236,1.387750267982483,3.134354591369629,9.851308822631836,2.2657294273376465,-0.22189278900623322,-0.5262523293495178,-0.1268918812274933,-13.366422653198242,-24.962684631347656,22.093414306640625,-0.10812139511108398,0.39690208435058594,0.6264458894729614,3.242475986480713,9.45440673828125,1.639283537864685
2_20251106_213813,1762436258140,2,0.15510201454162598,-0.05915823578834534,-0.6376926302909851,-0.7521913051605225,1.064105749130249,3.1744906902313232,1.3991070985794067,2.8865652084350586,9.74596881866455,2.0179402828216553,-0.22189278900623322,-0.5262523293495178,-0.1268918812274933,-12.960371017456055,-25.09770965576172,21.98501205444336,-0.25536274909973145,0.1938772201538086,0.22299587726593018,3.14192795753479,9.552091598510742,1.794944405555725
2_20251106_213813,1762436258159,2,0.15086904168128967,-0.062089696526527405,-0.6369096636772156,-0.7534782290458679,1.0619471073150635,3.1773529052734375,1.4054667949676514,2.692643165588379,9.818988800048828,2.073004722595215,-0.22311453521251678,-0.5219762921333313,-0.161711186170578,-12.63963508605957,-25.249908447265625,21.778297424316406,-0.35942792892456055,0.2135171890258789,0.22244834899902344,3.0520710945129395,9.60547161102295,1.8505563735961914
2_20251106_213813,1762436258180,2,0.14638632535934448,-0.06438528001308441,-0.6356183886528015,-0.7552580833435059,1.0581790208816528,3.180711269378662,1.4127901792526245,2.5226621627807617,9.768712997436523,2.167571544647217,-0.3086355924606323,-0.3998033404350281,-0.27899718284606934,-12.286161422729492,-25.462913513183594,21.612281799316406,-0.4235270023345947,0.13059329986572266,0.25361204147338867,2.9461891651153564,9.6381196975708,1.9139595031738281
2_20251106_213813,1762436258199,2,0.14196892082691193,-0.06575696915388107,-0.6341134905815125,-0.757245659828186,1.0581790208816528,3.180711269378662,1.4127901792526245,2.5226621627807617,9.768712997436523,2.167571544647217,-0.3086355924606323,-0.3998033404350281,-0.27899718284606934,-11.881916046142578,-25.62358856201172,21.557415008544922,-0.4235270023345947,0.13059329986572266,0.25361204147338867,2.9461891651153564,9.6381196975708,1.9139595031738281
2_20251106_213813,1762436258218,2,0.13771146535873413,-0.0669507160782814,-0.6326107382774353,-0.7591816186904907,1.0466587543487549,3.187189817428589,1.4285451173782349,2.359863519668579,9.586761474609375,2.161586284637451,-0.29764002561569214,-0.37048181891441345,-0.27349939942359924,-11.881916046142578,-25.62358856201172,21.557415008544922,-0.37735533714294434,-0.054703712463378906,0.14584040641784668,2.7372188568115234,9.641465187072754,2.0157458782196045
2_20251106_213813,1762436258237,2,0.1338879019021988,-0.06852169334888458,-0.6313936114311218,-0.7607371211051941,1.0403969287872314,3.1895556449890137,1.4352468252182007,2.4304895401000977,9.517333030700684,1.9185850620269775,-0.24999256432056427,-0.3772013187408447,-0.20752602815628052,-11.47797966003418,-25.796279907226562,21.448219299316406,-0.24538350105285645,-0.09930610656738281,-0.0777287483215332,2.675873041152954,9.616639137268066,1.9963138103485107
2_20251106_213813,1762436258256,2,0.1303606480360031,-0.07099533826112747,-0.6308040022850037,-0.7616114616394043,1.0333105325698853,3.1915836334228516,1.4421318769454956,2.519070863723755,9.462268829345703,1.9341466426849365,-0.12904134392738342,-0.5054829120635986,-0.05236637592315674,-11.061744689941406,-25.95642852783203,21.420875549316406,-0.1254417896270752,-0.12349605560302734,-0.049733638763427734,2.64451265335083,9.58576488494873,1.9838802814483643
2_20251106_213813,1762436258274,2,0.12696537375450134,-0.07431627064943314,-0.6305494904518127,-0.7620788812637329,1.0272464752197266,3.1930723190307617,1.448223352432251,2.642367362976074,9.486209869384766,2.067019462585449,-0.14858902990818024,-0.47371795773506165,-0.014492763206362724,-10.68277359008789,-26.13152313232422,21.391796112060547,-0.0017161369323730469,-0.07964420318603516,0.06651139259338379,2.6440834999084473,9.5658540725708,2.0005080699920654
2_20251106_213813,1762436258294,2,0.12397836148738861,-0.07771764695644379,-0.6300626993179321,-0.7626338005065918,1.021928310394287,3.1948201656341553,1.4553430080413818,3.0002846717834473,9.623870849609375,2.227423906326294,-0.2011234015226364,-0.40102505683898926,-0.0028863344341516495,-10.318708419799805,-26.357505798339844,21.34765625,0.2849609851837158,0.046413421630859375,0.181532621383667,2.7153236865997314,9.577457427978516,2.045891284942627
2_20251106_213813,1762436258314,2,0.12143105268478394,-0.08078398555517197,-0.6290584802627563,-0.7635534405708313,1.0187758207321167,3.1972622871398926,1.4633100032806396,3.3402469158172607,9.834550857543945,2.4416956901550293,-0.2011234015226364,-0.40102505683898926,-0.0028863344341516495,-10.01276683807373,-26.548843383789062,21.20724105834961,0.4999384880065918,0.2056751251220703,0.31664347648620605,2.840308427810669,9.628875732421875,2.1250522136688232
2_20251106_213813,1762436258332,2,0.11880238354206085,-0.08355952054262161,-0.6277434825897217,-0.7647495865821838,1.01785409450531,3.1996939182281494,1.4702705144882202,3.5796568393707275,9.838142395019531,2.365084648132324,-0.19929079711437225,-0.3680383563041687,-0.08352047950029373,-9.72946548461914,-26.693023681640625,21.215579986572266,0.5914785861968994,0.16741371154785156,0.19202589988708496,2.988178253173828,9.67072868347168,2.1730587482452393
2_20251106_213813,1762436258350,2,0.11588160693645477,-0.08605936169624329,-0.6266927123069763,-0.7657816410064697,1.0187609195709229,3.2024033069610596,1.4776655435562134,3.6754207611083984,9.717239379882812,2.1747536659240723,-0.19929079711437225,-0.3680383563041687,-0.08352047950029373,-9.393414497375488,-26.782180786132812,21.064743041992188,0.5497939586639404,0.03720855712890625,0.001355886459350586,3.125626802444458,9.680030822753906,2.1733977794647217
2_20251106_213813,1762436258370,2,0.11225404590368271,-0.08886296302080154,-0.6262379288673401,-0.7663735747337341,1.021044373512268,3.2048401832580566,1.484824538230896,3.5784597396850586,9.590353012084961,2.0957484245300293,-0.13637173175811768,-0.454170286655426,-0.12750275433063507,-9.119295120239258,-26.888267517089844,20.951736450195312,0.36226654052734375,-0.07174205780029297,-0.062119483947753906,3.216193199157715,9.662095069885254,2.157867908477783
2_20251106_213813,1762436258389,2,0.10764268040657043,-0.09214021265506744,-0.626105546951294,-0.7667561769485474,1.0235309600830078,3.2066521644592285,1.4911019802093506,3.371370315551758,9.520923614501953,2.0909602642059326,-0.13820432126522064,-0.5335826873779297,-0.2502865493297577,-8.824116706848145,-27.043670654296875,20.906238555908203,0.12414169311523438,-0.11293697357177734,-0.05352616310119629,3.2472286224365234,9.63386058807373,2.144486427307129
2_20251106_213813,1762436258409,2,0.10255232453346252,-0.09488366544246674,-0.6258183121681213,-0.7673535943031311,1.0256634950637817,3.208080768585205,1.4970929622650146,3.130763053894043,9.507756233215332,2.050260543823242,-0.18951696157455444,-0.47432881593704224,-0.3480249047279358,-8.492196083068848,-27.208038330078125,20.740299224853516,-0.09317231178283691,-0.10088348388671875,-0.07538080215454102,3.22393536567688,9.60863971710205,2.125641345977783
2_20251106_213813,1762436258428,2,0.0970085859298706,-0.09664494544267654,-0.6251639723777771,-0.7683873176574707,1.026540994644165,3.209057092666626,1.5027430057525635,2.8422744274139404,9.494588851928711,2.214256525039673,-0.18951696157455444,-0.47432881593704224,-0.3480249047279358,-8.110615730285645,-27.34478759765625,20.644432067871094,-0.3053286075592041,-0.09124088287353516,0.0708920955657959,3.1476030349731445,9.585829734802246,2.143364429473877
2_20251106_213813,1762436258447,2,0.09104936569929123,-0.09760459512472153,-0.6240897178649902,-0.7698671221733093,1.0256173610687256,3.20935320854187,1.5088075399398804,2.5071005821228027,9.355731964111328,2.397404909133911,-0.24632738530635834,-0.4205727279186249,-0.4543153643608093,-7.748077392578125,-27.394683837890625,20.495365142822266,-0.512401819229126,-0.18407821655273438,0.2032325267791748,3.0195024013519287,9.539810180664062,2.1941723823547363
2_20251106_213813,1762436258466,2,0.08489654958248138,-0.09833414852619171,-0.6230060458183289,-0.7713536024093628,1.022970199584961,3.2090160846710205,1.5144859552383423,2.282055377960205,9.294681549072266,2.2836852073669434,-0.1766888052225113,-0.43217915296554565,-0.39078545570373535,-7.352591514587402,-27.493507385253906,20.454845428466797,-0.5899577140808105,-0.19610309600830078,0.0716102123260498,2.8720130920410156,9.490784645080566,2.2120749950408936
2_20251106_213813,1762436258484,2,0.0792832002043724,-0.09932771325111389,-0.6223427057266235,-0.7723585367202759,1.022970199584961,3.2090160846710205,1.5144859552383423,2.282055377960205,9.294681549072266,2.2836852073669434,-0.14186951518058777,-0.4651658535003662,-0.29854485392570496,-6.896596908569336,-27.61212158203125,20.281085968017578,-0.5899577140808105,-0.19610309600830078,0.0716102123260498,2.8720130920410156,9.490784645080566,2.2120749950408936
2_20251106_213813,1762436258503,2,0.07420001178979874,-0.1007189154624939,-0.6216400265693665,-0.7732487916946411,1.0178422927856445,3.208306312561035,1.5205621719360352,2.217414379119873,9.390445709228516,2.147221565246582,-0.160195454955101,-0.49937430024147034,-0.23562580347061157,-6.452762603759766,-27.70830535888672,20.296592712402344,-0.5236790180206299,-0.08027172088623047,-0.05188274383544922,2.741093397140503,9.470717430114746,2.1991043090820312
2_20251106_213813,1762436258522,2,0.06935352832078934,-0.10264942795038223,-0.6209754347801208,-0.7739784717559814,1.0057373046875,3.2071924209594727,1.5313892364501953,2.0653891563415527,9.525711059570312,2.497957229614258,-0.15775200724601746,-0.5073155164718628,-0.1977522075176239,-5.94590950012207,-27.78607177734375,20.125587463378906,-0.45543408393859863,0.04764556884765625,0.2215273380279541,2.5208232402801514,9.478065490722656,2.2764298915863037
2_20251106_213813,1762436258541,2,0.06468330323696136,-0.10488514602184296,-0.620094358921051,-0.7747890949249268,0.9975726008415222,3.2066807746887207,1.5376049280166626,1.9588518142700195,9.462268829345703,2.4895777702331543,-0.13698260486125946,-0.4645549952983856,-0.15865685045719147,-5.401186943054199,-27.83647918701172,19.970096588134766,-0.44957709312438965,-0.012637138366699219,0.170518159866333,2.408428907394409,9.474905967712402,2.3190596103668213
2_20251106_213813,1762436258561,2,0.06058807671070099,-0.1066897064447403,-0.6191267967224121,-0.7756470441818237,0.9879356622695923,3.2059268951416016,1.5443025827407837,1.9241373538970947,9.395234107971191,2.477607250213623,-0.12293270230293274,-0.4132423400878906,-0.13238966464996338,-5.004390716552734,-27.910324096679688,19.943618774414062,-0.3874332904815674,-0.06373786926269531,0.12683820724487305,2.311570644378662,9.458971977233887,2.35076904296875
2_20251106_213813,1762436258580,2,0.056912776082754135,-0.10819042474031448,-0.61821448802948,-0.7764448523521423,0.978283703327179,3.205209732055664,1.5503668785095215,1.9636400938034058,9.445509910583496,2.3579025268554688,-0.12232184410095215,-0.36070799827575684,-0.10856592655181885,-4.593912124633789,-27.96973419189453,19.809768676757812,-0.2783445119857788,-0.010769844055175781,0.005706787109375,2.2419846057891846,9.456279754638672,2.3521957397460938
2_20251106_213813,1762436258600,2,0.053891755640506744,-0.10931303352117538,-0.6172850131988525,-0.7772422432899475,0.9682948589324951,3.2045810222625732,1.555923581123352,1.9432902336120605,9.475436210632324,2.2776999473571777,-0.13331741094589233,-0.3356625437736511,-0.1055116057395935,-4.235491752624512,-28.083229064941406,19.740482330322266,-0.23895549774169922,0.015325546264648438,-0.05959677696228027,2.1822457313537598,9.460110664367676,2.337296724319458
2_20251106_213813,1762436258619,2,0.05077521875500679,-0.11129673570394516,-0.6165204644203186,-0.7777772545814514,0.9682948589324951,3.2045810222625732,1.555923581123352,1.9432902336120605,9.475436210632324,2.2776999473571777,-0.15469767153263092,-0.3118388056755066,-0.09146171808242798,-3.849681854248047,-28.144630432128906,19.646198272705078,-0.23895549774169922,0.015325546264648438,-0.05959677696228027,2.1822457313537598,9.460110664367676,2.337296724319458
2_20251106_213813,1762436258639,2,0.047966368496418,-0.11312209069728851,-0.6155948042869568,-0.7784250974655151,0.9473192691802979,3.20346999168396,1.5667420625686646,2.157562017440796,9.49698257446289,2.4536662101745605,-0.15469767153263092,-0.3118388056755066,-0.09146171808242798,-3.849681854248047,-28.144630432128906,19.646198272705078,0.016953706741333008,0.028768539428710938,0.10186505317687988,2.140608310699463,9.46821403503418,2.3518011569976807
2_20251106_213813,1762436258657,2,0.04532242566347122,-0.11520709842443466,-0.6145713925361633,-0.7790861129760742,0.9396622776985168,3.2029263973236084,1.5711824893951416,2.389789581298828,9.398824691772461,2.368675708770752,-0.1247652992606163,-0.31244969367980957,-0.04870118945837021,-3.5030393600463867,-28.24676513671875,19.617233276367188,0.19934511184692383,-0.055511474609375,0.01349949836730957,2.1904444694519043,9.454336166381836,2.3551762104034424
2_20251106_213813,1762436258676,2,0.04278668016195297,-0.11738864332437515,-0.6137596368789673,-0.7795436382293701,0.9320852756500244,3.20174241065979,1.575371265411377,2.5130858421325684,9.264755249023438,2.100536823272705,-0.1247652992606163,-0.31244969367980957,-0.04870118945837021,-3.190753936767578,-28.325088500976562,19.47919464111328,0.25811314582824707,-0.15166473388671875,-0.20371150970458984,2.2549726963043213,9.416419982910156,2.304248332977295
2_20251106_213813,1762436258695,2,0.039915163069963455,-0.11989148706197739,-0.6130024790763855,-0.7799107432365417,0.9264695048332214,3.200244665145874,1.5778379440307617,2.6052584648132324,9.219266891479492,1.8515503406524658,-0.16386064887046814,-0.403468519449234,-0.09085085242986679,-2.929215431213379,-28.432510375976562,19.419761657714844,0.2802286148071289,-0.15772247314453125,-0.36215829849243164,2.3250298500061035,9.376989364624023,2.2137086391448975
2_20251106_213813,1762436258713,2,0.036406759172677994,-0.1227104514837265,-0.611991286277771,-0.7804379463195801,0.921485424041748,3.199026107788086,1.5798137187957764,2.5609679222106934,9.480224609375,2.0323047637939453,-0.16386064887046814,-0.403468519449234,-0.09085085242986679,-2.7736291885375977,-28.484024047851562,19.330204010009766,0.1887505054473877,0.08258819580078125,-0.14512300491333008,2.3722174167633057,9.397636413574219,2.1774277687072754
2_20251106_213813,1762436258733,2,0.03180902451276779,-0.12527647614479065,-0.6103683710098267,-0.7815014123916626,0.9163801074028015,3.1986334323883057,1.5830659866333008,2.3323311805725098,9.669357299804688,2.5973122119903564,-0.397210955619812,-0.36987096071243286,-0.36085307598114014,-2.4871253967285156,-28.58905029296875,19.190654754638672,-0.03190898895263672,0.217376708984375,0.3359074592590332,2.3642401695251465,9.451980590820312,2.2614047527313232
2_20251106_213813,1762436258752,2,0.02646590583026409,-0.12615054845809937,-0.6079694032669067,-0.7834275960922241,0.9163801074028015,3.1986334323883057,1.5830659866333008,2.3323311805725098,9.669357299804688,2.5973122119903564,-0.45585399866104126,-0.2440328299999237,-0.5135692358016968,-2.235078811645508,-28.67040252685547,18.955551147460938,-0.03190898895263672,0.217376708984375,0.3359074592590332,2.3642401695251465,9.451980590820312,2.2614047527313232
2_20251106_213813,1762436258771,2,0.020477883517742157,-0.12525424361228943,-0.6051586866378784,-0.7859230041503906,0.9052861928939819,3.1996963024139404,1.5937330722808838,1.8858318328857422,9.58077621459961,2.921712636947632,-0.4039304852485657,-0.15606831014156342,-0.5905382037162781,-1.8751626014709473,-28.77025604248047,18.778396606445312,-0.3416140079498291,0.05887126922607422,0.41570210456848145,2.2274458408355713,9.521904945373535,2.5060105323791504
2_20251106_213813,1762436258791,2,0.014425124041736126,-0.12322758138179779,-0.6027287244796753,-0.7882416844367981,0.9052861928939819,3.1996963024139404,1.5937330722808838,1.8858318328857422,9.58077621459961,2.921712636947632,-0.3159659504890442,-0.16889646649360657,-0.5856512784957886,-1.5995473861694336,-28.862709045410156,18.557525634765625,-0.3416140079498291,0.05887126922607422,0.41570210456848145,2.2274458408355713,9.521904945373535,2.5060105323791504
2_20251106_213813,1762436258810,2,0.00842247810214758,-0.1212938129901886,-0.6009418368339539,-0.7899909615516663,0.887059211730957,3.2003047466278076,1.6062675714492798,1.296883463859558,9.349745750427246,2.512321710586548,-0.3159659504890442,-0.16889646649360657,-0.5856512784957886,-1.2488131523132324,-28.924476623535156,18.25902557373047,-0.6386536359786987,-0.13163280487060547,-0.013581514358520508,1.9355370998382568,9.481378555297852,2.5259032249450684
2_20251106_213813,1762436258829,2,0.0029587331227958202,-0.12009553611278534,-0.5995670557022095,-0.7912570238113403,0.887059211730957,3.2003047466278076,1.6062675714492798,1.296883463859558,9.349745750427246,2.512321710586548,-0.2176167517900467,-0.22204169631004333,-0.34435969591140747,-0.8537616729736328,-29.058677673339844,17.987937927246094,-0.6386536359786987,-0.13163280487060547,-0.013581514358520508,1.9355370998382568,9.481378555297852,2.5259032249450684
2_20251106_213813,1762436258849,2,0.0014094432117417455,0.11981993168592453,0.5983095169067383,0.7922543287277222,0.8635347485542297,3.199629306793213,1.6162978410720825,1.3483567237854004,9.518529891967773,2.400996208190918,-0.19379301369190216,-0.24036763608455658,-0.1769827902317047,-0.43030643463134766,-29.11621856689453,17.746444702148438,-0.35874950885772705,0.054038047790527344,-0.0820474624633789,1.7071062326431274,9.464491844177246,2.483043670654297
2_20251106_213813,1762436258866,2,0.004722895100712776,0.12073484808206558,0.5970338582992554,0.793064534664154,0.8532429337501526,3.200044631958008,1.620618224143982,1.582978367805481,9.739984512329102,2.667938232421875,-0.19073869287967682,-0.27335435152053833,-0.04137080907821655,0.014800071716308594,-29.222267150878906,17.491363525390625,-0.09930229187011719,0.22039413452148438,0.14791560173034668,1.6822806596755981,9.519590377807617,2.5200226306915283
2_20251106_213813,1762436258886,2,0.007193757686764002,0.12269414961338043,0.5956294536590576,0.793800950050354,0.8421699404716492,3.201801061630249,1.6266424655914307,1.8235852718353271,9.944679260253906,2.9133331775665283,-0.14919988811016083,-0.2611370086669922,0.012996148318052292,0.39917421340942383,-29.332015991210938,17.20679473876953,0.11304366588592529,0.3400707244873047,0.3146483898162842,1.7105416059494019,9.604608535766602,2.598684787750244
2_20251106_213813,1762436258905,2,0.00908875372260809,0.12429223209619522,0.5945691466331482,0.7943276166915894,0.8329038023948669,3.204394817352295,1.6327619552612305,1.9756104946136475,9.972211837768555,2.8474955558776855,-0.10033071041107178,-0.2037157565355301,0.00016798917204141617,0.7347311973571777,-29.421844482421875,17.123538970947266,0.21205508708953857,0.2940826416015625,0.19904875755310059,1.7635554075241089,9.678129196166992,2.648446798324585
2_20251106_213813,1762436258924,2,0.010682478547096252,0.12572962045669556,0.5936082601547241,0.7948001027107239,0.8250834345817566,3.2075836658477783,1.6383860111236572,2.1216506958007812,9.942285537719727,2.5793564319610596,-0.08750255405902863,-0.14507274329662323,-0.016936222091317177,1.0250554084777832,-29.46367645263672,16.94476318359375,0.2864762544631958,0.21132469177246094,-0.05527234077453613,1.8351744413375854,9.730960845947266,2.6346287727355957
2_20251106_213813,1762436258943,2,0.012107876129448414,0.12698107957839966,0.5928203463554382,0.7951686978340149,0.8187487721443176,3.211366891860962,1.6434983015060425,2.23417329788208,10.005729675292969,2.5506272315979004,-0.11132627725601196,-0.17011819779872894,-0.02243400551378727,1.3133769035339355,-29.53143310546875,16.8465576171875,0.3191990852355957,0.21981525421142578,-0.06720113754272461,1.9149742126464844,9.785914421081543,2.617828369140625
2_20251106_213813,1762436258962,2,0.013871528208255768,0.1288512945175171,0.5921208262443542,0.7953602075576782,0.8137872219085693,3.2159416675567627,1.6489982604980469,2.300011157989502,10.143389701843262,2.8522837162017822,-0.11193713545799255,-0.2238742858171463,-0.049922920763492584,1.604517936706543,-29.548965454101562,16.749404907226562,0.30802953243255615,0.285980224609375,0.18756413459777832,1.9919816255569458,9.857409477233887,2.664719581604004
2_20251106_213813,1762436258981,2,0.01616772636771202,0.13118430972099304,0.5914652347564697,0.7954232692718506,0.8137872219085693,3.2159416675567627,1.6489982604980469,2.300011157989502,10.143389701843262,2.8522837162017822,-0.055126722902059555,-0.23792417347431183,-0.1061224713921547,1.7253637313842773,-29.565597534179688,16.69971466064453,0.30802953243255615,0.285980224609375,0.18756413459777832,1.9919816255569458,9.857409477233887,2.664719581604004
2_20251106_213813,1762436259001,2,0.01893671415746212,0.1333366483449936,0.5909491181373596,0.795387864112854,0.8058950901031494,3.2259342670440674,1.6613881587982178,2.1300299167633057,9.969818115234375,2.8295397758483887,-0.016031380742788315,-0.19027672708034515,-0.13422226905822754,1.8573813438415527,-29.60601043701172,16.595924377441406,0.08068966865539551,0.05355548858642578,0.07905411720275879,2.04934024810791,9.91626262664795,2.75048565864563
2_20251106_213813,1762436259019,2,0.021412314847111702,0.1345788985490799,0.5906391143798828,0.7953461408615112,0.8058950901031494,3.2259342670440674,1.6613881587982178,2.1300299167633057,9.969818115234375,2.8295397758483887,-0.028859538957476616,-0.18355721235275269,-0.12933534383773804,1.9762115478515625,-29.660179138183594,16.53192901611328,0.08068966865539551,0.05355548858642578,0.07905411720275879,2.04934024810791,9.91626262664795,2.75048565864563
2_20251106_213813,1762436259039,2,0.0239122211933136,0.1358656883239746,0.5903805494308472,0.7952480912208557,0.7992783784866333,3.2349870204925537,1.6731221675872803,2.1623501777648926,9.874053955078125,2.8474955558776855,-0.012366191484034061,-0.20677007734775543,-0.11406371742486954,2.1251516342163086,-29.612167358398438,16.457508087158203,0.08630800247192383,-0.026056289672851562,0.08430361747741699,2.0760421752929688,9.900110244750977,2.7631919384002686
2_20251106_213813,1762436259060,2,0.026395292952656746,0.13737989962100983,0.5903360247612,0.7949424386024475,0.7992783784866333,3.2349870204925537,1.6731221675872803,2.1623501777648926,9.874053955078125,2.8474955558776855,-0.012366191484034061,-0.20677007734775543,-0.11406371742486954,2.28426194190979,-29.60089874267578,16.36927032470703,0.08630800247192383,-0.026056289672851562,0.08430361747741699,2.0760421752929688,9.900110244750977,2.7631919384002686
2_20251106_213813,1762436259078,2,0.028940772637724876,0.1393468677997589,0.5904121994972229,0.7944546937942505,0.7946881055831909,3.2426536083221436,1.6843470335006714,2.22100567817688,9.809412956237793,2.727790594100952,0.07804179191589355,-0.24891974031925201,-0.10490074008703232,2.406418800354004,-29.592552185058594,16.33362579345703,0.0975649356842041,-0.07126140594482422,-0.04678940773010254,2.123440742492676,9.880674362182617,2.7745800018310547
2_20251106_213813,1762436259097,2,0.0314723365008831,0.14142179489135742,0.5907227993011475,0.7937605977058411,0.7929531931877136,3.245875120162964,1.6890946626663208,2.2305822372436523,9.756742477416992,2.570977210998535,0.07865265011787415,-0.24891974031925201,-0.11162025481462479,2.406418800354004,-29.592552185058594,16.33362579345703,0.08571314811706543,-0.09914588928222656,-0.16288232803344727,2.144869089126587,9.855888366699219,2.7338595390319824
2_20251106_213813,1762436259115,2,0.03402899578213692,0.14356939494609833,0.5911536812782288,0.7929484248161316,0.7918872237205505,3.2484915256500244,1.693000316619873,2.314375638961792,9.799837112426758,2.6715292930603027,0.058494120836257935,-0.22143082320690155,-0.12933534383773804,2.5788283348083496,-29.55577850341797,16.286956787109375,0.1356053352355957,-0.04484081268310547,-0.04986429214477539,2.1787703037261963,9.844677925109863,2.721393585205078
2_20251106_213813,1762436259135,2,0.03668171167373657,0.14555872976779938,0.5915786623954773,0.7921501398086548,0.7918872237205505,3.2484915256500244,1.693000316619873,2.314375638961792,9.799837112426758,2.6715292930603027,0.058494120836257935,-0.22143082320690155,-0.12933534383773804,2.6858808994293213,-29.598587036132812,16.263282775878906,0.1356053352355957,-0.04484081268310547,-0.04986429214477539,2.1787703037261963,9.844677925109863,2.721393585205078
2_20251106_213813,1762436259154,2,0.03932909667491913,0.1474415361881256,0.591930091381073,0.7914119958877563,0.7911514639854431,3.2524993419647217,1.7002464532852173,2.3095874786376953,9.635841369628906,2.576962471008301,0.06826795637607574,-0.20432661473751068,-0.14582869410514832,2.897062063217163,-29.521621704101562,16.205360412597656,0.07357192039489746,-0.14591312408447266,-0.10833287239074707,2.236015558242798,9.781754493713379,2.685295343399048
2_20251106_213813,1762436259172,2,0.041956204921007156,0.14986230432987213,0.5923624634742737,0.7904983758926392,0.7910991907119751,3.253218650817871,1.70272958278656,2.2940256595611572,9.475435256958008,2.509927749633789,0.1537889987230301,-0.2916802763938904,-0.07924442738294601,3.0691752433776855,-29.485252380371094,16.199237823486328,0.04640793800354004,-0.2450551986694336,-0.14029407501220703,2.247617721557617,9.720490455627441,2.650221824645996
2_20251106_213813,1762436259192,2,0.04402773082256317,0.1525055170059204,0.5932711362838745,0.7891976833343506,0.7913561463356018,3.2530109882354736,1.7043383121490479,2.3502869606018066,9.402416229248047,2.317202568054199,0.2044907808303833,-0.3271104097366333,-0.04503599554300308,3.25337553024292,-29.448226928710938,16.207122802734375,0.08213543891906738,-0.2544593811035156,-0.2664153575897217,2.2681515216827393,9.656875610351562,2.583617925643921
2_20251106_213813,1762436259212,2,0.04637255519628525,0.15592357516288757,0.5943767428398132,0.7875618934631348,0.7919343113899231,3.251906394958496,1.7046864032745361,2.4137306213378906,9.280317306518555,2.166374444961548,0.21854066848754883,-0.3680383563041687,-0.0260991919785738,3.4863200187683105,-29.40802001953125,16.216968536376953,0.11646342277526855,-0.30124664306640625,-0.33379483222961426,2.297267198562622,9.581563949584961,2.500169277191162
2_20251106_213813,1762436259230,2,0.04881271719932556,0.15992550551891327,0.5956400036811829,0.7856552004814148,0.7930667996406555,3.2499983310699463,1.7037780284881592,2.498721122741699,9.289894104003906,2.0418813228607178,0.18127791583538055,-0.3790339231491089,0.004444042220711708,3.682100296020508,-29.38262176513672,16.211563110351562,0.1611630916595459,-0.2333354949951172,-0.36663031578063965,2.3375580310821533,9.523229598999023,2.4085116386413574
2_20251106_213813,1762436259250,2,0.05126629397273064,0.16440515220165253,0.5965805649757385,0.7838586568832397,0.79527747631073,3.2473132610321045,1.7014551162719727,2.642367124557495,9.319819450378418,1.9999845027923584,0.18127791583538055,-0.3790339231491089,0.004444042220711708,3.916862726211548,-29.305152893066406,16.26274871826172,0.24384713172912598,-0.16272830963134766,-0.32682156562805176,2.398519992828369,9.482547760009766,2.32680606842041
2_20251106_213813,1762436259269,2,0.0536496527493,0.16925470530986786,0.5970121026039124,0.782336950302124,0.79527747631073,3.2473132610321045,1.7014551162719727,2.642367124557495,9.319819450378418,1.9999845027923584,0.09209167957305908,-0.4303465485572815,0.0435393825173378,4.099850654602051,-29.29296875,16.243072509765625,0.24384713172912598,-0.16272830963134766,-0.32682156562805176,2.398519992828369,9.482547760009766,2.32680606842041
2_20251106_213813,1762436259288,2,0.056219443678855896,0.17459556460380554,0.5971945524215698,0.780842125415802,0.8022050857543945,3.242530345916748,1.6956675052642822,2.8686094284057617,9.508953094482422,2.1603891849517822,0.07987438142299652,-0.46699845790863037,0.005665771663188934,4.306321620941162,-29.280410766601562,16.346023559570312,0.31254053115844727,0.030689239501953125,-0.08888626098632812,2.5560688972473145,9.478263854980469,2.2492754459381104
2_20251106_213813,1762436259307,2,0.05930621922016144,0.18014322221279144,0.5971704125404358,0.7793707251548767,0.8067029714584351,3.240697145462036,1.6926385164260864,2.8422741889953613,9.596338272094727,2.1723594665527344,0.04200076684355736,-0.4608898162841797,-0.06336193531751633,4.535741806030273,-29.302993774414062,16.354549407958984,0.22896432876586914,0.09445953369140625,-0.06153273582458496,2.613309860229492,9.50187873840332,2.2338922023773193
2_20251106_213813,1762436259325,2,0.06285718083381653,0.18516115844249725,0.5968169569969177,0.7781862616539001,0.8109257817268372,3.239123821258545,1.689984917640686,2.6842637062072754,9.5328950881958,2.2633354663848877,0.00046196766197681427,-0.44500732421875,-0.1513264775276184,4.764753341674805,-29.337730407714844,16.322261810302734,0.0567631721496582,0.02481365203857422,0.023554563522338867,2.627500534057617,9.508081436157227,2.239780902862549
2_20251106_213813,1762436259345,2,0.06714309751987457,0.18948259949684143,0.5962873101234436,0.7771934270858765,0.8147260546684265,3.237250804901123,1.6873173713684082,2.4113364219665527,9.43832778930664,2.2836852073669434,-0.03191386163234711,-0.42240530252456665,-0.20569342374801636,4.983693599700928,-29.335586547851562,16.29027557373047,-0.17293119430541992,-0.05580329895019531,0.035123586654663086,2.5842676162719727,9.494131088256836,2.2485616207122803
2_20251106_213813,1762436259364,2,0.07168005406856537,0.1928997039794922,0.5955703854560852,0.7764970064163208,0.8147260546684265,3.237250804901123,1.6873173713684082,2.4113364219665527,9.43832778930664,2.2836852073669434,-0.0477963462471962,-0.40713369846343994,-0.19897392392158508,5.141407012939453,-29.33782196044922,16.29638671875,-0.17293119430541992,-0.05580329895019531,0.035123586654663086,2.5842676162719727,9.494131088256836,2.2485616207122803
2_20251106_213813,1762436259382,2,0.07600679248571396,0.19563616812229156,0.594829797744751,0.7759683728218079,0.8186304569244385,3.233253002166748,1.6829962730407715,2.2617053985595703,9.507756233215332,2.2513651847839355,-0.055737584829330444,-0.4248487949371338,-0.15987858176231384,5.408782005310059,-29.344520568847656,16.2120361328125,-0.19858717918395996,0.034768104553222656,-0.005483865737915039,2.4602925777435303,9.47298812866211,2.2568490505218506
2_20251106_213813,1762436259402,2,0.08008947223424911,0.1983007788658142,0.594006359577179,0.7755120396614075,0.8194261789321899,3.2317910194396973,1.6812524795532227,2.1910793781280518,9.628658294677734,2.3950109481811523,-0.035579048097133636,-0.4914330244064331,-0.14460696280002594,5.675649642944336,-29.363502502441406,16.100387573242188,-0.21537041664123535,0.12453651428222656,0.11052942276000977,2.406449794769287,9.504121780395508,2.2844815254211426
2_20251106_213813,1762436259420,2,0.08458986133337021,0.20177069306373596,0.5932615399360657,0.7747088670730591,0.8194261789321899,3.2317910194396973,1.6812524795532227,2.1910793781280518,9.628658294677734,2.3950109481811523,0.005959751084446907,-0.5103698372840881,-0.12444841116666794,5.918244361877441,-29.383941650390625,15.9742431640625,-0.21537041664123535,0.12453651428222656,0.11052942276000977,2.406449794769287,9.504121780395508,2.2844815254211426
2_20251106_213813,1762436259441,2,0.08884833008050919,0.20517084002494812,0.5926855206489563,0.7737795114517212,0.8186284899711609,3.229952335357666,1.6787018775939941,2.1372122764587402,9.586761474609375,2.304035186767578,0.0242856927216053,-0.5262523293495178,-0.10001382231712341,6.200710773468018,-29.351097106933594,15.783042907714844,-0.1696305274963379,0.048483848571777344,-0.0010840892791748047,2.306842803955078,9.538277626037598,2.305119276046753
2_20251106_213813,1762436259459,2,0.09294707328081131,0.20866574347019196,0.5921992063522339,0.7727351188659668,0.8174476623535156,3.229215145111084,1.6775288581848145,2.077359676361084,9.525712966918945,2.271714687347412,0.03711385279893875,-0.5635150671005249,-0.08046615123748779,6.467380523681641,-29.37035369873047,15.69842529296875,-0.18358659744262695,-0.010051727294921875,-0.026723623275756836,2.260946273803711,9.535764694213867,2.298438310623169
2_20251106_213813,1762436259479,2,0.09713380038738251,0.2126522958278656,0.5917559862136841,0.7714718580245972,0.8151190876960754,3.2283408641815186,1.6760711669921875,1.904984712600708,9.504164695739746,2.226226806640625,0.05788324773311615,-0.5781758427619934,-0.06397280842065811,6.77311897277832,-29.349014282226562,15.562007904052734,-0.28476929664611816,-0.025279998779296875,-0.0577692985534668,2.189754009246826,9.529444694519043,2.283996105194092
2_20251106_213813,1762436259499,2,0.10125996917486191,0.21675652265548706,0.5914161205291748,0.7700584530830383,0.8118410706520081,3.227280616760254,1.6738593578338623,1.8391469717025757,9.453889846801758,2.0119550228118896,0.06399190425872803,-0.5348044037818909,-0.03526216745376587,6.77311897277832,-29.349014282226562,15.562007904052734,-0.28048574924468994,-0.060443878173828125,-0.21763300895690918,2.1196327209472656,9.514333724975586,2.229588031768799
2_20251106_213813,1762436259517,2,0.1049828827381134,0.22041328251361847,0.5911982655525208,0.7686879634857178,0.808627724647522,3.2263872623443604,1.671105146408081,1.9528666734695435,9.519726753234863,1.879082441329956,0.03344866260886192,-0.5005960464477539,-0.0157144945114851,7.092353820800781,-29.301902770996094,15.44012451171875,-0.13341295719146729,0.004314422607421875,-0.28040432929992676,2.0862796306610107,9.515412330627441,2.159486770629883
2_20251106_213813,1762436259537,2,0.10845524072647095,0.22389057278633118,0.5909745693206787,0.7673718333244324,0.8049868941307068,3.2256052494049072,1.6680108308792114,1.9337137937545776,9.556835174560547,2.038290023803711,-0.014809650368988514,-0.48471352458000183,-0.04809032380580902,7.41984224319458,-29.328933715820312,15.276599884033203,-0.12205278873443604,0.033138275146484375,-0.09695744514465332,2.0557665824890137,9.523696899414062,2.1352474689483643
2_20251106_213813,1762436259554,2,0.11225559562444687,0.22734254598617554,0.590520977973938,0.7661585807800293,0.8009055256843567,3.2247824668884277,1.6654735803604126,1.7290184497833252,9.475435256958008,2.2358033657073975,-0.014809650368988514,-0.48471352458000183,-0.04809032380580902,7.711194038391113,-29.334579467773438,15.247295379638672,-0.2613985538482666,-0.03860950469970703,0.0804448127746582,1.9904170036315918,9.514044761657715,2.1553585529327393
2_20251106_213813,1762436259574,2,0.11617594212293625,0.2298842966556549,0.5898524522781372,0.7653302550315857,0.7953915596008301,3.223527431488037,1.6629525423049927,1.5937517881393433,9.38685417175293,2.2070741653442383,-0.05085067078471184,-0.3405494689941406,-0.10856593400239944,8.002025604248047,-29.36412811279297,15.095813751220703,-0.31733226776123047,-0.10175228118896484,0.04137253761291504,1.9110840559005737,9.488606452941895,2.1657016277313232
2_20251106_213813,1762436259593,2,0.11958824098110199,0.23123052716255188,0.5891319513320923,0.7649540305137634,0.7953915596008301,3.223527431488037,1.6629525423049927,1.5937517881393433,9.38685417175293,2.2070741653442383,-0.03802251070737839,-0.3155039846897125,-0.056642428040504456,8.333854675292969,-29.30406951904297,15.01523208618164,-0.31733226776123047,-0.10175228118896484,0.04137253761291504,1.9110840559005737,9.488606452941895,2.1657016277313232
2_20251106_213813,1762436259612,2,0.12176679819822311,0.23197434842586517,0.5887083411216736,0.7647112011909485,0.7892169952392578,3.2218902111053467,1.6596095561981201,1.7098655700683594,9.373686790466309,1.9185850620269775,-0.032524727284908295,-0.39552727341651917,0.011774418875575066,8.611498832702637,-29.347373962402344,14.903545379638672,-0.16097474098205566,-0.0919351577758789,-0.1976933479309082,1.870840311050415,9.465621948242188,2.1162784099578857
2_20251106_213813,1762436259631,2,0.12464466691017151,0.234676793217659,0.5880746245384216,0.763910174369812,0.7791923880577087,3.2191765308380127,1.6519430875778198,1.8918170928955078,9.566411972045898,1.7438158988952637,-0.05146153271198273,-0.48410266637802124,0.06980656832456589,8.891653060913086,-29.35247039794922,14.73858642578125,0.02549147605895996,0.0920858383178711,-0.24507951736450195,1.8663256168365479,9.474326133728027,1.9888954162597656
2_20251106_213813,1762436259650,2,0.12769313156604767,0.23860688507556915,0.5871178507804871,0.7629245519638062,0.7791923880577087,3.2191765308380127,1.6519430875778198,1.8918170928955078,9.566411972045898,1.7438158988952637,-0.0581810437142849,-0.5439674258232117,0.07713694125413895,9.109282493591309,-29.37530517578125,14.692558288574219,0.02549147605895996,0.0920858383178711,-0.24507951736450195,1.8663256168365479,9.474326133728027,1.9888954162597656
2_20251106_213813,1762436259669,2,0.13114821910858154,0.24314598739147186,0.5860280394554138,0.7617422938346863,0.7739250659942627,3.2187039852142334,1.6478129625320435,1.8942112922668457,9.722027778625488,2.117295265197754,-0.042298562824726105,-0.5018177628517151,0.05270235240459442,9.324685096740723,-29.447555541992188,14.564376831054688,0.0223085880279541,0.19816112518310547,0.10272002220153809,1.8719027042388916,9.523866653442383,2.014575242996216
2_20251106_213813,1762436259690,2,0.134251669049263,0.2467314749956131,0.5848681926727295,0.7609397172927856,0.7694194912910461,3.2191073894500732,1.6444134712219238,1.8798465728759766,9.818989753723145,2.069413423538208,-0.0526832640171051,-0.44500732421875,0.009941824711859226,9.605148315429688,-29.440628051757812,14.453746795654297,0.0063550472259521484,0.2360982894897461,0.04387044906616211,1.8734915256500244,9.582891464233398,2.025542974472046
2_20251106_213813,1762436259709,2,0.13742509484291077,0.2496425211429596,0.5838791131973267,0.7601829171180725,0.7616193294525146,3.2217085361480713,1.6374430656433105,2.0091278553009033,9.894403457641602,1.959284782409668,-0.0526832640171051,-0.44500732421875,0.009941824711859226,9.825373649597168,-29.436729431152344,14.246051788330078,0.10155487060546875,0.2154560089111328,-0.03742563724517822,1.9075729846954346,9.678947448730469,1.9967104196548462
2_20251106_213813,1762436259726,2,0.14105039834976196,0.2522204518318176,0.5826573967933655,0.7596051692962646,0.758660078048706,3.2234914302825928,1.6347801685333252,1.9600489139556885,9.854900360107422,2.1220836639404297,-0.12415443360805511,-0.384531706571579,-0.11162025481462479,9.993738174438477,-29.48664093017578,14.075885772705078,0.041980743408203125,0.1407623291015625,0.10029864311218262,1.9180681705474854,9.71413803100586,2.021785020828247
2_20251106_213813,1762436259746,2,0.14509695768356323,0.25438424944877625,0.5814881324768066,0.7590171694755554,0.758660078048706,3.2234914302825928,1.6347801685333252,1.9600489139556885,9.854900360107422,2.1220836639404297,-0.10827194899320602,-0.384531706571579,-0.1415526270866394,10.196744918823242,-29.571571350097656,13.87936782836914,0.041980743408203125,0.1407623291015625,0.10029864311218262,1.9180681705474854,9.71413803100586,2.021785020828247
2_20251106_213813,1762436259764,2,0.14918965101242065,0.25615090131759644,0.5803706645965576,0.7584847211837769,0.7544233798980713,3.2259368896484375,1.6315053701400757,1.7553534507751465,9.78307819366455,2.021531581878662,-0.11804578453302383,-0.40591198205947876,-0.10978766530752182,10.37890338897705,-29.595306396484375,13.683189392089844,-0.1301717758178711,0.055151939392089844,-0.00020265579223632812,1.8855252265930176,9.727926254272461,2.0217342376708984
2_20251106_213813,1762436259784,2,0.1532931923866272,0.2580327093601227,0.5792689919471741,0.7578705549240112,0.7475176453590393,3.2301025390625,1.628129243850708,1.981595754623413,9.809412956237793,2.231015205383301,-0.11804578453302383,-0.40591198205947876,-0.10978766530752182,10.538705825805664,-29.583091735839844,13.500335693359375,0.10362112522125244,0.055599212646484375,0.12761926651000977,1.8779746294021606,9.753813743591309,2.103395938873291
2_20251106_213813,1762436259803,2,0.1566208302974701,0.25977736711502075,0.5782398581504822,0.7573798894882202,0.7452392578125,3.232532501220703,1.6264244318008423,2.217414379119873,9.86567497253418,2.009561061859131,-0.06673315167427063,-0.38575345277786255,-0.05847502499818802,10.734545707702637,-29.59239959716797,13.196781158447266,0.2715517282485962,0.08948898315429688,-0.07506775856018066,1.9458626508712769,9.776185989379883,2.0846288204193115
2_20251106_213813,1762436259822,2,0.15990136563777924,0.26255637407302856,0.5772216320037842,0.7565123438835144,0.7439150810241699,3.235152244567871,1.6251276731491089,2.252129077911377,9.889616012573242,2.2022857666015625,-0.06673315167427063,-0.4615006446838379,-0.07435750216245651,10.967958450317383,-29.574745178222656,12.949291229248047,0.24501323699951172,0.0907440185546875,0.09412550926208496,2.0071158409118652,9.798871994018555,2.1081602573394775
2_20251106_213813,1762436259841,2,0.16393356025218964,0.26601824164390564,0.5759221315383911,0.7554295063018799,0.7430830001831055,3.2379653453826904,1.624843716621399,2.1623501777648926,9.917147636413574,2.4536662101745605,-0.1046067625284195,-0.40041419863700867,-0.17392846941947937,11.138932228088379,-29.58631134033203,12.712337493896484,0.12418746948242188,0.0946207046508789,0.27640485763549805,2.0381627082824707,9.822526931762695,2.1772613525390625
2_20251106_213813,1762436259861,2,0.16835950314998627,0.2683236300945282,0.5744757652282715,0.7547417283058167,0.741951584815979,3.2408552169799805,1.6257603168487549,1.9396990537643433,9.847718238830566,2.572174072265625,-0.12110011279582977,-0.30328670144081116,-0.28754928708076477,11.384136199951172,-29.568405151367188,12.519401550292969,-0.07877099514007568,0.020153045654296875,0.3159301280975342,2.018470048904419,9.82756519317627,2.256243944168091
2_20251106_213813,1762436259879,2,0.17299167811870575,0.2689167559146881,0.5731908679008484,0.7544599771499634,0.741951584815979,3.2408552169799805,1.6257603168487549,1.9396990537643433,9.847718238830566,2.572174072265625,-0.10827194899320602,-0.2336481362581253,-0.3541335463523865,11.66830825805664,-29.510040283203125,12.28818130493164,-0.07877099514007568,0.020153045654296875,0.3159301280975342,2.018470048904419,9.82756519317627,2.256243944168091
2_20251106_213813,1762436259901,2,0.17770256102085114,0.26831141114234924,0.5722771883010864,0.7542741894721985,0.735354483127594,3.244196891784668,1.629714846611023,1.2094990015029907,9.470647811889648,2.52309513092041,-0.07284179329872131,-0.2348698526620865,-0.336418479681015,11.66830825805664,-29.510040283203125,12.28818130493164,-0.5784558057785034,-0.2596464157104492,0.1646559238433838,1.7879548072814941,9.730294227600098,2.3584392070770264
2_20251106_213813,1762436259919,2,0.18223804235458374,0.26740869879722595,0.5717502236366272,0.7539121508598328,0.7289446592330933,3.244382858276367,1.6322466135025024,0.898266077041626,9.410795211791992,2.527883291244507,-0.04474202170968056,-0.23853503167629242,-0.2612821161746979,12.197795867919922,-29.422012329101562,11.94538688659668,-0.7117509841918945,-0.2555990219116211,0.13555526733398438,1.6100170612335205,9.666394233703613,2.3923280239105225
2_20251106_213813,1762436259938,2,0.18616126477718353,0.2664332389831543,0.5714759826660156,0.7535068392753601,0.7289446592330933,3.244382858276367,1.6322466135025024,0.898266077041626,9.410795211791992,2.527883291244507,-0.012977056205272675,-0.18355721235275269,-0.14949387311935425,12.197795867919922,-29.422012329101562,11.94538688659668,-0.7117509841918945,-0.2555990219116211,0.13555526733398438,1.6100170612335205,9.666394233703613,2.3923280239105225
2_20251106_213813,1762436259957,2,0.18889109790325165,0.2652227580547333,0.5714455246925354,0.7532775402069092,0.7199671864509583,3.243569850921631,1.6348192691802979,0.7653936147689819,9.337775230407715,2.4057841300964355,0.004738020710647106,-0.13957495987415314,-0.01876881904900074,12.528400421142578,-29.398414611816406,11.742368698120117,-0.6756987571716309,-0.2628955841064453,0.010764837265014648,1.4410923719406128,9.60067081451416,2.395019292831421
2_20251106_213813,1762436259975,2,0.19060559570789337,0.26450666785240173,0.5714098811149597,0.753124475479126,0.7103002071380615,3.242219924926758,1.636484146118164,0.8707339763641357,9.376081466674805,2.1556010246276855,0.004738020710647106,-0.13957495987415314,-0.01876881904900074,12.777338981628418,-29.30583953857422,11.618598937988281,-0.4562866687774658,-0.1796712875366211,-0.19153475761413574,1.3270206451416016,9.555752754211426,2.3471357822418213
2_20251106_213813,1762436259995,2,0.19167478382587433,0.26475366950035095,0.5713469386100769,0.7528140544891357,0.7010629177093506,3.2408220767974854,1.6375551223754883,1.1089468002319336,9.48142147064209,2.1735568046569824,0.020620502531528473,-0.12185987085103989,0.10462585836648941,12.96495246887207,-29.2177734375,11.546442031860352,-0.17445909976959229,-0.05946540832519531,-0.13886308670043945,1.2834059000015259,9.540886878967285,2.312419891357422
2_20251106_213813,1762436260014,2,0.19226448237895966,0.2653689384460449,0.5711790919303894,0.7525743246078491,0.6834310293197632,3.2383720874786377,1.6385771036148071,1.4620763063430786,9.603520393371582,2.114901304244995,0.01756618171930313,-0.03511708229780197,0.09301943331956863,13.123653411865234,-29.218658447265625,11.417390823364258,0.1403968334197998,0.045639991760253906,-0.13924431800842285,1.3216794729232788,9.557880401611328,2.254145622253418
2_20251106_213813,1762436260033,2,0.1925113946199417,0.2656612992286682,0.5710117816925049,0.7525350451469421,0.6834310293197632,3.2383720874786377,1.6385771036148071,1.4620763063430786,9.603520393371582,2.114901304244995,-0.025805216282606125,0.024136792868375778,0.08691077679395676,13.268970489501953,-29.233566284179688,11.355167388916016,0.1403968334197998,0.045639991760253906,-0.13924431800842285,1.3216794729232788,9.557880401611328,2.254145622253418
2_20251106_213813,1762436260052,2,0.19183218479156494,0.26521462202072144,0.5708950757980347,0.7529544234275818,0.6708803176879883,3.2372353076934814,1.637440800666809,1.7385947704315186,9.73040771484375,2.211862325668335,-0.025805216282606125,0.024136792868375778,0.08691077679395676,13.391523361206055,-29.22467803955078,11.265457153320312,0.27563607692718506,0.12248420715332031,0.012968063354492188,1.4629586935043335,9.60792350769043,2.1988942623138428
2_20251106_213813,1762436260071,2,0.19226808845996857,0.26591962575912476,0.5702126622200012,0.753111720085144,0.6662154793739319,3.2373154163360596,1.6374226808547974,1.7098655700683594,9.754348754882812,2.3758580684661865,-0.05146153271198273,0.04307359829545021,0.058200135827064514,13.429280281066895,-29.209060668945312,11.19961166381836,0.1975255012512207,0.11713981628417969,0.141571044921875,1.5123400688171387,9.637208938598633,2.2342870235443115
2_20251106_213813,1762436260090,2,0.19261246919631958,0.2662166655063629,0.5694611072540283,0.7534873485565186,0.6623947620391846,3.237368106842041,1.6368578672409058,1.7350035905838013,9.628658294677734,2.034698963165283,-0.05146153271198273,0.04307359829545021,0.058200135827064514,13.487997055053711,-29.242897033691406,11.214788436889648,0.17813074588775635,-0.006840705871582031,-0.15967059135437012,1.556872844696045,9.635499000549316,2.1943695545196533
2_20251106_213813,1762436260110,2,0.1924360692501068,0.26580357551574707,0.5691906809806824,0.7538825273513794,0.6591155529022217,3.2369742393493652,1.6344176530838013,1.7350035905838013,9.488603591918945,1.5774259567260742,0.004127155989408493,0.09805142879486084,0.04170679301023483,13.414077758789062,-29.260353088378906,11.22509765625,0.14250457286834717,-0.11751651763916016,-0.49355483055114746,1.592499017715454,9.606120109558105,2.0709807872772217
2_20251106_213813,1762436260128,2,0.19231384992599487,0.2660403549671173,0.5691722631454468,0.7538440227508545,0.6568042635917664,3.236445426940918,1.6314401626586914,1.7924619913101196,9.528106689453125,1.7091014385223389,-0.0374116450548172,0.04612791910767555,0.09118682891130447,13.421032905578613,-29.347862243652344,11.264289855957031,0.15997040271759033,-0.06241035461425781,-0.28950345516204834,1.6324915885925293,9.590517044067383,1.9986048936843872
2_20251106_213813,1762436260147,2,0.19251927733421326,0.2671196758747101,0.5690024495124817,0.7535380721092224,0.6553096771240234,3.2359015941619873,1.627843976020813,1.9325168132781982,9.585563659667969,1.7761361598968506,-0.061846233904361725,0.07606029510498047,0.09851721674203873,13.45587158203125,-29.382614135742188,11.21090316772461,0.24002015590667725,-0.003962516784667969,-0.17797505855560303,1.692496657371521,9.589526176452637,1.9541112184524536
2_20251106_213813,1762436260167,2,0.19249926507472992,0.26790326833724976,0.5685548186302185,0.7536028623580933,0.6546685099601746,3.235018014907837,1.6235612630844116,1.9732164144515991,9.477829933166504,1.7282541990280151,-0.04535288363695145,0.07606030255556107,0.0740826204419136,13.455463409423828,-29.39476776123047,11.170089721679688,0.22457587718963623,-0.0893564224243164,-0.1806856393814087,1.748640537261963,9.56718635559082,1.9089398384094238
2_20251106_213813,1762436260186,2,0.19263513386249542,0.2687893807888031,0.5681195855140686,0.7535808682441711,0.6544104218482971,3.2338178157806396,1.6192561388015747,1.865481972694397,9.420372009277344,1.7486040592193604,-0.04535288363695145,0.07606030255556107,0.0740826204419136,13.368343353271484,-29.437591552734375,11.125316619873047,0.09347319602966309,-0.11745166778564453,-0.12826871871948242,1.7720087766647339,9.537823677062988,1.8768727779388428
2_20251106_213813,1762436260205,2,0.19312094151973724,0.26969534158706665,0.5673266053199768,0.7537301778793335,0.6539750099182129,3.2323226928710938,1.6153234243392944,1.7026833295822144,9.408401489257812,1.934146761894226,-0.1718018800020218,0.09682970494031906,0.0636979192495346,13.266328811645508,-29.519691467285156,11.160358428955078,-0.055460333824157715,-0.10353755950927734,0.04581916332244873,1.758143663406372,9.51193904876709,1.8883275985717773
2_20251106_213813,1762436260225,2,0.193497434258461,0.2700066566467285,0.566137969493866,0.7544156312942505,0.6536027789115906,3.2310197353363037,1.6122652292251587,1.7661268711090088,9.529302597045898,2.083777904510498,-0.1718018800020218,0.09682970494031906,0.0636979192495346,13.178306579589844,-29.575347900390625,11.142353057861328,0.006386518478393555,0.013891220092773438,0.15636026859283447,1.7597403526306152,9.515411376953125,1.9274176359176636
2_20251106_213813,1762436260243,2,0.1933639496564865,0.26956790685653687,0.5647792220115662,0.7556242346763611,0.6534439921379089,3.230112314224243,1.609832763671875,1.8367527723312378,9.669357299804688,2.1891183853149414,-0.1608063131570816,0.14020107686519623,0.11989747732877731,13.10507869720459,-29.59186553955078,11.058048248291016,0.061609864234924316,0.12315654754638672,0.20936059951782227,1.7751429080963135,9.5462007522583,1.9797577857971191
2_20251106_213813,1762436260262,2,0.19287928938865662,0.269270122051239,0.5635378360748291,0.756780207157135,0.6536662578582764,3.2297959327697754,1.6081241369247437,1.920546293258667,9.73280143737793,2.130462884902954,-0.10155244171619415,0.14020107686519623,0.13394735753536224,13.079086303710938,-29.630455017089844,10.988693237304688,0.11632263660430908,0.14928054809570312,0.12056398391723633,1.804223656654358,9.583520889282227,2.0098989009857178
2_20251106_213813,1762436260281,2,0.19216853380203247,0.2691883146762848,0.5626013278961182,0.7576863765716553,0.6542280316352844,3.229701042175293,1.6067578792572021,1.9277286529541016,9.664569854736328,2.136448383331299,-0.07711785286664963,0.1371467560529709,0.13761253654956818,13.006155014038086,-29.646568298339844,10.863840103149414,0.09880399703979492,0.06483936309814453,0.10123968124389648,1.8289246559143066,9.599730491638184,2.0352087020874023
2_20251106_213813,1762436260300,2,0.19150443375110626,0.26944902539253235,0.5618352293968201,0.7583300471305847,0.6554467678070068,3.2298288345336914,1.6056557893753052,2.045039415359497,9.672948837280273,2.1220836639404297,-0.07772871851921082,0.1518075168132782,0.17548614740371704,12.915918350219727,-29.740028381347656,10.858558654785156,0.17289185523986816,0.058574676513671875,0.06949996948242188,1.872147560119629,9.614374160766602,2.052583694458008
2_20251106_213813,1762436260319,2,0.19047778844833374,0.2697812020778656,0.5609952807426453,0.7590919733047485,0.6574611067771912,3.2298882007598877,1.605199933052063,2.205443859100342,9.59394359588623,2.2489709854125977,-0.05695931613445282,0.13531416654586792,0.1974772810935974,12.801620483398438,-29.82305908203125,10.906625747680664,0.26663708686828613,-0.016344070434570312,0.15710973739624023,1.9388067722320557,9.6102876663208,2.0918612480163574
2_20251106_213813,1762436260340,2,0.18926401436328888,0.27052295207977295,0.560197114944458,0.7597208023071289,0.660668134689331,3.229748487472534,1.605207085609436,2.33113431930542,9.544864654541016,2.244182586669922,-0.03435732051730156,0.1511966437101364,0.19564467668533325,12.652257919311523,-29.89483642578125,10.845355987548828,0.3138620853424072,-0.052338600158691406,0.1218571662902832,2.0172722339630127,9.597203254699707,2.1223254203796387
2_20251106_213813,1762436260359,2,0.1877819299697876,0.2712508738040924,0.5593733787536621,0.7604356408119202,0.6653348803520203,3.2294676303863525,1.6057409048080444,2.550194263458252,9.548456192016602,2.2956557273864746,-0.05023980140686035,0.16097049415111542,0.19992074370384216,12.652257919311523,-29.89483642578125,10.845355987548828,0.42633771896362305,-0.038997650146484375,0.13866424560546875,2.123856544494629,9.587453842163086,2.156991481781006
2_20251106_213813,1762436260376,2,0.18627041578292847,0.2721022963523865,0.5583574175834656,0.7612494230270386,0.6704656481742859,3.2294180393218994,1.6069391965866089,2.7441163063049316,9.668161392211914,2.5063364505767822,-0.08505909144878387,0.12370773404836655,0.20602938532829285,12.5151948928833,-29.954071044921875,10.865938186645508,0.49620771408081055,0.06456565856933594,0.2794759273529053,2.247908592224121,9.603595733642578,2.226860523223877
2_20251106_213813,1762436260396,2,0.18491379916667938,0.2734333276748657,0.5568532347679138,0.7622044086456299,0.6778395175933838,3.229748249053955,1.6096339225769043,2.78721022605896,9.73040771484375,2.6727261543273926,-0.05940277501940727,0.07361683994531631,0.15838193893432617,12.364720344543457,-30.050559997558594,10.763591766357422,0.4314413070678711,0.10144996643066406,0.3566925525665283,2.355768918991089,9.628957748413086,2.3160336017608643
2_20251106_213813,1762436260415,2,0.1840789020061493,0.27500855922698975,0.5552932024002075,0.7629775404930115,0.685349702835083,3.2300453186035156,1.6128770112991333,2.6675050258636475,9.628658294677734,2.6116766929626465,-0.027026943862438202,0.09682969748973846,0.05575668066740036,12.21487808227539,-30.11139678955078,10.86478042602539,0.2493889331817627,-0.00023937225341796875,0.23651456832885742,2.4181160926818848,9.628897666931152,2.375162124633789
2_20251106_213813,1762436260435,2,0.18356770277023315,0.27566826343536377,0.5542091727256775,0.7636504769325256,0.685349702835083,3.2300453186035156,1.6128770112991333,2.6675050258636475,9.628658294677734,2.6116766929626465,-0.055126722902059555,0.17379865050315857,-0.039538219571113586,12.01749038696289,-30.16217803955078,10.896690368652344,0.2493889331817627,-0.00023937225341796875,0.23651456832885742,2.4181160926818848,9.628897666931152,2.375162124633789
2_20251106_213813,1762436260453,2,0.1835404485464096,0.27515384554862976,0.5534154176712036,0.764417827129364,0.6936018466949463,3.229931354522705,1.616806149482727,2.5274503231048584,9.501770973205566,2.5314745903015137,-0.09727638959884644,0.23183079063892365,-0.09757036715745926,11.877113342285156,-30.272315979003906,10.983797073364258,0.08746743202209473,-0.10170173645019531,0.12505006790161133,2.4399828910827637,9.603472709655762,2.4064245223999023
2_20251106_213813,1762436260473,2,0.18319527804851532,0.2733131945133209,0.5529363751411438,0.7655068635940552,0.7062229514122009,3.227447032928467,1.624444603919983,2.279661178588867,9.116321563720703,2.701455593109131,-0.10643935203552246,0.20678533613681793,-0.10795506089925766,11.730570793151855,-30.293869018554688,10.923582077026367,-0.1250147819519043,-0.3487415313720703,0.21103715896606445,2.4046759605407715,9.465063095092773,2.4904184341430664
2_20251106_213813,1762436260491,2,0.18365933001041412,0.2718658745288849,0.5521746277809143,0.7664602994918823,0.7062229514122009,3.227447032928467,1.624444603919983,2.279661178588867,9.116321563720703,2.701455593109131,-0.08994600921869278,0.17563124001026154,-0.08107701689004898,11.646171569824219,-30.286598205566406,10.893381118774414,-0.1250147819519043,-0.3487415313720703,0.21103715896606445,2.4046759605407715,9.465063095092773,2.4904184341430664
2_20251106_213813,1762436260511,2,0.18401016294956207,0.27052149176597595,0.5513083934783936,0.7674747109413147,0.7118083238601685,3.223633050918579,1.6301300525665283,2.1755177974700928,8.821847915649414,2.952836036682129,-0.08017217367887497,0.18357248604297638,-0.020601412281394005,11.548892974853516,-30.28106689453125,10.95730209350586,-0.18332648277282715,-0.5145721435546875,0.36993408203125,2.35884428024292,9.336420059204102,2.582901954650879
2_20251106_213813,1762436260530,2,0.18366551399230957,0.26904070377349854,0.5501506924629211,0.7689071893692017,0.7166808843612671,3.218026876449585,1.636066198348999,2.216217517852783,8.684186935424805,2.75891375541687,-0.09300033748149872,0.140811949968338,0.032543815672397614,11.538525581359863,-30.244590759277344,10.998151779174805,-0.11410140991210938,-0.5217866897583008,0.1408092975616455,2.3303189277648926,9.205973625183105,2.6181044578552246
2_20251106_213813,1762436260549,2,0.1831670105457306,0.2683790624141693,0.5488496422767639,0.7701860666275024,0.7252107262611389,3.2056732177734375,1.6447274684906006,2.379016399383545,8.946340560913086,2.2824881076812744,-0.13209567964076996,0.09927315264940262,0.048426300287246704,11.478214263916016,-30.224525451660156,11.104358673095703,0.03710365295410156,-0.13647842407226562,-0.24505615234375,2.3419127464294434,9.082818984985352,2.5275442600250244
2_20251106_213813,1762436260569,2,0.18314318358898163,0.2681300640106201,0.5476870536804199,0.7711055278778076,0.7252107262611389,3.2056732177734375,1.6447274684906006,2.379016399383545,8.946340560913086,2.2824881076812744,-0.1919604241847992,0.09438624233007431,0.023991713300347328,11.429161071777344,-30.239723205566406,11.048067092895508,0.03710365295410156,-0.13647842407226562,-0.24505615234375,2.3419127464294434,9.082818984985352,2.5275442600250244
2_20251106_213813,1762436260587,2,0.18341709673404694,0.2676655352115631,0.5462036728858948,0.7722530961036682,0.7330955266952515,3.1947784423828125,1.6493210792541504,2.3071932792663574,9.32819938659668,2.132857084274292,-0.1919604241847992,0.09438624233007431,0.023991713300347328,11.42855453491211,-30.25214385986328,11.034286499023438,-0.025476455688476562,0.18251609802246094,-0.2631337642669678,2.332669734954834,9.145683288574219,2.3959908485412598
2_20251106_213813,1762436260606,2,0.18401667475700378,0.26673823595046997,0.5445709228515625,0.7735832929611206,0.7362581491470337,3.1911258697509766,1.6499143838882446,2.232976198196411,9.48142147064209,1.9880139827728271,-0.24510565400123596,0.12248601764440536,-0.05114464461803436,11.381319046020508,-30.230072021484375,11.019336700439453,-0.07975482940673828,0.26858997344970703,-0.3263814449310303,2.3127310276031494,9.212831497192383,2.3143954277038574
2_20251106_213813,1762436260625,2,0.18519403040409088,0.2664993405342102,0.5432259440422058,0.7743299007415771,0.7390446662902832,3.1882760524749756,1.649311900138855,2.1312270164489746,9.543667793273926,1.9102058410644531,-0.24510565400123596,0.12248601764440536,-0.05114464461803436,11.343450546264648,-30.257431030273438,11.003820419311523,-0.1452031135559082,0.26466846466064453,-0.3233516216278076,2.276430130004883,9.278999328613281,2.2335574626922607
2_20251106_213813,1762436260644,2,0.18649530410766602,0.266472190618515,0.542075514793396,0.7748330235481262,0.7412140369415283,3.187030792236328,1.6480122804641724,2.189882278442383,9.762727737426758,1.9149940013885498,-0.2774814963340759,0.07117337733507156,0.003222312778234482,11.291788101196289,-30.31097412109375,11.014318466186523,-0.06923818588256836,0.38698291778564453,-0.2548508644104004,2.259120464324951,9.375744819641113,2.16984486579895
2_20251106_213813,1762436260663,2,0.18778149783611298,0.26677167415618896,0.5407686233520508,0.7753323912620544,0.7433807849884033,3.1874966621398926,1.6465790271759033,2.218611717224121,9.961437225341797,2.14961576461792,-0.28664445877075195,0.02719111554324627,0.020937390625476837,11.303256034851074,-30.3343505859375,10.919666290283203,-0.03240704536437988,0.4685535430908203,-0.01618337631225586,2.251018762588501,9.492883682250977,2.165799140930176
2_20251106_213813,1762436260682,2,0.18914537131786346,0.26750895380973816,0.539372444152832,0.7757192254066467,0.7433807849884033,3.1874966621398926,1.6465790271759033,2.218611717224121,9.961437225341797,2.14961576461792,-0.254268616437912,0.021693333983421326,0.013607013039290905,11.227195739746094,-30.412704467773438,10.73942756652832,-0.03240704536437988,0.4685535430908203,-0.01618337631225586,2.251018762588501,9.492883682250977,2.165799140930176
2_20251106_213813,1762436260701,2,0.190482959151268,0.268131822347641,0.5380814671516418,0.7760733962059021,0.7460916042327881,3.1930837631225586,1.6462769508361816,2.0558128356933594,10.099098205566406,2.5470361709594727,-0.21944934129714966,0.05956694483757019,0.022769983857870102,11.22726821899414,-30.43579864501953,10.536155700683594,-0.1362318992614746,0.38491249084472656,0.26448512077331543,2.192044734954834,9.71418571472168,2.2825510501861572
2_20251106_213813,1762436260720,2,0.1913686841726303,0.26811859011650085,0.5370199084281921,0.7765951752662659,0.7469843626022339,3.1974053382873535,1.6477981805801392,2.143197536468506,10.11825180053711,2.728987693786621,-0.1968473345041275,0.10171661525964737,0.0740826204419136,11.213857650756836,-30.473052978515625,10.413227081298828,-0.0390777587890625,0.3232536315917969,0.3571493625640869,2.1822752952575684,9.794998168945312,2.371838331222534
2_20251106_213813,1762436260740,2,0.1915712207555771,0.2678601145744324,0.5360243916511536,0.7773218750953674,0.7484169602394104,3.2028589248657227,1.6510783433914185,2.35986328125,10.167330741882324,2.950441837310791,-0.1968473345041275,0.10171661525964737,0.0740826204419136,11.186541557312012,-30.548233032226562,10.23495101928711,0.14207029342651367,0.2978658676147461,0.46288275718688965,2.2177929878234863,9.869464874267578,2.4875590801239014
2_20251106_213813,1762436260759,2,0.19101837277412415,0.26789766550064087,0.5348247289657593,0.7782707214355469,0.7506415843963623,3.2087392807006836,1.6561987400054932,2.5573766231536865,10.218803405761719,3.2748420238494873,-0.11865665018558502,0.027801983058452606,0.2084728479385376,11.146235466003418,-30.63689422607422,10.069437026977539,0.2716670036315918,0.27947044372558594,0.6298263072967529,2.2857096195220947,9.939332962036133,2.6450157165527344
2_20251106_213813,1762436260780,2,0.19028359651565552,0.26911914348602295,0.533410370349884,0.7789996266365051,0.7540341019630432,3.2152836322784424,1.6639834642410278,2.6698992252349854,10.157754898071289,3.5214343070983887,-0.018474837765097618,-0.04122573137283325,0.23168571293354034,11.105533599853516,-30.726097106933594,9.957988739013672,0.30735158920288086,0.17473793029785156,0.7011349201202393,2.3625476360321045,9.983016967773438,2.8202993869781494
2_20251106_213813,1762436260797,2,0.18928201496601105,0.2709141969680786,0.5323998928070068,0.7793126106262207,0.7540341019630432,3.2152836322784424,1.6639834642410278,2.6698992252349854,10.157754898071289,3.5214343070983887,0.08781562000513077,-0.03817141056060791,0.20114246010780334,11.105533599853516,-30.726097106933594,9.957988739013672,0.30735158920288086,0.17473793029785156,0.7011349201202393,2.3625476360321045,9.983016967773438,2.8202993869781494
2_20251106_213813,1762436260816,2,0.18822099268436432,0.2727164030075073,0.5322041511535645,0.7790746688842773,0.7628636360168457,3.2261180877685547,1.6807560920715332,2.7776336669921875,9.728013038635254,3.0186736583709717,0.14096085727214813,0.00642171548679471,0.12478438764810562,11.017906188964844,-30.781211853027344,9.885917663574219,0.26584672927856445,-0.20897769927978516,0.0647127628326416,2.511786937713623,9.936990737915039,2.95396089553833
2_20251106_213813,1762436260835,2,0.1872059404850006,0.27382349967956543,0.5327265858650208,0.7785736918449402,0.7676740884780884,3.2295310497283936,1.6879119873046875,2.689052104949951,9.475436210632324,2.758913993835449,0.14096085727214813,0.00642171548679471,0.12478438764810562,10.892818450927734,-30.851539611816406,9.83914566040039,0.14181208610534668,-0.3692436218261719,-0.1560375690460205,2.5472400188446045,9.844679832458496,2.9149515628814697
2_20251106_213813,1762436260854,2,0.1867329180240631,0.27438095211982727,0.5332988500595093,0.7780991196632385,0.7727316617965698,3.2312941551208496,1.6949909925460815,2.5406179428100586,9.239617347717285,2.75891375541687,0.08720476180315018,0.03146716579794884,-0.004718928597867489,10.816783905029297,-30.90666961669922,9.848663330078125,-0.005297660827636719,-0.48404979705810547,-0.12483048439025879,2.5459156036376953,9.72366714477539,2.883744239807129
2_20251106_213813,1762436260875,2,0.186786949634552,0.27467063069343567,0.5338358879089355,0.7776155471801758,0.7769498825073242,3.230851173400879,1.7007088661193848,2.4197158813476562,8.98225212097168,2.6392087936401367,0.1171371340751648,0.029023710638284683,-0.03159697353839874,10.691411972045898,-30.965782165527344,9.93731689453125,-0.10095977783203125,-0.5931320190429688,-0.19562840461730957,2.5206756591796875,9.575384140014648,2.8348371982574463
2_20251106_213813,1762436260893,2,0.18686656653881073,0.27478843927383423,0.5346946716308594,0.7769644856452942,0.7807884216308594,3.228055715560913,1.7051442861557007,2.3957748413085938,8.801497459411621,2.412966728210449,0.12507836520671844,-0.017402008175849915,-0.01937968097627163,10.593317031860352,-30.98455810546875,9.919612884521484,-0.09992074966430664,-0.6191091537475586,-0.337496280670166,2.4956955909729004,9.42060661315918,2.7504630088806152
2_20251106_213813,1762436260912,2,0.18677112460136414,0.2751077711582184,0.535612940788269,0.7762416005134583,0.784142792224884,3.223755359649658,1.7086055278778076,2.45562744140625,8.772768020629883,2.5530214309692383,0.065824493765831,-0.08337539434432983,0.0013897181488573551,10.50924015045166,-30.953659057617188,10.038618087768555,-0.03205442428588867,-0.5182704925537109,-0.15795326232910156,2.4876818656921387,9.291038513183594,2.71097469329834
2_20251106_213813,1762436260931,2,0.18741247057914734,0.2762129604816437,0.5357997417449951,0.7755653262138367,0.7873597145080566,3.2183926105499268,1.712721586227417,2.498721122741699,8.825437545776367,3.012688398361206,0.065824493765831,-0.08337539434432983,0.0013897181488573551,10.425558090209961,-30.922218322753906,10.103557586669922,0.008831262588500977,-0.3724803924560547,0.24137091636657715,2.4898898601531982,9.197917938232422,2.771317481994629
2_20251106_213813,1762436260951,2,0.18856842815876007,0.2770689129829407,0.5352412462234497,0.77536541223526,0.7902101278305054,3.212407350540161,1.718765377998352,2.4149279594421387,8.873320579528809,3.548966407775879,-0.1498107612133026,-0.033284492790699005,-0.07863355427980423,10.392326354980469,-30.862083435058594,10.130437850952148,-0.059969425201416016,-0.2596778869628906,0.6221189498901367,2.4748973846435547,9.1329984664917,2.926847457885742
2_20251106_213813,1762436260969,2,0.19003471732139587,0.2769148349761963,0.5340567827224731,0.7758790850639343,0.7923429608345032,3.2062454223632812,1.7270808219909668,2.265296459197998,8.95950698852539,3.864987373352051,-0.2628207206726074,0.07728202641010284,-0.10856593400239944,10.35707950592041,-30.83948516845703,10.143011093139648,-0.1676807403564453,-0.1387929916381836,0.750511884689331,2.4329771995544434,9.098299980163574,3.1144754886627197
2_20251106_213813,1762436260988,2,0.19151420891284943,0.27554604411125183,0.5322284698486328,0.7772576808929443,0.7934296131134033,3.200230836868286,1.737351655960083,2.090527296066284,9.03971004486084,3.9787070751190186,-0.3135225176811218,0.14814232289791107,-0.08474221080541611,10.434425354003906,-30.759376525878906,10.147537231445312,-0.2739598751068115,-0.04687213897705078,0.6913852691650391,2.3644871711730957,9.08658218383789,3.2873218059539795
2_20251106_213813,1762436261008,2,0.1923743486404419,0.27346259355545044,0.5301467180252075,0.779201328754425,0.7930975556373596,3.194506883621216,1.7495023012161255,1.8978023529052734,9.182159423828125,3.905687093734741,-0.2793141007423401,0.1676899939775467,-0.007162386551499367,10.43613052368164,-30.733856201171875,10.10751724243164,-0.37334775924682617,0.0764617919921875,0.4946920871734619,2.2711501121520996,9.105697631835938,3.4109950065612793
2_20251106_213813,1762436261026,2,0.19259203970432281,0.2717162072658539,0.5281235575675964,0.7811300158500671,0.7915435433387756,3.1898305416107178,1.7601364850997925,1.7553534507751465,9.19412899017334,3.5106611251831055,-0.16996929049491882,0.1774638444185257,0.10157153755426407,10.459686279296875,-30.756568908691406,10.026872634887695,-0.41263747215270996,0.07074451446533203,0.07973289489746094,2.1679909229278564,9.123384475708008,3.4309282302856445
