session_id,timestamp,label,quaternion_w,quaternion_x,quaternion_y,quaternion_z,position_x,position_y,position_z,accelerometer_x,accelerometer_y,accelerometer_z,gyroscope_x,gyroscope_y,gyroscope_z,magnetometer_x,magnetometer_y,magnetometer_z,linear_acceleration_x,linear_acceleration_y,linear_acceleration_z,gravity_x,gravity_y,gravity_z
7_20251106_183029,1762424992392,7,0.007584449369460344,0.17544710636138916,0.8498779535293579,0.4968583583831787,0.9943379163742065,1.6317722797393799,-2.3772614002227783,0.8862956166267395,8.170652389526367,-5.243361473083496,-0.02024252898991108,-0.13902899622917175,-0.1527123749256134,4.685116767883301,-5.00787353515625,42.66669464111328,-0.5782701373100281,-0.1631479263305664,-0.217529296875,1.4645657539367676,8.333800315856934,-5.025832176208496
7_20251106_183029,1762424992411,7,0.009969147853553295,0.17425401508808136,0.8500773310661316,0.49689507484436035,0.9848918914794922,1.6309432983398438,-2.385763645172119,0.8360195159912109,8.110799789428711,-5.050636291503906,-0.13325250148773193,-0.1940068155527115,-0.043367575854063034,4.993291854858398,-4.92523193359375,42.680274963378906,-0.502837061882019,-0.17840003967285156,-0.019843578338623047,1.33885657787323,8.289199829101562,-5.030792713165283
7_20251106_183029,1762424992431,7,0.012388186529278755,0.1736993044614792,0.8500555157661438,0.49707216024398804,0.9744994640350342,1.6296775341033936,-2.3939950466156006,1.0275474786758423,8.145513534545898,-4.941704750061035,-0.13325250148773193,-0.1940068155527115,-0.043367575854063034,5.249804496765137,-4.896125793457031,42.70435333251953,-0.2490473985671997,-0.11494922637939453,0.07127046585083008,1.276594877243042,8.260462760925293,-5.012975215911865
7_20251106_183029,1762424992451,7,0.014955355785787106,0.17420165240764618,0.8498725295066833,0.4971386194229126,0.9744994640350342,1.6296775341033936,-2.3939950466156006,1.0275474786758423,8.145513534545898,-4.941704750061035,-0.06666824966669083,-0.3729901909828186,0.11179206520318985,5.491819381713867,-4.905754089355469,42.754188537597656,-0.2490473985671997,-0.11494922637939453,0.07127046585083008,1.276594877243042,8.260462760925293,-5.012975215911865
7_20251106_183029,1762424992470,7,0.017447814345359802,0.17649707198143005,0.8494033217430115,0.4970496594905853,0.9639763832092285,1.6285712718963623,-2.4012367725372314,1.229848861694336,8.30711555480957,-4.723841667175293,-0.0025274520739912987,-0.42735713720321655,0.11057033389806747,5.772704124450684,-4.87506103515625,42.77925109863281,-0.037396788597106934,0.037322044372558594,0.2313070297241211,1.2672456502914429,8.269793510437012,-4.955148696899414
7_20251106_183029,1762424992489,7,0.02027701959013939,0.17913001775741577,0.8491650223731995,0.49640709161758423,0.9546583890914917,1.6282951831817627,-2.4069111347198486,1.3339920043945312,8.508220672607422,-4.666383743286133,0.01640935242176056,-0.40597689151763916,0.054981641471385956,5.975439071655273,-4.937171936035156,42.81303405761719,0.05339705944061279,0.19074153900146484,0.23101186752319336,1.2805949449539185,8.317479133605957,-4.897395610809326
7_20251106_183029,1762424992509,7,0.023162929341197014,0.18125008046627045,0.8490731716156006,0.49566784501075745,0.9468348026275635,1.6286143064498901,-2.411285161972046,1.338780164718628,8.54293441772461,-4.703492164611816,0.01640935242176056,-0.40597689151763916,0.054981641471385956,6.302854537963867,-4.941108703613281,42.852783203125,0.04654824733734131,0.18036365509033203,0.1551227569580078,1.2922319173812866,8.362570762634277,-4.858614921569824
7_20251106_183029,1762424992527,7,0.025792833417654037,0.18243637681007385,0.8488566279411316,0.4954736828804016,0.9385615587234497,1.6292446851730347,-2.415881872177124,1.2873071432113647,8.45914077758789,-4.851925849914551,-0.10881791263818741,-0.2691431939601898,-0.0604717880487442,6.5520219802856445,-5.0379791259765625,42.914772033691406,-0.00393986701965332,0.0772562026977539,0.005351543426513672,1.291247010231018,8.381884574890137,-4.8572773933410645
7_20251106_183029,1762424992546,7,0.028344836086034775,0.1829836666584015,0.8484030365943909,0.4959091246128082,0.9250500798225403,1.6307400465011597,-2.4234750270843506,1.2549868822097778,8.44597339630127,-4.807635307312012,-0.13875029981136322,-0.28319305181503296,-0.07635427266359329,6.816195487976074,-5.083831787109375,42.978302001953125,-0.028569340705871582,0.038718223571777344,0.04900836944580078,1.2835562229156494,8.407255172729492,-4.8566436767578125
7_20251106_183029,1762424992565,7,0.031136346980929375,0.18348196148872375,0.8478285670280457,0.4965396225452423,0.9177827835083008,1.6318089962005615,-2.426830768585205,1.2573809623718262,8.478293418884277,-4.666383743286133,-0.09721148014068604,-0.3204558193683624,-0.046421900391578674,7.04017448425293,-5.206596374511719,42.95768737792969,-0.020940184593200684,0.056830406188964844,0.1522078514099121,1.2783211469650269,8.421463012695312,-4.818591594696045
7_20251106_183029,1762424992583,7,0.03398561477661133,0.18436141312122345,0.847380518913269,0.4967917799949646,0.9177827835083008,1.6318089962005615,-2.426830768585205,1.2573809623718262,8.478293418884277,-4.666383743286133,-0.02329685166478157,-0.3418360948562622,-0.0061048297211527824,7.4265899658203125,-5.255577087402344,42.87718200683594,-0.020940184593200684,0.056830406188964844,0.1522078514099121,1.2783211469650269,8.421463012695312,-4.818591594696045
7_20251106_183029,1762424992603,7,0.03667069599032402,0.1856728196144104,0.8471829295158386,0.49644938111305237,0.9043942093849182,1.6341675519943237,-2.4315168857574463,1.1783756017684937,8.430412292480469,-4.680747985839844,0.029848378151655197,-0.32839706540107727,0.03299051150679588,7.788324356079102,-5.318168640136719,42.741363525390625,-0.06951940059661865,-0.0069141387939453125,0.08266544342041016,1.2478950023651123,8.437326431274414,-4.763413429260254
7_20251106_183029,1762424992624,7,0.03900911286473274,0.18726447224617004,0.8469126224517822,0.49613434076309204,0.9043942093849182,1.6341675519943237,-2.4315168857574463,1.1783756017684937,8.430412292480469,-4.680747985839844,0.05794815719127655,-0.34122520685195923,0.07636190950870514,8.065065383911133,-5.374298095703125,42.65644836425781,-0.06951940059661865,-0.0069141387939453125,0.08266544342041016,1.2478950023651123,8.437326431274414,-4.763413429260254
7_20251106_183029,1762424992641,7,0.041229624301195145,0.1893414556980133,0.8467249870300293,0.49548637866973877,0.8968569040298462,1.6353646516799927,-2.4339401721954346,1.1831638813018799,8.423229217529297,-4.783694267272949,0.06650026142597198,-0.34000349044799805,0.11057033389806747,8.065065383911133,-5.374298095703125,42.65644836425781,-0.05178487300872803,-0.011278152465820312,-0.01622486114501953,1.234948754310608,8.434507369995117,-4.76746940612793
7_20251106_183029,1762424992661,7,0.04319962486624718,0.19167475402355194,0.8465796709060669,0.49466902017593384,0.8850187659263611,1.6370230913162231,-2.4386000633239746,1.1867549419403076,8.365771293640137,-4.984798431396484,0.04145480692386627,-0.3180123567581177,0.12400935590267181,8.351482391357422,-5.467842102050781,42.62528991699219,-0.0275881290435791,-0.05548286437988281,-0.15709447860717773,1.2143430709838867,8.42125415802002,-4.827703952789307
7_20251106_183029,1762424992680,7,0.044974856078624725,0.19399312138557434,0.846345841884613,0.4940067231655121,0.8850187659263611,1.6370230913162231,-2.4386000633239746,1.1867549419403076,8.365771293640137,-4.984798431396484,0.04145480692386627,-0.3180123567581177,0.12400935590267181,8.580283164978027,-5.514457702636719,42.52516174316406,-0.0275881290435791,-0.05548286437988281,-0.15709447860717773,1.2143430709838867,8.42125415802002,-4.827703952789307
7_20251106_183029,1762424992700,7,0.04658345878124237,0.19644929468631744,0.84600430727005,0.4934717118740082,0.8740009665489197,1.6373016834259033,-2.444279432296753,1.3902534246444702,8.229307174682617,-4.853123664855957,0.005413789302110672,-0.30518418550491333,0.17043505609035492,8.874144554138184,-5.481895446777344,42.44258117675781,0.1355658769607544,-0.1339550018310547,-0.0034360885620117188,1.2546875476837158,8.363262176513672,-4.849687576293945
7_20251106_183029,1762424992719,7,0.04804515838623047,0.19934724271297455,0.8455257415771484,0.4929893910884857,0.8700010776519775,1.6369616985321045,-2.446939706802368,1.5219287872314453,8.277189254760742,-4.884246349334717,0.043287403881549835,-0.32961881160736084,0.20525436103343964,9.163678169250488,-5.524810791015625,42.37193298339844,0.21379292011260986,-0.06885814666748047,-0.027647018432617188,1.3081358671188354,8.346047401428223,-4.8565993309021
7_20251106_183029,1762424992736,7,0.04931984841823578,0.2028561383485794,0.8450392484664917,0.4922657608985901,0.8674861788749695,1.6365635395050049,-2.449887275695801,1.7110626697540283,8.296342849731445,-5.169144630432129,0.0707763135433197,-0.36138373613357544,0.21991510689258575,9.51665210723877,-5.525543212890625,42.250465393066406,0.3223414421081543,-0.039763450622558594,-0.25003623962402344,1.388721227645874,8.336106300354004,-4.9191083908081055
7_20251106_183029,1762424992755,7,0.05070970207452774,0.20697364211082458,0.8445217609405518,0.49129775166511536,0.8674861788749695,1.6365635395050049,-2.449887275695801,1.7110626697540283,8.296342849731445,-5.169144630432129,0.0707763135433197,-0.36138373613357544,0.21991510689258575,9.75865364074707,-5.546791076660156,42.205413818359375,0.3223414421081543,-0.039763450622558594,-0.25003623962402344,1.388721227645874,8.336106300354004,-4.9191083908081055
7_20251106_183029,1762424992775,7,0.05224040523171425,0.2113495022058487,0.8439902067184448,0.49018654227256775,0.8652750849723816,1.6363106966018677,-2.45837664604187,1.8008413314819336,8.376544952392578,-5.106897830963135,-0.03307068720459938,-0.330840528011322,0.16249382495880127,9.965803146362305,-5.544898986816406,42.118873596191406,0.2683534622192383,0.018219947814941406,-0.09317970275878906,1.5324878692626953,8.358325004577637,-5.013718128204346
7_20251106_183029,1762424992794,7,0.053586460649967194,0.21511781215667725,0.8431935906410217,0.48977282643318176,0.865751326084137,1.6362966299057007,-2.462960720062256,1.88942289352417,8.383727073669434,-5.111685752868652,-0.09843321144580841,-0.23676735162734985,0.12767453491687775,10.256437301635742,-5.574714660644531,41.99443054199219,0.28554797172546387,0.02032184600830078,-0.07837438583374023,1.603874921798706,8.363405227661133,-5.033311367034912
7_20251106_183029,1762424992813,7,0.05445702746510506,0.2181096076965332,0.8421066999435425,0.49022337794303894,0.8671057820320129,1.636457920074463,-2.4674344062805176,1.9408961534500122,8.426820755004883,-5.15597677230835,-0.09843321144580841,-0.23676735162734985,0.12767453491687775,10.514531135559082,-5.54345703125,41.80224609375,0.269616961479187,0.05073261260986328,-0.09813261032104492,1.6712791919708252,8.37608814239502,-5.057844161987305
7_20251106_183029,1762424992833,7,0.055498383939266205,0.2210296243429184,0.8409509062767029,0.4907824993133545,0.8671057820320129,1.636457920074463,-2.4674344062805176,1.9408961534500122,8.426820755004883,-5.15597677230835,-0.11065050959587097,-0.2850256562232971,0.07025326043367386,10.852907180786133,-5.583061218261719,41.72004699707031,0.269616961479187,0.05073261260986328,-0.09813261032104492,1.6712791919708252,8.37608814239502,-5.057844161987305
7_20251106_183029,1762424992851,7,0.05693965405225754,0.22397702932357788,0.8398590683937073,0.4911505877971649,0.8707836270332336,1.6368356943130493,-2.474414825439453,1.691909909248352,8.264022827148438,-4.784891605377197,-0.11065050959587097,-0.2850256562232971,0.07025326043367386,11.104459762573242,-5.6650848388671875,41.552520751953125,-0.014184951782226562,-0.09776973724365234,0.19614124298095703,1.7060948610305786,8.36179256439209,-4.981032848358154
7_20251106_183029,1762424992870,7,0.05853816866874695,0.2265641987323761,0.8388741612434387,0.4914591312408447,0.8720130324363708,1.6359130144119263,-2.4771997928619385,1.5446727275848389,8.01982307434082,-4.9393110275268555,-0.050785765051841736,-0.26669973134994507,0.04642953723669052,11.378071784973145,-5.7834625244140625,41.41222381591797,-0.12913775444030762,-0.2735757827758789,0.033377647399902344,1.6738104820251465,8.2933988571167,-4.972688674926758
7_20251106_183029,1762424992889,7,0.060058142989873886,0.228822261095047,0.8380492329597473,0.49163690209388733,0.8729120492935181,1.6337833404541016,-2.480433702468872,1.5757960081100464,7.836674690246582,-5.187100410461426,-0.050785765051841736,-0.26669973134994507,0.04642953723669052,11.665589332580566,-5.863914489746094,41.3272705078125,-0.07841157913208008,-0.36537933349609375,-0.17152929306030273,1.6542075872421265,8.202054023742676,-5.015571117401123
7_20251106_183029,1762424992910,7,0.06211346760392189,0.23168973624706268,0.8372356295585632,0.4914247989654541,0.8735330700874329,1.631225347518921,-2.4843881130218506,1.557840347290039,8.106011390686035,-5.18231201171875,-0.07155515998601913,-0.3363382816314697,0.08491401374340057,12.000329971313477,-5.978050231933594,41.162384033203125,-0.07709372043609619,-0.07683372497558594,-0.1333928108215332,1.6349340677261353,8.182845115661621,-5.048919200897217
7_20251106_183029,1762424992929,7,0.06531316787004471,0.2359376698732376,0.8362767100334167,0.490620881319046,0.8738848567008972,1.6293445825576782,-2.487483024597168,1.5686137676239014,8.298736572265625,-4.938114166259766,-0.1192026138305664,-0.5764081478118896,0.1295071393251419,12.34334945678711,-6.143104553222656,41.14561462402344,-0.05305624008178711,0.0927133560180664,0.08864402770996094,1.6216700077056885,8.206023216247559,-5.026758193969727
7_20251106_183029,1762424992947,7,0.06919984519481659,0.24048787355422974,0.8350215554237366,0.49001631140708923,0.8742889761924744,1.6281278133392334,-2.490238904953003,1.6571953296661377,8.399288177490234,-5.014725208282471,-0.1039309948682785,-0.5648016929626465,0.13439404964447021,12.627540588378906,-6.28607177734375,41.032310485839844,0.028420329093933105,0.15461158752441406,0.009626388549804688,1.6287750005722046,8.24467658996582,-5.024351596832275
7_20251106_183029,1762424992967,7,0.07289287447929382,0.2447787970304489,0.8336046934127808,0.48976853489875793,0.8751893043518066,1.6280970573425293,-2.4934685230255127,1.8092206716537476,8.678201675415039,-5.194282531738281,-0.1039309948682785,-0.5648016929626465,0.13439404964447021,12.995821952819824,-6.448326110839844,40.894874572753906,0.1443566083908081,0.3468198776245117,-0.13594484329223633,1.6648640632629395,8.331381797790527,-5.058337688446045
7_20251106_183029,1762424992984,7,0.07627547532320023,0.2493242621421814,0.8321595191955566,0.48941799998283386,0.8769534230232239,1.6294569969177246,-2.4966952800750732,2.0522217750549316,8.894866943359375,-5.188297271728516,-0.13141991198062897,-0.5495300889015198,0.19425879418849945,13.353524208068848,-6.585990905761719,40.730445861816406,0.30988621711730957,0.4507884979248047,-0.10396766662597656,1.742335557937622,8.44407844543457,-5.084329605102539
7_20251106_183029,1762424993004,7,0.07942572236061096,0.2543279528617859,0.8303459882736206,0.4894225299358368,0.8808929324150085,1.633536458015442,-2.499500274658203,2.425701141357422,9.313834190368652,-4.886640548706055,-0.20472367107868195,-0.5397562980651855,0.2626756429672241,13.757757186889648,-6.758277893066406,40.58070373535156,0.5466924905776978,0.6958045959472656,0.15815162658691406,1.8790086507797241,8.618029594421387,-5.044792175292969
7_20251106_183029,1762424993023,7,0.0821840763092041,0.2600499391555786,0.8278146386146545,0.49024760723114014,0.8871141672134399,1.6396986246109009,-2.5005502700805664,2.850653648376465,9.52212142944336,-4.504781723022461,-0.18212167918682098,-0.5727429389953613,0.3207078278064728,14.175796508789062,-6.8927764892578125,40.49982452392578,0.7773160934448242,0.7232732772827148,0.4320082664489746,2.0733375549316406,8.798848152160645,-4.9367899894714355
7_20251106_183029,1762424993043,7,0.08460858464241028,0.2665388882160187,0.8247142434120178,0.49157387018203735,0.8871141672134399,1.6396986246109009,-2.5005502700805664,2.850653648376465,9.52212142944336,-4.504781723022461,-0.056894414126873016,-0.6393272280693054,0.33842286467552185,14.603090286254883,-7.0884552001953125,40.337013244628906,0.7773160934448242,0.7232732772827148,0.4320082664489746,2.0733375549316406,8.798848152160645,-4.9367899894714355
7_20251106_183029,1762424993062,7,0.0879499539732933,0.2723384201526642,0.8228495717048645,0.4909329116344452,0.9070014953613281,1.65773344039917,-2.49861478805542,3.2624387741088867,9.640628814697266,-4.46288537979126,0.04450913146138191,-0.6943050622940063,0.32254040241241455,15.028270721435547,-7.321807861328125,40.17341613769531,0.7845828533172607,0.5352916717529297,0.29621219635009766,2.477855920791626,9.105337142944336,-4.759097576141357
7_20251106_183029,1762424993082,7,0.09153405576944351,0.27844691276550293,0.8213537335395813,0.4893535077571869,0.920246422290802,1.6690480709075928,-2.4969515800476074,3.208571434020996,9.63943099975586,-4.690324306488037,0.11048251390457153,-0.7327895164489746,0.2724494934082031,15.028270721435547,-7.321807861328125,40.17341613769531,0.5845723152160645,0.4272747039794922,0.05501890182495117,2.6239991188049316,9.212156295776367,-4.745343208312988
7_20251106_183029,1762424993100,7,0.09547484666109085,0.28446540236473083,0.8201922178268433,0.4870817959308624,0.920246422290802,1.6690480709075928,-2.4969515800476074,3.208571434020996,9.63943099975586,-4.690324306488037,0.14530180394649506,-0.7834912538528442,0.2076978087425232,15.530586242675781,-7.486930847167969,39.946495056152344,0.5845723152160645,0.4272747039794922,0.05501890182495117,2.6239991188049316,9.212156295776367,-4.745343208312988
7_20251106_183029,1762424993119,7,0.1000242605805397,0.2902534008026123,0.8192845582962036,0.4842735826969147,0.9345709681510925,1.6815097332000732,-2.4958503246307373,2.955994129180908,9.562820434570312,-4.911778450012207,0.13369537889957428,-0.865958034992218,0.17226766049861908,16.08003807067871,-7.674263000488281,39.748046875,0.2655959129333496,0.2805309295654297,-0.133148193359375,2.6903982162475586,9.282289505004883,-4.778630256652832
7_20251106_183029,1762424993140,7,0.10542768239974976,0.2960808575153351,0.8183255791664124,0.481211394071579,0.9462849497795105,1.6922800540924072,-2.4954731464385986,2.710598945617676,9.535287857055664,-4.98958683013916,0.10620646923780441,-0.9038316011428833,0.1514982432126999,16.77662467956543,-7.839241027832031,39.528709411621094,0.01616048812866211,0.20239830017089844,-0.16876506805419922,2.6944384574890137,9.332889556884766,-4.820821762084961
7_20251106_183029,1762424993158,7,0.1114014983177185,0.3019777536392212,0.8171666860580444,0.4781608283519745,0.9671120047569275,1.7133638858795166,-2.4930496215820312,2.3526811599731445,9.239617347717285,-4.46408224105835,0.10620646923780441,-0.9038316011428833,0.1514982432126999,17.41559410095215,-7.957283020019531,39.24040222167969,-0.23289752006530762,-0.07961368560791016,0.25914955139160156,2.585578680038452,9.319231033325195,-4.723231792449951
7_20251106_183029,1762424993176,7,0.11723976582288742,0.30737558007240295,0.8161582350730896,0.47503772377967834,0.9750257730484009,1.7218003273010254,-2.4909324645996094,2.248538017272949,9.051679611206055,-4.458097457885742,0.18806232511997223,-0.9502573609352112,0.12400935590267181,18.100587844848633,-8.122245788574219,38.939476013183594,-0.26963257789611816,-0.21404075622558594,0.21210765838623047,2.5181705951690674,9.26572036743164,-4.670205116271973
7_20251106_183029,1762424993195,7,0.1233869269490242,0.31308072805404663,0.8153074979782104,0.4712003767490387,0.9819623231887817,1.7293347120285034,-2.4884212017059326,2.153970718383789,8.928384780883789,-4.528723239898682,0.27847033739089966,-1.0272263288497925,0.17410025000572205,18.849515914916992,-8.244354248046875,38.52015686035156,-0.29135990142822266,-0.2698678970336914,0.11318540573120117,2.4453306198120117,9.19825267791748,-4.641908645629883
7_20251106_183029,1762424993215,7,0.12966346740722656,0.3196631669998169,0.8145242929458618,0.4664258062839508,0.9883624911308289,1.7358595132827759,-2.4862353801727295,2.268887758255005,8.866138458251953,-4.748980522155762,0.34444373846054077,-1.1005300283432007,0.2632865309715271,19.625734329223633,-8.314506530761719,38.08934783935547,-0.14115428924560547,-0.26569080352783203,-0.08565759658813477,2.4100420475006104,9.131829261779785,-4.663322925567627
7_20251106_183029,1762424993233,7,0.13589592278003693,0.327308714389801,0.81358402967453,0.46095800399780273,0.9940853714942932,1.7404332160949707,-2.4847631454467773,2.5118889808654785,8.723689079284668,-4.824394226074219,0.3957563638687134,-1.212929129600525,0.3304816484451294,20.43780517578125,-8.39483642578125,37.659751892089844,0.08147764205932617,-0.32651233673095703,-0.12885713577270508,2.4304113388061523,9.050201416015625,-4.695537090301514
7_20251106_183029,1762424993253,7,0.14251472055912018,0.3360830843448639,0.8123751282691956,0.4547354578971863,1.000781536102295,1.743984580039978,-2.4837682247161865,2.645958423614502,8.630319595336914,-4.879458427429199,0.4208018183708191,-1.3241065740585327,0.34269893169403076,21.24090576171875,-8.425193786621094,37.176658630371094,0.1724376678466797,-0.3359060287475586,-0.14713716506958008,2.4735207557678223,8.966225624084473,-4.732321262359619
7_20251106_183029,1762424993272,7,0.1498049795627594,0.3455226421356201,0.8109002113342285,0.4478989243507385,1.0072091817855835,1.7461334466934204,-2.4835007190704346,2.613637924194336,8.581239700317383,-4.962055206298828,0.41163885593414307,-1.3790844678878784,0.30116012692451477,22.092947006225586,-8.452102661132812,36.668487548828125,0.11209368705749512,-0.30798912048339844,-0.18378734588623047,2.501544237136841,8.889228820800781,-4.778267860412598
7_20251106_183029,1762424993291,7,0.15763159096240997,0.35479122400283813,0.8092885613441467,0.4408259093761444,1.0134719610214233,1.7479374408721924,-2.4847655296325684,2.5585737228393555,8.802694320678711,-5.331943035125732,0.3798738718032837,-1.380916953086853,0.2223585695028305,22.982746124267578,-8.463394165039062,36.09447479248047,0.0456235408782959,-0.06922721862792969,-0.44294023513793945,2.5129501819610596,8.87192153930664,-4.889002799987793
7_20251106_183029,1762424993310,7,0.16587550938129425,0.36337751150131226,0.8076358437538147,0.43378159403800964,1.0134719610214233,1.7479374408721924,-2.4847655296325684,2.5585737228393555,8.802694320678711,-5.331943035125732,0.29862886667251587,-1.41023850440979,0.06964239478111267,24.91535758972168,-7.9085235595703125,35.75934600830078,0.0456235408782959,-0.06922721862792969,-0.44294023513793945,2.5129501819610596,8.87192153930664,-4.889002799987793
7_20251106_183029,1762424993329,7,0.1752820909023285,0.370875746011734,0.8059150576591492,0.4268820285797119,1.0220446586608887,1.7499438524246216,-2.4895153045654297,1.7685210704803467,8.59440803527832,-4.970434188842773,0.2051665484905243,-1.3845821619033813,-0.056195735931396484,25.9282169342041,-7.898643493652344,35.122920989990234,-0.5540034770965576,-0.200592041015625,-0.00040340423583984375,2.3225245475769043,8.795000076293945,-4.970030784606934
7_20251106_183029,1762424993349,7,0.1853487491607666,0.377093642950058,0.8041403889656067,0.42048120498657227,1.0219999551773071,1.7498445510864258,-2.491151809692383,1.2537897825241089,8.55610179901123,-4.748979568481445,0.16240601241588593,-1.3479303121566772,-0.09590194374322891,26.967859268188477,-7.849098205566406,34.44771957397461,-0.8549877405166626,-0.19111919403076172,0.17684078216552734,2.1087775230407715,8.747220993041992,-4.925820350646973
7_20251106_183029,1762424993368,7,0.19547076523303986,0.3826301693916321,0.8022766709327698,0.414412260055542,1.018983244895935,1.7495622634887695,-2.491703510284424,1.023956298828125,8.677003860473633,-4.58857536315918,0.15935169160366058,-1.3729757070541382,-0.04581103473901749,28.073047637939453,-7.9442596435546875,33.6506462097168,-0.8678569793701172,-0.05617332458496094,0.26979589462280273,1.8918132781982422,8.733177185058594,-4.858371257781982
7_20251106_183029,1762424993386,7,0.20561128854751587,0.3884539008140564,0.800068736076355,0.40831059217453003,1.018983244895935,1.7495622634887695,-2.491703510284424,1.023956298828125,8.677003860473633,-4.58857536315918,0.22104902565479279,-1.565398097038269,0.04093175381422043,29.14710807800293,-7.9532318115234375,32.7863655090332,-0.8678569793701172,-0.05617332458496094,0.26979589462280273,1.8918132781982422,8.733177185058594,-4.858371257781982
7_20251106_183029,1762424993405,7,0.21673347055912018,0.39588773250579834,0.7971327304840088,0.40109720826148987,1.0128260850906372,1.749149203300476,-2.491252899169922,0.8587634563446045,8.690171241760254,-4.528722763061523,0.31390050053596497,-1.7963049411773682,0.1356157809495926,30.263566970825195,-8.072044372558594,31.921672821044922,-0.8264398574829102,-0.034404754638671875,0.2637186050415039,1.6852033138275146,8.724575996398926,-4.792441368103027
7_20251106_183029,1762424993424,7,0.2288217693567276,0.40496283769607544,0.7935104370117188,0.39241158962249756,0.9941427111625671,1.7486572265625,-2.487049102783203,0.22193321585655212,8.820650100708008,-4.174396514892578,0.3371133804321289,-1.8525046110153198,0.1814306229352951,31.408105850219727,-8.137825012207031,30.93737030029297,-0.9918444156646729,0.07834148406982422,0.4227457046508789,1.2137776613235474,8.742308616638184,-4.597142219543457
7_20251106_183029,1762424993443,7,0.24100831151008606,0.4144291579723358,0.7894384860992432,0.38334107398986816,0.9941427111625671,1.7486572265625,-2.487049102783203,0.22193321585655212,8.820650100708008,-4.174396514892578,0.25953352451324463,-1.7101730108261108,0.1411135494709015,32.586360931396484,-8.274673461914062,29.763729095458984,-0.9918444156646729,0.07834148406982422,0.4227457046508789,1.2137776613235474,8.742308616638184,-4.597142219543457
7_20251106_183029,1762424993463,7,0.25253891944885254,0.42269694805145264,0.7853361368179321,0.3752312958240509,0.9638249278068542,1.7513759136199951,-2.4744648933410645,0.05674039572477341,9.203705787658691,-3.513624668121338,0.25953352451324463,-1.7101730108261108,0.1411135494709015,33.74104690551758,-8.400421142578125,28.575855255126953,-0.7533361911773682,0.31712913513183594,0.7392263412475586,0.8100765943527222,8.886576652526855,-4.2528510093688965
7_20251106_183029,1762424993482,7,0.26332715153694153,0.4292260408401489,0.7817977070808411,0.3677175045013428,0.9457509517669678,1.7538875341415405,-2.466221570968628,-0.33708885312080383,9.159415245056152,-3.7709903717041016,0.2607552707195282,-1.4175688028335571,-0.1685948520898819,34.89693069458008,-8.512939453125,27.320663452148438,-0.9177323579788208,0.21827030181884766,0.38548851013183594,0.5806435346603394,8.941144943237305,-4.1564788818359375
7_20251106_183029,1762424993501,7,0.2737849950790405,0.43414390087127686,0.7791100740432739,0.35992830991744995,0.9239050149917603,1.7559430599212646,-2.4579403400421143,-1.123550295829773,8.820650100708008,-3.9924445152282715,0.30046147108078003,-1.5696741342544556,-0.257781058549881,34.89693069458008,-8.512939453125,27.320663452148438,-1.363355040550232,-0.09639549255371094,0.1312274932861328,0.23980477452278137,8.917045593261719,-4.123672008514404
7_20251106_183029,1762424993520,7,0.28548604249954224,0.4389902949333191,0.7763521671295166,0.3508027195930481,0.896885335445404,1.755805253982544,-2.449230432510376,-2.044081211090088,8.15509033203125,-3.8164782524108887,0.4036976099014282,-1.7963050603866577,-0.2040250152349472,36.02622985839844,-8.664848327636719,26.077213287353516,-1.8271088600158691,-0.6095638275146484,0.24575471878051758,-0.21697239577770233,8.764654159545898,-4.062232971191406
7_20251106_183029,1762424993539,7,0.2982059121131897,0.4450600743293762,0.7729678750038147,0.33987554907798767,0.896885335445404,1.755805253982544,-2.449230432510376,-2.044081211090088,8.15509033203125,-3.8164782524108887,0.466616690158844,-1.897708535194397,-0.046421900391578674,37.1375732421875,-8.728424072265625,24.631885528564453,-1.8271088600158691,-0.6095638275146484,0.24575471878051758,-0.21697239577770233,8.764654159545898,-4.062232971191406
7_20251106_183029,1762424993559,7,0.3110101521015167,0.4528346359729767,0.7684724926948547,0.3281211853027344,0.8238370418548584,1.7457606792449951,-2.4322469234466553,-3.2650716304779053,7.262091636657715,-4.031947612762451,0.466616690158844,-1.897708535194397,-0.046421900391578674,38.209228515625,-8.85662841796875,23.129703521728516,-2.035630464553833,-1.027909278869629,0.01516866683959961,-1.2294411659240723,8.290000915527344,-4.047116279602051
7_20251106_183029,1762424993578,7,0.32389330863952637,0.46159663796424866,0.7629156708717346,0.31619828939437866,0.7805330753326416,1.7356759309768677,-2.4238133430480957,-3.7678322792053223,6.899385452270508,-3.7685961723327637,0.3749869763851166,-1.9374147653579712,0.18081976473331451,39.296382904052734,-8.933135986328125,21.561485290527344,-2.0307130813598633,-1.112492561340332,0.22281599044799805,-1.7371193170547485,8.01187801361084,-3.9914121627807617
7_20251106_183029,1762424993596,7,0.3364925980567932,0.47047388553619385,0.7565427422523499,0.305074006319046,0.7356983423233032,1.7236332893371582,-2.4148666858673096,-4.11737060546875,6.807212829589844,-3.4406046867370605,0.29435282945632935,-1.850061058998108,0.19792397320270538,40.316856384277344,-9.125823974609375,19.90734100341797,-1.9042010307312012,-0.9637322425842285,0.4406459331512451,-2.213169574737549,7.770945072174072,-3.8812506198883057
7_20251106_183029,1762424993617,7,0.3483040928840637,0.4777252972126007,0.7505261301994324,0.29525133967399597,0.6814231872558594,1.708155632019043,-2.40351939201355,-4.499229431152344,6.861079692840576,-3.2550621032714844,0.32550692558288574,-1.7914180755615234,0.1350049078464508,41.20046615600586,-9.377479553222656,18.246746063232422,-1.828847885131836,-0.7278923988342285,0.500950813293457,-2.670381546020508,7.588972091674805,-3.7560129165649414
7_20251106_183029,1762424993636,7,0.3600234091281891,0.4851529002189636,0.7442626357078552,0.28475067019462585,0.6223078966140747,1.6912827491760254,-2.3910746574401855,-5.15521240234375,6.875444412231445,-3.2083773612976074,0.3902585804462433,-1.6820732355117798,0.001225546933710575,41.954341888427734,-9.574005126953125,16.47394561767578,-1.9878644943237305,-0.5708222389221191,0.4381084442138672,-3.1673479080200195,7.4462666511535645,-3.6464858055114746
7_20251106_183029,1762424993654,7,0.3710358440876007,0.4915617108345032,0.7387999296188354,0.2736314535140991,0.6223078966140747,1.6912827491760254,-2.3910746574401855,-5.15521240234375,6.875444412231445,-3.2083773612976074,0.41713663935661316,-1.5366874933242798,-0.13133211433887482,42.69542694091797,-9.783744812011719,14.686874389648438,-1.9878644943237305,-0.5708222389221191,0.4381084442138672,-3.1673479080200195,7.4462666511535645,-3.6464858055114746
7_20251106_183029,1762424993673,7,0.38120272755622864,0.4965595006942749,0.7343505024909973,0.262378454208374,0.4986753463745117,1.6540091037750244,-2.3675546646118164,-6.750879287719727,5.963292598724365,-3.431028366088867,0.4061410427093506,-1.3815277814865112,-0.1374407559633255,43.28704071044922,-10.077011108398438,12.757171630859375,-2.411250114440918,-1.0274381637573242,0.11644172668457031,-4.339629173278809,6.9907307624816895,-3.5474700927734375
7_20251106_183029,1762424993693,7,0.3903382420539856,0.5009732842445374,0.7303041219711304,0.25163018703460693,0.4234405755996704,1.630571961402893,-2.3555071353912354,-7.3972859382629395,5.989627838134766,-3.5184130668640137,0.34077852964401245,-1.2062097787857056,-0.0659695714712143,43.81904602050781,-10.337654113769531,10.933938980102539,-2.4461255073547363,-0.8008823394775391,0.023245811462402344,-4.951160430908203,6.790510177612305,-3.541658878326416
7_20251106_183029,1762424993711,7,0.3983786106109619,0.5051840543746948,0.726256787776947,0.24214598536491394,0.35197728872299194,1.6086318492889404,-2.345641613006592,-7.849770545959473,6.018357276916504,-3.718320369720459,0.24365104734897614,-1.0107330083847046,0.010388517752289772,44.26435470581055,-10.617362976074219,9.201623916625977,-2.3188881874084473,-0.6177225112915039,-0.14132928848266602,-5.530882358551025,6.636079788208008,-3.576991081237793
7_20251106_183029,1762424993731,7,0.4053971469402313,0.5091471672058105,0.7221558690071106,0.23433557152748108,0.2689194679260254,1.5835950374603271,-2.335533857345581,-8.038904190063477,6.018357276916504,-3.6776204109191895,0.1892840713262558,-0.930098831653595,0.11912243813276291,44.52847671508789,-10.883598327636719,7.435447692871094,-2.0064172744750977,-0.49417829513549805,-0.08050346374511719,-6.032486915588379,6.512535572052002,-3.5971169471740723
7_20251106_183029,1762424993751,7,0.41183826327323914,0.5134033560752869,0.717642605304718,0.22758585214614868,0.2689194679260254,1.5835950374603271,-2.335533857345581,-8.038904190063477,6.018357276916504,-3.6776204109191895,0.21127519011497498,-0.8604602217674255,0.2516801059246063,44.720611572265625,-11.118278503417969,5.802282333374023,-2.0064172744750977,-0.49417829513549805,-0.08050346374511719,-6.032486915588379,6.512535572052002,-3.5971169471740723
7_20251106_183029,1762424993770,7,0.4173741042613983,0.5184569358825684,0.7127054929733276,0.22147727012634277,0.17972972989082336,1.558135986328125,-2.324092388153076,-7.923987865447998,6.367895126342773,-3.1916184425354004,0.28824418783187866,-0.6790333986282349,0.3237621486186981,44.754661560058594,-11.328041076660156,4.406826019287109,-1.5132007598876953,-0.11571264266967773,0.3243989944458008,-6.410787105560303,6.483607769012451,-3.516017436981201
7_20251106_183029,1762424993788,7,0.421152800321579,0.5238228440284729,0.7081838250160217,0.21613794565200806,0.029639460146427155,1.5194474458694458,-2.303123712539673,-7.455941200256348,6.766512870788574,-3.5184130668640137,0.35177409648895264,-0.42796802520751953,0.2901645600795746,44.82175827026367,-11.586585998535156,3.1063995361328125,-0.6300187110900879,0.18584728240966797,-0.09787178039550781,-6.82592248916626,6.580665588378906,-3.420541286468506
7_20251106_183029,1762424993808,7,0.4229809045791626,0.5286701917648315,0.7048583626747131,0.21158845722675323,-0.04601577669382095,1.5007622241973877,-2.295494556427002,-7.351798057556152,6.542664527893066,-4.312057018280029,0.35177409648895264,-0.42796802520751953,0.2901645600795746,44.77569580078125,-11.880226135253906,2.0848731994628906,-0.4207000732421875,-0.030400753021240234,-0.7132124900817871,-6.931097984313965,6.573065280914307,-3.598844528198242
7_20251106_183029,1762424993825,7,0.42340919375419617,0.5324378609657288,0.7025994658470154,0.20877885818481445,-0.11465506255626678,1.4830777645111084,-2.2914929389953613,-7.154285430908203,6.220658302307129,-4.762147903442383,0.09276744723320007,0.07233019918203354,0.2431279569864273,44.7804069519043,-12.121543884277344,1.1744937896728516,-0.17854976654052734,-0.28192567825317383,-0.9306426048278809,-6.975735664367676,6.502583980560303,-3.831505298614502
7_20251106_183029,1762424993845,7,0.4230112135410309,0.5351288914680481,0.7009814977645874,0.20814311504364014,-0.18647867441177368,1.463302731513977,-2.291167974472046,-6.768835067749023,6.138062000274658,-5.114080429077148,-0.07644208520650864,0.24825924634933472,0.2938297688961029,44.598148345947266,-12.403663635253906,0.6346855163574219,0.16552066802978516,-0.29161787033081055,-1.0260601043701172,-6.934355735778809,6.429679870605469,-4.088020324707031
7_20251106_183029,1762424993863,7,0.42212697863578796,0.5372931957244873,0.6994215846061707,0.20960506796836853,-0.24653702974319458,1.446157455444336,-2.293649435043335,-6.38577938079834,6.333181381225586,-5.208646774291992,-0.19983676075935364,0.36554527282714844,0.3469749987125397,44.51369094848633,-12.667411804199219,0.15312957763671875,0.4388613700866699,-0.07719898223876953,-0.8965010643005371,-6.82464075088501,6.4103803634643555,-4.312145709991455
7_20251106_183029,1762424993883,7,0.42087870836257935,0.5391123294830322,0.697831928730011,0.21271952986717224,-0.30719679594039917,1.427639365196228,-2.2987759113311768,-5.924915313720703,6.272130966186523,-5.136823654174805,-0.24504075944423676,0.4406816363334656,0.3934006989002228,44.484153747558594,-13.004951477050781,-0.08426475524902344,0.7197799682617188,-0.11059951782226562,-0.6597423553466797,-6.644695281982422,6.382730484008789,-4.477081298828125
7_20251106_183029,1762424993903,7,0.4192391037940979,0.5409724712371826,0.6961400508880615,0.2167404145002365,-0.36114344000816345,1.4089031219482422,-2.3049166202545166,-5.434124946594238,6.0063862800598145,-4.895020008087158,-0.20289109647274017,0.4645053446292877,0.4685370624065399,44.396629333496094,-13.272880554199219,-0.14681625366210938,0.9684562683105469,-0.30107545852661133,-0.3343510627746582,-6.402581214904785,6.307461738586426,-4.5606689453125
7_20251106_183029,1762424993923,7,0.4170147478580475,0.543421745300293,0.6942330598831177,0.22097964584827423,-0.36114344000816345,1.4089031219482422,-2.3049166202545166,-5.434124946594238,6.0063862800598145,-4.895020008087158,-0.20289109647274017,0.4645053446292877,0.4685370624065399,44.396629333496094,-13.272880554199219,-0.14681625366210938,0.9684562683105469,-0.30107545852661133,-0.3343510627746582,-6.402581214904785,6.307461738586426,-4.5606689453125
7_20251106_183029,1762424993940,7,0.41418948769569397,0.5468206405639648,0.6920223236083984,0.22480976581573486,-0.44260475039482117,1.3745542764663696,-2.3171956539154053,-4.626116752624512,6.171579360961914,-4.8603057861328125,-0.007414369843900204,0.38692551851272583,0.5583341717720032,44.23088455200195,-13.610511779785156,0.0026302337646484375,1.1882667541503906,-0.05325603485107422,-0.20594072341918945,-5.814383506774902,6.224835395812988,-4.654365062713623
7_20251106_183029,1762424993960,7,0.4111723303794861,0.5507047772407532,0.6897324323654175,0.22788311541080475,-0.4757286310195923,1.3583582639694214,-2.322955846786499,-4.512396812438965,6.282905101776123,-4.514358043670654,-0.04040106385946274,0.41685789823532104,0.423333078622818,44.07835388183594,-13.911163330078125,0.30203819274902344,1.0415892601013184,0.04645586013793945,0.11200571060180664,-5.553986072540283,6.236449241638184,-4.626363754272461
7_20251106_183029,1762424993979,7,0.40838000178337097,0.5534685254096985,0.6881788969039917,0.2308855652809143,-0.4757286310195923,1.3583582639694214,-2.322955846786499,-4.512396812438965,6.282905101776123,-4.514358043670654,-0.1301981806755066,0.6331039667129517,0.238241046667099,43.923397064208984,-14.261505126953125,0.54632568359375,1.0415892601013184,0.04645586013793945,0.11200571060180664,-5.553986072540283,6.236449241638184,-4.626363754272461
7_20251106_183029,1762424993999,7,0.4051017761230469,0.5541228652000427,0.6882070899009705,0.23497092723846436,-0.5067368745803833,1.3408902883529663,-2.3279144763946533,-4.428603172302246,6.098559379577637,-4.301283836364746,-0.22304962575435638,0.8469066619873047,0.11179206520318985,43.76725387573242,-14.61346435546875,0.9528083801269531,0.9003067016601562,-0.11031198501586914,0.26006412506103516,-5.328909873962402,6.208871364593506,-4.561347961425781
7_20251106_183029,1762424994018,7,0.40120062232017517,0.5530306100845337,0.6895200610160828,0.24032741785049438,-0.5326797366142273,1.3229390382766724,-2.331873893737793,-4.280169486999512,5.804084777832031,-4.33719539642334,-0.3146793246269226,0.9067714214324951,0.07086412608623505,43.7367057800293,-14.8828125,1.4333610534667969,0.8389921188354492,-0.32382965087890625,0.1793222427368164,-5.119161605834961,6.1279144287109375,-4.516517639160156
7_20251106_183029,1762424994037,7,0.39701223373413086,0.5499625205993652,0.6920014023780823,0.24709628522396088,-0.5682022571563721,1.2930461168289185,-2.3356523513793945,-4.3639631271362305,6.1787614822387695,-3.9457595348358154,-0.35988330841064453,0.9202104806900024,0.009166788309812546,43.624393463134766,-15.083320617675781,2.0066776275634766,0.46264171600341797,0.09689521789550781,0.41565728187561035,-4.826604843139648,6.081866264343262,-4.361416816711426
7_20251106_183029,1762424994055,7,0.39353030920028687,0.547413170337677,0.6937642693519592,0.2533058226108551,-0.5682022571563721,1.2930461168289185,-2.3356523513793945,-4.3639631271362305,6.1787614822387695,-3.9457595348358154,-0.3213987946510315,0.9990119934082031,-0.09040416032075882,43.47975158691406,-15.210868835449219,2.580106735229492,0.46264171600341797,0.09689521789550781,0.41565728187561035,-4.826604843139648,6.081866264343262,-4.361416816711426
7_20251106_183029,1762424994074,7,0.38962382078170776,0.5439901351928711,0.6964104771614075,0.2593848407268524,-0.598901093006134,1.266770362854004,-2.335280418395996,-4.877496719360352,6.030327320098877,-4.318041801452637,-0.3213987946510315,0.9990119934082031,-0.09040416032075882,43.40652084350586,-15.359169006347656,3.1964988708496094,-0.07355785369873047,-0.08335733413696289,-0.04559516906738281,-4.803938865661621,6.11368465423584,-4.272446632385254
7_20251106_183029,1762424994093,7,0.3843408524990082,0.5399923324584961,0.6998529434204102,0.2662634253501892,-0.598901093006134,1.266770362854004,-2.335280418395996,-4.877496719360352,6.030327320098877,-4.318041801452637,-0.3934808373451233,1.328268051147461,0.041542619466781616,43.45225143432617,-15.313713073730469,3.996976852416992,-0.07355785369873047,-0.08335733413696289,-0.04559516906738281,-4.803938865661621,6.11368465423584,-4.272446632385254
7_20251106_183029,1762424994113,7,0.3782801926136017,0.5362508893013,0.7027359008789062,0.2747751474380493,-0.6281896829605103,1.2375340461730957,-2.340087652206421,-4.805674076080322,5.483275890350342,-5.172735214233398,-0.5883467197418213,1.349037528038025,0.28222331404685974,42.29582595825195,-15.742332458496094,4.580373764038086,0.017850875854492188,-0.40844202041625977,-0.6334514617919922,-4.8235249519348145,5.891717910766602,-4.539283752441406
7_20251106_183029,1762424994131,7,0.3722856044769287,0.5331949591636658,0.7040104269981384,0.28543975949287415,-0.6411324739456177,1.2226117849349976,-2.343423366546631,-4.617737770080566,5.625724792480469,-4.5610432624816895,-0.8241405487060547,1.3362092971801758,0.5174062252044678,42.269962310791016,-15.664787292480469,5.459798812866211,0.16462993621826172,-0.21279478073120117,-0.01740741729736328,-4.782367706298828,5.83851957321167,-4.543635845184326
7_20251106_183029,1762424994151,7,0.36686110496520996,0.530890703201294,0.7032595276832581,0.29831868410110474,-0.6411324739456177,1.2226117849349976,-2.343423366546631,-4.617737770080566,5.625724792480469,-4.5610432624816895,-0.9628068208694458,1.441278100013733,0.7385392189025879,42.20563888549805,-15.615409851074219,6.404806137084961,0.16462993621826172,-0.21279478073120117,-0.01740741729736328,-4.782367706298828,5.83851957321167,-4.543635845184326
7_20251106_183029,1762424994171,7,0.36080360412597656,0.5290329456329346,0.7011948823928833,0.3134814202785492,-0.6578127145767212,1.1917363405227661,-2.343820571899414,-3.141775608062744,5.53953742980957,-3.5543246269226074,-0.964028537273407,1.494423270225525,0.9657809138298035,41.98452377319336,-15.752304077148438,7.434846878051758,1.1938166618347168,-0.1919231414794922,0.6892766952514648,-4.335592269897461,5.7314605712890625,-4.243601322174072
7_20251106_183029,1762424994190,7,0.3536025583744049,0.5282444953918457,0.6979706883430481,0.3297876715660095,-0.6578127145767212,1.1917363405227661,-2.343820571899414,-3.141775608062744,5.53953742980957,-3.5543246269226074,-0.9169919490814209,1.4553278684616089,1.0940625667572021,41.755062103271484,-16.02813720703125,8.543081283569336,1.1938166618347168,-0.1919231414794922,0.6892766952514648,-4.335592269897461,5.7314605712890625,-4.243601322174072
7_20251106_183029,1762424994209,7,0.3457966446876526,0.5283268690109253,0.6939054727554321,0.3461078107357025,-0.6569552421569824,1.1774159669876099,-2.3393115997314453,-2.2691264152526855,6.141653060913086,-3.2215447425842285,-0.8565163612365723,1.4486083984375,1.0861213207244873,41.47092056274414,-16.40801239013672,9.687789916992188,1.6531727313995361,0.3281540870666504,0.8176450729370117,-3.9222991466522217,5.8134989738464355,-4.03918981552124
7_20251106_183029,1762424994229,7,0.3375796675682068,0.5283235907554626,0.6897838711738586,0.3620944619178772,-0.6382014751434326,1.1615729331970215,-2.324838638305664,-1.1032004356384277,6.788059711456299,-3.044381618499756,-0.7716060876846313,1.4925907850265503,1.0500802993774414,41.09724426269531,-16.86878204345703,10.827482223510742,1.9020941257476807,0.6076302528381348,0.6403162479400635,-3.0052945613861084,6.180429458618164,-3.6846978664398193
7_20251106_183029,1762424994246,7,0.32862982153892517,0.5279242396354675,0.6860415935516357,0.37768417596817017,-0.6207220554351807,1.156173586845398,-2.3153111934661865,-0.5094639658927917,6.501964569091797,-2.854050636291504,-0.7587779760360718,1.5151926279067993,1.0329760313034058,40.541786193847656,-17.54145050048828,11.942569732666016,1.99666428565979,0.25722789764404297,0.664517879486084,-2.5061283111572266,6.244736671447754,-3.518568515777588
7_20251106_183029,1762424994265,7,0.3193562924861908,0.5272297859191895,0.682248055934906,0.3931639492511749,-0.5959162712097168,1.1511693000793457,-2.3037500381469727,0.14651909470558167,6.394230365753174,-2.787015914916992,-0.8345252275466919,1.5634509325027466,1.025034785270691,39.89910888671875,-18.25708770751953,13.026399612426758,2.1221179962158203,0.11959505081176758,0.5852420330047607,-1.9755988121032715,6.274635314941406,-3.372257947921753
7_20251106_183029,1762424994285,7,0.30993977189064026,0.5257889628410339,0.678188145160675,0.40932154655456543,-0.5959162712097168,1.1511693000793457,-2.3037500381469727,0.14651909470558167,6.394230365753174,-2.787015914916992,-0.9530329704284668,1.5829986333847046,1.0677952766418457,39.155120849609375,-19.042266845703125,14.14553451538086,2.1221179962158203,0.11959505081176758,0.5852420330047607,-1.9755988121032715,6.274635314941406,-3.372257947921753
7_20251106_183029,1762424994303,7,0.3006574213504791,0.524080753326416,0.6731850504875183,0.4263407289981842,-0.5267694592475891,1.1521650552749634,-2.28135347366333,1.536293387413025,8.070099830627441,-2.9402379989624023,-0.9530329704284668,1.5829986333847046,1.0677952766418457,38.34697723388672,-19.893798828125,15.22035026550293,2.3619532585144043,1.251373291015625,0.34640049934387207,-0.8256598114967346,6.818726539611816,-3.2866384983062744
7_20251106_183029,1762424994324,7,0.29272031784057617,0.5227177739143372,0.6672484278678894,0.4425612688064575,-0.4770245850086212,1.157633662223816,-2.265190839767456,2.207838296890259,7.618812084197998,-2.0616040229797363,-0.8791183233261108,1.2158689498901367,0.9670026302337646,37.465309143066406,-20.762245178222656,16.25140953063965,2.4267985820770264,0.640068531036377,0.9800276756286621,-0.2189602553844452,6.978743553161621,-3.0416316986083984
7_20251106_183029,1762424994343,7,0.28550899028778076,0.5216654539108276,0.6615082621574402,0.45689892768859863,-0.4770245850086212,1.157633662223816,-2.265190839767456,2.207838296890259,7.618812084197998,-2.0616040229797363,-0.7251803874969482,1.2079277038574219,0.8295581340789795,36.58351516723633,-21.65406036376953,17.106229782104492,2.4267985820770264,0.640068531036377,0.9800276756286621,-0.2189602553844452,6.978743553161621,-3.0416316986083984
7_20251106_183029,1762424994361,7,0.27797189354896545,0.5199029445648193,0.6569451093673706,0.46995285153388977,-0.376109778881073,1.1708065271377563,-2.2306063175201416,2.596879005432129,7.807945728302002,-2.6517491340637207,-0.705632746219635,1.4522736072540283,0.8313906788825989,35.67190170288086,-22.43470001220703,17.907888412475586,1.837761402130127,0.5860409736633301,0.0934298038482666,0.7591176629066467,7.221904754638672,-2.7451789379119873
7_20251106_183029,1762424994380,7,0.26881182193756104,0.5170267820358276,0.6528372764587402,0.4839700162410736,-0.318790465593338,1.1819548606872559,-2.2167978286743164,3.161886692047119,8.671018600463867,-3.7374730110168457,-0.8479642271995544,1.5939942598342896,0.8900337219238281,35.67190170288086,-22.43470001220703,17.907888412475586,1.922215223312378,1.1592912673950195,-0.7938351631164551,1.2396714687347412,7.511727333068848,-2.9436378479003906
7_20251106_183029,1762424994399,7,0.2590814232826233,0.5134484767913818,0.6479876637458801,0.49935901165008545,-0.2567676603794098,1.1971156597137451,-2.205453634262085,3.998623847961426,9.17737102508545,-3.590236186981201,-1.1356815099716187,1.531075119972229,0.8448296785354614,34.68667984008789,-23.220779418945312,18.774187088012695,2.2071619033813477,1.3325152397155762,-0.5172786712646484,1.7914619445800781,7.844855785369873,-3.0729575157165527
7_20251106_183029,1762424994419,7,0.25118425488471985,0.5090964436531067,0.6416561603546143,0.515756368637085,-0.1866777241230011,1.2163200378417969,-2.1919264793395996,4.445123672485352,9.174976348876953,-2.3548810482025146,-1.2914519309997559,1.357589602470398,0.6902809143066406,33.67604446411133,-24.056251525878906,19.39515495300293,2.122929334640503,1.064096450805664,0.5744612216949463,2.3221943378448486,8.110879898071289,-2.929342269897461
7_20251106_183029,1762424994438,7,0.24575413763523102,0.5041812062263489,0.6345547437667847,0.5317391157150269,-0.1866777241230011,1.2163200378417969,-2.1919264793395996,4.445123672485352,9.174976348876953,-2.3548810482025146,-1.2914519309997559,1.357589602470398,0.6902809143066406,32.63086700439453,-24.8565673828125,20.028959274291992,2.122929334640503,1.064096450805664,0.5744612216949463,2.3221943378448486,8.110879898071289,-2.929342269897461
7_20251106_183029,1762424994456,7,0.24115023016929626,0.4994677007198334,0.6283513307571411,0.5454843640327454,-0.10979624092578888,1.2380919456481934,-2.173631191253662,4.400832653045654,8.891275405883789,-1.4965968132019043,-0.7716060876846313,1.041772484779358,0.5021346211433411,31.599777221679688,-25.63030242919922,20.596200942993164,1.6629106998443604,0.6243162155151367,1.1461963653564453,2.737921953201294,8.266959190368652,-2.6427931785583496
7_20251106_183029,1762424994476,7,0.2356661707162857,0.49532458186149597,0.6239674687385559,0.556578516960144,0.02184036374092102,1.277946949005127,-2.137279987335205,3.995032787322998,9.299469947814941,-1.6857305765151978,-0.7490041255950928,1.1480629444122314,0.4447133541107178,30.63282012939453,-26.36090850830078,21.018007278442383,0.7656707763671875,0.7242021560668945,0.5820671319961548,3.2293620109558105,8.575267791748047,-2.2677977085113525
7_20251106_183029,1762424994495,7,0.2299858182668686,0.4904830753803253,0.6199316382408142,0.5676422119140625,0.08867357671260834,1.300856113433838,-2.1182477474212646,3.7077410221099854,9.410795211791992,-2.1394121646881104,-1.0776493549346924,1.3533135652542114,0.381794273853302,29.68277359008789,-27.01470947265625,21.37430763244629,0.3827030658721924,0.668421745300293,0.10270833969116211,3.325037956237793,8.7423734664917,-2.2421205043792725
7_20251106_183029,1762424994515,7,0.2250717729330063,0.4833862781524658,0.6147288084030151,0.5811960697174072,0.155658558011055,1.3251240253448486,-2.0963449478149414,3.3749613761901855,9.18934154510498,-1.297886610031128,-1.3916337490081787,1.3007792234420776,0.3549162447452545,28.760425567626953,-27.604400634765625,21.759939193725586,0.03993868827819824,0.357574462890625,0.7553870677947998,3.3350226879119873,8.831767082214355,-2.0532736778259277
7_20251106_183029,1762424994534,7,0.22197705507278442,0.47556090354919434,0.6077859401702881,0.595956563949585,0.21552911400794983,1.3470215797424316,-2.069864511489868,3.1223840713500977,8.83022689819336,0.3935442268848419,-1.3885794878005981,1.13584566116333,0.4441024959087372,27.810169219970703,-28.27008056640625,22.048391342163086,-0.17011070251464844,-0.001232147216796875,1.9574543237686157,3.292494773864746,8.831459045410156,-1.5639101266860962
7_20251106_183029,1762424994553,7,0.2193109393119812,0.4688968360424042,0.5999282598495483,0.610020101070404,0.21552911400794983,1.3470215797424316,-2.069864511489868,3.1223840713500977,8.83022689819336,0.3935442268848419,-1.067875623703003,1.0717048645019531,0.7269328236579895,26.93613052368164,-28.89197540283203,22.205415725708008,-0.17011070251464844,-0.001232147216796875,1.9574543237686157,3.292494773864746,8.831459045410156,-1.5639101266860962
7_20251106_183029,1762424994572,7,0.213830828666687,0.4644002318382263,0.5923563838005066,0.6226738095283508,0.3271690011024475,1.3853867053985596,-2.005957841873169,3.746046543121338,8.764389038085938,-0.12597519159317017,-0.8565163612365723,0.9757990837097168,1.0952842235565186,26.050203323364258,-29.514259338378906,22.321401596069336,0.37933349609375,0.009362220764160156,0.8134058117866516,3.366713047027588,8.755026817321777,-0.9393810033798218
7_20251106_183029,1762424994591,7,0.20567268133163452,0.46284759044647217,0.5840882658958435,0.6342805624008179,0.3271690011024475,1.3853867053985596,-2.005957841873169,3.746046543121338,8.764389038085938,-0.12597519159317017,-0.963417649269104,0.8353002071380615,1.3188607692718506,25.189945220947266,-30.12158966064453,22.357534408569336,0.37933349609375,0.009362220764160156,0.8134058117866516,3.366713047027588,8.755026817321777,-0.9393810033798218
7_20251106_183029,1762424994610,7,0.1973649561405182,0.46324020624160767,0.5737659931182861,0.6459475159645081,0.4380834698677063,1.4236260652542114,-1.9311267137527466,4.860499858856201,9.38446044921875,1.802471399307251,-1.0862014293670654,0.8597347736358643,1.2999238967895508,24.21276092529297,-30.87895965576172,22.384071350097656,1.0272717475891113,0.4388446807861328,1.9489948749542236,3.83322811126709,8.945615768432617,-0.14652353525161743
7_20251106_183029,1762424994630,7,0.1894671767950058,0.4629209339618683,0.5625699758529663,0.6582715511322021,0.49709540605545044,1.4435434341430664,-1.883910894393921,4.902396202087402,9.124700546264648,2.2860794067382812,-1.0128977298736572,1.0466593503952026,1.1417100429534912,23.262069702148438,-31.58001708984375,22.44195556640625,0.8553347587585449,0.14326763153076172,1.946082353591919,4.047061443328857,8.981432914733887,0.3399970233440399
7_20251106_183029,1762424994651,7,0.18110382556915283,0.46036115288734436,0.5526168942451477,0.670733630657196,0.5589790344238281,1.462599277496338,-1.8325694799423218,4.947883605957031,8.739250183105469,1.6061551570892334,-0.8730096817016602,1.215258002281189,1.0494694709777832,22.226346969604492,-32.30946350097656,22.266101837158203,0.7206578254699707,-0.19374656677246094,1.0129265785217285,4.2272257804870605,8.93299674987793,0.5932286381721497
7_20251106_183029,1762424994670,7,0.17172393202781677,0.4562435448169708,0.5440995097160339,0.6828678250312805,0.614721417427063,1.4777865409851074,-1.7860980033874512,5.157368183135986,8.49864387512207,1.446947693824768,-0.8216969966888428,1.1266826391220093,1.0903973579406738,21.045589447021484,-33.03520965576172,22.017047882080078,0.7441139221191406,-0.34748268127441406,0.6829752922058105,4.413254261016846,8.846126556396484,0.7639724016189575
7_20251106_183029,1762424994686,7,0.16233541071414948,0.4530688226222992,0.5354740023612976,0.6940053701400757,0.6608725190162659,1.4890344142913818,-1.7470167875289917,5.213629245758057,8.382530212402344,1.7426187992095947,-0.7905429601669312,1.0063422918319702,1.1423208713531494,19.86474609375,-33.749473571777344,21.876388549804688,0.6403002738952637,-0.3708772659301758,0.7829171419143677,4.573328971862793,8.75340747833252,0.959701657295227
7_20251106_183029,1762424994705,7,0.15309101343154907,0.45099350810050964,0.5264835953712463,0.7042606472969055,0.7145686745643616,1.5003412961959839,-1.7000609636306763,5.1681413650512695,8.24965763092041,2.004772663116455,-0.7728278636932373,1.0442160367965698,1.144153356552124,18.634540557861328,-34.49095153808594,21.625106811523438,0.47585010528564453,-0.4029998779296875,0.8360568284988403,4.692291259765625,8.652657508850098,1.1687158346176147
7_20251106_183029,1762424994724,7,0.14344175159931183,0.44846394658088684,0.5175836086273193,0.71443110704422,0.764541506767273,1.5090388059616089,-1.6555622816085815,5.360866069793701,8.052144050598145,2.0777926445007324,-0.8785074949264526,1.1938778162002563,1.1710314750671387,17.335954666137695,-35.149566650390625,21.399765014648438,0.5348601341247559,-0.4804105758666992,0.7272614240646362,4.826005935668945,8.532554626464844,1.3505312204360962
7_20251106_183029,1762424994743,7,0.1333521455526352,0.4447634518146515,0.5078895688056946,0.7255693674087524,0.8204413652420044,1.516456961631775,-1.6062641143798828,5.862430095672607,7.952789306640625,2.116098403930664,-1.036110520362854,1.2861183881759644,1.2089051008224487,16.013391494750977,-35.809226989746094,21.11937713623047,0.829139232635498,-0.46381187438964844,0.6124536991119385,5.033290863037109,8.416601181030273,1.5036447048187256
7_20251106_183029,1762424994763,7,0.12309262901544571,0.44023481011390686,0.49693962931632996,0.7376262545585632,0.8776097297668457,1.5227165222167969,-1.5557348728179932,6.369978904724121,8.15748405456543,2.7194111347198486,-1.1356815099716187,1.2360275983810425,1.157592535018921,14.70391845703125,-36.45526885986328,20.81270980834961,1.069350242614746,-0.20729351043701172,0.9726130962371826,5.300628662109375,8.364777565002441,1.746798038482666
7_20251106_183029,1762424994782,7,0.11383045464754105,0.43565693497657776,0.4852156937122345,0.7495408058166504,0.9316684007644653,1.5278561115264893,-1.5052469968795776,6.198801040649414,8.179031372070312,3.5274195671081543,-1.1729443073272705,1.2091494798660278,0.9767764806747437,13.409746170043945,-37.04988098144531,20.467041015625,0.7185382843017578,-0.14859676361083984,1.424497365951538,5.480262756347656,8.327628135681152,2.102922201156616
7_20251106_183029,1762424994800,7,0.10609140247106552,0.43022239208221436,0.47372111678123474,0.7610792517662048,0.9806137681007385,1.531564712524414,-1.4546465873718262,5.599079132080078,7.955183029174805,4.1989641189575195,-1.1851615905761719,1.2885619401931763,0.8368884921073914,13.409746170043945,-37.04988098144531,20.467041015625,0.09505319595336914,-0.2979564666748047,1.6768336296081543,5.504025936126709,8.25313949584961,2.5221304893493652
7_20251106_183029,1762424994820,7,0.0989789366722107,0.42323702573776245,0.46266159415245056,0.7726693153381348,1.0322580337524414,1.5330815315246582,-1.3964613676071167,5.4973297119140625,7.46439266204834,4.092426776885986,-1.1851615905761719,1.2885619401931763,0.8368884921073914,12.143359184265137,-37.59187316894531,20.042312622070312,-0.005356788635253906,-0.6309976577758789,1.2562370300292969,5.502686500549316,8.095390319824219,2.8361897468566895
7_20251106_183029,1762424994839,7,0.09017612040042877,0.4157797694206238,0.45103028416633606,0.7845808863639832,1.0805994272232056,1.5321182012557983,-1.3410805463790894,6.134160041809082,7.24533224105835,3.881746292114258,-1.103305697441101,1.26534903049469,1.3518474102020264,10.8986234664917,-38.18236541748047,19.603992462158203,0.5051789283752441,-0.680046558380127,0.8364453315734863,5.628981113433838,7.925378799438477,3.0453009605407715
7_20251106_183029,1762424994859,7,0.07898107916116714,0.41085121035575867,0.4382219910621643,0.795565664768219,1.1330275535583496,1.5293313264846802,-1.2817922830581665,6.973291873931885,7.325534820556641,4.330639839172363,-1.103305697441101,1.26534903049469,1.3518474102020264,9.645818710327148,-38.710060119628906,19.085403442382812,1.0754485130310059,-0.4798750877380371,1.028270959854126,5.897843360900879,7.805409908294678,3.3023688793182373
7_20251106_183029,1762424994878,7,0.0666341632604599,0.40861040353775024,0.425326406955719,0.8047949075698853,1.184434175491333,1.5264554023742676,-1.2241498231887817,7.388668060302734,7.6738762855529785,4.809459686279297,-0.9261549115180969,0.9953467845916748,1.4666900634765625,8.332084655761719,-39.241729736328125,18.564361572265625,1.192659854888916,-0.10522699356079102,1.2056727409362793,6.196008205413818,7.7791032791137695,3.6037869453430176
7_20251106_183029,1762424994896,7,0.05481437221169472,0.40620046854019165,0.41286125779151917,0.8133524060249329,1.2309491634368896,1.524111032485962,-1.1712620258331299,7.479643821716309,7.824704647064209,5.375663757324219,-0.9261549115180969,0.9953467845916748,1.4666900634765625,7.011072158813477,-39.70951843261719,17.85491943359375,1.0269083976745605,0.03648090362548828,1.417501449584961,6.452735424041748,7.788223743438721,3.958162307739258
7_20251106_183029,1762424994916,7,0.04484804347157478,0.40227076411247253,0.4001932144165039,0.8221996426582336,1.2857744693756104,1.5200477838516235,-1.107166051864624,7.3862738609313965,7.313564300537109,5.59831428527832,-1.0501604080200195,1.1938778162002563,1.0916190147399902,5.665885925292969,-40.178627014160156,17.11746597290039,0.7468304634094238,-0.3797273635864258,1.3121213912963867,6.639443397521973,7.693291664123535,4.286192893981934
7_20251106_183029,1762424994935,7,0.035801880061626434,0.39647549390792847,0.388018935918808,0.8312441110610962,1.3391717672348022,1.5125916004180908,-1.0443384647369385,7.0714497566223145,6.510344505310059,4.923178672790527,-0.899276852607727,1.2641273736953735,1.076958417892456,4.3736724853515625,-40.5692138671875,16.383556365966797,0.34560489654541016,-0.9463577270507812,0.5095887184143066,6.725844860076904,7.45670223236084,4.413589954376221
7_20251106_183029,1762424994953,7,0.02601373940706253,0.3899862766265869,0.3769785761833191,0.8397148847579956,1.385506510734558,1.5025155544281006,-0.9918802976608276,7.002020835876465,5.953716278076172,3.9020960330963135,-0.8333034515380859,1.1786061525344849,1.2706024646759033,3.024138927459717,-40.91246032714844,15.540122985839844,0.22094106674194336,-1.2023887634277344,-0.4091951847076416,6.7810797691345215,7.156105041503906,4.311291217803955
7_20251106_183029,1762424994973,7,0.014802293851971626,0.3849157691001892,0.3656288683414459,0.8473111987113953,1.4364444017410278,1.4892688989639282,-0.9372313618659973,7.448520183563232,6.297269344329834,4.0732741355896,-0.8333034515380859,1.1786061525344849,1.2706024646759033,1.6766343116760254,-41.20655822753906,14.80587387084961,0.5339522361755371,-0.6870684623718262,-0.1904134750366211,6.914567947387695,6.98433780670166,4.263687610626221
7_20251106_183029,1762424994992,7,0.0034282756969332695,0.3828260004520416,0.3521316647529602,0.8540701270103455,1.4854803085327148,1.477675199508667,-0.8849091529846191,8.03148365020752,7.116051197052002,5.357707977294922,-0.9872413873672485,0.913490891456604,1.4899028539657593,0.3210740089416504,-41.426246643066406,14.086233139038086,0.8935327529907227,0.10537052154541016,0.8752164840698242,7.137950897216797,7.010680675506592,4.482491493225098
7_20251106_183029,1762424995011,7,0.006930937059223652,-0.3813469409942627,-0.33699870109558105,-0.8607893586158752,1.5352942943572998,1.4684741497039795,-0.8291563391685486,8.315183639526367,7.671482086181641,6.686432838439941,-1.2340307235717773,0.9031062126159668,1.2815979719161987,-0.9863611459732056,-41.66679382324219,13.259897232055664,0.9417858123779297,0.5286407470703125,1.763153076171875,7.3733978271484375,7.142841339111328,4.923279762268066
7_20251106_183029,1762424995030,7,0.015653137117624283,-0.37820520997047424,-0.3221665322780609,-0.8677121996879578,1.5852079391479492,1.4608978033065796,-0.7694357633590698,8.317578315734863,7.567338943481445,7.385509490966797,-1.084979772567749,0.9874055981636047,1.0647410154342651,-2.5090560913085938,-41.91674041748047,12.206743240356445,0.7553443908691406,0.3395981788635254,1.9697837829589844,7.562233924865723,7.22774076461792,5.4157257080078125
7_20251106_183029,1762424995050,7,0.023382507264614105,-0.3733588755130768,-0.3092864453792572,-0.8742987513542175,1.6344585418701172,1.4531080722808838,-0.7066433429718018,8.230193138122559,7.011908054351807,7.623722076416016,-1.084979772567749,0.9874055981636047,1.0647410154342651,-3.685579299926758,-41.99784851074219,11.307380676269531,0.534367561340332,-0.17266607284545898,1.766397476196289,7.695825576782227,7.184574127197266,5.857324600219727
7_20251106_183029,1762424995068,7,0.031322360038757324,-0.36764785647392273,-0.29848796129226685,-0.880203902721405,1.6833794116973877,1.4436084032058716,-0.6443414092063904,8.473194122314453,6.419368743896484,6.8228960037231445,-0.6085052490234375,0.9922924637794495,1.0567997694015503,-4.750820636749268,-42.046424865722656,10.385929107666016,0.6218948364257812,-0.6121640205383301,0.7724571228027344,7.851299285888672,7.0315327644348145,6.05043888092041
7_20251106_183029,1762424995088,7,0.040739744901657104,-0.3623312711715698,-0.289438396692276,-0.885032057762146,1.7351042032241821,1.4323569536209106,-0.5823331475257874,8.773653984069824,6.455280303955078,5.953838348388672,-0.4142502546310425,0.7674942016601562,1.1404882669448853,-5.837911605834961,-42.04676818847656,9.50510025024414,0.7378835678100586,-0.4610023498535156,-0.07728052139282227,8.035770416259766,6.916282653808594,6.031118869781494
7_20251106_183029,1762424995106,7,0.05071865767240524,-0.35926905274391174,-0.28171342611312866,-0.8882516026496887,1.7820184230804443,1.4218435287475586,-0.5296596884727478,9.127981185913086,6.55343770980835,5.891592025756836,-0.44112831354141235,0.6349365711212158,1.0922298431396484,-6.863044738769531,-42.00695037841797,8.776195526123047,0.8737688064575195,-0.29027605056762695,-0.11162185668945312,8.254212379455566,6.843713760375977,6.003213882446289
7_20251106_183029,1762424995126,7,0.05971908941864967,-0.35735803842544556,-0.27406105399131775,-0.8908531665802002,1.8318345546722412,1.410632610321045,-0.4764958620071411,9.264444351196289,6.600123405456543,6.128607749938965,-0.5877358913421631,0.6453213095664978,0.907748818397522,-7.862607002258301,-41.952308654785156,7.980953216552734,0.8081855773925781,-0.19487237930297852,0.10031509399414062,8.456258773803711,6.7949957847595215,6.028292655944824
7_20251106_183029,1762424995145,7,0.0666670948266983,-0.35497015714645386,-0.26582449674606323,-0.8938059210777283,1.878143310546875,1.3996472358703613,-0.42674189805984497,9.054961204528809,6.431338787078857,6.802546501159668,-0.6952480673789978,0.6495974063873291,0.6817288398742676,-8.787544250488281,-41.867652893066406,7.175664901733398,0.4789619445800781,-0.2909255027770996,0.6194028854370117,8.57599925994873,6.722264289855957,6.183143615722656
7_20251106_183029,1762424995163,7,0.07133026421070099,-0.35198476910591125,-0.2574503421783447,-0.897071897983551,1.878143310546875,1.3996472358703613,-0.42674189805984497,9.054961204528809,6.431338787078857,6.802546501159668,-0.6506549119949341,0.655095100402832,0.47586748003959656,-9.685585975646973,-41.731590270996094,6.412961959838867,0.4789619445800781,-0.2909255027770996,0.6194028854370117,8.57599925994873,6.722264289855957,6.183143615722656
7_20251106_183029,1762424995184,7,0.07442617416381836,-0.3482574224472046,-0.2500913143157959,-0.9003509879112244,1.9768327474594116,1.3699157238006592,-0.31192076206207275,8.428903579711914,5.7250800132751465,7.0934295654296875,-0.44662606716156006,0.5665197372436523,0.34758585691452026,-10.486226081848145,-41.57769012451172,5.762577056884766,-0.1491098403930664,-0.6994872093200684,0.5419793128967285,8.57801342010498,6.424567222595215,6.551450252532959
7_20251106_183029,1762424995203,7,0.07698356360197067,-0.34469643235206604,-0.24491989612579346,-0.9029242396354675,2.0150845050811768,1.3542697429656982,-0.26405468583106995,7.958463191986084,5.449758529663086,6.703191757202148,-0.27069705724716187,0.46206188201904297,0.2932189106941223,-11.105880737304688,-41.437530517578125,5.173086166381836,-0.49564027786254883,-0.7798466682434082,0.12139320373535156,8.454103469848633,6.229605197906494,6.581798553466797
7_20251106_183029,1762424995222,7,0.07942058145999908,-0.3417753279209137,-0.24149470031261444,-0.9047443270683289,2.05291748046875,1.3343030214309692,-0.21433575451374054,7.61730432510376,5.094234466552734,6.316544532775879,-0.26092320680618286,0.46389448642730713,0.27183863520622253,-11.105880737304688,-41.437530517578125,5.173086166381836,-0.6694388389587402,-0.9082965850830078,-0.2122035026550293,8.2867431640625,6.002531051635742,6.528748035430908
7_20251106_183029,1762424995240,7,0.08162092417478561,-0.33879703283309937,-0.23820050060749054,-0.9065402150154114,2.08339524269104,1.314346432685852,-0.17319750785827637,7.527525424957275,4.830883979797363,5.971794128417969,-0.33239439129829407,0.44251421093940735,0.30787965655326843,-11.763081550598145,-41.30110168457031,4.717287063598633,-0.6073737144470215,-0.9373178482055664,-0.44556331634521484,8.134899139404297,5.76820182800293,6.417357444763184
7_20251106_183029,1762424995260,7,0.08393073827028275,-0.3361383378505707,-0.23420412838459015,-0.9083584547042847,2.114258289337158,1.2906317710876465,-0.1301712542772293,7.704689025878906,4.896721839904785,6.286618232727051,-0.3922591209411621,0.3117891550064087,0.36346831917762756,-12.336600303649902,-41.19611358642578,4.19654655456543,-0.34416770935058594,-0.6971840858459473,-0.10459136962890625,8.048856735229492,5.593905925750732,6.391209602355957
7_20251106_183029,1762424995280,7,0.08616581559181213,-0.3348471224308014,-0.22958648204803467,-0.9098037481307983,2.1434707641601562,1.2663764953613281,-0.08790028840303421,8.013527870178223,5.026002883911133,6.850428581237793,-0.3922591209411621,0.3117891550064087,0.36346831917762756,-12.786243438720703,-41.04564666748047,3.695018768310547,-0.028263092041015625,-0.45432233810424805,0.36737489700317383,8.041790962219238,5.480325222015381,6.483053684234619
7_20251106_183029,1762424995299,7,0.0881161093711853,-0.3340039551258087,-0.22532477974891663,-0.9109915494918823,2.1700563430786133,1.2434760332107544,-0.04829944297671318,8.122459411621094,5.1121907234191895,7.012030124664307,-0.3116249740123749,0.2189377397298813,0.20158915221691132,-13.10425090789795,-40.92451477050781,3.2386436462402344,0.06453418731689453,-0.2945075035095215,0.42318105697631836,8.0579252243042,5.406698226928711,6.588849067687988
7_20251106_183029,1762424995316,7,0.08902101963758469,-0.33303502202033997,-0.22199776768684387,-0.9120745062828064,2.192275285720825,1.2232612371444702,-0.013270169496536255,7.885443687438965,5.0655059814453125,7.211936950683594,-0.2804708778858185,0.1615164577960968,0.03604483604431152,-13.303007125854492,-40.83378601074219,2.853961944580078,-0.1379852294921875,-0.27295398712158203,0.4984703063964844,8.023428916931152,5.3384599685668945,6.713466644287109
7_20251106_183029,1762424995335,7,0.08859959244728088,-0.33214765787124634,-0.21958185732364655,-0.9130234718322754,2.192275285720825,1.2232612371444702,-0.013270169496536255,7.885443687438965,5.0655059814453125,7.211936950683594,-0.24931681156158447,0.16395992040634155,-0.09406935423612595,-13.430254936218262,-40.76367950439453,2.498727798461914,-0.1379852294921875,-0.27295398712158203,0.4984703063964844,8.023428916931152,5.3384599685668945,6.713466644287109
7_20251106_183029,1762424995354,7,0.0869804173707962,-0.3309171795845032,-0.2177705466747284,-0.9140592217445374,2.216503381729126,1.1982667446136475,0.029512397944927216,7.472461223602295,4.958968162536621,7.213134288787842,-0.23343431949615479,0.19450315833091736,-0.18630993366241455,-13.544512748718262,-40.680084228515625,2.1307315826416016,-0.44077396392822266,-0.30359363555908203,0.3997340202331543,7.913235187530518,5.262561798095703,6.8134002685546875
7_20251106_183029,1762424995374,7,0.08470532298088074,-0.329145610332489,-0.21636511385440826,-0.9152454733848572,2.2488436698913574,1.1527788639068604,0.10130283236503601,6.693181991577148,4.464587211608887,7.135326385498047,-0.24076469242572784,0.18350759148597717,-0.18142302334308624,-13.626118659973145,-40.64581298828125,1.9118309020996094,-0.8329300880432129,-0.5467109680175781,0.21924781799316406,7.526112079620361,5.011298179626465,6.916078567504883
7_20251106_183029,1762424995393,7,0.0824882909655571,-0.3274358808994293,-0.21487590670585632,-0.9164113402366638,2.260399341583252,1.1287446022033691,0.1359044760465622,6.632132530212402,4.450222015380859,6.968935966491699,-0.17906735837459564,0.12852975726127625,-0.111784428358078,-13.634819030761719,-40.61865997314453,1.6280269622802734,-0.7151837348937988,-0.44886064529418945,0.042285919189453125,7.347316265106201,4.899082660675049,6.926650047302246
7_20251106_183029,1762424995412,7,0.08102649450302124,-0.32623428106307983,-0.21372461318969727,-0.9172391891479492,2.269500494003296,1.1049301624298096,0.16892489790916443,6.66325569152832,4.541197776794434,6.980906963348389,-0.17906735837459564,0.12852975726127625,-0.111784428358078,-13.608668327331543,-40.614646911621094,1.3857154846191406,-0.547248363494873,-0.28630781173706055,0.04340505599975586,7.210504055023193,4.827505588531494,6.937501907348633
7_20251106_183029,1762424995431,7,0.07971160113811493,-0.3258149325847626,-0.21295589208602905,-0.9176821112632751,2.2764086723327637,1.0813534259796143,0.20165152847766876,6.577068328857422,4.4801483154296875,7.432194232940674,-0.13569596409797668,0.04300869256258011,-0.08857157081365585,-13.573051452636719,-40.659934997558594,1.1293220520019531,-0.5067486763000488,-0.27788591384887695,0.3957538604736328,7.083817005157471,4.7580342292785645,7.036440372467041
7_20251106_183029,1762424995449,7,0.07774783670902252,-0.3253631889820099,-0.21221446990966797,-0.9181824922561646,2.280759334564209,1.0592349767684937,0.2326459437608719,6.325687885284424,4.392764091491699,7.662027835845947,-0.16379575431346893,0.1352492719888687,-0.22235095500946045,-13.48898696899414,-40.70244598388672,0.9154396057128906,-0.6065034866333008,-0.29221630096435547,0.5004701614379883,6.932191371917725,4.684980392456055,7.161557674407959
7_20251106_183029,1762424995471,7,0.07539825886487961,-0.32381144165992737,-0.21152544021606445,-0.9190855622291565,2.282986879348755,1.03384530544281,0.26842671632766724,6.1581010818481445,4.423887252807617,7.587810516357422,-0.11675915867090225,0.15785127878189087,-0.22235095500946045,-13.365742683410645,-40.69261932373047,0.7311153411865234,-0.6192722320556641,-0.20887470245361328,0.3410024642944336,6.777373313903809,4.6327619552612305,7.246808052062988
7_20251106_183029,1762424995489,7,0.07327760756015778,-0.32195478677749634,-0.21120744943618774,-0.9199820160865784,2.28287410736084,1.011501669883728,0.29944345355033875,6.03839635848999,4.443039894104004,7.342415809631348,-0.024518581107258797,0.17312288284301758,-0.20280328392982483,-13.29275131225586,-40.711212158203125,0.5578193664550781,-0.591181755065918,-0.1517777442932129,0.07648611068725586,6.629578113555908,4.594817638397217,7.265929698944092
7_20251106_183029,1762424995508,7,0.07160228490829468,-0.31993475556373596,-0.21162770688533783,-0.9207217693328857,2.2810463905334473,0.98952716588974,0.328245609998703,6.0024847984313965,4.322137832641602,7.024000644683838,0.017631083726882935,0.19450315833091736,-0.20158155262470245,-13.171917915344238,-40.73945617675781,0.4132537841796875,-0.5016751289367676,-0.21814393997192383,-0.1935429573059082,6.504159927368164,4.540281772613525,7.217543601989746
7_20251106_183029,1762424995527,7,0.0701446607708931,-0.31771206855773926,-0.21243521571159363,-0.9214174151420593,2.27795672416687,0.9678788185119629,0.35464969277381897,6.0108642578125,4.258694648742676,6.86838436126709,-0.004970910958945751,0.18656191229820251,-0.17531438171863556,-13.051789283752441,-40.78025817871094,0.26842308044433594,-0.3946366310119629,-0.22526979446411133,-0.279327392578125,6.405500888824463,4.483964443206787,7.147711753845215
7_20251106_183029,1762424995545,7,0.06879613548517227,-0.3156900703907013,-0.21295137703418732,-0.9220947027206421,2.2744224071502686,0.947628378868103,0.3773777484893799,6.099445343017578,4.172506809234619,6.727132797241211,-0.004970910958945751,0.18656191229820251,-0.17531438171863556,-12.858841896057129,-40.81669616699219,0.167083740234375,-0.2448444366455078,-0.24916601181030273,-0.33646345138549805,6.344289779663086,4.421672821044922,7.063596248626709
7_20251106_183029,1762424995564,7,0.06771892309188843,-0.31404420733451843,-0.21313463151454926,-0.9226939082145691,2.2705743312835693,0.9268646836280823,0.39954137802124023,6.23351526260376,4.25510311126709,6.834866523742676,-0.06850083917379379,0.08149317651987076,-0.07940859347581863,-12.737996101379395,-40.83332824707031,0.11739540100097656,-0.08861970901489258,-0.1332559585571289,-0.1829838752746582,6.322134971618652,4.388359069824219,7.017850399017334
7_20251106_183029,1762424995583,7,0.06672807037830353,-0.31328392028808594,-0.21282725036144257,-0.9230954051017761,2.2669315338134766,0.9074074029922485,0.42096182703971863,6.326885223388672,4.486133575439453,7.150887966156006,-0.08438332378864288,0.017963239923119545,-0.0653587058186531,-12.58029556274414,-40.84717559814453,0.028629302978515625,0.003799915313720703,0.07821941375732422,0.1064305305480957,6.323085308074951,4.407914161682129,7.04445743560791
7_20251106_183029,1762424995603,7,0.06576237082481384,-0.3131124675273895,-0.21241100132465363,-0.9233187437057495,2.263307571411133,0.8885554671287537,0.44354644417762756,6.32927942276001,4.6070356369018555,7.427406311035156,-0.08071813732385635,0.027737077325582504,-0.12094739824533463,-12.410198211669922,-40.84834289550781,0.008199691772460938,0.004955291748046875,0.15929698944091797,0.30635881423950195,6.324324131011963,4.4477386474609375,7.121047496795654
7_20251106_183029,1762424995623,7,0.06429670751094818,-0.3127136826515198,-0.21219563484191895,-0.9236065745353699,2.259620428085327,0.8716403841972351,0.4648122787475586,6.172465801239014,4.483739852905273,7.442967891693115,-0.060559600591659546,0.05278252810239792,-0.18203388154506683,-12.327220916748047,-40.892333984375,-0.05700492858886719,-0.12148666381835938,0.02880096435546875,0.2575364112854004,6.293952465057373,4.454938888549805,7.185431480407715
7_20251106_183029,1762424995642,7,0.06244184821844101,-0.3119102716445923,-0.2123374491930008,-0.9239728450775146,2.2552764415740967,0.8546454310417175,0.48701387643814087,6.077898979187012,4.428675174713135,7.493244171142578,-0.034292418509721756,0.05766945332288742,-0.1991380900144577,-12.181805610656738,-40.9071044921875,-0.13274574279785156,-0.17284297943115234,-0.021010875701904297,0.24625015258789062,6.250741958618164,4.449686050415039,7.2469940185546875
7_20251106_183029,1762424995660,7,0.06053231656551361,-0.3109925091266632,-0.21272937953472137,-0.9243190288543701,2.2507801055908203,0.8399185538291931,0.5064051151275635,5.933055877685547,4.370019912719727,7.413041591644287,0.000526871532201767,0.05278252810239792,-0.19547291100025177,-12.181805610656738,-40.9071044921875,-0.13274574279785156,-0.2541489601135254,-0.06373310089111328,0.13283777236938477,6.187204837799072,4.43375301361084,7.280203819274902
7_20251106_183029,1762424995680,7,0.05874834209680557,-0.3100891411304474,-0.21339841187000275,-0.924583375453949,2.244842767715454,0.8240233063697815,0.5268844366073608,5.7953948974609375,4.318546772003174,7.283760070800781,0.000526871532201767,0.05278252810239792,-0.19547291100025177,-12.05038070678711,-40.948326110839844,-0.1554393768310547,-0.3134479522705078,-0.09216499328613281,0.002845287322998047,6.108842849731445,4.410711765289307,7.280914783477783
7_20251106_183029,1762424995700,7,0.05739997327327728,-0.30971741676330566,-0.21429572999477386,-0.9245851635932922,2.238706588745117,0.8092706203460693,0.5456770062446594,5.825321674346924,4.262285232543945,7.3938889503479,0.04817432165145874,-0.037625446915626526,-0.09284762293100357,-11.93104362487793,-40.990211486816406,-0.192138671875,-0.22681713104248047,-0.11874103546142578,0.09037923812866211,6.052138805389404,4.381026268005371,7.303509712219238
7_20251106_183029,1762424995719,7,0.05651812627911568,-0.30976882576942444,-0.21513354778289795,-0.9244276881217957,2.238706588745117,0.8092706203460693,0.5456770062446594,5.825321674346924,4.262285232543945,7.3938889503479,0.03168097138404846,0.007578540593385696,-0.06291524320840836,-11.895994186401367,-41.01307678222656,-0.17767906188964844,-0.22681713104248047,-0.11874103546142578,0.09037923812866211,6.052138805389404,4.381026268005371,7.303509712219238
7_20251106_183029,1762424995737,7,0.0560183972120285,-0.30947089195251465,-0.2157084196805954,-0.9244239330291748,2.226027250289917,0.7807932496070862,0.5828930139541626,5.8911590576171875,4.250314712524414,7.513593673706055,0.03168097138404846,0.007578540593385696,-0.06291524320840836,-11.811100006103516,-41.01966857910156,-0.2150592803955078,-0.10264396667480469,-0.08308124542236328,0.11721611022949219,5.993803024291992,4.333395957946777,7.3963775634765625
7_20251106_183029,1762424995756,7,0.05579586327075958,-0.308898001909256,-0.2165466696023941,-0.9244329929351807,2.219757556915283,0.7674022912979126,0.6002903580665588,5.899538516998291,4.286226272583008,7.415435791015625,0.10620646178722382,0.014298053458333015,-0.04336757957935333,-11.766683578491211,-41.09197235107422,-0.20116424560546875,-0.07541179656982422,-0.037735939025878906,0.015246391296386719,5.974950313568115,4.323962211608887,7.400189399719238
7_20251106_183029,1762424995775,7,0.05569750443100929,-0.3085448443889618,-0.2176889032125473,-0.9242885708808899,2.2135419845581055,0.7544098496437073,0.6163637638092041,5.880385398864746,4.225176811218262,7.234681129455566,0.12025634944438934,0.027126211673021317,-0.05436313897371292,-11.730929374694824,-41.10227966308594,-0.18644142150878906,-0.07565164566040039,-0.07902812957763672,-0.13240671157836914,5.9560370445251465,4.304204940795898,7.3670878410339355
7_20251106_183029,1762424995794,7,0.055553138256073,-0.3080665171146393,-0.218985453248024,-0.9241505265235901,2.2073440551757812,0.7415775656700134,0.6307578682899475,5.849262237548828,4.125822067260742,7.047941207885742,0.09826523065567017,0.03506745398044586,-0.0653587058186531,-11.670493125915527,-41.09898376464844,-0.11640739440917969,-0.0854196548461914,-0.14270639419555664,-0.25531768798828125,5.9346818923950195,4.268528461456299,7.303258895874023
7_20251106_183029,1762424995813,7,0.0552813895046711,-0.3075288236141205,-0.22011849284172058,-0.9240767359733582,2.2011659145355225,0.7289921045303345,0.6440733671188354,5.828912734985352,4.124625205993652,7.1724348068237305,0.09826523065567017,0.03506745398044586,-0.0653587058186531,-11.649335861206055,-41.148162841796875,-0.06241798400878906,-0.08461523056030273,-0.11512279510498047,-0.1046590805053711,5.913527965545654,4.239748001098633,7.277093887329102
7_20251106_183029,1762424995833,7,0.05473937466740608,-0.3067755103111267,-0.22141438722610474,-0.9240497946739197,2.1947851181030273,0.7161112427711487,0.6569215059280396,5.846868515014648,4.142580986022949,7.123355865478516,0.05733729153871536,0.05217166244983673,-0.07024563103914261,-11.599873542785645,-41.120819091796875,0.03468513488769531,-0.05332756042480469,-0.07773351669311523,-0.12299060821533203,5.900196075439453,4.2203145027160645,7.246346473693848
7_20251106_183029,1762424995852,7,0.05418922007083893,-0.30559515953063965,-0.2224201261997223,-0.924231767654419,2.1887784004211426,0.7039840221405029,0.6680284142494202,5.809759616851807,4.037240505218506,7.068291664123535,0.043287403881549835,0.099819116294384,-0.10078886151313782,-11.561695098876953,-41.08143615722656,0.10453033447265625,-0.07234954833984375,-0.14645910263061523,-0.14244365692138672,5.88210916519165,4.183699607849121,7.210735321044922
7_20251106_183029,1762424995871,7,0.05348217114806175,-0.30436691641807556,-0.2235589623451233,-0.9244034886360168,2.182847261428833,0.6916704773902893,0.6778672933578491,5.800183296203613,3.894791603088379,6.9509806632995605,0.043287403881549835,0.099819116294384,-0.10078886151313782,-11.52584171295166,-41.09161376953125,0.10573768615722656,-0.06554079055786133,-0.2311263084411621,-0.20780420303344727,5.865724086761475,4.125917911529541,7.158784866333008
7_20251106_183029,1762424995891,7,0.052844125777482986,-0.3032536506652832,-0.22444753348827362,-0.9245907068252563,2.176901340484619,0.6794435977935791,0.6862303018569946,5.752301216125488,3.9330973625183105,6.800151824951172,0.03656788915395737,0.09920825064182281,-0.09101502597332001,-11.479706764221191,-41.12678527832031,0.17448806762695312,-0.09073829650878906,-0.15425634384155273,-0.28690624237060547,5.843039512634277,4.087353706359863,7.087058067321777
7_20251106_183029,1762424995909,7,0.052083224058151245,-0.3021242916584015,-0.22500565648078918,-0.9248679280281067,2.176901340484619,0.6794435977935791,0.6862303018569946,5.752301216125488,3.9330973625183105,6.800151824951172,-0.08071813732385635,0.23604193329811096,-0.1783687025308609,-11.417070388793945,-41.09729766845703,0.1369190216064453,-0.09073829650878906,-0.15425634384155273,-0.28690624237060547,5.843039512634277,4.087353706359863,7.087058067321777
7_20251106_183029,1762424995929,7,0.05051844194531441,-0.30002835392951965,-0.22498634457588196,-0.9256414175033569,2.170475959777832,0.6667368412017822,0.6932080388069153,5.685266494750977,3.9295058250427246,6.631368637084961,-0.221827894449234,0.3258390426635742,-0.2809939384460449,-11.346774101257324,-41.14276123046875,0.13880538940429688,-0.1262187957763672,-0.12627840042114258,-0.3645515441894531,5.811485290527344,4.055784225463867,6.995920181274414
7_20251106_183029,1762424995948,7,0.04767134040594101,-0.2971958518028259,-0.2240409255027771,-0.9269345998764038,2.158012866973877,0.6427354216575623,0.7028859257698059,5.607458114624023,3.7738895416259766,6.89711332321167,-0.3006294071674347,0.27330470085144043,-0.3237544596195221,-11.274672508239746,-41.162567138671875,0.08715438842773438,-0.14341020584106445,-0.19707560539245605,-0.005203723907470703,5.750868320465088,3.9709651470184326,6.902317047119141
7_20251106_183029,1762424995966,7,0.04410066083073616,-0.29497984051704407,-0.22253158688545227,-0.9281819462776184,2.158012866973877,0.6427354216575623,0.7028859257698059,5.607458114624023,3.7738895416259766,6.89711332321167,-0.25542542338371277,0.16518163681030273,-0.276717871427536,-11.17990493774414,-41.20630645751953,0.07650566101074219,-0.14341020584106445,-0.19707560539245605,-0.005203723907470703,5.750868320465088,3.9709651470184326,6.902317047119141
7_20251106_183029,1762424995985,7,0.04110267013311386,-0.293424129486084,-0.22104452550411224,-0.9291674494743347,2.1438701152801514,0.6202402710914612,0.7141222953796387,5.3261518478393555,3.9965407848358154,7.319671630859375,-0.18517599999904633,0.08515835553407669,-0.17592523992061615,-11.098252296447754,-41.286895751953125,-0.09762001037597656,-0.2829270362854004,0.04643845558166504,0.2761087417602539,5.609078884124756,3.9501023292541504,7.043562889099121
7_20251106_183029,1762424996005,7,0.039337292313575745,-0.29211536049842834,-0.21991300582885742,-0.9299244284629822,2.1438701152801514,0.6202402710914612,0.7141222953796387,5.3261518478393555,3.9965407848358154,7.319671630859375,-0.19494985044002533,0.05828031152486801,-0.10934097319841385,-10.965839385986328,-41.32676696777344,-0.2554759979248047,-0.2829270362854004,0.04643845558166504,0.2761087417602539,5.609078884124756,3.9501023292541504,7.043562889099121
7_20251106_183029,1762424996024,7,0.038008932024240494,-0.2910326421260834,-0.21880465745925903,-0.9305803775787354,2.127565383911133,0.6012988090515137,0.7294504642486572,5.399171829223633,4.3245320320129395,7.805673599243164,-0.25053852796554565,0.05828031152486801,-0.050087086856365204,-10.821734428405762,-41.36652374267578,-0.3452606201171875,-0.12725448608398438,0.2599368095397949,0.556126594543457,5.526426315307617,4.0645952224731445,7.249547004699707
7_20251106_183029,1762424996044,7,0.036953724920749664,-0.29007092118263245,-0.21732620894908905,-0.9312693476676941,2.119422674179077,0.59385746717453,0.74037766456604,5.463812828063965,4.415507793426514,8.127679824829102,-0.21999530494213104,0.07355193048715591,-0.0012179119512438774,-10.627488136291504,-41.38960266113281,-0.5274333953857422,-0.050090789794921875,0.2807297706604004,0.7025060653686523,5.513903617858887,4.134778022766113,7.425173759460449
7_20251106_183029,1762424996062,7,0.03665431588888168,-0.2887107729911804,-0.21599917113780975,-0.9320123195648193,2.119422674179077,0.59385746717453,0.74037766456604,5.463812828063965,4.415507793426514,8.127679824829102,-0.11859175562858582,0.06866500526666641,0.012831976637244225,-10.627488136291504,-41.38960266113281,-0.5274333953857422,-0.050090789794921875,0.2807297706604004,0.7025060653686523,5.513903617858887,4.134778022766113,7.425173759460449
7_20251106_183029,1762424996081,7,0.036752671003341675,-0.2872213125228882,-0.21547739207744598,-0.9325892329216003,2.105534553527832,0.5833437442779541,0.7641994953155518,5.5452117919921875,4.411916732788086,7.962487697601318,-0.009246964007616043,0.03873264044523239,0.020162353292107582,-10.495879173278809,-41.442169189453125,-0.6720371246337891,0.02425098419189453,0.16932439804077148,0.30710744857788086,5.520960807800293,4.2425923347473145,7.6553802490234375
7_20251106_183029,1762424996100,7,0.037149883806705475,-0.2860241234302521,-0.21592316031455994,-0.9328382611274719,2.098832368850708,0.5790121555328369,0.7758419513702393,5.465009689331055,4.381990432739258,7.599781036376953,0.04450913146138191,0.03628917783498764,0.025049272924661636,-10.4083890914917,-41.422027587890625,-0.8710842132568359,-0.044760704040527344,0.11151838302612305,-0.0444793701171875,5.509770393371582,4.270472049713135,7.644260406494141
7_20251106_183029,1762424996120,7,0.03765572980046272,-0.2851385772228241,-0.21684317290782928,-0.9328756928443909,2.0919833183288574,0.5749650001525879,0.7865522503852844,5.461418151855469,4.364034652709961,7.337627410888672,0.0023594656959176064,0.06622155755758286,0.034823108464479446,-10.33731460571289,-41.47802734375,-1.07220458984375,-0.038681983947753906,0.07485008239746094,-0.24530649185180664,5.500100135803223,4.2891845703125,7.5829339027404785
7_20251106_183029,1762424996140,7,0.03797726333141327,-0.2843053638935089,-0.21747073531150818,-0.9329708814620972,2.0919833183288574,0.5749650001525879,0.7865522503852844,5.461418151855469,4.364034652709961,7.337627410888672,0.0023594656959176064,0.06622155755758286,0.034823108464479446,-10.248613357543945,-41.43304443359375,-1.2436904907226562,-0.038681983947753906,0.07485008239746094,-0.24530649185180664,5.500100135803223,4.2891845703125,7.5829339027404785
7_20251106_183029,1762424996159,7,0.03800250217318535,-0.2836771011352539,-0.21772906184196472,-0.9331008195877075,2.079707384109497,0.5676262974739075,0.80489182472229,5.582320213317871,4.265876770019531,7.568657875061035,-0.03612501174211502,0.047895610332489014,0.0525381863117218,-10.162618637084961,-41.426544189453125,-1.3348712921142578,0.0669851303100586,-0.019896507263183594,0.01652812957763672,5.5153350830078125,4.285773277282715,7.552129745483398
7_20251106_183029,1762424996177,7,0.03819435462355614,-0.2833554744720459,-0.2178964912891388,-0.9331516623497009,2.075220823287964,0.5647538304328918,0.8119367361068726,5.674492835998535,4.335305213928223,7.390297889709473,-0.03612501174211502,0.047895610332489014,0.0525381863117218,-10.161617279052734,-41.41358184814453,-1.3751564025878906,0.12732601165771484,0.03962564468383789,-0.12946510314941406,5.54716682434082,4.295679569244385,7.519762992858887
7_20251106_183029,1762424996195,7,0.03879455849528313,-0.2832532227039337,-0.21839845180511475,-0.9330405592918396,2.070875406265259,0.5618619322776794,0.818641185760498,5.699631214141846,4.353261470794678,7.2370758056640625,0.020074542611837387,-0.0028061596676707268,0.054981645196676254,-10.122958183288574,-41.38513946533203,-1.4677715301513672,0.12197160720825195,0.046065330505371094,-0.2261495590209961,5.577659606933594,4.307196140289307,7.463225364685059
7_20251106_183029,1762424996214,7,0.03901863470673561,-0.2836178243160248,-0.2190646380186081,-0.9327642321586609,2.070875406265259,0.5618619322776794,0.818641185760498,5.699631214141846,4.353261470794678,7.2370758056640625,-0.047120578587055206,0.024071888998150826,0.006723329424858093,-10.132733345031738,-41.34785461425781,-1.5080184936523438,0.12197160720825195,0.046065330505371094,-0.2261495590209961,5.577659606933594,4.307196140289307,7.463225364685059
7_20251106_183029,1762424996234,7,0.038531720638275146,-0.28385698795318604,-0.21931438148021698,-0.9326530694961548,2.063613176345825,0.5563055276870728,0.8309028744697571,5.6888580322265625,4.232359409332275,7.551899433135986,-0.08682678639888763,0.06561068445444107,-0.05436314269900322,-10.142804145812988,-41.31097412109375,-1.5077171325683594,0.0677194595336914,-0.06379270553588867,0.09180116653442383,5.621138572692871,4.296152114868164,7.4600982666015625
7_20251106_183029,1762424996254,7,0.03751898929476738,-0.28356480598449707,-0.21926292777061462,-0.9327952861785889,2.0603322982788086,0.5532121658325195,0.8368605971336365,5.633793354034424,4.1820831298828125,7.4549384117126465,-0.06178132817149162,0.07843884825706482,-0.09406935423612595,-10.082480430603027,-41.319427490234375,-1.5190448760986328,0.010123729705810547,-0.09125518798828125,-0.004127979278564453,5.623669624328613,4.273338317871094,7.459066390991211
7_20251106_183029,1762424996272,7,0.036454685032367706,-0.28287264704704285,-0.219290092587471,-0.9330412745475769,2.05735182762146,0.5502659678459167,0.8417291045188904,5.552393913269043,4.1509599685668945,7.3675537109375,-0.05322922393679619,0.0485064759850502,-0.09223674982786179,-10.081070899963379,-41.2943115234375,-1.5185165405273438,-0.05702066421508789,-0.09790277481079102,-0.07321023941040039,5.609414577484131,4.2488627433776855,7.4407639503479
7_20251106_183029,1762424996291,7,0.03532662242650986,-0.28250157833099365,-0.21936823427677155,-0.9331786632537842,2.054157257080078,0.5471711158752441,0.8470507264137268,5.534438610076904,4.19764518737793,7.600978374481201,-0.08010727167129517,0.0014698933809995651,-0.06474784016609192,-10.09286117553711,-41.29456329345703,-1.5730724334716797,-0.05998086929321289,-0.04097414016723633,0.12817144393920898,5.594419479370117,4.238619327545166,7.472806930541992
7_20251106_183029,1762424996312,7,0.03432319313287735,-0.28257954120635986,-0.2191869616508484,-0.9332351088523865,2.054157257080078,0.5471711158752441,0.8470507264137268,5.534438610076904,4.19764518737793,7.600978374481201,-0.08010727167129517,0.0014698933809995651,-0.06474784016609192,-10.117938041687012,-41.30870819091797,-1.5743169784545898,-0.05998086929321289,-0.04097414016723633,0.12817144393920898,5.594419479370117,4.238619327545166,7.472806930541992
7_20251106_183029,1762424996331,7,0.03356977924704552,-0.28225842118263245,-0.2191278040409088,-0.9333735704421997,2.046982526779175,0.541065514087677,0.8594627976417542,5.4494476318359375,4.190462589263916,7.609357833862305,-0.04345538839697838,0.02956966869533062,-0.046421900391578674,-10.031042098999023,-41.28937530517578,-1.6922664642333984,-0.10082626342773438,-0.04020547866821289,0.06498384475708008,5.550273895263672,4.230668067932129,7.544373989105225
7_20251106_183029,1762424996349,7,0.03309597820043564,-0.28167524933815,-0.21918389201164246,-0.9335535168647766,2.043475389480591,0.538183867931366,0.8650251626968384,5.403960227966309,4.117442607879639,7.665618896484375,-0.04345538839697838,0.02956966869533062,-0.046421900391578674,-9.98129653930664,-41.27323913574219,-1.7305898666381836,-0.1170511245727539,-0.09058046340942383,0.09699630737304688,5.5210113525390625,4.2080230712890625,7.568622589111328
7_20251106_183029,1762424996368,7,0.03269180655479431,-0.28141069412231445,-0.21916496753692627,-0.9336519837379456,2.0397918224334717,0.535068690776825,0.8710989952087402,5.460221290588379,4.125822067260742,7.749412536621094,-0.0422336608171463,0.006967675872147083,0.018329758197069168,-9.968517303466797,-41.271636962890625,-1.811197280883789,-0.048632144927978516,-0.06576108932495117,0.14463186264038086,5.508853435516357,4.191583156585693,7.604780673980713
7_20251106_183029,1762424996386,7,0.03273371234536171,-0.28117135167121887,-0.21893246471881866,-0.9337771534919739,2.036515951156616,0.5320559144020081,0.8768184185028076,5.524862289428711,4.1066694259643555,7.707515716552734,-0.0422336608171463,0.006967675872147083,0.018329758197069168,-9.934679985046387,-41.31934356689453,-1.8242979049682617,0.012806892395019531,-0.06793069839477539,0.08218812942504883,5.512055397033691,4.174600124359131,7.6253275871276855
7_20251106_183029,1762424996405,7,0.03311506286263466,-0.28127747774124146,-0.2190505564212799,-0.9337040185928345,2.0333943367004395,0.5289666056632996,0.8827036619186401,5.571547031402588,4.149763107299805,7.679983615875244,0.010300706140697002,-0.027240747585892677,0.04704040288925171,-9.94837474822998,-41.34539031982422,-1.8118000030517578,0.047593116760253906,-0.01986980438232422,0.04372453689575195,5.523953914642334,4.169632911682129,7.636259078979492
7_20251106_183029,1762424996424,7,0.033390652388334274,-0.28145742416381836,-0.21929629147052765,-0.9335823059082031,2.0305495262145996,0.5259280204772949,0.8885689973831177,5.56795597076416,4.131807327270508,7.736245155334473,-0.003138316795229912,0.01979583501815796,-0.009770018048584461,-9.926624298095703,-41.393760681152344,-1.838907241821289,0.0352015495300293,-0.030260562896728516,0.07998895645141602,5.532754421234131,4.162067890167236,7.656256198883057
7_20251106_183029,1762424996444,7,0.033292505890131,-0.28124338388442993,-0.21946480870246887,-0.933610737323761,2.0278079509735107,0.5228083729743958,0.8939169049263,5.56675910949707,4.1353983879089355,7.4860615730285645,0.010300708003342152,0.06866501271724701,-0.04764363169670105,-9.904366493225098,-41.429847717285156,-1.8387184143066406,0.02720355987548828,-0.021335601806640625,-0.1361556053161621,5.539555549621582,4.156733989715576,7.622217178344727
7_20251106_183029,1762424996463,7,0.03298212215304375,-0.28049635887145996,-0.21975718438625336,-0.9337776899337769,2.0253000259399414,0.5200065970420837,0.8976473212242126,5.527256011962891,4.161733627319336,7.222710609436035,-0.0025274520739912987,0.046673886477947235,-0.07757600396871567,-9.878288269042969,-41.402740478515625,-1.8777580261230469,-0.009839534759521484,0.0039997100830078125,-0.31960535049438477,5.537095546722412,4.157733917236328,7.54231595993042
7_20251106_183029,1762424996483,7,0.03217916935682297,-0.2801436483860016,-0.22012725472450256,-0.9338244199752808,2.0226383209228516,0.5170605182647705,0.900486171245575,5.486556053161621,4.110260486602783,7.2490458488464355,-0.040401067584753036,0.021628430113196373,-0.09529107809066772,-9.905282020568848,-41.45428466796875,-1.9068269729614258,-0.04043149948120117,-0.0379786491394043,-0.23461627960205078,5.526987552642822,4.1482391357421875,7.483662128448486
7_20251106_183029,1762424996503,7,0.03093765117228031,-0.28018006682395935,-0.22037944197654724,-0.9337959885597229,2.020266056060791,0.5144657492637634,0.9024830460548401,5.487753391265869,4.117442607879639,7.308897972106934,-0.07094429433345795,0.015519781038165092,-0.11361702531576157,-9.905282020568848,-41.45428466796875,-1.9068269729614258,-0.0313878059387207,-0.024637222290039062,-0.13981151580810547,5.51914119720459,4.142079830169678,7.448709487915039
7_20251106_183029,1762424996521,7,0.029430879279971123,-0.2801937460899353,-0.22030624747276306,-0.9338578581809998,2.017778158187866,0.5119965076446533,0.9044894576072693,5.479373931884766,4.190462589263916,7.450150012969971,-0.10087667405605316,0.013076323084533215,-0.14599286019802094,-9.882122039794922,-41.4775390625,-1.9334068298339844,-0.0318140983581543,0.038706302642822266,0.0011525154113769531,5.51118803024292,4.151756286621094,7.448997497558594
7_20251106_183029,1762424996540,7,0.02759837917983532,-0.28012439608573914,-0.22003015875816345,-0.9339996576309204,2.017778158187866,0.5119965076446533,0.9044894576072693,5.479373931884766,4.190462589263916,7.450150012969971,-0.12592212855815887,0.02223929390311241,-0.2034141570329666,-9.849187850952148,-41.53807830810547,-1.91973876953125,-0.0318140983581543,0.038706302642822266,0.0011525154113769531,5.51118803024292,4.151756286621094,7.448997497558594
7_20251106_183029,1762424996558,7,0.025286322459578514,-0.27971744537353516,-0.21971780061721802,-0.9342606067657471,2.014934778213501,0.5095174908638,0.9069932103157043,5.442265510559082,4.185674667358398,7.567461013793945,-0.14608065783977509,0.03934350609779358,-0.26388970017433167,-9.861485481262207,-41.550621032714844,-2.0015907287597656,-0.05513763427734375,0.027134418487548828,0.09477090835571289,5.497403144836426,4.15854024887085,7.472690105438232
7_20251106_183029,1762424996579,7,0.0225667767226696,-0.27890098094940186,-0.2193371206521988,-0.934663712978363,2.0121917724609375,0.5073199272155762,0.9104069471359253,5.388398170471191,4.1342010498046875,7.93256139755249,-0.14608065783977509,0.03934350609779358,-0.26388970017433167,-9.71657657623291,-41.57768249511719,-2.1046276092529297,-0.0872039794921875,-0.019471168518066406,0.36789703369140625,5.475602149963379,4.153672218322754,7.564664363861084
7_20251106_183029,1762424996598,7,0.020198699086904526,-0.2777175307273865,-0.21907390654087067,-0.935131847858429,2.004476547241211,0.5025539994239807,0.9194934368133545,5.036465644836426,4.1545515060424805,7.841585159301758,-0.09660062193870544,0.04545215517282486,-0.2522833049297333,-9.583940505981445,-41.59406280517578,-2.0997610092163086,-0.3032646179199219,0.022205352783203125,0.1571187973022461,5.339730262756348,4.132346153259277,7.684466361999512
7_20251106_183029,1762424996615,7,0.019013257697224617,-0.27699583768844604,-0.21924655139446259,-0.9353302717208862,2.000241994857788,0.500796377658844,0.9236302971839905,5.069983005523682,4.2144036293029785,7.750609397888184,-0.011079558171331882,-0.021742966026067734,-0.1582101583480835,-9.42583179473877,-41.59575653076172,-2.147714614868164,-0.21579790115356445,0.06564617156982422,0.05291461944580078,5.285780906677246,4.148757457733154,7.697694778442383
7_20251106_183029,1762424996635,7,0.018571846187114716,-0.2765822410583496,-0.2198440283536911,-0.9353213310241699,1.9949151277542114,0.49906793236732483,0.9276905655860901,5.090332984924316,4.22637414932251,7.512396812438965,0.023128867149353027,-0.03518199175596237,-0.04397844150662422,-9.259258270263672,-41.65971374511719,-2.169464111328125,-0.1563582420349121,0.062093257904052734,-0.1482381820678711,5.2466912269592285,4.164280891418457,7.660634994506836
7_20251106_183029,1762424996654,7,0.018293702974915504,-0.27624887228012085,-0.22040025889873505,-0.9352943897247314,1.9896557331085205,0.4977046251296997,0.9309548139572144,5.081954002380371,4.235950469970703,7.5147905349731445,-0.021464258432388306,-0.004638753831386566,-0.039702385663986206,-9.149979591369629,-41.653106689453125,-2.1109848022460938,-0.1317896842956543,0.057335853576660156,-0.11667537689208984,5.213743686676025,4.178614616394043,7.631465911865234
7_20251106_183029,1762424996673,7,0.017840232700109482,-0.2759312093257904,-0.2206505686044693,-0.9353379011154175,1.9896557331085205,0.4977046251296997,0.9309548139572144,5.081954002380371,4.235950469970703,7.5147905349731445,-0.06911170482635498,0.05461512506008148,-0.0348154716193676,-9.041813850402832,-41.67121124267578,-2.0935821533203125,-0.1317896842956543,0.057335853576660156,-0.11667537689208984,5.213743686676025,4.178614616394043,7.631465911865234
7_20251106_183029,1762424996693,7,0.01749282330274582,-0.27510106563568115,-0.22048839926719666,-0.9356272220611572,1.978519082069397,0.49506068229675293,0.9364795684814453,5.0759687423706055,4.1353983879089355,7.398676872253418,-0.05506181716918945,0.07477366179227829,-0.01893298700451851,-8.930136680603027,-41.63813781738281,-2.1697378158569336,-0.0872182846069336,-0.036660194396972656,-0.1848006248474121,5.163187026977539,4.172058582305908,7.58347749710083
7_20251106_183029,1762424996711,7,0.017407819628715515,-0.27405765652656555,-0.22028666734695435,-0.9359824657440186,1.978519082069397,0.49506068229675293,0.9364795684814453,5.0759687423706055,4.1353983879089355,7.398676872253418,-0.05506181716918945,0.07477366179227829,-0.01893298700451851,-8.733057975769043,-41.59937286376953,-2.255976676940918,-0.0872182846069336,-0.036660194396972656,-0.1848006248474121,5.163187026977539,4.172058582305908,7.58347749710083
7_20251106_183029,1762424996730,7,0.017349742352962494,-0.2737797498703003,-0.21999575197696686,-0.9361332654953003,1.9689197540283203,0.49249380826950073,0.9402256608009338,5.283058166503906,4.188068389892578,7.6416778564453125,-0.04040106385946274,-0.0260190200060606,0.05925769731402397,-8.706979751586914,-41.572265625,-2.295016288757324,0.09682750701904297,0.019630908966064453,0.0629129409790039,5.186230659484863,4.168437480926514,7.578764915466309
7_20251106_183029,1762424996750,7,0.017573853954672813,-0.2741079330444336,-0.21966727077960968,-0.9361101984977722,1.9646401405334473,0.49184736609458923,0.9425179362297058,5.301013946533203,4.366428852081299,7.682377815246582,-0.012301287613809109,-0.05472966283559799,0.06597720831632614,-8.655020713806152,-41.51831817626953,-2.3460636138916016,0.0918269157409668,0.15839338302612305,0.08289051055908203,5.209187030792236,4.208035469055176,7.5994873046875
7_20251106_183029,1762424996769,7,0.01793905347585678,-0.27469301223754883,-0.21955814957618713,-0.9359573721885681,1.9610986709594727,0.4918561577796936,0.9451524019241333,5.3261518478393555,4.423887252807617,7.805673599243164,-0.012301287613809109,-0.05472966283559799,0.06597720831632614,-8.62984561920166,-41.50403594970703,-2.358335494995117,0.09357166290283203,0.17268133163452148,0.1649494171142578,5.232580184936523,4.251205921173096,7.640724182128906
7_20251106_183029,1762424996789,7,0.018084775656461716,-0.27514076232910156,-0.2195786088705063,-0.9358181953430176,1.9610986709594727,0.4918561577796936,0.9451524019241333,5.3261518478393555,4.423887252807617,7.805673599243164,-0.04895317181944847,-0.007082211785018444,3.8174912333488464e-06,-8.618067741394043,-41.51539611816406,-2.39865779876709,0.09357166290283203,0.17268133163452148,0.1649494171142578,5.232580184936523,4.251205921173096,7.640724182128906
7_20251106_183029,1762424996807,7,0.01784338429570198,-0.27501195669174194,-0.21955373883247375,-0.9358665347099304,1.9577699899673462,0.4924521744251251,0.9485356211662292,5.348896026611328,4.426281452178955,7.824826717376709,-0.05322922393679619,0.02223929390311241,-0.04764363169670105,-8.592706680297852,-41.51245880126953,-2.532839775085449,0.09305286407470703,0.1400604248046875,0.14728212356567383,5.255843162536621,4.286221027374268,7.677544593811035
7_20251106_183029,1762424996826,7,0.017197994515299797,-0.27456578612327576,-0.21957944333553314,-0.936003565788269,1.9533054828643799,0.49371689558029175,0.9550657272338867,5.354881286621094,4.3089704513549805,7.798491477966309,-0.012912152335047722,0.021628430113196373,-0.0757434070110321,-8.628177642822266,-41.51335906982422,-2.682990074157715,0.057446956634521484,0.007856369018554688,0.0632328987121582,5.297434329986572,4.301114082336426,7.73525857925415
7_20251106_183029,1762424996846,7,0.01643369346857071,-0.2741111218929291,-0.2198578119277954,-0.9360852241516113,1.951041340827942,0.4943433403968811,0.9580478072166443,5.235176086425781,4.299394130706787,7.621328353881836,0.023739732801914215,0.0014698933809995651,-0.08063032478094101,-8.615694999694824,-41.51216125488281,-2.723048210144043,-0.04980659484863281,-0.0013756752014160156,-0.09114456176757812,5.284982681274414,4.300769805908203,7.712472915649414
7_20251106_183029,1762424996865,7,0.015705375000834465,-0.27386194467544556,-0.220460444688797,-0.9360289573669434,1.9484256505966187,0.49488189816474915,0.9604834914207458,5.169338226318359,4.271862030029297,7.5327467918396,-0.0013057226315140724,0.008800270035862923,-0.07513254135847092,-8.640166282653809,-41.513885498046875,-2.710513114929199,-0.09251594543457031,-0.02312612533569336,-0.14378118515014648,5.26185417175293,4.29498815536499,7.676527976989746
7_20251106_183029,1762424996883,7,0.014924133196473122,-0.27356693148612976,-0.22091814875602722,-0.9360200762748718,1.9458788633346558,0.4952765107154846,0.9620950818061829,5.063997745513916,4.2766499519348145,7.5147905349731445,-0.018409933894872665,-0.007693077437579632,-0.05863919109106064,-8.554369926452637,-41.507652282714844,-2.774661064147949,-0.15828561782836914,-0.014670372009277344,-0.12938976287841797,5.222283363342285,4.291320323944092,7.6441802978515625
7_20251106_183029,1762424996903,7,0.01423738431185484,-0.27344658970832825,-0.22120608389377594,-0.9359979033470154,1.9418340921401978,0.4959632456302643,0.9637532830238342,4.907184600830078,4.358049392700195,7.574643135070801,-0.0006948579102754593,-0.00341702438890934,-0.027485094964504242,-8.530096054077148,-41.506195068359375,-2.760164260864258,-0.2520790100097656,0.05338335037231445,-0.055629730224609375,5.159263610839844,4.304666042327881,7.63027286529541
7_20251106_183029,1762424996922,7,0.013820663094520569,-0.2732388973236084,-0.22158333659172058,-0.9359756112098694,1.9418340921401978,0.4959632456302643,0.9637532830238342,4.907184600830078,4.358049392700195,7.574643135070801,0.017020218074321747,0.04545215517282486,0.028103593736886978,-8.530096054077148,-41.506195068359375,-2.760164260864258,-0.2520790100097656,0.05338335037231445,-0.055629730224609375,5.159263610839844,4.304666042327881,7.63027286529541
7_20251106_183029,1762424996940,7,0.014291606843471527,-0.27237772941589355,-0.22215433418750763,-0.9360841512680054,1.933414101600647,0.49698004126548767,0.9644312262535095,5.0436482429504395,4.296999931335449,7.3603715896606445,0.006635517813265324,0.030791400000452995,0.12645280361175537,-8.454977035522461,-41.475502014160156,-2.8377914428710938,-0.04583930969238281,-0.0033740997314453125,-0.17101287841796875,5.089487552642822,4.3003740310668945,7.531384468078613
7_20251106_183029,1762424996964,7,0.015355000272393227,-0.2720614969730377,-0.2223639190196991,-0.9361095428466797,1.9297338724136353,0.4984210133552551,0.9645094871520996,5.420718669891357,4.492118835449219,7.535140514373779,0.00113773625344038,-0.004638753831386566,0.2125847190618515,-8.479856491088867,-41.4893798828125,-2.8660688400268555,0.2649850845336914,0.1533956527709961,0.0030045509338378906,5.155733585357666,4.338723182678223,7.532135963439941
7_20251106_183029,1762424996979,7,0.017119504511356354,-0.2724537253379822,-0.22229111194610596,-0.9359821081161499,1.928552508354187,0.4998745918273926,0.9648619890213013,5.742724895477295,4.688435077667236,7.71110725402832,0.007246383465826511,-0.01624518260359764,0.20830868184566498,-8.5031156539917,-41.46625518798828,-2.825972557067871,0.4695930480957031,0.2797694206237793,0.14317703247070312,5.273131847381592,4.408665657043457,7.567930221557617
7_20251106_183029,1762424996999,7,0.01868986338376999,-0.273267537355423,-0.2223459780216217,-0.9357017874717712,1.9294517040252686,0.5022132992744446,0.9667481184005737,6.061140060424805,4.57232141494751,8.041492462158203,-0.01046869345009327,-0.004027889110147953,0.12828540802001953,-8.478137016296387,-41.452239990234375,-2.811211585998535,0.6304068565368652,0.13092470169067383,0.37884998321533203,5.4307332038879395,4.441396713256836,7.662642478942871
7_20251106_183029,1762424997018,7,0.01931750774383545,-0.2740730047225952,-0.22249415516853333,-0.9354181885719299,1.9324098825454712,0.5049130916595459,0.9699955582618713,6.213165283203125,4.65611457824707,8.225837707519531,-0.030627228319644928,-0.03579285740852356,0.044596944004297256,-8.491324424743652,-41.46599578857422,-2.7714176177978516,0.6259455680847168,0.17177438735961914,0.45055627822875977,5.587219715118408,4.484340190887451,7.7752814292907715
7_20251106_183029,1762424997036,7,0.0191413015127182,-0.27515915036201477,-0.22222405672073364,-0.935167133808136,1.9362480640411377,0.507839560508728,0.9745641946792603,6.064731597900391,4.686040878295898,8.443700790405273,0.020074542611837387,-0.08221857249736786,-0.0708564892411232,-8.55174732208252,-41.457679748535156,-2.7465734481811523,0.38200950622558594,0.1613607406616211,0.5347356796264648,5.682722091674805,4.524680137634277,7.908965110778809
7_20251106_183029,1762424997056,7,0.018076468259096146,-0.27637991309165955,-0.22268742322921753,-0.9347179532051086,1.9399833679199219,0.5102764964103699,0.9797894954681396,5.578729629516602,4.31016731262207,8.041492462158203,0.13980402052402496,-0.05045360326766968,-0.1893642544746399,-8.662014961242676,-41.46563720703125,-2.669889450073242,-0.08319425582885742,-0.17161035537719727,0.10602188110351562,5.661923885345459,4.481777667999268,7.9354705810546875
7_20251106_183029,1762424997075,7,0.01654156483709812,-0.2766014039516449,-0.22444508969783783,-0.934260368347168,1.9417139291763306,0.5108588337898254,0.9829899072647095,5.063998222351074,3.89239764213562,7.383115291595459,0.19233839213848114,-0.023575559258461,-0.20585760474205017,-8.688698768615723,-41.505165100097656,-2.64462947845459,-0.47834062576293945,-0.47150397300720215,-0.44188451766967773,5.542338848114014,4.363901615142822,7.824999809265137
7_20251106_183029,1762424997094,7,0.015217549167573452,-0.2762853503227234,-0.22648634016513824,-0.9338837265968323,1.9413527250289917,0.509947657585144,0.9837308526039124,4.811420440673828,3.830151081085205,6.986891746520996,0.12636499106884003,-0.0260190200060606,-0.11728221923112869,-8.765029907226562,-41.560699462890625,-2.594562530517578,-0.5847349166870117,-0.4270005226135254,-0.6704864501953125,5.39615535736084,4.2571516036987305,7.657378196716309
7_20251106_183029,1762424997113,7,0.014571215026080608,-0.27612820267677307,-0.2276165783405304,-0.9336656928062439,1.9413527250289917,0.509947657585144,0.9837308526039124,4.811420440673828,3.830151081085205,6.986891746520996,0.04756345599889755,-0.06877955049276352,-0.017711259424686432,-8.76200008392334,-41.49858856201172,-2.5256614685058594,-0.5847349166870117,-0.4270005226135254,-0.6704864501953125,5.39615535736084,4.2571516036987305,7.657378196716309
7_20251106_183029,1762424997132,7,0.014393025077879429,-0.2765789330005646,-0.22797834873199463,-0.9334467649459839,1.9371068477630615,0.5066653490066528,0.9815793037414551,4.961051940917969,4.192856788635254,7.2490458488464355,0.04206567257642746,-0.07916424423456192,0.025660134851932526,-8.738826751708984,-41.510231018066406,-2.4573631286621094,-0.270230770111084,-0.006865501403808594,-0.24830913543701172,5.231282711029053,4.1997222900390625,7.497354984283447
7_20251106_183029,1762424997151,7,0.014642291702330112,-0.2771216332912445,-0.22827434539794922,-0.9332095384597778,1.9339960813522339,0.5054037570953369,0.9797433018684387,4.9766130447387695,4.296999931335449,7.3412184715271,0.01885281130671501,-0.047399282455444336,0.02443840727210045,-8.691479682922363,-41.52055358886719,-2.361051559448242,-0.2037358283996582,0.07782220840454102,-0.1249094009399414,5.180348873138428,4.219177722930908,7.466127872467041
7_20251106_183029,1762424997171,7,0.014840269461274147,-0.2773195207118988,-0.22860275208950043,-0.9330672025680542,1.9306262731552124,0.5044733881950378,0.9780043363571167,5.095121383666992,4.328123092651367,7.498032093048096,0.01885281130671501,-0.047399282455444336,0.02443840727210045,-8.6679105758667,-41.531654357910156,-2.346817970275879,-0.06818199157714844,0.08715629577636719,0.025523662567138672,5.163303375244141,4.240966796875,7.472508430480957
7_20251106_183029,1762424997190,7,0.014782410115003586,-0.2769606113433838,-0.22861410677433014,-0.9331719279289246,1.9279838800430298,0.5039367079734802,0.9771021008491516,5.260313987731934,4.346078872680664,7.709909439086914,-0.037346743047237396,0.006967675872147083,-0.019543852657079697,-8.558842658996582,-41.53692626953125,-2.3561840057373047,0.07760810852050781,0.08408975601196289,0.18992090225219727,5.182705879211426,4.261989116668701,7.519988536834717
7_20251106_183029,1762424997209,7,0.014505081810057163,-0.276568204164505,-0.22853778302669525,-0.9333113431930542,1.9256235361099243,0.5038078427314758,0.9771491885185242,5.323757648468018,4.40593147277832,7.8487677574157715,-0.024518582969903946,-0.0015844302251935005,-0.05497400462627411,-8.47513484954834,-41.545135498046875,-2.231368064880371,0.11284112930297852,0.11515378952026367,0.26302385330200195,5.210916519165039,4.290777683258057,7.5857439041137695
7_20251106_183029,1762424997229,7,0.013902762904763222,-0.2762519121170044,-0.22849580645561218,-0.9334244728088379,1.9256235361099243,0.5038078427314758,0.9771491885185242,5.323757648468018,4.40593147277832,7.8487677574157715,-0.024518582969903946,-0.0015844302251935005,-0.05497400462627411,-8.475431442260742,-41.54553985595703,-2.1908187866210938,0.11284112930297852,0.11515378952026367,0.26302385330200195,5.210916519165039,4.290777683258057,7.5857439041137695
7_20251106_183029,1762424997246,7,0.012912396341562271,-0.2758305072784424,-0.2287205457687378,-0.9335082769393921,1.923659324645996,0.5039328336715698,0.978149950504303,5.327348709106445,4.366428852081299,7.870314598083496,-0.0006948579102754593,0.000859028659760952,-0.183866485953331,-8.461723327636719,-41.50788116455078,-2.108438491821289,0.09314584732055664,0.06052112579345703,0.22765636444091797,5.234202861785889,4.305907726287842,7.642658233642578
7_20251106_183029,1762424997266,7,0.011429853737354279,-0.27517545223236084,-0.2291446179151535,-0.9336169362068176,1.9218382835388184,0.5039478540420532,0.9790390729904175,5.144200325012207,4.270665168762207,7.6728010177612305,-0.028183769434690475,0.04606302082538605,-0.2449529618024826,-8.414995193481445,-41.542236328125,-2.1207847595214844,-0.07200193405151367,-0.028193950653076172,0.024114131927490234,5.216202259063721,4.298859119415283,7.64868688583374
7_20251106_183029,1762424997285,7,0.00940429326146841,-0.2739792466163635,-0.22947736084461212,-0.9339095950126648,1.9160553216934204,0.5022692680358887,0.9792948365211487,4.740794658660889,3.940279483795166,7.344809532165527,-0.08010727167129517,0.09004528075456619,-0.27977219223976135,-8.356884002685547,-41.58849334716797,-2.1193885803222656,-0.3333725929260254,-0.2551555633544922,-0.21803903579711914,5.074167251586914,4.195435047149658,7.5628485679626465
7_20251106_183029,1762424997303,7,0.007051093969494104,-0.2722713351249695,-0.22934408485889435,-0.9344623684883118,1.9114887714385986,0.5001676678657532,0.9785041213035583,4.62946891784668,3.874441623687744,7.354386329650879,-0.11370483040809631,0.09737565368413925,-0.26938751339912415,-8.273103713989258,-41.61979675292969,-2.197845458984375,-0.3557586669921875,-0.25679445266723633,-0.16676998138427734,4.985227584838867,4.1312360763549805,7.521156311035156
7_20251106_183029,1762424997322,7,0.0047923000529408455,-0.2704860270023346,-0.22880303859710693,-0.9351275563240051,1.9060299396514893,0.4975815415382385,0.9778537154197693,4.576798439025879,3.9163384437561035,7.557884693145752,-0.13875029981136322,0.0741627886891365,-0.21379885077476501,-8.152652740478516,-41.63697052001953,-2.1934690475463867,-0.32674312591552734,-0.17191791534423828,0.02938222885131836,4.903541564941406,4.088256359100342,7.528502464294434
7_20251106_183029,1762424997342,7,0.0026485049165785313,-0.2693164348602295,-0.22804909944534302,-0.9356576800346375,1.8994213342666626,0.49460744857788086,0.9777402281761169,4.525325775146484,3.960629463195801,7.7051215171813965,-0.13203077018260956,0.09554306417703629,-0.14110593497753143,-7.998970985412598,-41.714271545410156,-2.2159738540649414,-0.30257272720336914,-0.10210132598876953,0.1412954330444336,4.8278985023498535,4.06273078918457,7.563826084136963
7_20251106_183029,1762424997362,7,0.0012844152515754104,-0.26806706190109253,-0.22717948257923126,-0.9362306594848633,1.8926199674606323,0.49176278710365295,0.9782984852790833,4.65580415725708,4.056393146514893,7.78292989730835,-0.13203077018260956,0.09554306417703629,-0.14110593497753143,-7.998970985412598,-41.714271545410156,-2.2159738540649414,-0.13767528533935547,-0.005070209503173828,0.17528295516967773,4.7934794425964355,4.061463356018066,7.607646942138672
