session_id,timestamp,label,quaternion_w,quaternion_x,quaternion_y,quaternion_z,position_x,position_y,position_z,accelerometer_x,accelerometer_y,accelerometer_z,gyroscope_x,gyroscope_y,gyroscope_z,magnetometer_x,magnetometer_y,magnetometer_z,linear_acceleration_x,linear_acceleration_y,linear_acceleration_z,gravity_x,gravity_y,gravity_z
1_20251106_212721,1762435604753,1,0.41681647300720215,0.5256533026695251,0.6619582176208496,0.3343111276626587,0.06960828602313995,2.6772408485412598,1.0283418893814087,-1.6466608047485352,8.874517440795898,-4.539496421813965,0.047792524099349976,0.21071015298366547,0.2608201801776886,39.38434600830078,-10.517520904541016,10.688796997070312,0.23512935638427734,0.9462661743164062,-0.43398618698120117,-1.8817901611328125,7.928251266479492,-4.105510234832764
1_20251106_212721,1762435604772,1,0.41435351967811584,0.5268807411193848,0.661611795425415,0.336121529340744,0.053653277456760406,2.686527967453003,0.970976710319519,-1.3845070600509644,9.028936386108398,-4.607728004455566,0.0044211335480213165,0.23086869716644287,0.2559332251548767,39.203712463378906,-10.669864654541016,10.989900588989258,0.3978264331817627,0.8805475234985352,-0.40177392959594727,-1.782333493232727,8.148388862609863,-4.205954074859619
1_20251106_212721,1762435604791,1,0.41187894344329834,0.5276097655296326,0.6614113450050354,0.3384060859680176,0.038658104836940765,2.6994845867156982,0.9095706939697266,-1.1750234365463257,9.185749053955078,-4.486826419830322,0.0044211335480213165,0.23086869716644287,0.2559332251548767,39.05903625488281,-10.83224868774414,11.278696060180664,0.485848069190979,0.8298883438110352,-0.22469806671142578,-1.6608715057373047,8.355860710144043,-4.2621283531188965
1_20251106_212721,1762435604810,1,0.40980446338653564,0.5279268026351929,0.6611576080322266,0.34091663360595703,0.026628712192177773,2.7132577896118164,0.8543924689292908,-1.1127769947052002,9.113926887512207,-4.174396514892578,-0.06949349492788315,0.17405827343463898,0.18507292866706848,38.98675537109375,-11.014041900634766,11.47529411315918,0.4384756088256836,0.6064529418945312,0.07018566131591797,-1.5512526035308838,8.507473945617676,-4.244582176208496
1_20251106_212721,1762435604830,1,0.40820714831352234,0.528049886226654,0.6608525514602661,0.3432261049747467,0.016074206680059433,2.7284340858459473,0.8002937436103821,-1.0660918951034546,8.969083786010742,-3.889498233795166,-0.040782853960990906,0.13313032686710358,0.1588057279586792,38.88990020751953,-11.197696685791016,11.697942733764648,0.38812851905822754,0.36928749084472656,0.28406715393066406,-1.4542204141616821,8.599796295166016,-4.17356538772583
1_20251106_212721,1762435604850,1,0.4068547189235687,0.5282505750656128,0.6605692505836487,0.3450634777545929,0.0070381080731749535,2.7438905239105225,0.7506586909294128,-1.1283384561538696,8.94155216217041,-3.5950241088867188,-0.031009020283818245,0.1416824460029602,0.11665607988834381,38.83735656738281,-11.465396881103516,11.853124618530273,0.2607055902481079,0.2734050750732422,0.4628329277038574,-1.3890440464019775,8.668147087097168,-4.057857036590576
1_20251106_212721,1762435604867,1,0.4055369794368744,0.5281168818473816,0.6605899333953857,0.3467755615711212,0.00015106145292520523,2.7571167945861816,0.71194988489151,-1.202555537223816,9.007390022277832,-3.433422565460205,0.011751512065529823,0.20276890695095062,0.08244764804840088,38.75377655029297,-11.646770477294922,11.927583694458008,0.1491907835006714,0.2713937759399414,0.49954748153686523,-1.3517463207244873,8.73599624633789,-3.9329700469970703
1_20251106_212721,1762435604886,1,0.4038143754005432,0.5277528762817383,0.6610936522483826,0.3483763635158539,0.00015106145292520523,2.7571167945861816,0.71194988489151,-1.202555537223816,9.007390022277832,-3.433422565460205,0.12170715630054474,0.213764488697052,0.07328467816114426,38.67323303222656,-11.766033172607422,12.070943832397461,0.1491907835006714,0.2713937759399414,0.49954748153686523,-1.3517463207244873,8.73599624633789,-3.9329700469970703
1_20251106_212721,1762435604906,1,0.40153494477272034,0.527678370475769,0.6620430946350098,0.34931957721710205,-0.011861227452754974,2.787872314453125,0.6329123973846436,-0.9152637124061584,9.030134201049805,-3.6812117099761963,0.23777146637439728,0.22231657803058624,0.06839776039123535,38.59007263183594,-11.923641204833984,12.281095504760742,0.30405598878860474,0.18173694610595703,0.1224367618560791,-1.2193197011947632,8.848397254943848,-3.8036484718322754
1_20251106_212721,1762435604925,1,0.398586243391037,0.5279228091239929,0.6634719967842102,0.34961605072021484,-0.011861227452754974,2.787872314453125,0.6329123973846436,-0.9152637124061584,9.030134201049805,-3.6812117099761963,0.3086317777633667,0.18688642978668213,0.05190441384911537,38.582740783691406,-12.038005828857422,12.413881301879883,0.30405598878860474,0.18173694610595703,0.1224367618560791,-1.2193197011947632,8.848397254943848,-3.8036484718322754
1_20251106_212721,1762435604944,1,0.3955187499523163,0.5284915566444397,0.6650738716125488,0.34919679164886475,-0.018229089677333832,2.813995361328125,0.5637364387512207,-0.8147115707397461,8.57765007019043,-4.268962860107422,0.3086317777633667,0.18688642978668213,0.05190441384911537,38.56523895263672,-12.11562728881836,12.560487747192383,0.2589491605758667,-0.2100505828857422,-0.3447256088256836,-1.0736607313156128,8.787700653076172,-3.9242372512817383
1_20251106_212721,1762435604963,1,0.39275774359703064,0.529157817363739,0.6665666699409485,0.34845688939094543,-0.018229089677333832,2.813995361328125,0.5637364387512207,-0.8147115707397461,8.57765007019043,-4.268962860107422,0.3037448525428772,0.15084540843963623,0.03296760469675064,38.46587371826172,-12.12454605102539,12.813371658325195,0.2589491605758667,-0.2100505828857422,-0.3447256088256836,-1.0736607313156128,8.787700653076172,-3.9242372512817383
1_20251106_212721,1762435604981,1,0.39084896445274353,0.5294475555419922,0.6676973700523376,0.3479979336261749,-0.02163996547460556,2.835298776626587,0.49321141839027405,-0.9368105530738831,8.560890197753906,-4.659201622009277,0.03679696470499039,0.06715694069862366,-0.01956675946712494,38.45179748535156,-12.139514923095703,12.974813461303711,0.0705382227897644,-0.1306018829345703,-0.4847421646118164,-1.0073487758636475,8.691492080688477,-4.174459457397461
1_20251106_212721,1762435605001,1,0.3900250494480133,0.5290369391441345,0.668365478515625,0.348264217376709,-0.0234100129455328,2.8449654579162598,0.4587996304035187,-1.1211562156677246,8.712915420532227,-4.581392765045166,-0.06338485330343246,0.04150062054395676,-0.03850356861948967,38.381526947021484,-12.07082748413086,13.162683486938477,-0.09104597568511963,0.01713848114013672,-0.3255467414855957,-1.030110239982605,8.69577693939209,-4.25584602355957
1_20251106_212721,1762435605020,1,0.38998135924339294,0.5282894968986511,0.6686487197875977,0.34890350699424744,-0.0234100129455328,2.8449654579162598,0.4587996304035187,-1.1211562156677246,8.712915420532227,-4.581392765045166,-0.06338485330343246,0.04150062054395676,-0.03850356861948967,38.29656219482422,-12.041141510009766,13.40333366394043,-0.09104597568511963,0.01713848114013672,-0.3255467414855957,-1.030110239982605,8.69577693939209,-4.25584602355957
1_20251106_212721,1762435605040,1,0.38996851444244385,0.5276610851287842,0.6689320802688599,0.34932535886764526,-0.028767382726073265,2.864422082901001,0.388514906167984,-1.2683932781219482,8.706930160522461,-4.643640041351318,0.015416698530316353,-0.0024816379882395267,-0.028118867427110672,38.28197479248047,-12.06839370727539,13.537477493286133,-0.15594863891601562,-0.005120277404785156,-0.25584936141967773,-1.1124446392059326,8.712050437927246,-4.387790679931641
1_20251106_212721,1762435605061,1,0.3898136615753174,0.5273302793502808,0.6693020462989807,0.3492891490459442,-0.032272085547447205,2.872757911682129,0.35666313767433167,-1.4347831010818481,8.643486022949219,-4.600545883178711,0.01908188872039318,0.007903061807155609,-0.03972529619932175,38.260128021240234,-12.020160675048828,13.578100204467773,-0.25787079334259033,-0.054851531982421875,-0.17020416259765625,-1.1769123077392578,8.69833755493164,-4.430341720581055
1_20251106_212721,1762435605079,1,0.38964149355888367,0.5269755125045776,0.6697365641593933,0.34918367862701416,-0.036844559013843536,2.8806066513061523,0.32473427057266235,-1.5281529426574707,8.53814697265625,-4.455702781677246,-0.0071852970868349075,0.031115921214222908,-0.055607784539461136,38.202327728271484,-11.96188735961914,13.631032943725586,-0.2809925079345703,-0.12815284729003906,-0.020288944244384766,-1.2471604347229004,8.666299819946289,-4.435413837432861
1_20251106_212721,1762435605096,1,0.38954418897628784,0.5263441205024719,0.6702451109886169,0.3492687940597534,-0.04122499004006386,2.8868417739868164,0.29934096336364746,-1.5604732036590576,8.619545936584473,-4.258190155029297,-0.0071852970868349075,0.031115921214222908,-0.055607784539461136,38.202327728271484,-11.96188735961914,13.631032943725586,-0.25065016746520996,-0.037403106689453125,0.14177894592285156,-1.3098230361938477,8.656949043273926,-4.399969100952148
1_20251106_212721,1762435605116,1,0.3894556164741516,0.5253968238830566,0.6708522439002991,0.3496279716491699,-0.047086529433727264,2.8938350677490234,0.27185702323913574,-1.6275080442428589,8.665033340454102,-4.10496711730957,-0.04505891352891922,0.0854828804731369,-0.07087939232587814,38.15369415283203,-11.953311920166016,13.710432052612305,-0.254148006439209,0.006466865539550781,0.23600149154663086,-1.37336003780365,8.65856647491455,-4.340968608856201
1_20251106_212721,1762435605135,1,0.3892633616924286,0.5242108106613159,0.6715663075447083,0.3502509891986847,-0.05288007855415344,2.9002890586853027,0.24799911677837372,-1.5568821430206299,8.710521697998047,-3.9960360527038574,-0.015126538462936878,0.09525671601295471,-0.03606010973453522,38.16496658325195,-11.97695541381836,13.642812728881836,-0.14681768417358398,0.041563987731933594,0.27594614028930664,-1.410064458847046,8.668957710266113,-4.271982192993164
1_20251106_212721,1762435605155,1,0.38880231976509094,0.5233585834503174,0.6721886992454529,0.3508431613445282,-0.058690547943115234,2.907069683074951,0.22437237203121185,-1.4156303405761719,8.776359558105469,-4.195943355560303,0.027023127302527428,0.07570904493331909,0.01647425815463066,38.12660217285156,-12.004993438720703,13.694879531860352,-0.004452705383300781,0.0859212875366211,0.06083106994628906,-1.411177635192871,8.690438270568848,-4.256774425506592
1_20251106_212721,1762435605174,1,0.38805532455444336,0.5230002403259277,0.6726472973823547,0.35132530331611633,-0.06357230991125107,2.91349720954895,0.20261840522289276,-1.2791666984558105,8.802694320678711,-4.413806438446045,0.037407830357551575,0.04760926961898804,0.0555696003139019,38.11402130126953,-12.006328582763672,13.748453140258789,0.10560870170593262,0.08980464935302734,-0.1256256103515625,-1.3847754001617432,8.712889671325684,-4.288180828094482
1_20251106_212721,1762435605192,1,0.38733723759651184,0.5228274464607239,0.6727544069290161,0.3521687388420105,-0.06357230991125107,2.91349720954895,0.20261840522289276,-1.2791666984558105,8.802694320678711,-4.413806438446045,0.022136209532618523,0.024396410211920738,0.05923478677868843,38.16096496582031,-12.028804779052734,13.803953170776367,0.10560870170593262,0.08980464935302734,-0.1256256103515625,-1.3847754001617432,8.712889671325684,-4.288180828094482
1_20251106_212721,1762435605212,1,0.3867054581642151,0.5232709050178528,0.6724793910980225,0.3527292311191559,-0.07149489223957062,2.9259603023529053,0.16091565787792206,-1.2504374980926514,8.732068061828613,-4.42338228225708,0.005642862059175968,0.010346520692110062,0.031745877116918564,38.13962173461914,-11.968280792236328,13.87187385559082,0.08252882957458496,1.71661376953125e-05,-0.0765695571899414,-1.3329663276672363,8.732050895690918,-4.346812725067139
1_20251106_212721,1762435605231,1,0.3861430287361145,0.5234119892120361,0.6723945736885071,0.35329726338386536,-0.0745597556233406,2.9318783283233643,0.1412770301103592,-1.1654471158981323,8.78952693939209,-4.432959079742432,0.005642862059175968,0.010346520692110062,0.031745877116918564,38.117576599121094,-11.92031478881836,13.939531326293945,0.13401544094085693,0.04598045349121094,-0.06891727447509766,-1.2994625568389893,8.743546485900879,-4.364041805267334
1_20251106_212721,1762435605253,1,0.38576462864875793,0.5231984257698059,0.6725237965583801,0.3537807762622833,-0.0745597556233406,2.9318783283233643,0.1412770301103592,-1.1654471158981323,8.78952693939209,-4.432959079742432,-0.01634826883673668,0.009735655970871449,-0.055607784539461136,38.130279541015625,-11.895618438720703,14.062196731567383,0.13401544094085693,0.04598045349121094,-0.06891727447509766,-1.2994625568389893,8.743546485900879,-4.364041805267334
1_20251106_212721,1762435605270,1,0.38559484481811523,0.522724449634552,0.6727467179298401,0.3542422652244568,-0.07988231629133224,2.9428341388702393,0.10554584115743637,-1.4407682418823242,8.577648162841797,-4.100179195404053,-0.01634826883673668,0.009735655970871449,-0.055607784539461136,38.12887191772461,-11.920734405517578,14.061670303344727,-0.12931573390960693,-0.1383514404296875,0.20085763931274414,-1.3114525079727173,8.715999603271484,-4.301036834716797
1_20251106_212721,1762435605289,1,0.3856436014175415,0.5216507315635681,0.6732678413391113,0.35478153824806213,-0.08338005840778351,2.9470252990722656,0.08918546885251999,-1.5425175428390503,8.424427032470703,-4.097784996032715,0.0019776737317442894,0.05860483646392822,-0.13135501742362976,38.12978744506836,-11.896297454833984,14.129777908325195,-0.1848520040512085,-0.23325824737548828,0.16260147094726562,-1.3576655387878418,8.657685279846191,-4.2603864669799805
1_20251106_212721,1762435605308,1,0.38575413823127747,0.5201234817504883,0.674231767654419,0.3550729751586914,-0.08690270781517029,2.949908494949341,0.07466600835323334,-1.4910444021224976,8.32986068725586,-4.170804977416992,0.020914480090141296,0.070211261510849,-0.12830068171024323,38.1334114074707,-11.833377838134766,14.117582321166992,-0.10670316219329834,-0.26225948333740234,0.07166528701782227,-1.3843412399291992,8.592120170593262,-4.2424702644348145
1_20251106_212721,1762435605325,1,0.38574230670928955,0.518623411655426,0.6753674745559692,0.3551216125488281,-0.08690270781517029,2.949908494949341,0.07466600835323334,-1.4910444021224976,8.32986068725586,-4.170804977416992,0.004421131685376167,0.05860483646392822,-0.08798360824584961,38.14671325683594,-11.807872772216797,14.159151077270508,-0.10670316219329834,-0.26225948333740234,0.07166528701782227,-1.3843412399291992,8.592120170593262,-4.2424702644348145
1_20251106_212721,1762435605345,1,0.3856416642665863,0.5175631642341614,0.676173985004425,0.3552429676055908,-0.09510763734579086,2.952533483505249,0.04821209982037544,-1.7484099864959717,8.189805030822754,-4.319239139556885,-0.021846050396561623,0.048220135271549225,-0.020177625119686127,38.160701751708984,-11.781421661376953,14.106103897094727,-0.2590517997741699,-0.26801586151123047,-0.05947446823120117,-1.4893581867218018,8.457820892333984,-4.259764671325684
1_20251106_212721,1762435605365,1,0.38552555441856384,0.5169112086296082,0.6766088604927063,0.3554902672767639,-0.10026956349611282,2.9527804851531982,0.034305982291698456,-1.6921488046646118,8.258037567138672,-4.449717998504639,-0.027954697608947754,0.054328784346580505,0.04335230588912964,38.17500305175781,-11.74295425415039,14.107385635375977,-0.16223251819610596,-0.15982627868652344,-0.1519627571105957,-1.5299162864685059,8.417863845825195,-4.297755241394043
1_20251106_212721,1762435605384,1,0.38534167408943176,0.5166648626327515,0.6767874360084534,0.35570767521858215,-0.10482310503721237,2.9528486728668213,0.021482016891241074,-1.586808443069458,8.359786033630371,-4.677156925201416,-0.027954697608947754,0.04699840396642685,0.061067383736371994,38.16130828857422,-11.769001007080078,14.119882583618164,-0.04551362991333008,-0.046462059020996094,-0.30352115631103516,-1.541294813156128,8.406248092651367,-4.373635768890381
1_20251106_212721,1762435605402,1,0.3849963843822479,0.5166677236557007,0.6768691539764404,0.35592183470726013,-0.10961597412824631,2.953029155731201,0.007487540133297443,-1.6239168643951416,8.44717025756836,-4.787285804748535,-0.027954697608947754,0.04699840396642685,0.061067383736371994,38.09996795654297,-11.78512954711914,14.076616287231445,-0.06609761714935303,0.03273773193359375,-0.3309197425842285,-1.5578192472457886,8.414432525634766,-4.456366062164307
1_20251106_212721,1762435605422,1,0.3846985399723053,0.5168059468269348,0.6768794655799866,0.3560236692428589,-0.10961597412824631,2.953029155731201,0.007487540133297443,-1.6239168643951416,8.44717025756836,-4.787285804748535,-0.05177842080593109,0.04027889668941498,0.03663279488682747,38.06582260131836,-11.749439239501953,14.03538703918457,-0.06609761714935303,0.03273773193359375,-0.3309197425842285,-1.5578192472457886,8.414432525634766,-4.456366062164307
1_20251106_212721,1762435605441,1,0.3845982551574707,0.5164386034011841,0.6770646572113037,0.35631275177001953,-0.1211179792881012,2.9534685611724854,-0.021344507113099098,-1.883676528930664,8.530963897705078,-4.677157402038574,-0.14829504489898682,0.13984984159469604,-0.040947023779153824,38.055145263671875,-11.724979400634766,14.021909713745117,-0.2164013385772705,0.0975637435913086,-0.13211345672607422,-1.6672751903533936,8.43340015411377,-4.5450439453125
1_20251106_212721,1762435605459,1,0.3846292197704315,0.5152875185012817,0.6776030659675598,0.356921911239624,-0.1211179792881012,2.9534685611724854,-0.021344507113099098,-1.883676528930664,8.530963897705078,-4.677157402038574,-0.18250347673892975,0.18016691505908966,-0.053164321929216385,38.004188537597656,-11.76596450805664,14.032670974731445,-0.2164013385772705,0.0975637435913086,-0.13211345672607422,-1.6672751903533936,8.43340015411377,-4.5450439453125
1_20251106_212721,1762435605480,1,0.3846711814403534,0.513599157333374,0.6782627105712891,0.3580554127693176,-0.1335524469614029,2.9561455249786377,-0.047748301178216934,-1.8501591682434082,8.678200721740723,-4.443732261657715,-0.19349902868270874,0.19482767581939697,-0.04461221396923065,37.9663200378418,-11.793331146240234,14.017156600952148,-0.12030160427093506,0.15667247772216797,0.0897378921508789,-1.7298575639724731,8.521528244018555,-4.533470153808594
1_20251106_212721,1762435605500,1,0.3846384584903717,0.5117974281311035,0.6788284182548523,0.3595951199531555,-0.13979730010032654,2.957629680633545,-0.0588599368929863,-1.8884648084640503,8.524978637695312,-4.302480697631836,-0.1904447078704834,0.20643410086631775,-0.021399352699518204,37.89120101928711,-11.824024200439453,14.094781875610352,-0.1268857717514038,0.0027599334716796875,0.18479156494140625,-1.7615790367126465,8.522218704223633,-4.487272262573242
1_20251106_212721,1762435605519,1,0.3845270574092865,0.5099309086799622,0.679336428642273,0.3614020347595215,-0.1455722600221634,2.958866596221924,-0.0687020942568779,-1.704119324684143,8.45914077758789,-4.227066993713379,-0.18800124526023865,0.22231657803058624,0.018306853249669075,37.873191833496094,-11.913928985595703,14.214090347290039,0.045967817306518555,-0.05046272277832031,0.20816421508789062,-1.7500871419906616,8.509603500366211,-4.4352312088012695
1_20251106_212721,1762435605537,1,0.38424569368362427,0.5081450939178467,0.6797671914100647,0.3634010851383209,-0.15018196403980255,2.959761142730713,-0.07692365348339081,-1.5113942623138428,8.420835494995117,-4.176790237426758,-0.21671190857887268,0.2143753468990326,0.043963171541690826,37.873191833496094,-11.913928985595703,14.214090347290039,0.190954327583313,-0.071014404296875,0.20675277709960938,-1.7023485898971558,8.491849899291992,-4.383543014526367
1_20251106_212721,1762435605556,1,0.383882075548172,0.5065248608589172,0.6798866391181946,0.3658158779144287,-0.15421488881111145,2.9601480960845947,-0.08418698608875275,-1.4874532222747803,8.305919647216797,-4.0259623527526855,-0.26985710859298706,0.17405825853347778,0.05373700335621834,37.85890197753906,-11.940784454345703,14.307687759399414,0.17191624641418457,-0.1487445831298828,0.28606462478637695,-1.6593694686889648,8.45466423034668,-4.3120269775390625
1_20251106_212721,1762435605574,1,0.3838505148887634,0.5051267147064209,0.6794890761375427,0.36851102113723755,-0.15763689577579498,2.960531234741211,-0.08978668600320816,-1.5101971626281738,8.460338592529297,-3.8380253314971924,-0.33094358444213867,0.1777234524488449,0.0708412230014801,37.89014434814453,-12.01522445678711,14.456254959106445,0.11933779716491699,0.00453948974609375,0.37920117378234863,-1.6295349597930908,8.455799102783203,-4.217226505279541
1_20251106_212721,1762435605594,1,0.38405677676200867,0.5035192370414734,0.6788197159767151,0.3717156946659088,-0.15763689577579498,2.960531234741211,-0.08978668600320816,-1.5101971626281738,8.460338592529297,-3.8380253314971924,-0.334608793258667,0.19116248190402985,0.0708412230014801,37.88482666015625,-12.092052459716797,14.603349685668945,0.11933779716491699,0.00453948974609375,0.37920117378234863,-1.6295349597930908,8.455799102783203,-4.217226505279541
1_20251106_212721,1762435605613,1,0.38433679938316345,0.5016146898269653,0.6781394481658936,0.37522634863853455,-0.16296060383319855,2.9616684913635254,-0.09615369141101837,-1.491044521331787,8.4423828125,-3.6464972496032715,-0.334608793258667,0.19116248190402985,0.0708412230014801,37.838218688964844,-12.258892059326172,14.720094680786133,0.08633565902709961,-0.02333354949951172,0.37369394302368164,-1.5773801803588867,8.465716361999512,-4.020191192626953
1_20251106_212721,1762435605632,1,0.38439756631851196,0.4997034966945648,0.677778422832489,0.37835341691970825,-0.16519948840141296,2.9615478515625,-0.09754873067140579,-1.5736408233642578,8.24965763092041,-3.715926170349121,-0.22404226660728455,0.22537091374397278,-0.007349465042352676,37.80500411987305,-12.400089263916016,14.864889144897461,0.0029914379119873047,-0.17284679412841797,0.24341201782226562,-1.5766322612762451,8.422504425048828,-3.9593381881713867
1_20251106_212721,1762435605650,1,0.38426804542541504,0.4974619448184967,0.6779621839523315,0.3810997009277344,-0.16745176911354065,2.9604034423828125,-0.09827268868684769,-1.672995924949646,8.00186824798584,-3.7434585094451904,-0.2625267505645752,0.25347068905830383,-0.05133172497153282,37.77118682861328,-12.553707122802734,14.995904922485352,-0.07709097862243652,-0.33650875091552734,0.17270398139953613,-1.5959049463272095,8.338376998901367,-3.9161624908447266
1_20251106_212721,1762435605670,1,0.3842862844467163,0.4947976768016815,0.6784347891807556,0.38369986414909363,-0.16745176911354065,2.9604034423828125,-0.09827268868684769,-1.672995924949646,8.00186824798584,-3.7434585094451904,-0.2625267505645752,0.25347068905830383,-0.05133172497153282,37.71429443359375,-12.695552825927734,15.045103073120117,-0.07709097862243652,-0.33650875091552734,0.17270398139953613,-1.5959049463272095,8.338376998901367,-3.9161624908447266
1_20251106_212721,1762435605690,1,0.384491890668869,0.49177083373069763,0.6789476871490479,0.38646790385246277,-0.17460516095161438,2.954439640045166,-0.09899980574846268,-1.9040265083312988,7.90730094909668,-3.8200695514678955,-0.3859214186668396,0.33593741059303284,-0.012236383743584156,37.6317138671875,-12.863964080810547,15.079278945922852,-0.20026230812072754,-0.27761268615722656,0.06284022331237793,-1.7037642002105713,8.184913635253906,-3.8829097747802734
1_20251106_212721,1762435605709,1,0.3846179246902466,0.48875489830970764,0.6793086528778076,0.38952213525772095,-0.17460516095161438,2.954439640045166,-0.09899980574846268,-1.9040265083312988,7.90730094909668,-3.8200695514678955,-0.41035598516464233,0.35976114869117737,0.07694987207651138,37.60674285888672,-13.09091567993164,15.087553024291992,-0.20026230812072754,-0.27761268615722656,0.06284022331237793,-1.7037642002105713,8.184913635253906,-3.8829097747802734
1_20251106_212721,1762435605729,1,0.3843555152416229,0.48611578345298767,0.6793026328086853,0.39307790994644165,-0.18037155270576477,2.946138858795166,-0.09787008911371231,-1.3246545791625977,7.982714653015137,-3.60819149017334,-0.4311254024505615,0.35731765627861023,0.17529907822608948,37.51127624511719,-13.27267837524414,15.120973587036133,0.2970240116119385,-0.1092977523803711,0.19248247146606445,-1.6216785907745361,8.092012405395508,-3.8006739616394043
1_20251106_212721,1762435605746,1,0.38371145725250244,0.4843043088912964,0.6785359382629395,0.397245317697525,-0.1812647134065628,2.9423346519470215,-0.09635993093252182,-1.1486883163452148,8.090450286865234,-3.51003360748291,-0.4311254024505615,0.35731765627861023,0.17529907822608948,37.38671112060547,-13.532047271728516,15.219411849975586,0.37839221954345703,-0.0012493133544921875,0.2325124740600586,-1.5270805358886719,8.091699600219727,-3.7425460815429688
1_20251106_212721,1762435605765,1,0.38283780217170715,0.48284241557121277,0.6770938038825989,0.40229636430740356,-0.1812647134065628,2.9423346519470215,-0.09635993093252182,-1.1486883163452148,8.090450286865234,-3.51003360748291,-0.5013748407363892,0.3389917314052582,0.2614310085773468,37.237876892089844,-13.79287338256836,15.303350448608398,0.37839221954345703,-0.0012493133544921875,0.2325124740600586,-1.5270805358886719,8.091699600219727,-3.7425460815429688
1_20251106_212721,1762435605784,1,0.3818935751914978,0.48154619336128235,0.6752966046333313,0.4077315926551819,-0.17887061834335327,2.9355666637420654,-0.09106898307800293,-0.9056873321533203,8.298736572265625,-3.469334125518799,-0.5142030119895935,0.3389917314052582,0.28036782145500183,37.10041046142578,-14.077205657958984,15.306154251098633,0.4160783290863037,0.15874290466308594,0.1681520938873291,-1.321765661239624,8.139993667602539,-3.637486219406128
1_20251106_212721,1762435605803,1,0.38088008761405945,0.480373352766037,0.6732746958732605,0.4133678674697876,-0.1759154051542282,2.933143138885498,-0.0878424122929573,-0.8973079919815063,8.299934387207031,-3.452575206756592,-0.5435245633125305,0.3365482687950134,0.28525474667549133,36.862144470214844,-14.41879653930664,15.371561050415039,0.33956611156463623,0.12795257568359375,0.14792895317077637,-1.2368741035461426,8.171981811523438,-3.600504159927368
1_20251106_212721,1762435605822,1,0.3799237608909607,0.47931456565856934,0.6710145473480225,0.41911211609840393,-0.1759154051542282,2.933143138885498,-0.0878424122929573,-0.8973079919815063,8.299934387207031,-3.452575206756592,-0.592393696308136,0.3536524772644043,0.2748700678348541,36.6312370300293,-14.835742950439453,15.516973495483398,0.33956611156463623,0.12795257568359375,0.14792895317077637,-1.2368741035461426,8.171981811523438,-3.600504159927368
1_20251106_212721,1762435605842,1,0.3792169988155365,0.47752878069877625,0.668685257434845,0.4254653751850128,-0.17155799269676208,2.9312961101531982,-0.08373403549194336,-0.8625934720039368,8.380136489868164,-3.38554048538208,-0.6485932469367981,0.3750327527523041,0.25898757576942444,36.399009704589844,-15.28927993774414,15.553461074829102,0.2994244694709778,0.16652393341064453,0.17197084426879883,-1.1620179414749146,8.21361255645752,-3.557511329650879
1_20251106_212721,1762435605861,1,0.3786703646183014,0.47531384229660034,0.6662526726722717,0.43219536542892456,-0.16655611991882324,2.930680751800537,-0.0790647342801094,-0.8135144710540771,8.560890197753906,-3.244288682937622,-0.6663083434104919,0.37564364075660706,0.2504354417324066,36.12690734863281,-15.79610824584961,15.655004501342773,0.278802752494812,0.27782249450683594,0.2505781650543213,-1.0923172235488892,8.28306770324707,-3.4948668479919434
1_20251106_212721,1762435605880,1,0.37826022505760193,0.4729961156845093,0.6637023687362671,0.43896809220314026,-0.1563781499862671,2.931924819946289,-0.06849738955497742,-0.8087263703346252,8.662639617919922,-3.0324108600616455,-0.6742495894432068,0.38602831959724426,0.25348976254463196,35.829925537109375,-16.31680679321289,15.728269577026367,0.18532872200012207,0.25403404235839844,0.30937886238098145,-0.9940550923347473,8.408605575561523,-3.341789722442627
1_20251106_212721,1762435605900,1,0.37781843543052673,0.4706087112426758,0.6610910296440125,0.44580191373825073,-0.1563781499862671,2.931924819946289,-0.06849738955497742,-0.8087263703346252,8.662639617919922,-3.0324108600616455,-0.7328925728797913,0.41351720690727234,0.25471147894859314,35.52276611328125,-16.812381744384766,15.720476150512695,0.18532872200012207,0.25403404235839844,0.30937886238098145,-0.9940550923347473,8.408605575561523,-3.341789722442627
1_20251106_212721,1762435605919,1,0.3773999810218811,0.467805415391922,0.6583307981491089,0.4531312584877014,-0.14928768575191498,2.934870958328247,-0.060671672224998474,-0.7213417291641235,8.892473220825195,-2.9905142784118652,-0.7328925728797913,0.41351720690727234,0.25471147894859314,35.223968505859375,-17.370349884033203,15.752401351928711,0.21817070245742798,0.38709449768066406,0.2810204029083252,-0.9395124316215515,8.505378723144531,-3.2715346813201904
1_20251106_212721,1762435605939,1,0.37715432047843933,0.46469253301620483,0.6553155183792114,0.46084389090538025,-0.13547417521476746,2.9435501098632812,-0.04396463930606842,-0.457990825176239,9.13786792755127,-2.442265510559082,-0.8037528991699219,0.44894739985466003,0.24799197912216187,34.94923400878906,-17.93874740600586,15.730978012084961,0.3321148157119751,0.4199237823486328,0.5812957286834717,-0.7901056408882141,8.717944145202637,-3.0235612392425537
1_20251106_212721,1762435605957,1,0.3768203854560852,0.46139606833457947,0.6522630453109741,0.468692809343338,-0.1279880553483963,2.949174404144287,-0.0342792347073555,-0.2784334421157837,9.318622589111328,-2.23637318611145,-0.8037528991699219,0.44894739985466003,0.24799197912216187,34.94923400878906,-17.93874740600586,15.730978012084961,0.4093378186225891,0.4805431365966797,0.6297504901885986,-0.6877712607383728,8.838079452514648,-2.866123676300049
1_20251106_212721,1762435605976,1,0.3763745129108429,0.458128958940506,0.6491168141365051,0.4765578806400299,-0.11725965142250061,2.957892894744873,-0.02058286778628826,0.08906073123216629,9.638235092163086,-1.9215493202209473,-0.7890921235084534,0.47949060797691345,0.2675396800041199,34.737640380859375,-18.46536636352539,15.699281692504883,0.6214656233787537,0.6401243209838867,0.7556593418121338,-0.532404899597168,8.9981107711792,-2.677208662033081
1_20251106_212721,1762435605995,1,0.3756495714187622,0.45480045676231384,0.6459836959838867,0.48450902104377747,-0.11725965142250061,2.957892894744873,-0.02058286778628826,0.08906073123216629,9.638235092163086,-1.9215493202209473,-0.7890921235084534,0.47949060797691345,0.2675396800041199,34.49098587036133,-18.980731964111328,15.558248519897461,0.6214656233787537,0.6401243209838867,0.7556593418121338,-0.532404899597168,8.9981107711792,-2.677208662033081
1_20251106_212721,1762435606014,1,0.3749191164970398,0.45160654187202454,0.642768383026123,0.4922763705253601,-0.0904557928442955,2.980553388595581,0.012225587852299213,0.6516739726066589,10.03445816040039,-1.3804829120635986,-0.712734043598175,0.4348975121974945,0.24799197912216187,34.147857666015625,-19.47787857055664,15.467885971069336,0.7936262488365173,0.6833724975585938,0.8685932159423828,-0.1419522613286972,9.351085662841797,-2.2490761280059814
1_20251106_212721,1762435606034,1,0.3741396963596344,0.4486117362976074,0.6396933197975159,0.49955928325653076,-0.07285741716623306,2.9952337741851807,0.032691773027181625,0.9102365970611572,10.168527603149414,-1.2559897899627686,-0.6473715901374817,0.4006890654563904,0.23394209146499634,33.85468673706055,-19.947002410888672,15.407045364379883,0.8417510986328125,0.6539535522460938,0.7944691181182861,0.06848549842834473,9.51457405090332,-2.0504589080810547
1_20251106_212721,1762435606053,1,0.3733162581920624,0.4458984136581421,0.6367973685264587,0.5062595009803772,-0.05546984449028969,3.009643316268921,0.05212013050913811,1.0191681385040283,10.269079208374023,-1.2667632102966309,-0.593004584312439,0.36220458149909973,0.19545762240886688,33.6097412109375,-20.436847686767578,15.225992202758789,0.760546088218689,0.6036043167114258,0.626956582069397,0.25862202048301697,9.665474891662598,-1.8937197923660278
1_20251106_212721,1762435606071,1,0.37256020307540894,0.4432419538497925,0.634194016456604,0.5123801231384277,-0.03645310923457146,3.025808095932007,0.07315179705619812,0.8348225355148315,10.290626525878906,-1.3290098905563354,-0.593004584312439,0.36220458149909973,0.19545762240886688,33.31333923339844,-20.96835708618164,15.123281478881836,0.46096041798591614,0.5001211166381836,0.45176804065704346,0.3738621175289154,9.790505409240723,-1.780777931213379
1_20251106_212721,1762435606091,1,0.37226733565330505,0.44015637040138245,0.6319933533668518,0.5179418921470642,-0.03645310923457146,3.025808095932007,0.07315179705619812,0.8348225355148315,10.290626525878906,-1.3290098905563354,-0.5881176590919495,0.4605537950992584,-0.08676187694072723,33.05873107910156,-21.409175872802734,14.983343124389648,0.46096041798591614,0.5001211166381836,0.45176804065704346,0.3738621175289154,9.790505409240723,-1.780777931213379
1_20251106_212721,1762435606111,1,0.372363805770874,0.4354432225227356,0.6308348774909973,0.5232415795326233,0.002469915896654129,3.0604071617126465,0.11667434871196747,0.7378615140914917,10.242744445800781,-1.3649213314056396,-0.5881176590919495,0.4605537950992584,-0.08676187694072723,32.79838562011719,-21.726024627685547,14.926652908325195,0.24138683080673218,0.28713417053222656,0.26557374000549316,0.4964746832847595,9.955610275268555,-1.6304950714111328
1_20251106_212721,1762435606130,1,0.3729100525379181,0.42872190475463867,0.631091296672821,0.528071403503418,0.002469915896654129,3.0604071617126465,0.11667434871196747,0.7378615140914917,10.242744445800781,-1.3649213314056396,-0.5783438086509705,0.608383059501648,-0.5381909012794495,32.56986999511719,-22.128124237060547,14.842550277709961,0.24138683080673218,0.28713417053222656,0.26557374000549316,0.4964746832847595,9.955610275268555,-1.6304950714111328
1_20251106_212721,1762435606149,1,0.37430307269096375,0.4206039309501648,0.6322866082191467,0.5321683883666992,0.039163511246442795,3.094691753387451,0.15965914726257324,0.4601460099220276,10.300203323364258,-1.187757968902588,-0.602778434753418,0.543631374835968,-0.6121055483818054,32.3905143737793,-22.503276824951172,14.896100997924805,-0.054469406604766846,0.23892593383789062,0.3034621477127075,0.5146154165267944,10.061277389526367,-1.4912201166152954
1_20251106_212721,1762435606168,1,0.37653958797454834,0.4122777283191681,0.6333624720573425,0.5358142852783203,0.0533076710999012,3.110401153564453,0.17986583709716797,-0.059373416006565094,10.348085403442383,-0.9268012642860413,-0.6003349423408508,0.42817798256874084,-0.5565168261528015,32.25737762451172,-22.71213150024414,14.886972427368164,-0.45919108390808105,0.2294464111328125,0.45153504610061646,0.39981767535209656,10.11863899230957,-1.3783363103866577
1_20251106_212721,1762435606187,1,0.3791247308254242,0.4047853350639343,0.6338067054748535,0.5391681790351868,0.06544429063796997,3.128004789352417,0.203379288315773,-0.5190403461456299,10.454622268676758,-0.6598592400550842,-0.5581852793693542,0.24919462203979492,-0.37386828660964966,32.127960205078125,-22.857929229736328,14.852132797241211,-0.7350864410400391,0.2687864303588867,0.5747817158699036,0.21604607999324799,10.185835838317871,-1.2346409559249878
1_20251106_212721,1762435606205,1,0.381736159324646,0.399341344833374,0.6331120729446411,0.542192816734314,0.07336844503879547,3.143977165222168,0.22514328360557556,-0.7799971103668213,10.55996322631836,-0.560504138469696,-0.5398593544960022,0.16672790050506592,-0.11119646579027176,31.965608596801758,-22.943195343017578,14.803625106811523,-0.7968345880508423,0.2993011474609375,0.5393094420433044,0.016837462782859802,10.260662078857422,-1.0998135805130005
1_20251106_212721,1762435606224,1,0.38345858454704285,0.39584699273109436,0.6312252879142761,0.5457282662391663,0.07901974767446518,3.1599793434143066,0.24729445576667786,-0.7452826499938965,10.597070693969727,-0.5006516575813293,-0.5398593544960022,0.16672790050506592,-0.11119646579027176,31.936500549316406,-23.032413482666016,14.773763656616211,-0.609696090221405,0.26912689208984375,0.47932952642440796,-0.13558655977249146,10.327943801879883,-0.9799811840057373
1_20251106_212721,1762435606243,1,0.3843163549900055,0.3939341604709625,0.6281959414482117,0.5499878525733948,0.08381930738687515,3.1774230003356934,0.2726319432258606,-0.5190403461456299,10.509687423706055,-0.336655855178833,-0.5539092421531677,0.12274563312530518,0.12642990052700043,31.80828285217285,-23.164981842041016,14.671606063842773,-0.30676305294036865,0.14539527893066406,0.5146602392196655,-0.21227730810642242,10.36429214477539,-0.8513160943984985
1_20251106_212721,1762435606262,1,0.3846595883369446,0.39296022057533264,0.6246466636657715,0.5544689297676086,0.08752603828907013,3.193502426147461,0.2973511517047882,-0.4400351047515869,10.486942291259766,-0.17625126242637634,-0.5404701828956604,0.0854828804731369,0.24921372532844543,31.65317153930664,-23.34896469116211,14.526861190795898,-0.18220624327659607,0.09811973571777344,0.5400518178939819,-0.25782886147499084,10.388822555541992,-0.7163031101226807
1_20251106_212721,1762435606281,1,0.3849494755268097,0.39230307936668396,0.6211950778961182,0.5585954189300537,0.09103359282016754,3.2096447944641113,0.3220861852169037,-0.26287180185317993,10.704805374145508,-0.26004475355148315,-0.4952661991119385,0.06349175423383713,0.24982458353042603,31.476295471191406,-23.49618911743164,14.314348220825195,-0.0040343403816223145,0.25278663635253906,0.365006685256958,-0.2588374614715576,10.452018737792969,-0.6250514388084412
1_20251106_212721,1762435606300,1,0.38486936688423157,0.39058980345726013,0.6184329390525818,0.5628995299339294,0.09472581744194031,3.225341796875,0.34682565927505493,-0.12760521471500397,10.583904266357422,-0.17266011238098145,-0.49221187829971313,0.18444296717643738,0.18079686164855957,31.291053771972656,-23.58102035522461,14.062112808227539,0.1049858033657074,0.10550880432128906,0.3619130849838257,-0.23259101808071136,10.478395462036133,-0.5345731973648071
1_20251106_212721,1762435606320,1,0.3851730227470398,0.38769736886024475,0.6165072321891785,0.5667904019355774,0.09850430488586426,3.2408573627471924,0.37261801958084106,-0.2042163610458374,10.41871166229248,-0.1882217526435852,-0.4842706322669983,0.2559141218662262,0.025637231767177582,31.110443115234375,-23.802913665771484,13.780435562133789,0.022699713706970215,-0.04774665832519531,0.277081161737442,-0.22691607475280762,10.466458320617676,-0.4653029143810272
1_20251106_212721,1762435606341,1,0.3856697678565979,0.3841544985771179,0.61555415391922,0.5698923468589783,0.09850430488586426,3.2408573627471924,0.37261801958084106,-0.2042163610458374,10.41871166229248,-0.1882217526435852,-0.3614868223667145,0.2717966139316559,-0.13624192774295807,30.879480361938477,-24.05337142944336,13.523298263549805,0.022699713706970215,-0.04774665832519531,0.277081161737442,-0.22691607475280762,10.466458320617676,-0.4653029143810272
1_20251106_212721,1762435606359,1,0.38629618287086487,0.3807136118412018,0.6149097084999084,0.5724669694900513,0.10427979379892349,3.2658982276916504,0.42082878947257996,-0.21618686616420746,10.169724464416504,-0.28877389430999756,-0.3767584562301636,0.23880992829799652,-0.07637717574834824,30.625965118408203,-24.268146514892578,13.306520462036133,0.03808574378490448,-0.17209815979003906,0.11202093958854675,-0.25427260994911194,10.341822624206543,-0.4007948338985443
1_20251106_212721,1762435606378,1,0.3868238627910614,0.3776969015598297,0.6138977408409119,0.5751885771751404,0.10763213038444519,3.2763755321502686,0.44333556294441223,-0.0019150301814079285,10.163739204406738,-0.16428077220916748,-0.3767584562301636,0.23880992829799652,-0.07637717574834824,30.272258758544922,-24.536300659179688,13.095508575439453,0.20188605785369873,-0.14246654510498047,0.18921124935150146,-0.20380109548568726,10.306205749511719,-0.35349202156066895
1_20251106_212721,1762435606397,1,0.38695865869522095,0.3751125633716583,0.6124219298362732,0.5783536434173584,0.11145941913127899,3.285461902618408,0.46624109148979187,0.030405305325984955,9.990167617797852,0.20201633870601654,-0.41951897740364075,0.17039307951927185,0.06412170827388763,30.272258758544922,-24.536300659179688,13.095508575439453,0.1873651146888733,-0.25283050537109375,0.4444066882133484,-0.15695981681346893,10.242998123168945,-0.24239034950733185
1_20251106_212721,1762435606415,1,0.38722437620162964,0.373224139213562,0.6103399395942688,0.5815893411636353,0.11570727080106735,3.293158531188965,0.4883483052253723,0.16926303505897522,10.047624588012695,0.36361801624298096,-0.4378449320793152,0.15389972925186157,0.10382791608572006,30.026596069335938,-24.612815856933594,12.868118286132812,0.2609782814979553,-0.15629959106445312,0.48480671644210815,-0.0917152464389801,10.203924179077148,-0.121188685297966
1_20251106_212721,1762435606434,1,0.3874237537384033,0.37152495980262756,0.607917308807373,0.5850714445114136,0.12089641392230988,3.3004708290100098,0.51207035779953,0.24707123637199402,10.056005477905273,0.44501736760139465,-0.4317362606525421,0.13068687915802002,0.11848866939544678,29.801977157592773,-24.750259399414062,12.613357543945312,0.27102920413017273,-0.11833477020263672,0.4529648423194885,-0.023957956582307816,10.17434024810791,-0.007947482168674469
1_20251106_212721,1762435606453,1,0.38767844438552856,0.3701065480709076,0.6053301692008972,0.5884742736816406,0.12089641392230988,3.3004708290100098,0.51207035779953,0.24707123637199402,10.056005477905273,0.44501736760139465,-0.3712606430053711,0.11724784970283508,0.13681460916996002,29.54202651977539,-24.853622436523438,12.479564666748047,0.27102920413017273,-0.11833477020263672,0.4529648423194885,-0.023957956582307816,10.17434024810791,-0.007947482168674469
1_20251106_212721,1762435606474,1,0.38759544491767883,0.3690033555030823,0.6030058264732361,0.5915997624397278,0.12755028903484344,3.3074791431427,0.5385969877243042,0.3356528878211975,9.974605560302734,0.474943608045578,-0.34193915128707886,0.0854828804731369,0.12398645281791687,29.26936912536621,-24.98168182373047,12.223106384277344,0.287688672542572,-0.15978717803955078,0.386312872171402,0.04796420782804489,10.134392738342285,0.08863073587417603
1_20251106_212721,1762435606491,1,0.38753944635391235,0.36801257729530334,0.6008325219154358,0.5944579243659973,0.14109811186790466,3.3174777030944824,0.5831446647644043,0.4661312699317932,10.032064437866211,0.41987931728363037,-0.37553671002388,0.06349175423383713,0.07389554381370544,28.98181915283203,-25.149017333984375,12.046463012695312,0.2672438621520996,-0.05150794982910156,0.21410590410232544,0.1988874077796936,10.083572387695312,0.20577341318130493
1_20251106_212721,1762435606510,1,0.3881743848323822,0.3669606149196625,0.5984430313110352,0.5970984101295471,0.14837799966335297,3.322157382965088,0.606127917766571,0.3009384870529175,10.045230865478516,0.5647222995758057,-0.4164646565914154,0.07937423884868622,-0.005516870878636837,28.696876525878906,-25.27800750732422,11.803031921386719,0.08164085447788239,-0.030673980712890625,0.28715911507606506,0.2192976325750351,10.075904846191406,0.2775631844997406
1_20251106_212721,1762435606530,1,0.3892691433429718,0.3651762306690216,0.5961816310882568,0.5997360348701477,0.1548774540424347,3.3263678550720215,0.6289469003677368,0.0675138458609581,9.990166664123535,0.6365453004837036,-0.39386266469955444,0.08242855966091156,-0.06415988504886627,28.473766326904297,-25.39019775390625,11.535282135009766,-0.121427021920681,-0.06859111785888672,0.2871856987476349,0.1889408677816391,10.058757781982422,0.3493596017360687
1_20251106_212721,1762435606550,1,0.39063066244125366,0.36308753490448,0.5942603945732117,0.602021336555481,0.1609659194946289,3.3303141593933105,0.6531993746757507,-0.030644193291664124,9.917146682739258,0.4366379976272583,-0.3462151885032654,0.1007544994354248,-0.08920533955097198,28.262149810791016,-25.502540588378906,11.36263656616211,-0.17566806077957153,-0.11328887939453125,0.06982269883155823,0.1450238674879074,10.030435562133789,0.3668152987957001
1_20251106_212721,1762435606569,1,0.3919239044189453,0.3609147071838379,0.592765212059021,0.603958249092102,0.16529019176959991,3.3331260681152344,0.6743481755256653,-0.1862606257200241,9.818988800048828,0.47733768820762634,-0.3462151885032654,0.1007544994354248,-0.08920533955097198,28.003707885742188,-25.580657958984375,11.21585464477539,-0.26502758264541626,-0.1691570281982422,0.0884179174900055,0.07876697182655334,9.98814582824707,0.38891977071762085
1_20251106_212721,1762435606587,1,0.39327433705329895,0.3586830794811249,0.5912774205207825,0.6058652997016907,0.16529019176959991,3.3331260681152344,0.6743481755256653,-0.1862606257200241,9.818988800048828,0.47733768820762634,-0.41524291038513184,0.06593520939350128,-0.027508001774549484,27.82280731201172,-25.578399658203125,11.046566009521484,-0.26502758264541626,-0.1691570281982422,0.0884179174900055,0.07876697182655334,9.98814582824707,0.38891977071762085
1_20251106_212721,1762435606607,1,0.3945285379886627,0.3566707372665405,0.5891637802124023,0.6082920432090759,0.1699526607990265,3.33840274810791,0.7161217927932739,-0.35863572359085083,10.191272735595703,0.8939108848571777,-0.41524291038513184,0.06593520939350128,-0.027508001774549484,27.67986297607422,-25.560256958007812,10.784399032592773,-0.2789800763130188,0.17615985870361328,0.36360669136047363,-0.07965563237667084,10.01511287689209,0.5303041934967041
1_20251106_212721,1762435606625,1,0.395590215921402,0.3551360070705414,0.5863900184631348,0.6111739277839661,0.1706906408071518,3.341766834259033,0.7364005446434021,-0.4304586946964264,10.330129623413086,1.1045916080474854,-0.4280710816383362,0.070211261510849,0.08305851370096207,27.52031707763672,-25.606903076171875,10.642068862915039,-0.28064244985580444,0.2520132064819336,0.45942991971969604,-0.14981624484062195,10.078116416931152,0.6451616883277893
1_20251106_212721,1762435606645,1,0.3963165879249573,0.35366007685661316,0.5837706923484802,0.6140598058700562,0.1707765758037567,3.3459455966949463,0.7592898607254028,-0.3777885138988495,10.28464126586914,1.1333208084106445,-0.4280710816383362,0.070211261510849,0.08305851370096207,27.394393920898438,-25.500198364257812,10.395755767822266,-0.18237781524658203,0.1652202606201172,0.39052730798721313,-0.19541069865226746,10.119421005249023,0.7427935004234314
1_20251106_212721,1762435606663,1,0.3968461751937866,0.35205644369125366,0.5818149447441101,0.6164906620979309,0.1704687625169754,3.349653959274292,0.7795683741569519,-0.35025641322135925,10.17451286315918,1.030374526977539,-0.35171300172805786,0.08914807438850403,0.04579576477408409,27.278358459472656,-25.419029235839844,10.271053314208984,-0.12387657165527344,0.04407310485839844,0.23006480932235718,-0.22637984156608582,10.130439758300781,0.8003097176551819
1_20251106_212721,1762435606682,1,0.39745715260505676,0.35040298104286194,0.580245316028595,0.618515133857727,0.16978737711906433,3.3533458709716797,0.800675630569458,-0.3622268736362457,10.120645523071289,1.0818476676940918,-0.3346087634563446,0.1319085955619812,-0.00796032976359129,27.14631462097168,-25.401840209960938,10.185089111328125,-0.10867762565612793,-0.00783538818359375,0.2252303957939148,-0.2535492479801178,10.128480911254883,0.856617271900177
1_20251106_212721,1762435606702,1,0.3979855179786682,0.3483502268791199,0.5787350535392761,0.620745837688446,0.16899394989013672,3.3567628860473633,0.8231407999992371,-0.29040393233299255,10.038049697875977,1.3033016920089722,-0.3547673225402832,0.14962369203567505,0.010976476594805717,27.01555633544922,-25.382904052734375,9.923412322998047,-0.02948373556137085,-0.07234573364257812,0.3573474884033203,-0.2609201967716217,10.110395431518555,0.9459542036056519
1_20251106_212721,1762435606722,1,0.3983718752861023,0.346219927072525,0.5771031379699707,0.6232042908668518,0.16859088838100433,3.360131025314331,0.8457219004631042,-0.14556095004081726,10.150571823120117,1.3535778522491455,-0.3394956886768341,0.1416824460029602,0.051293548196554184,26.91823959350586,-25.412216186523438,9.702699661254883,0.09228740632534027,0.03214073181152344,0.3260989189147949,-0.23784835636615753,10.118431091308594,1.0274789333343506
1_20251106_212721,1762435606741,1,0.398578941822052,0.344467431306839,0.5753219127655029,0.6256850361824036,0.16879414021968842,3.363084554672241,0.8647460341453552,0.0028731822967529297,10.224788665771484,1.3870952129364014,-0.32605665922164917,0.11175006628036499,0.10016272962093353,26.73391342163086,-25.472610473632812,9.518575668334961,0.19257724285125732,0.08508682250976562,0.2876930236816406,-0.1897040605545044,10.139701843261719,1.0994021892547607
1_20251106_212721,1762435606760,1,0.39852839708328247,0.3431777060031891,0.5733640193939209,0.6282179951667786,0.17015624046325684,3.3664402961730957,0.887446939945221,0.1836276352405548,10.157753944396973,1.5726377964019775,-0.31017419695854187,0.07387645542621613,0.1331494152545929,26.57276153564453,-25.544647216796875,9.402750015258789,0.2986653447151184,0.014441490173339844,0.3785884380340576,-0.11503772437572479,10.143312454223633,1.19404935836792
1_20251106_212721,1762435606779,1,0.3984510004520416,0.3424135744571686,0.5712136626243591,0.6306383609771729,0.17316240072250366,3.3699052333831787,0.9102728366851807,0.4481755495071411,10.234365463256836,1.6085493564605713,-0.2924591302871704,0.06410261988639832,0.13437114655971527,26.39086151123047,-25.55535125732422,9.273746490478516,0.45057064294815063,0.07284259796142578,0.3316000699996948,-0.0023950785398483276,10.16152286529541,1.2769492864608765
1_20251106_212721,1762435606800,1,0.3983016014099121,0.34174782037734985,0.5691108703613281,0.6329905390739441,0.17789016664028168,3.373621940612793,0.9332129955291748,0.6133683919906616,10.301400184631348,1.6899486780166626,-0.30162209272384644,0.04699840769171715,0.06289997696876526,26.203643798828125,-25.64287567138672,9.291839599609375,0.49261078238487244,0.11190223693847656,0.3303995132446289,0.12075760215520859,10.189497947692871,1.3595491647720337
1_20251106_212721,1762435606816,1,0.3986445963382721,0.3407857120037079,0.567106306552887,0.6350889801979065,0.17789016664028168,3.373621940612793,0.9332129955291748,0.6133683919906616,10.301400184631348,1.6899486780166626,-0.2820743918418884,0.05249619111418724,-0.03789270296692848,26.203643798828125,-25.64287567138672,9.291839599609375,0.49261078238487244,0.11190223693847656,0.3303995132446289,0.12075760215520859,10.189497947692871,1.3595491647720337
1_20251106_212721,1762435606836,1,0.39941900968551636,0.33928874135017395,0.5655774474143982,0.6367651224136353,0.188334658741951,3.380398750305176,0.973060667514801,0.44697847962379456,10.296611785888672,1.469691514968872,-0.2472551465034485,0.04699840769171715,-0.1142507940530777,26.05276107788086,-25.75151824951172,9.148679733276367,0.1976727545261383,0.07410621643066406,0.04310262203216553,0.24930572509765625,10.222505569458008,1.4265888929367065
1_20251106_212721,1762435606855,1,0.4006570875644684,0.33761200308799744,0.5644626021385193,0.6378667950630188,0.1939355581998825,3.384316921234131,0.9925185441970825,0.32009124755859375,10.403149604797363,1.408642053604126,-0.2765766382217407,0.03294851630926132,-0.15151354670524597,25.928068161010742,-25.821304321289062,9.047842025756836,0.05662843585014343,0.1445150375366211,-0.014357447624206543,0.2634628117084503,10.258634567260742,1.4229995012283325
1_20251106_212721,1762435606874,1,0.40227606892585754,0.3357219099998474,0.5632736086845398,0.6388956308364868,0.1988971084356308,3.3885726928710938,1.012431263923645,0.053149230778217316,10.36963176727295,1.5726377964019775,-0.2765766382217407,0.03294851630926132,-0.15151354670524597,25.867843627929688,-25.812721252441406,9.045654296875,-0.16825085878372192,0.08879756927490234,0.11971068382263184,0.22140009701251984,10.280834197998047,1.4529271125793457
1_20251106_212721,1762435606893,1,0.40414735674858093,0.33384910225868225,0.5618735551834106,0.6399279832839966,0.20234841108322144,3.392725944519043,1.0311119556427002,-0.15274325013160706,10.394769668579102,1.7114956378936768,-0.3028438091278076,0.012789979577064514,-0.15640045702457428,25.78313446044922,-25.817474365234375,8.961124420166016,-0.2993146777153015,0.09114837646484375,0.20685482025146484,0.14657142758369446,10.303621292114258,1.504640817642212
1_20251106_212721,1762435606913,1,0.40568289160728455,0.33221763372421265,0.560600996017456,0.6409206986427307,0.20472604036331177,3.3966469764709473,1.0510765314102173,-0.20661047101020813,10.227182388305664,1.926964521408081,-0.2668027877807617,0.011568250134587288,-0.12035943567752838,25.786348342895508,-25.766708374023438,8.90811538696289,-0.2825455069541931,-0.06115150451660156,0.3378589153289795,0.07593505084514618,10.288333892822266,1.5891056060791016
1_20251106_212721,1762435606932,1,0.4067263901233673,0.33093827962875366,0.5595579147338867,0.6418321132659912,0.20598948001861572,3.3989675045013428,1.06942617893219,-0.23653669655323029,9.869264602661133,2.1089160442352295,-0.21182498335838318,0.012789979577064514,-0.07454457879066467,25.755218505859375,-25.680519104003906,8.840909957885742,-0.24997740983963013,-0.33525562286376953,0.41584837436676025,0.013440705835819244,10.204520225524902,1.6930676698684692
1_20251106_212721,1762435606951,1,0.4072016477584839,0.3302763104438782,0.5587233304977417,0.6425983905792236,0.20712722837924957,3.4003067016601562,1.089484453201294,-0.05099404603242874,9.839338302612305,1.9197821617126465,-0.10248018801212311,-0.009812015108764172,0.10871482640504837,25.83245086669922,-25.612159729003906,8.764074325561523,-0.05154780298471451,-0.2921457290649414,0.1813715696334839,0.0005537569522857666,10.131484031677246,1.7384105920791626
1_20251106_212721,1762435606969,1,0.40692511200904846,0.3304555118083954,0.5576335191726685,0.6436271667480469,0.20869523286819458,3.4009299278259277,1.1070661544799805,0.24228304624557495,9.919541358947754,1.9137969017028809,-0.138521209359169,-0.0586811862885952,0.22416825592517853,25.894569396972656,-25.6065673828125,8.604331970214844,0.19338344037532806,-0.1695547103881836,0.14030909538269043,0.048899609595537186,10.089096069335938,1.7734878063201904
1_20251106_212721,1762435606991,1,0.4063291549682617,0.3315024971961975,0.5557572841644287,0.6450864672660828,0.21126939356327057,3.401487112045288,1.1265314817428589,0.35121452808380127,10.056004524230957,2.071807622909546,-0.17883828282356262,-0.0947222039103508,0.2412724792957306,25.875822067260742,-25.519309997558594,8.51058578491211,0.24185194075107574,-0.026473045349121094,0.2386559247970581,0.10936258733272552,10.082477569580078,1.8331516981124878
1_20251106_212721,1762435607008,1,0.4059228003025055,0.33276569843292236,0.5534083843231201,0.6467092037200928,0.2140689194202423,3.4018747806549072,1.1452956199645996,0.282982736825943,10.040443420410156,2.269320487976074,-0.16601012647151947,-0.0892244279384613,0.15025362372398376,25.891618728637695,-25.467208862304688,8.404001235961914,0.1388961225748062,-0.033626556396484375,0.34893500804901123,0.14408661425113678,10.07406997680664,1.920385479927063
1_20251106_212721,1762435607027,1,0.40599116683006287,0.3335523009300232,0.5514271855354309,0.6479521989822388,0.21685336530208588,3.401536464691162,1.1641117334365845,0.18961286544799805,9.816595077514648,2.2812912464141846,-0.11714094877243042,-0.05501600354909897,0.002424369566142559,25.83279037475586,-25.44512176513672,8.307462692260742,0.036421000957489014,-0.2059803009033203,0.2887246608734131,0.15319186449050903,10.022575378417969,1.9925665855407715
1_20251106_212721,1762435607045,1,0.4066460430622101,0.333492249250412,0.5503372550010681,0.6484988927841187,0.21879173815250397,3.4001235961914062,1.1811175346374512,-0.07732914388179779,9.572397232055664,2.021531343460083,-0.0975932702422142,-0.02202930860221386,-0.12524636089801788,25.8322696685791,-25.469024658203125,8.185287475585938,-0.18441680073738098,-0.36014270782470703,0.02317190170288086,0.10708766430616379,9.932539939880371,1.9983594417572021
1_20251106_212721,1762435607064,1,0.40784138441085815,0.3325929641723633,0.5499191880226135,0.6485646963119507,0.2196153849363327,3.39762020111084,1.1973146200180054,-0.30117735266685486,9.53648567199707,1.6863574981689453,-0.14646245539188385,0.029283326119184494,-0.1814459264278412,25.746051788330078,-25.4990234375,8.113744735717773,-0.32661202549934387,-0.31684303283691406,-0.24960148334503174,0.025434669107198715,9.853328704833984,1.935958981513977
1_20251106_212721,1762435607085,1,0.4093269109725952,0.3309120535850525,0.5496169328689575,0.6487448811531067,0.21951162815093994,3.394535541534424,1.2124799489974976,-0.27963048219680786,9.662176132202148,1.59657883644104,-0.21243584156036377,0.04699840769171715,-0.17655900120735168,25.682994842529297,-25.552276611328125,8.015623092651367,-0.24405212700366974,-0.1529226303100586,-0.27150416374206543,-0.03557835519313812,9.815098762512207,1.8680830001831055
1_20251106_212721,1762435607103,1,0.4109172224998474,0.32887139916419983,0.5491364598274231,0.6491839289665222,0.21843640506267548,3.3916046619415283,1.2258158922195435,-0.39335018396377563,9.761530876159668,1.740224838256836,-0.21243584156036377,0.04699840769171715,-0.17655900120735168,25.6230525970459,-25.554901123046875,7.878007888793945,-0.28621745109558105,-0.04285430908203125,-0.10228657722473145,-0.10713271796703339,9.8043851852417,1.8425114154815674
1_20251106_212721,1762435607123,1,0.4126828908920288,0.32728320360183716,0.5481956601142883,0.6496614813804626,0.21562135219573975,3.3886563777923584,1.2399580478668213,-0.6794449090957642,9.798639297485352,2.1077189445495605,-0.261305034160614,0.009124791249632835,-0.15090268850326538,25.56653594970703,-25.494873046875,7.755229949951172,-0.45784974098205566,-0.004596710205078125,0.21216607093811035,-0.2215951532125473,9.80323600769043,1.8955528736114502
1_20251106_212721,1762435607141,1,0.414468914270401,0.3257179856300354,0.5465975403785706,0.6506569385528564,0.21562135219573975,3.3886563777923584,1.2399580478668213,-0.6794449090957642,9.798639297485352,2.1077189445495605,-0.36820632219314575,0.025618137791752815,-0.04400135204195976,25.553630828857422,-25.51983642578125,7.659597396850586,-0.45784974098205566,-0.004596710205078125,0.21216607093811035,-0.2215951532125473,9.80323600769043,1.8955528736114502
1_20251106_212721,1762435607160,1,0.4159679114818573,0.32317841053009033,0.5447514057159424,0.6525123119354248,0.20749877393245697,3.3865504264831543,1.2687398195266724,-0.7740118503570557,10.176907539367676,2.73018479347229,-0.3040655255317688,0.044554948806762695,-0.05621864274144173,25.54133415222168,-25.532379150390625,7.57774543762207,-0.37633851170539856,0.2301483154296875,0.5837702751159668,-0.3976733386516571,9.946759223937988,2.1464145183563232
1_20251106_212721,1762435607180,1,0.4171188771724701,0.32059818506240845,0.543236494064331,0.654310941696167,0.20749877393245697,3.3865504264831543,1.2687398195266724,-0.7740118503570557,10.176907539367676,2.73018479347229,-0.18372520804405212,0.08792634308338165,-0.03667097166180611,25.541210174560547,-25.555740356445312,7.401506423950195,-0.37633851170539856,0.2301483154296875,0.5837702751159668,-0.3976733386516571,9.946759223937988,2.1464145183563232
1_20251106_212721,1762435607199,1,0.4174617528915405,0.3189190626144409,0.5425431728363037,0.655487060546875,0.20037992298603058,3.385636806488037,1.287890076637268,-0.9260372519493103,9.895600318908691,2.7505345344543457,-0.12202785909175873,0.1312977373600006,0.018306853249669075,25.571109771728516,-25.46544647216797,7.323238372802734,-0.42269110679626465,-0.04092693328857422,0.48329591751098633,-0.5033461451530457,9.936527252197266,2.2672386169433594
1_20251106_212721,1762435607219,1,0.41713616251945496,0.31751999258995056,0.5422147512435913,0.6566442251205444,0.18811936676502228,3.382786989212036,1.3190828561782837,-0.46038493514060974,9.724422454833984,2.3926167488098145,-0.12202785909175873,0.1312977373600006,0.018306853249669075,25.571109771728516,-25.46544647216797,7.323238372802734,0.08169755339622498,-0.13881206512451172,0.06242990493774414,-0.5420824885368347,9.863234519958496,2.3301868438720703
1_20251106_212721,1762435607238,1,0.4163227081298828,0.31641775369644165,0.5416945219039917,0.6581202745437622,0.18811936676502228,3.382786989212036,1.3190828561782837,-0.46038493514060974,9.724422454833984,2.3926167488098145,-0.15562543272972107,0.10991747677326202,0.13559287786483765,25.660120010375977,-25.408447265625,7.206081390380859,0.08169755339622498,-0.13881206512451172,0.06242990493774414,-0.5420824885368347,9.863234519958496,2.3301868438720703
1_20251106_212721,1762435607256,1,0.41547301411628723,0.31581369042396545,0.5406844615936279,0.6597759127616882,0.1827804148197174,3.3806543350219727,1.3356106281280518,-0.25568950176239014,9.748363494873047,2.335158348083496,-0.1544037014245987,0.07387645542621613,0.16063833236694336,25.70915985107422,-25.404861450195312,7.16749382019043,0.2291143834590912,-0.09189701080322266,0.003977298736572266,-0.4848038852214813,9.84026050567627,2.331181049346924
1_20251106_212721,1762435607275,1,0.4145328998565674,0.3155428469181061,0.5394969582557678,0.6614667177200317,0.17660965025424957,3.3767638206481934,1.3612043857574463,-0.13957570493221283,9.751955032348633,2.3112173080444336,-0.1544037014245987,0.07387645542621613,0.16063833236694336,25.683773040771484,-25.43102264404297,7.111919403076172,0.22650034725666046,-0.054984092712402344,-0.021970272064208984,-0.3660760521888733,9.806939125061035,2.3331875801086426
1_20251106_212721,1762435607295,1,0.41369542479515076,0.31513914465904236,0.5384019017219543,0.6630737781524658,0.17448972165584564,3.3743536472320557,1.3744747638702393,-0.10964946448802948,9.720830917358398,2.2537591457366943,-0.15257111191749573,0.08792634308338165,0.13986892998218536,25.696157455444336,-25.429962158203125,7.085376739501953,0.20514126121997833,-0.06888675689697266,-0.06354284286499023,-0.3147907257080078,9.789717674255371,2.3173019886016846
1_20251106_212721,1762435607313,1,0.4131924510002136,0.3140588104724884,0.5376080870628357,0.6645424365997314,0.17312631011009216,3.372034788131714,1.3855966329574585,-0.13239340484142303,9.684919357299805,2.226226806640625,-0.18250347673892975,0.15451058745384216,-0.010403788648545742,25.67108154296875,-25.444107055664062,7.084131240844727,0.1459178477525711,-0.08383846282958984,-0.0728602409362793,-0.27831125259399414,9.768757820129395,2.2990870475769043
1_20251106_212721,1762435607333,1,0.41298481822013855,0.3123321831226349,0.537077009677887,0.6659132242202759,0.17182143032550812,3.369175910949707,1.3971949815750122,-0.23414260149002075,9.633445739746094,2.2525620460510254,-0.20327287912368774,0.15023455023765564,-0.025064542889595032,25.583454132080078,-25.499221801757812,7.012060165405273,0.03533491492271423,-0.10824966430664062,-0.037220001220703125,-0.269477516412735,9.741695404052734,2.2897820472717285
1_20251106_212721,1762435607352,1,0.4129240810871124,0.3107770085334778,0.5363777875900269,0.6672407388687134,0.17182143032550812,3.369175910949707,1.3971949815750122,-0.23414260149002075,9.633445739746094,2.2525620460510254,-0.2051054686307907,0.12274563312530518,0.006700423080474138,25.54389190673828,-25.540489196777344,7.131443023681641,0.03533491492271423,-0.10824966430664062,-0.037220001220703125,-0.269477516412735,9.741695404052734,2.2897820472717285
1_20251106_212721,1762435607372,1,0.41287168860435486,0.3094072937965393,0.5355429649353027,0.6685789823532104,0.16908039152622223,3.363558053970337,1.4179346561431885,-0.43524688482284546,9.72921085357666,2.293261766433716,-0.2051054686307907,0.12274563312530518,0.006700423080474138,25.4561767578125,-25.584121704101562,7.167766571044922,-0.1348215937614441,0.002735137939453125,0.009888172149658203,-0.30042529106140137,9.726475715637207,2.2833735942840576
1_20251106_212721,1762435607390,1,0.4127459228038788,0.3081728219985962,0.5346688032150269,0.6699250340461731,0.16720615327358246,3.3612091541290283,1.4273778200149536,-0.4974934756755829,9.744771957397461,2.5159130096435547,-0.22526401281356812,0.12579995393753052,0.025026366114616394,25.34147071838379,-25.679306030273438,7.175022125244141,-0.1576545536518097,0.014636993408203125,0.18603157997131348,-0.3398389220237732,9.730134963989258,2.329881429672241
1_20251106_212721,1762435607410,1,0.4126901924610138,0.30654582381248474,0.5338922142982483,0.6713237762451172,0.16720615327358246,3.3612091541290283,1.4273778200149536,-0.4974934756755829,9.744771957397461,2.5159130096435547,-0.23259437084197998,0.14534762501716614,0.040908847004175186,25.240755081176758,-25.74803924560547,7.129230499267578,-0.1576545536518097,0.014636993408203125,0.18603157997131348,-0.3398389220237732,9.730134963989258,2.329881429672241
1_20251106_212721,1762435607429,1,0.4124639630317688,0.3045569658279419,0.5329934358596802,0.6730799078941345,0.16474944353103638,3.3587074279785156,1.439731240272522,-0.4160941243171692,9.791457176208496,2.7074408531188965,-0.21732276678085327,0.12946514785289764,0.08794543147087097,25.15032196044922,-25.841766357421875,7.150981903076172,-0.0610041618347168,0.049057960510253906,0.3020474910736084,-0.3550899624824524,9.742399215698242,2.405393362045288
1_20251106_212721,1762435607450,1,0.4118518829345703,0.3028821349143982,0.5318346619606018,0.675123929977417,0.16299012303352356,3.35723614692688,1.4509843587875366,-0.26167476177215576,9.954256057739258,2.8127810955047607,-0.19227731227874756,0.09831104427576065,0.1429232507944107,25.05797004699707,-25.972900390625,7.144908905029297,0.07473218441009521,0.16948509216308594,0.3259100914001465,-0.336406946182251,9.784770965576172,2.4868710041046143
1_20251106_212721,1762435607467,1,0.41088271141052246,0.3019619286060333,0.5304213166236877,0.6772353053092957,0.16126194596290588,3.3560900688171387,1.4743132591247559,-0.08929964900016785,9.960241317749023,3.0485997200012207,-0.19227731227874756,0.09831104427576065,0.1429232507944107,25.043655395507812,-26.022979736328125,7.048748016357422,0.16906574368476868,0.10483074188232422,0.37099790573120117,-0.2583653926849365,9.8554105758667,2.6776018142700195
1_20251106_212721,1762435607486,1,0.409649521112442,0.3013438582420349,0.5290224552154541,0.6793484687805176,0.16126194596290588,3.3560900688171387,1.4743132591247559,-0.08929964900016785,9.960241317749023,3.0485997200012207,-0.10003673285245895,0.0958675891160965,0.12581904232501984,25.00609588623047,-26.03832244873047,7.087562561035156,0.16906574368476868,0.10483074188232422,0.37099790573120117,-0.2583653926849365,9.8554105758667,2.6776018142700195
1_20251106_212721,1762435607505,1,0.4085390269756317,0.30077293515205383,0.527956485748291,0.6810972690582275,0.16147282719612122,3.3558692932128906,1.4876195192337036,0.0112525075674057,9.919541358947754,2.919318437576294,-0.08048906177282333,0.09525671601295471,0.08855629712343216,24.930049896240234,-26.105064392089844,7.002202987670898,0.21569432318210602,0.05130481719970703,0.1933732032775879,-0.20444181561470032,9.868236541748047,2.725945234298706
1_20251106_212721,1762435607524,1,0.40752124786376953,0.30032411217689514,0.52720707654953,0.6824841499328613,0.1631356179714203,3.3558175563812256,1.5105515718460083,-0.070146843791008,9.863279342651367,2.726593494415283,-0.08048905432224274,0.08914807438850403,0.0964975357055664,24.801536560058594,-26.238037109375,6.940593719482422,0.07560628652572632,-0.014664649963378906,-0.0020749568939208984,-0.14575313031673431,9.877943992614746,2.728668451309204
1_20251106_212721,1762435607542,1,0.4065745770931244,0.3001672625541687,0.5265928506851196,0.6835910677909851,0.16428475081920624,3.3556385040283203,1.52094566822052,-0.029447153210639954,9.82377815246582,2.7660961151123047,-0.08048905432224274,0.08914807438850403,0.0964975357055664,24.688140869140625,-26.308242797851562,6.961893081665039,0.09304478019475937,-0.04333305358886719,0.029942035675048828,-0.12249193340539932,9.867111206054688,2.736154079437256
1_20251106_212721,1762435607563,1,0.40537676215171814,0.30017557740211487,0.5260701775550842,0.6847002506256104,0.16618315875530243,3.3551783561706543,1.5324658155441284,0.0639227032661438,9.789063453674316,2.7361698150634766,-0.027343833819031715,0.07815250754356384,0.168579563498497,24.624588012695312,-26.36217498779297,6.931352615356445,0.14913171529769897,-0.062438011169433594,1.239776611328125e-05,-0.08520900458097458,9.85150146484375,2.7361574172973633
1_20251106_212721,1762435607582,1,0.40385112166404724,0.30045878887176514,0.5256094336509705,0.6858305335044861,0.16618315875530243,3.3551783561706543,1.5324658155441284,0.0639227032661438,9.789063453674316,2.7361698150634766,-0.007796161808073521,0.07815250754356384,0.18018600344657898,24.547243118286133,-26.442283630371094,6.926826477050781,0.14913171529769897,-0.062438011169433594,1.239776611328125e-05,-0.08520900458097458,9.85150146484375,2.7361574172973633
1_20251106_212721,1762435607600,1,0.402227520942688,0.3010346591472626,0.5251839756965637,0.686857283115387,0.16880536079406738,3.354339361190796,1.542670488357544,0.2123568058013916,9.712451934814453,2.664346933364868,-0.017569996416568756,0.07143299281597137,0.18812723457813263,24.446033477783203,-26.511695861816406,6.948616027832031,0.23805265128612518,-0.11123943328857422,-0.057448387145996094,-0.025695841759443283,9.823691368103027,2.7217953205108643
1_20251106_212721,1762435607619,1,0.4005359411239624,0.30185556411743164,0.5246090888977051,0.6879240274429321,0.1722322702407837,3.3532211780548096,1.5516273975372314,0.3607909381389618,9.692102432250977,2.6296324729919434,-0.017569996416568756,0.07143299281597137,0.18812723457813263,24.294780731201172,-26.59764862060547,7.049276351928711,0.30918943881988525,-0.1052713394165039,-0.07373046875,0.051601506769657135,9.79737377166748,2.7033629417419434
1_20251106_212721,1762435607639,1,0.3988458812236786,0.3030528426170349,0.5236198306083679,0.6891322135925293,0.17696340382099152,3.3522839546203613,1.560213327407837,0.5894273519515991,9.84292984008789,2.73138165473938,-0.07865646481513977,0.014622574672102928,0.2260008603334427,24.16436195373535,-26.75640869140625,7.054721832275391,0.43026068806648254,0.036444664001464844,0.0224149227142334,0.15916666388511658,9.806485176086426,2.7089667320251465
1_20251106_212721,1762435607660,1,0.397216796875,0.30458205938339233,0.522072970867157,0.6905710697174072,0.18893520534038544,3.3524513244628906,1.5763386487960815,0.5331660509109497,10.090719223022461,2.8810129165649414,-0.07376955449581146,-0.014698933809995651,0.18262946605682373,24.16436195373535,-26.75640869140625,7.054721832275391,0.21695083379745483,0.1882305145263672,0.13041138648986816,0.3162152171134949,9.902488708496094,2.7506015300750732
1_20251106_212721,1762435607677,1,0.3959977626800537,0.3061985671520233,0.5205863118171692,0.6916777491569519,0.18893520534038544,3.3524513244628906,1.5763386487960815,0.5331660509109497,10.090719223022461,2.8810129165649414,-0.016959132626652718,-0.012866338714957237,0.11115829646587372,24.08681869506836,-26.83678436279297,7.077228546142578,0.21695083379745483,0.1882305145263672,0.13041138648986816,0.3162152171134949,9.902488708496094,2.7506015300750732
1_20251106_212721,1762435607696,1,0.39517784118652344,0.30728960037231445,0.5197337865829468,0.6923036575317383,0.20004399120807648,3.3549294471740723,1.5923607349395752,0.030405312776565552,10.024881362915039,2.758913993835449,0.027633992955088615,0.024396410211920738,0.02319376915693283,24.022489547729492,-26.88018035888672,7.249696731567383,-0.22716131806373596,0.05534839630126953,-0.011917591094970703,0.2575666308403015,9.96953296661377,2.77083158493042
1_20251106_212721,1762435607715,1,0.3945779502391815,0.3074215352535248,0.5198824405670166,0.6924756169319153,0.20004399120807648,3.3549294471740723,1.5923607349395752,0.030405312776565552,10.024881362915039,2.758913993835449,0.0465708002448082,0.06715694069862366,-0.024453677237033844,23.918445587158203,-27.011428833007812,7.1755523681640625,-0.22716131806373596,0.05534839630126953,-0.011917591094970703,0.2575666308403015,9.96953296661377,2.77083158493042
1_20251106_212721,1762435607734,1,0.3943397104740143,0.30691149830818176,0.5206562876701355,0.6922561526298523,0.20670320093631744,3.3563225269317627,1.605197548866272,-0.16471374034881592,9.787866592407227,2.4859867095947266,0.03191004693508148,0.06532435119152069,-0.009792922995984554,23.8125,-27.16846466064453,7.168460845947266,-0.28807154297828674,-0.1271839141845703,-0.1999213695526123,0.12335780262947083,9.915050506591797,2.685908079147339
1_20251106_212721,1762435607754,1,0.3940882086753845,0.3064342141151428,0.5214396119117737,0.6920211911201477,0.2083340287208557,3.356093645095825,1.6107747554779053,-0.24012786149978638,9.689708709716797,2.5829474925994873,0.009308049455285072,0.04883100092411041,0.048239223659038544,23.74663543701172,-27.260337829589844,7.164161682128906,-0.29078853130340576,-0.18027400970458984,-0.08236837387084961,0.050660669803619385,9.869982719421387,2.665315866470337
1_20251106_212721,1762435607772,1,0.393656462430954,0.30619752407073975,0.5220072865486145,0.6919437050819397,0.20928353071212769,3.355262517929077,1.615644097328186,-0.1299993097782135,9.611900329589844,2.7062437534332275,0.005642862059175968,0.031726788729429245,0.10932569950819016,23.647130966186523,-27.304229736328125,7.145929336547852,-0.14452798664569855,-0.2064657211303711,0.03274226188659668,0.014528675004839897,9.818366050720215,2.673501491546631
1_20251106_212721,1762435607791,1,0.3929496705532074,0.30610665678977966,0.5222612619400024,0.6921939253807068,0.21005260944366455,3.3540170192718506,1.6206856966018677,-0.05219109356403351,9.668161392211914,2.731381893157959,-0.008407026529312134,0.014622574672102928,0.12459731847047806,23.592945098876953,-27.4075927734375,7.114824295043945,-0.05337581783533096,-0.1201639175415039,0.04630422592163086,0.0011847224086523056,9.788325309753418,2.685077667236328
1_20251106_212721,1762435607811,1,0.3921430706977844,0.30609482526779175,0.5221309065818787,0.6927546858787537,0.21060484647750854,3.3526792526245117,1.6259081363677979,-0.070146843791008,9.757940292358398,2.74454927444458,-0.03161988407373428,0.03661370649933815,0.07817159593105316,23.53030776977539,-27.43708038330078,7.152393341064453,-0.05706525593996048,-0.024308204650878906,0.0475771427154541,-0.013081589713692665,9.782248497009277,2.696972131729126
1_20251106_212721,1762435607830,1,0.3915702998638153,0.3057267367839813,0.5219992995262146,0.6933401823043823,0.21089741587638855,3.3515233993530273,1.6307551860809326,-0.08810257911682129,9.801033020019531,2.745746374130249,-0.03345248103141785,0.07754164189100266,-0.00796032976359129,23.4493408203125,-27.580108642578125,7.160062789916992,-0.06001679226756096,0.015027999877929688,0.03901934623718262,-0.02808578684926033,9.786005020141602,2.7067270278930664
1_20251106_212721,1762435607849,1,0.3913082480430603,0.3046131134033203,0.5223112106323242,0.6937432885169983,0.21089741587638855,3.3515233993530273,1.6307551860809326,-0.08810257911682129,9.801033020019531,2.745746374130249,-0.012072214856743813,0.10808487981557846,-0.05866210535168648,23.35928726196289,-27.684913635253906,7.032871246337891,-0.06001679226756096,0.015027999877929688,0.03901934623718262,-0.02808578684926033,9.786005020141602,2.7067270278930664
1_20251106_212721,1762435607869,1,0.391213595867157,0.30318257212638855,0.5230115056037903,0.693895697593689,0.21101844310760498,3.350409507751465,1.6356844902038574,-0.08451142907142639,9.799836158752441,2.7337758541107178,-0.0016875145956873894,0.12518909573554993,-0.04461221396923065,23.360401153564453,-27.660202026367188,7.073947906494141,-0.04514051228761673,0.011065483093261719,0.021639108657836914,-0.03937091678380966,9.78877067565918,2.712136745452881
1_20251106_212721,1762435607887,1,0.3908834457397461,0.3017861247062683,0.5237978100776672,0.6940973401069641,0.2112545669078827,3.3491992950439453,1.6404039859771729,0.00047907233238220215,9.738786697387695,2.7241995334625244,0.005031997337937355,0.13068687915802002,-0.011625518091022968,23.31367301940918,-27.625839233398438,7.086294174194336,0.03187999129295349,-0.03998756408691406,0.009650230407714844,-0.03140091896057129,9.77877426147461,2.7145493030548096
1_20251106_212721,1762435607907,1,0.39035093784332275,0.3007652759552002,0.5244126319885254,0.6943758130073547,0.21203790605068207,3.347905397415161,1.6444566249847412,0.17644533514976501,9.705268859863281,2.639209032058716,0.01969275064766407,0.10319796204566956,0.012809070758521557,23.251544952392578,-27.643043518066406,7.151159286499023,0.16627700626850128,-0.05880451202392578,-0.060272216796875,0.010168328881263733,9.764073371887207,2.699481248855591
1_20251106_212721,1762435607924,1,0.3896767199039459,0.3004480004310608,0.5248603224754333,0.6945536136627197,0.21619157493114471,3.3445472717285156,1.6509002447128296,0.5331660509109497,9.51972770690918,2.6463911533355713,0.011751510202884674,0.08365029096603394,0.040297981351614,23.225662231445312,-27.669883728027344,7.163166046142578,0.3552120327949524,-0.17189502716064453,-0.028998136520385742,0.17795401811599731,9.691622734069824,2.675389289855957
1_20251106_212721,1762435607945,1,0.3887621760368347,0.30063289403915405,0.524945080280304,0.6949219107627869,0.22074773907661438,3.341479539871216,1.654248833656311,0.6720237731933594,9.417978286743164,2.6236472129821777,0.0025885384529829025,0.05616137757897377,0.05679132789373398,23.191120147705078,-27.634735107421875,7.176002502441406,0.39525580406188965,-0.2189159393310547,-0.04139375686645508,0.2767679691314697,9.636894226074219,2.665040969848633
1_20251106_212721,1762435607964,1,0.3879052996635437,0.3011927008628845,0.5246476531028748,0.695382833480835,0.22602416574954987,3.3383569717407227,1.6567901372909546,0.7725759744644165,9.459875106811523,2.542248010635376,-0.007796161808073521,0.03966802731156349,0.058013059198856354,23.15505599975586,-27.636444091796875,7.1069488525390625,0.3966464102268219,-0.1416149139404297,-0.09823441505432129,0.3759295642375946,9.601490020751953,2.6404824256896973
1_20251106_212721,1762435607982,1,0.3871159553527832,0.3020111322402954,0.5241051912307739,0.6958765983581543,0.23189997673034668,3.335221529006958,1.659177303314209,0.8336254358291626,9.469449996948242,2.681105613708496,-0.007796161808073521,0.03966802731156349,0.058013059198856354,23.109342575073242,-27.57750701904297,7.17388916015625,0.3661566972732544,-0.10563182830810547,0.03249859809875488,0.4674687385559082,9.575081825256348,2.648607015609741
1_20251106_212721,1762435608001,1,0.38663458824157715,0.3028438687324524,0.5233297348022461,0.6963657736778259,0.23189997673034668,3.335221529006958,1.659177303314209,0.8336254358291626,9.469449996948242,2.681105613708496,-0.09820413589477539,0.032337650656700134,0.003035235218703747,23.1109619140625,-27.540512084960938,7.24226188659668,0.3661566972732544,-0.10563182830810547,0.03249859809875488,0.4674687385559082,9.575081825256348,2.648607015609741
1_20251106_212721,1762435608021,1,0.3863753080368042,0.30319902300834656,0.5222326517105103,0.6971782445907593,0.23920078575611115,3.3322057723999023,1.6622434854507446,0.8288372755050659,9.671751022338867,2.828342914581299,-0.10248018801212311,0.010346520692110062,-0.030562326312065125,23.023460388183594,-27.572265625,7.346431732177734,0.28909480571746826,0.07733535766601562,0.14378857612609863,0.5397424697875977,9.594415664672852,2.6845543384552
1_20251106_212721,1762435608040,1,0.3864485025405884,0.30339255928993225,0.5210911631584167,0.6979072690010071,0.2472596913576126,3.330219030380249,1.6664940118789673,0.7713788747787476,9.899190902709961,3.0402204990386963,-0.046891503036022186,-0.020807579159736633,-0.03972529619932175,22.961727142333984,-27.58892822265625,7.357231140136719,0.18530911207199097,0.2438201904296875,0.2845327854156494,0.5860697627067566,9.655370712280273,2.755687713623047
1_20251106_212721,1762435608059,1,0.38655000925064087,0.30365800857543945,0.5202027559280396,0.6983981728553772,0.2535502016544342,3.3293609619140625,1.6707677841186523,0.47570767998695374,9.96383285522461,3.0857081413269043,0.037407830357551575,-0.043409571051597595,-0.010403788648545742,22.966053009033203,-27.513450622558594,7.345298767089844,-0.08828970789909363,0.24676990509033203,0.26401615142822266,0.5639973878860474,9.717062950134277,2.8216919898986816
1_20251106_212721,1762435608080,1,0.38652023673057556,0.3040788471698761,0.5199293494224548,0.6984351277351379,0.2631026804447174,3.3273112773895264,1.6795991659164429,0.15370139479637146,9.504165649414062,2.7206082344055176,0.07894663512706757,-0.04524216428399086,0.03052414581179619,22.978240966796875,-27.512657165527344,7.345788955688477,-0.273698091506958,-0.17513370513916016,-0.10299921035766602,0.42739948630332947,9.679299354553223,2.8236074447631836
1_20251106_212721,1762435608098,1,0.38621965050697327,0.3045338988304138,0.520084023475647,0.6982879638671875,0.2665512263774872,3.3255558013916016,1.6826752424240112,0.2410859912633896,9.490997314453125,2.5195040702819824,0.0361860990524292,-0.03485746681690216,0.060456518083810806,22.978240966796875,-27.512657165527344,7.345788955688477,-0.14905081689357758,-0.15064144134521484,-0.24328279495239258,0.39013680815696716,9.64163875579834,2.762786865234375
1_20251106_212721,1762435608116,1,0.3859042823314667,0.3050258159637451,0.5200865864753723,0.6982457041740417,0.269685834646225,3.3237171173095703,1.6850244998931885,0.402687668800354,9.53648567199707,2.5925240516662598,-0.01634826883673668,-0.05073994770646095,0.08061505854129791,22.964447021484375,-27.538833618164062,7.371803283691406,0.010040700435638428,-0.0841226577758789,-0.13621044158935547,0.3926469683647156,9.62060832977295,2.7287344932556152
1_20251106_212721,1762435608135,1,0.38567444682121277,0.3058532178401947,0.5197295546531677,0.6982765793800354,0.269685834646225,3.3237171173095703,1.6850244998931885,0.402687668800354,9.53648567199707,2.5925240516662598,-0.030398156493902206,-0.08006145060062408,0.08916716277599335,23.01430320739746,-27.510948181152344,7.41484260559082,0.010040700435638428,-0.0841226577758789,-0.13621044158935547,0.3926469683647156,9.62060832977295,2.7287344932556152
1_20251106_212721,1762435608154,1,0.38553670048713684,0.30703240633010864,0.5189595818519592,0.6984078288078308,0.27322977781295776,3.321758270263672,1.687416434288025,0.4134610891342163,9.644220352172852,2.665544033050537,-0.020624320954084396,-0.0947222113609314,0.0714520812034607,23.000608444213867,-27.53699493408203,7.427341461181641,0.016651302576065063,0.018889427185058594,-0.0505523681640625,0.39680978655815125,9.625330924987793,2.7160964012145996
1_20251106_212721,1762435608173,1,0.3854408860206604,0.30809929966926575,0.5182816386222839,0.6984943151473999,0.27609825134277344,3.3200936317443848,1.6896227598190308,0.332061767578125,9.63224983215332,2.7708845138549805,-0.010239620693027973,-0.07578539848327637,0.043963171541690826,22.98770523071289,-27.56195831298828,7.331708908081055,-0.05179843306541443,0.005535125732421875,0.04383063316345215,0.38386020064353943,9.626714706420898,2.7270538806915283
1_20251106_212721,1762435608193,1,0.3855193853378296,0.30874425172805786,0.5177766680717468,0.6985406875610352,0.2796260714530945,3.316877841949463,1.693434238433838,0.1596866399049759,9.555638313293457,2.663149833679199,-0.010850485414266586,-0.027527088299393654,-0.0036842767149209976,22.949230194091797,-27.60174560546875,7.3024139404296875,-0.14213038980960846,-0.055640220642089844,-0.05066657066345215,0.30181702971458435,9.611278533935547,2.7138164043426514
1_20251106_212721,1762435608212,1,0.38578447699546814,0.30862724781036377,0.5177720785140991,0.6984494924545288,0.2796260714530945,3.316877841949463,1.693434238433838,0.1596866399049759,9.555638313293457,2.663149833679199,-0.01940259151160717,-0.0024816379882395267,-0.050109993666410446,22.924238204956055,-27.62737274169922,7.192775726318359,-0.14213038980960846,-0.055640220642089844,-0.05066657066345215,0.30181702971458435,9.611278533935547,2.7138164043426514
1_20251106_212721,1762435608231,1,0.3861404061317444,0.30808398127555847,0.5180071592330933,0.6983182430267334,0.2808931767940521,3.314718246459961,1.69516122341156,0.21834206581115723,9.461071968078613,2.683499813079834,-0.053611017763614655,-0.0061468263156712055,-0.04155788943171501,22.87175941467285,-27.705215454101562,7.121648788452148,-0.0667799711227417,-0.12016582489013672,-0.024253368377685547,0.2851220369338989,9.58123779296875,2.7077531814575195
1_20251106_212721,1762435608250,1,0.3866938054561615,0.3076753616333008,0.517802894115448,0.6983436942100525,0.2819776237010956,3.3127598762512207,1.696516990661621,0.24587419629096985,9.611900329589844,2.6140708923339844,-0.09514981508255005,-0.04524216428399086,0.007922152988612652,22.79693603515625,-27.735496520996094,7.158727645874023,-0.031398266553878784,0.024530410766601562,-0.07494592666625977,0.27727246284484863,9.587369918823242,2.689016819000244
1_20251106_212721,1762435608270,1,0.38717740774154663,0.30774667859077454,0.5171492695808411,0.6985286474227905,0.283002644777298,3.3102762699127197,1.7002589702606201,0.14771613478660583,9.755544662475586,3.031841278076172,-0.08659771084785461,-0.07089848816394806,0.05923478677868843,22.734695434570312,-27.764450073242188,7.142230987548828,-0.08617202937602997,0.11893177032470703,0.2548403739929199,0.2338881641626358,9.636612892150879,2.777000904083252
1_20251106_212721,1762435608289,1,0.38731157779693604,0.3078635632991791,0.5163071751594543,0.6990255117416382,0.28324776887893677,3.3096389770507812,1.7033400535583496,0.19679518043994904,9.763925552368164,3.1012699604034424,-0.08659771084785461,-0.07089848816394806,0.05923478677868843,22.634883880615234,-27.820358276367188,7.069669723510742,-0.029674381017684937,0.10185050964355469,0.2594151496887207,0.22646956145763397,9.66207504272461,2.8418548107147217
1_20251106_212721,1762435608307,1,0.38719871640205383,0.3079391121864319,0.5155841708183289,0.6995881795883179,0.28353092074394226,3.3093574047088623,1.7064629793167114,0.2518594264984131,9.780683517456055,2.983959197998047,-0.012683079577982426,-0.04096611216664314,0.048239223659038544,22.624502182006836,-27.795501708984375,7.015642166137695,0.02031189203262329,0.09488677978515625,0.11368346214294434,0.2315475344657898,9.685796737670898,2.8702757358551025
1_20251106_212721,1762435608326,1,0.38702917098999023,0.30783388018608093,0.5151521563529968,0.7000464200973511,0.2838442921638489,3.3090038299560547,1.7095484733581543,0.24228304624557495,9.659782409667969,2.853480815887451,0.00686459057033062,-0.020807581022381783,-0.00612773559987545,22.646350860595703,-27.843734741210938,6.975017547607422,0.008588403463363647,-0.020812034606933594,-0.013435840606689453,0.2336946427822113,9.680594444274902,2.8669166564941406
1_20251106_212721,1762435608345,1,0.38703230023384094,0.307608962059021,0.515153169631958,0.7001428008079529,0.2841852605342865,3.308410406112671,1.712157130241394,0.24946534633636475,9.586761474609375,2.7493374347686768,-0.0022983793169260025,0.005459603387862444,-0.04461221396923065,22.671527862548828,-27.829452514648438,6.962745666503906,0.012616559863090515,-0.07506656646728516,-0.09406328201293945,0.23684878647327423,9.66182804107666,2.843400716781616
1_20251106_212721,1762435608365,1,0.3873199224472046,0.30718982219696045,0.5153294205665588,0.7000380158424377,0.28446999192237854,3.3073740005493164,1.7146108150482178,0.21834206581115723,9.516136169433594,2.792431354522705,-0.0022983793169260025,0.005459603387862444,-0.04461221396923065,22.6429386138916,-27.89476776123047,7.055059432983398,-0.014805376529693604,-0.11655330657958984,-0.04077553749084473,0.23314744234085083,9.632689476013184,2.83320689201355
1_20251106_212721,1762435608384,1,0.3876245617866516,0.306576669216156,0.5154698491096497,0.7000348567962646,0.28498849272727966,3.3061320781707764,1.7169597148895264,0.3284706175327301,9.520923614501953,2.8822100162506104,-0.05971965938806534,0.015844302251935005,-0.012847249396145344,22.630146026611328,-27.907981872558594,7.040788650512695,0.07625854015350342,-0.08941268920898438,0.03920245170593262,0.2522120773792267,9.610336303710938,2.8430075645446777
1_20251106_212721,1762435608403,1,0.3877274990081787,0.3060007095336914,0.51528000831604,0.7003695368766785,0.28498849272727966,3.3061320781707764,1.7169597148895264,0.3284706175327301,9.520923614501953,2.8822100162506104,-0.0774347335100174,-0.023251038044691086,0.05312614142894745,22.619766235351562,-27.88312530517578,6.986761093139648,0.07625854015350342,-0.08941268920898438,0.03920245170593262,0.2522120773792267,9.610336303710938,2.8430075645446777
1_20251106_212721,1762435608421,1,0.38762331008911133,0.3060474693775177,0.5144655704498291,0.701005220413208,0.2863822877407074,3.305053949356079,1.719846248626709,0.5056339502334595,9.67773723602295,2.968397617340088,-0.07987819612026215,-0.06662243604660034,0.07694986462593079,22.669300079345703,-27.878868103027344,6.880592346191406,0.20273751020431519,0.053920745849609375,0.1003119945526123,0.3028964400291443,9.62381649017334,2.8680856227874756
1_20251106_212721,1762435608441,1,0.38747742772102356,0.30667051672935486,0.5132676362991333,0.7016913294792175,0.2896759510040283,3.3047547340393066,1.7253870964050293,0.36917030811309814,9.7890625,3.104861259460449,-0.04933495819568634,-0.07212021946907043,0.04885008558630943,22.718341827392578,-27.875289916992188,6.842004776000977,0.015409857034683228,0.09426593780517578,0.1681993007659912,0.3537604510784149,9.694796562194824,2.936661958694458
1_20251106_212721,1762435608460,1,0.3875664174556732,0.307431697845459,0.512312114238739,0.7020073533058167,0.2913393974304199,3.3047080039978027,1.7289644479751587,0.32009124755859375,9.681327819824219,3.060570240020752,-0.012683079577982426,-0.04463129863142967,-0.009182059206068516,22.755184173583984,-27.884117126464844,6.708049774169922,-0.02693536877632141,-0.010774612426757812,0.09912657737731934,0.34702661633491516,9.692102432250977,2.9614436626434326
1_20251106_212721,1762435608480,1,0.38781654834747314,0.30744078755378723,0.5119428038597107,0.7021346092224121,0.2913393974304199,3.3047080039978027,1.7289644479751587,0.32009124755859375,9.681327819824219,3.060570240020752,-0.012683079577982426,-0.04463129863142967,-0.009182059206068516,22.73212242126465,-27.86072540283203,6.721113204956055,-0.02693536877632141,-0.010774612426757812,0.09912657737731934,0.34702661633491516,9.692102432250977,2.9614436626434326
1_20251106_212721,1762435608499,1,0.38841700553894043,0.3070083558559418,0.5119608640670776,0.7019788026809692,0.29235392808914185,3.303501605987549,1.7348765134811401,0.012449562549591064,9.505362510681152,2.837919235229492,-0.0010766498744487762,-0.02141844481229782,-0.07576631009578705,22.734731674194336,-27.82238006591797,6.654323577880859,-0.23270753026008606,-0.12851524353027344,-0.09418630599975586,0.24515709280967712,9.633877754211426,2.932105541229248
1_20251106_212721,1762435608519,1,0.3891574740409851,0.30605560541152954,0.512309730052948,0.7017301321029663,0.2912923991680145,3.3017282485961914,1.7374681234359741,-0.10127012431621552,9.356927871704102,2.857071876525879,-0.014515673741698265,-0.0012599086621776223,-0.10447695106267929,22.734731674194336,-27.82238006591797,6.654323577880859,-0.2771417498588562,-0.2215595245361328,-0.060027122497558594,0.17587164044380188,9.578487396240234,2.9170989990234375
1_20251106_212721,1762435608536,1,0.38984712958335876,0.30508488416671753,0.5125983357429504,0.7015592455863953,0.2898857295513153,3.299835681915283,1.7394477128982544,-0.09289076924324036,9.337776184082031,2.9109392166137695,-0.047502368688583374,-0.0012599086621776223,-0.01406897883862257,22.774208068847656,-27.769630432128906,6.643333435058594,-0.2150099277496338,-0.19256877899169922,-0.004927873611450195,0.12211915850639343,9.53034496307373,2.9158670902252197
1_20251106_212721,1762435608555,1,0.39012423157691956,0.30417439341545105,0.5126681923866272,0.7017495036125183,0.2898857295513153,3.299835681915283,1.7394477128982544,-0.09289076924324036,9.337776184082031,2.9109392166137695,-0.06277398765087128,-0.0061468263156712055,0.043963171541690826,22.811370849609375,-27.75482177734375,6.6585845947265625,-0.2150099277496338,-0.19256877899169922,-0.004927873611450195,0.12211915850639343,9.53034496307373,2.9158670902252197
1_20251106_212721,1762435608575,1,0.39007192850112915,0.30349448323249817,0.5123962759971619,0.7022713422775269,0.2854406237602234,3.2949953079223633,1.7439974546432495,-0.05219109356403351,9.428750991821289,3.011491298675537,-0.06827176362276077,-0.012866338714957237,0.07389554381370544,22.832714080810547,-27.815345764160156,6.590663909912109,-0.1102178618311882,-0.06521129608154297,0.07364869117736816,0.058026768267154694,9.493962287902832,2.937842607498169
1_20251106_212721,1762435608594,1,0.389883816242218,0.30306771397590637,0.5119584202766418,0.7028791904449463,0.2854406237602234,3.2949953079223633,1.7439974546432495,-0.05219109356403351,9.428750991821289,3.011491298675537,-0.06827176362276077,-0.012866338714957237,0.07389554381370544,22.843292236328125,-27.839935302734375,6.617658615112305,-0.1102178618311882,-0.06521129608154297,0.07364869117736816,0.058026768267154694,9.493962287902832,2.937842607498169
1_20251106_212721,1762435608613,1,0.3895966112613678,0.3025546967983246,0.5114442110061646,0.7036333680152893,0.2805701494216919,3.290199041366577,1.7498914003372192,0.02801121026277542,9.463464736938477,3.1946396827697754,-0.06888263672590256,0.024396410211920738,0.07206295430660248,22.817607879638672,-27.866500854492188,6.602634429931641,-0.008675925433635712,-0.01702880859375,0.17392659187316895,0.03668713569641113,9.480493545532227,3.0207130908966064
1_20251106_212721,1762435608632,1,0.38923558592796326,0.30173516273498535,0.5109820365905762,0.7045203447341919,0.27854669094085693,3.287424325942993,1.753257393836975,0.12377516180276871,9.28630256652832,3.151546001434326,-0.040782853960990906,0.06349175423383713,0.03602192923426628,22.756072998046875,-27.882896423339844,6.586402893066406,0.0696704238653183,-0.15535259246826172,0.10466647148132324,0.05410473793745041,9.441655158996582,3.046879529953003
1_20251106_212721,1762435608651,1,0.3887632489204407,0.3006141483783722,0.510879635810852,0.7053341269493103,0.27854669094085693,3.287424325942993,1.753257393836975,0.12377516180276871,9.28630256652832,3.151546001434326,-0.040782853960990906,0.06349175423383713,0.03602192923426628,22.791728973388672,-27.893341064453125,6.614643096923828,0.0696704238653183,-0.15535259246826172,0.10466647148132324,0.05410473793745041,9.441655158996582,3.046879529953003
1_20251106_212721,1762435608672,1,0.3883858919143677,0.2994268536567688,0.5108869671821594,0.7060413956642151,0.2768281102180481,3.2834765911102295,1.7565367221832275,0.17524829506874084,9.133079528808594,2.9707915782928467,-0.03284161537885666,0.08181770145893097,0.0024243704974651337,22.812267303466797,-27.966552734375,6.559974670410156,0.09691484272480011,-0.24686050415039062,-0.06087040901184082,0.07833345234394073,9.379940032958984,3.0316619873046875
1_20251106_212721,1762435608690,1,0.3880632519721985,0.29832521080970764,0.5105559825897217,0.7069240212440491,0.2747495770454407,3.275908946990967,1.7611178159713745,0.19679518043994904,9.221662521362305,3.0390233993530273,-0.13791033625602722,0.06532435119152069,0.05007181689143181,22.738842010498047,-27.98333740234375,6.502702713012695,0.07983759045600891,-0.1024465560913086,0.031142234802246094,0.11695758998394012,9.324109077453613,3.0078811645507812
1_20251106_212721,1762435608710,1,0.3878246545791626,0.29755210876464844,0.5098548531532288,0.7078861594200134,0.2742210030555725,3.2718307971954346,1.7639676332473755,0.23988895118236542,9.282711029052734,3.1754870414733887,-0.13791033625602722,0.061659157276153564,0.06839776039123535,22.69080352783203,-27.973960876464844,6.501005172729492,0.098345085978508,-0.033118247985839844,0.13408470153808594,0.14154386520385742,9.315829277038574,3.0414023399353027
1_20251106_212721,1762435608729,1,0.38736045360565186,0.2967032790184021,0.5089855790138245,0.7091211080551147,0.27421167492866516,3.268324136734009,1.7666282653808594,0.3212883174419403,9.307849884033203,3.1323933601379395,-0.11469748616218567,0.07265472412109375,0.0659543052315712,22.66733169555664,-27.962722778320312,6.473255157470703,0.14379556477069855,-0.0063838958740234375,0.07279276847839355,0.17749275267124176,9.314233779907227,3.059600591659546
1_20251106_212721,1762435608747,1,0.38673174381256104,0.2957860827445984,0.5082234740257263,0.7103928923606873,0.27490225434303284,3.264918327331543,1.7692463397979736,0.43261390924453735,9.354534149169922,3.0414175987243652,-0.12141700088977814,0.06837867200374603,0.06289997696876526,22.58293342590332,-27.955459594726562,6.44305419921875,0.20409691333770752,0.032240867614746094,-0.014546394348144531,0.22851699590682983,9.322293281555176,3.0559639930725098
1_20251106_212721,1762435608766,1,0.38623401522636414,0.29512086510658264,0.5073756575584412,0.7115454077720642,0.2760066092014313,3.262162208557129,1.7720023393630981,0.3919142186641693,9.49698257446289,3.153940200805664,-0.12141700088977814,0.06837867200374603,0.06289997696876526,22.549095153808594,-27.907745361328125,6.456155776977539,0.13071778416633606,0.13975143432617188,0.07838082313537598,0.26119643449783325,9.357231140136719,3.075559377670288
1_20251106_212721,1762435608784,1,0.38591882586479187,0.2947738766670227,0.5061033964157104,0.7127652764320374,0.2773047387599945,3.260179042816162,1.7753183841705322,0.3847319483757019,9.559229850769043,3.4148969650268555,-0.19349904358386993,0.04150062054395676,0.07878246158361435,22.520790100097656,-27.984268188476562,6.413042068481445,0.09882840514183044,0.16159915924072266,0.2714700698852539,0.28590354323387146,9.39763069152832,3.1434268951416016
1_20251106_212721,1762435608804,1,0.3856545686721802,0.2942836880683899,0.5046842694282532,0.7141158580780029,0.2790188193321228,3.258748769760132,1.779651165008545,0.43620502948760986,9.601126670837402,3.5106611251831055,-0.14707332849502563,0.05371791869401932,0.06900862604379654,22.446054458618164,-28.026031494140625,6.341726303100586,0.1202411949634552,0.1627969741821289,0.29378724098205566,0.31596383452415466,9.438329696655273,3.21687388420105
1_20251106_212721,1762435608823,1,0.38523364067077637,0.29356974363327026,0.5034921169281006,0.7154771685600281,0.2814841866493225,3.257791519165039,1.784367561340332,0.5630922317504883,9.593944549560547,3.343073844909668,-0.1030910536646843,0.061048295348882675,0.05373700335621834,22.3724308013916,-28.04308319091797,6.311487197875977,0.19770270586013794,0.12449169158935547,0.10095977783203125,0.36538952589035034,9.469452857971191,3.2421140670776367
1_20251106_212721,1762435608843,1,0.38466644287109375,0.2928534746170044,0.5026132464408875,0.7166927456855774,0.2845110595226288,3.2573249340057373,1.7886875867843628,0.6576591730117798,9.614294052124023,3.265265941619873,-0.1128648966550827,0.04699840769171715,0.034800201654434204,22.383304595947266,-28.06726837158203,6.297933578491211,0.2338157296180725,0.11587333679199219,0.01852130889892578,0.4238434433937073,9.498420715332031,3.2467446327209473
1_20251106_212721,1762435608861,1,0.38437485694885254,0.29254376888275146,0.5017076134681702,0.7176096439361572,0.2877062261104584,3.2573113441467285,1.7928950786590576,0.5403482913970947,9.654993057250977,3.2844185829162598,-0.14218640327453613,0.026229003444314003,0.010976476594805717,22.30816078186035,-28.121185302734375,6.18580436706543,0.09320387244224548,0.1252574920654297,0.03013920783996582,0.44714441895484924,9.529735565185547,3.254279375076294
1_20251106_212721,1762435608880,1,0.38441887497901917,0.29240942001342773,0.5006145238876343,0.7184037566184998,0.29039305448532104,3.257615804672241,1.797286868095398,0.32009124755859375,9.645416259765625,3.3981382846832275,-0.14157554507255554,0.009124791249632835,-0.007349465042352676,22.266571044921875,-28.21160125732422,6.196001052856445,-0.10164254903793335,0.0925445556640625,0.11508703231811523,0.4217337965965271,9.552871704101562,3.2830512523651123
1_20251106_212721,1762435608900,1,0.38473424315452576,0.29214513301849365,0.49963706731796265,0.7190226912498474,0.2920758128166199,3.2581470012664795,1.8023051023483276,0.09145481884479523,9.627460479736328,3.4891138076782227,-0.12691478431224823,0.015233438462018967,-0.00796032976359129,22.238872528076172,-28.275711059570312,6.166667938232422,-0.26422321796417236,0.05967140197753906,0.16484999656677246,0.3556780219078064,9.567789077758789,3.32426381111145
1_20251106_212721,1762435608919,1,0.3849584460258484,0.2913856506347656,0.49893397092819214,0.7196987271308899,0.2920758128166199,3.2581470012664795,1.8023051023483276,0.09145481884479523,9.627460479736328,3.4891138076782227,-0.11591921746730804,0.042111486196517944,0.024415500462055206,22.172895431518555,-28.37933349609375,6.08100700378418,-0.26422321796417236,0.05967140197753906,0.16484999656677246,0.3556780219078064,9.567789077758789,3.32426381111145
1_20251106_212721,1762435608940,1,0.38486871123313904,0.29020971059799194,0.4984499216079712,0.7205567955970764,0.2933669090270996,3.2601442337036133,1.8127554655075073,0.20756861567497253,9.717239379882812,3.4950990676879883,-0.10064759850502014,0.04272235184907913,0.054958734661340714,22.115192413330078,-28.3209228515625,6.120424270629883,-0.0787016749382019,0.10043621063232422,0.10952615737915039,0.28627029061317444,9.616803169250488,3.385572910308838
1_20251106_212721,1762435608958,1,0.3845616281032562,0.28932318091392517,0.4979933798313141,0.7213924527168274,0.29360559582710266,3.261296033859253,1.8176692724227905,0.21115976572036743,9.672948837280273,3.499887466430664,-0.08048906177282333,0.028061596676707268,0.08550196886062622,22.115192413330078,-28.3209228515625,6.120424270629883,-0.06008842587471008,0.04491615295410156,0.09145164489746094,0.2712481915950775,9.628032684326172,3.408435821533203
1_20251106_212721,1762435608977,1,0.38400667905807495,0.2889149487018585,0.49748796224594116,0.7221999764442444,0.29379498958587646,3.2624480724334717,1.823064923286438,0.2506623864173889,9.607110977172852,3.4771435260772705,-0.06277398765087128,0.008513926528394222,0.10810397565364838,22.01990509033203,-28.30108642578125,6.00889778137207,-0.01646864414215088,-0.016737937927246094,0.05496621131896973,0.2671310305595398,9.623848915100098,3.422177314758301
1_20251106_212721,1762435608995,1,0.383407324552536,0.28883910179138184,0.4969446659088135,0.7229223847389221,0.2938898205757141,3.2629997730255127,1.8278253078460693,0.23988895118236542,9.447903633117676,3.481931686401367,-0.05177842080593109,0.012179114855825901,0.10443878173828125,22.0198917388916,-28.312698364257812,5.914020538330078,-0.021793648600578308,-0.14075565338134766,0.047803401947021484,0.2616825997829437,9.588659286499023,3.4341282844543457
1_20251106_212721,1762435609015,1,0.38283997774124146,0.2888600826263428,0.49645861983299255,0.723548412322998,0.29401466250419617,3.262932300567627,1.8329191207885742,0.2698151767253876,9.374883651733398,3.456793785095215,-0.047502368688583374,0.04699840396642685,0.05740218982100487,21.946367263793945,-28.329620361328125,5.870265960693359,0.006506055593490601,-0.1710205078125,0.01813220977783203,0.263309121131897,9.545904159545898,3.438661575317383
1_20251106_212721,1762435609033,1,0.3822728097438812,0.28827065229415894,0.4962756633758545,0.7242085337638855,0.29401466250419617,3.262932300567627,1.8329191207885742,0.2698151767253876,9.374883651733398,3.456793785095215,-0.067050039768219,0.08487202227115631,0.0005917763337492943,21.907285690307617,-28.38182830810547,5.827190399169922,0.006506055593490601,-0.1710205078125,0.01813220977783203,0.263309121131897,9.545904159545898,3.438661575317383
1_20251106_212721,1762435609052,1,0.3820025324821472,0.2871883809566498,0.4962098002433777,0.7248260378837585,0.2954968512058258,3.2618210315704346,1.8414921760559082,0.44458436965942383,9.329395294189453,3.4484143257141113,-0.0872085690498352,0.08303942531347275,-0.029951460659503937,21.837581634521484,-28.335556030273438,5.744205474853516,0.11716532707214355,-0.15752696990966797,0.014094352722167969,0.3274190425872803,9.486922264099121,3.4343199729919434
1_20251106_212721,1762435609072,1,0.3820595443248749,0.2863472104072571,0.49597886204719543,0.7252866625785828,0.2954968512058258,3.2618210315704346,1.8414921760559082,0.44458436965942383,9.329395294189453,3.4484143257141113,-0.08537597954273224,0.0647134855389595,-0.008571195416152477,21.778457641601562,-28.313873291015625,5.6882171630859375,0.11716532707214355,-0.15752696990966797,0.014094352722167969,0.3274190425872803,9.486922264099121,3.4343199729919434
1_20251106_212721,1762435609091,1,0.38195040822029114,0.285628080368042,0.495586633682251,0.7258955836296082,0.2970670163631439,3.2579867839813232,1.8496993780136108,0.2865738868713379,9.285104751586914,3.3957440853118896,-0.09514981508255005,0.05738310515880585,0.03541106358170509,21.75347900390625,-28.327880859375,5.673456192016602,-0.029013842344284058,-0.11250114440917969,-0.03273272514343262,0.31558772921562195,9.397605895996094,3.4284768104553223
1_20251106_212721,1762435609110,1,0.3816240727901459,0.28487345576286316,0.49507710337638855,0.7267109751701355,0.29789072275161743,3.25600528717041,1.8534601926803589,0.37635257840156555,9.372489929199219,3.4747495651245117,-0.11714094132184982,0.05432878062129021,0.058013059198856354,21.74913787841797,-28.41497039794922,5.590511322021484,0.04861187934875488,-0.02009296417236328,0.0370182991027832,0.32774069905281067,9.392582893371582,3.4377312660217285
1_20251106_212721,1762435609130,1,0.3812672793865204,0.2842594385147095,0.49445608258247375,0.7275609970092773,0.29882943630218506,3.2541847229003906,1.8576756715774536,0.36557912826538086,9.445509910583496,3.5872721672058105,-0.09942586719989777,0.05066359415650368,0.06656517088413239,21.7093505859375,-28.479736328125,5.547172546386719,0.03027072548866272,0.042342185974121094,0.11963272094726562,0.33530840277671814,9.403167724609375,3.467639446258545
1_20251106_212721,1762435609149,1,0.380817174911499,0.28388968110084534,0.49381569027900696,0.7283755540847778,0.29978594183921814,3.2524116039276123,1.8616474866867065,0.375155508518219,9.355731010437012,3.5286166667938232,-0.057276204228401184,0.054939646273851395,0.06289997696876526,21.6501407623291,-28.446578979492188,5.599576950073242,0.03187766671180725,-0.037949562072753906,0.0487818717956543,0.34327784180641174,9.393680572509766,3.479834794998169
1_20251106_212721,1762435609168,1,0.38024047017097473,0.28350844979286194,0.49345117807388306,0.7290720343589783,0.3008215129375458,3.250028610229492,1.8652228116989136,0.3895201086997986,9.13906478881836,3.407714605331421,-0.04322631657123566,0.06593520939350128,0.047628358006477356,21.67310333251953,-28.470108032226562,5.600028991699219,0.03699380159378052,-0.20369243621826172,-0.05769610404968262,0.35252630710601807,9.342757225036621,3.4654107093811035
1_20251106_212721,1762435609186,1,0.3796727657318115,0.2830740809440613,0.4932920038700104,0.7296441793441772,0.3008215129375458,3.250028610229492,1.8652228116989136,0.3895201086997986,9.13906478881836,3.407714605331421,-0.0719369500875473,0.07876337319612503,0.050682682543992996,21.668874740600586,-28.545448303222656,5.598445892333984,0.03699380159378052,-0.20369243621826172,-0.05769610404968262,0.35252630710601807,9.342757225036621,3.4654107093811035
1_20251106_212721,1762435609206,1,0.3790825307369232,0.282532274723053,0.49300917983055115,0.7303518652915955,0.3019067943096161,3.2469398975372314,1.8681097030639648,0.3895201086997986,9.042104721069336,3.279630422592163,-0.12569305300712585,0.07937423884868622,0.07023035734891891,21.654573440551758,-28.58391571044922,5.597164154052734,0.02959504723548889,-0.2405223846435547,-0.14862418174743652,0.3599250614643097,9.28262710571289,3.4282546043395996
1_20251106_212721,1762435609225,1,0.3785450756549835,0.28201374411582947,0.49239474534988403,0.7312450408935547,0.3048494756221771,3.239785671234131,1.8730556964874268,0.5786539316177368,9.167795181274414,3.486720085144043,-0.17211878299713135,0.0647134780883789,0.08183678984642029,21.648427963256836,-28.6966552734375,5.567756652832031,0.15913927555084229,-0.050126075744628906,0.05944347381591797,0.41951465606689453,9.217921257019043,3.427276611328125
1_20251106_212721,1762435609244,1,0.3780939280986786,0.28152838349342346,0.49127545952796936,0.7324173450469971,0.3048494756221771,3.239785671234131,1.8730556964874268,0.5786539316177368,9.167795181274414,3.486720085144043,-0.18739038705825806,0.054328784346580505,0.057402197271585464,21.671489715576172,-28.720046997070312,5.554693222045898,0.15913927555084229,-0.050126075744628906,0.05944347381591797,0.41951465606689453,9.217921257019043,3.427276611328125
1_20251106_212721,1762435609262,1,0.37786340713500977,0.28105995059013367,0.4899425208568573,0.7336081266403198,0.30707526206970215,3.2358996868133545,1.8768680095672607,0.5044368505477905,9.255178451538086,3.6950066089630127,-0.16112321615219116,0.06898953765630722,0.021361175924539566,21.605934143066406,-28.799896240234375,5.60472297668457,0.06793776154518127,0.029806137084960938,0.21418404579162598,0.43649908900260925,9.225372314453125,3.4808225631713867
1_20251106_212721,1762435609282,1,0.377743661403656,0.2801356613636017,0.48888716101646423,0.7347265481948853,0.308831125497818,3.2330353260040283,1.880488395690918,0.44697850942611694,9.2886962890625,3.7476766109466553,-0.12996910512447357,0.08365029096603394,-0.020177625119686127,21.605440139770508,-28.800567626953125,5.672304153442383,0.00838354229927063,0.0506591796875,0.21348309516906738,0.4385949671268463,9.238037109375,3.534193515777588
1_20251106_212721,1762435609301,1,0.3776422441005707,0.2788439393043518,0.4883009195327759,0.7356593012809753,0.3118036389350891,3.22707462310791,1.8878086805343628,0.3284706175327301,9.127094268798828,3.5214343070983887,-0.14768418669700623,0.09770017862319946,-0.040336158126592636,21.53675651550293,-28.942665100097656,5.666948318481445,-0.08465263247489929,-0.080963134765625,-0.02559518814086914,0.4131232500076294,9.208057403564453,3.547029495239258
1_20251106_212721,1762435609321,1,0.377774178981781,0.2774457335472107,0.4877707064151764,0.7364715337753296,0.3118036389350891,3.22707462310791,1.8878086805343628,0.3284706175327301,9.127094268798828,3.5214343070983887,-0.1996077001094818,0.10441969335079193,-0.029340598732233047,21.47571563720703,-28.95838165283203,5.583133697509766,-0.08465263247489929,-0.080963134765625,-0.02559518814086914,0.4131232500076294,9.208057403564453,3.547029495239258
1_20251106_212721,1762435609339,1,0.3779480457305908,0.27585142850875854,0.4870557487010956,0.7374536991119385,0.3129967153072357,3.2240540981292725,1.8918451070785522,0.34882044792175293,9.283907890319824,3.6183953285217285,-0.19716423749923706,0.08975893259048462,-0.013458113186061382,21.42726707458496,-28.961151123046875,5.540622711181641,-0.051442235708236694,0.060680389404296875,0.05709266662597656,0.4002626836299896,9.223227500915527,3.561302661895752
1_20251106_212721,1762435609359,1,0.3781569302082062,0.27454325556755066,0.48620787262916565,0.7383937239646912,0.3136853277683258,3.2218265533447266,1.895626187324524,0.2853768467903137,9.317424774169922,3.7620413303375244,-0.19716423749923706,0.08975893259048462,-0.013458113186061382,21.39997673034668,-29.013099670410156,5.552101135253906,-0.09190869331359863,0.07535743713378906,0.16059088706970215,0.37728554010391235,9.242067337036133,3.6014504432678223
1_20251106_212721,1762435609378,1,0.3779957890510559,0.27347037196159363,0.4854418635368347,0.7393776774406433,0.31508880853652954,3.217392921447754,1.9053807258605957,0.5056338906288147,9.349745750427246,3.894913673400879,-0.1696753203868866,0.07448732107877731,0.07145208865404129,21.3536434173584,-28.97820281982422,5.510381698608398,0.1093398928642273,0.09496212005615234,0.18532657623291016,0.3962939977645874,9.254783630371094,3.7095870971679688
1_20251106_212721,1762435609397,1,0.37739098072052,0.27236098051071167,0.48433443903923035,0.7408210039138794,0.3165057897567749,3.2158455848693848,1.9109565019607544,0.6109743118286133,9.379671096801758,3.98948073387146,-0.1696753203868866,0.07448732107877731,0.07145208865404129,21.3536434173584,-28.97820281982422,5.510381698608398,0.17174425721168518,0.09990978240966797,0.22391486167907715,0.4392300546169281,9.27976131439209,3.765565872192383
1_20251106_212721,1762435609416,1,0.3771006166934967,0.27157771587371826,0.4830392897129059,0.7421008944511414,0.3182147443294525,3.2147810459136963,1.9169631004333496,0.5714715719223022,9.4275541305542,4.024194717407227,-0.17334049940109253,0.054328784346580505,0.014030800200998783,21.315366744995117,-29.017715454101562,5.45405387878418,0.10579323768615723,0.11823463439941406,0.20690298080444336,0.465678334236145,9.309319496154785,3.817291736602783
1_20251106_212721,1762435609435,1,0.37708839774131775,0.27091968059539795,0.4817745089530945,0.7431690096855164,0.3198558986186981,3.21416974067688,1.9232698678970337,0.47211652994155884,9.455085754394531,4.036165237426758,-0.17334049940109253,0.054328784346580505,0.014030800200998783,21.316762924194336,-29.00421142578125,5.359703063964844,0.005150556564331055,0.11661243438720703,0.17509889602661133,0.4669659733772278,9.338473320007324,3.8610663414001465
1_20251106_212721,1762435609454,1,0.3771040439605713,0.27019768953323364,0.4806484282016754,0.7441524267196655,0.3215802013874054,3.2137742042541504,1.929922342300415,0.5271807909011841,9.406007766723633,4.10200309753418,-0.16539925336837769,0.051274459809064865,0.006089558359235525,21.277978897094727,-29.056015014648438,5.276079177856445,0.04817184805870056,0.054027557373046875,0.1927495002746582,0.4790089428424835,9.351980209350586,3.9092535972595215
1_20251106_212721,1762435609473,1,0.37708136439323425,0.26929593086242676,0.47967851161956787,0.7451159954071045,0.3235967755317688,3.213812828063965,1.9367972612380981,0.6169595122337341,9.502967834472656,4.111579895019531,-0.1647883951663971,0.047609273344278336,0.004256964195519686,21.291461944580078,-29.041854858398438,5.195735931396484,0.11036044359207153,0.12079048156738281,0.16186094284057617,0.5065990686416626,9.382177352905273,3.949718952178955
1_20251106_212721,1762435609492,1,0.3772200644016266,0.2685580253601074,0.47853904962539673,0.7460442185401917,0.3256051242351532,3.214266300201416,1.9440877437591553,0.5403483510017395,9.53409194946289,4.22649621963501,-0.1647883951663971,0.047609273344278336,0.004256964195519686,21.265779495239258,-29.06842041015625,5.1807098388671875,0.02699941396713257,0.12153148651123047,0.2214217185974121,0.5133489370346069,9.41256046295166,4.005074501037598
1_20251106_212721,1762435609511,1,0.37736934423446655,0.2680068016052246,0.47739526629447937,0.7468992471694946,0.3274229168891907,3.214846611022949,1.9519824981689453,0.4804958701133728,9.467056274414062,4.358171463012695,-0.13241256773471832,0.03294851630926132,-0.001240817829966545,21.251466751098633,-29.118499755859375,5.0845489501953125,-0.02628248929977417,0.04359626770019531,0.28247737884521484,0.506778359413147,9.423460006713867,4.0756940841674805
1_20251106_212721,1762435609530,1,0.3774019479751587,0.26738008856773376,0.4764861762523651,0.7476875185966492,0.32907772064208984,3.2152907848358154,1.9602313041687012,0.4804958701133728,9.384459495544434,4.348595142364502,-0.08659771084785461,0.04027889296412468,-0.004295141436159611,21.263132095336914,-29.14160919189453,4.962865829467773,-0.02102595567703247,-0.031200408935546875,0.2183208465576172,0.5015218257904053,9.41565990447998,4.130274295806885
1_20251106_212721,1762435609549,1,0.3773007392883301,0.2666277587413788,0.4758565127849579,0.7484079003334045,0.32907772064208984,3.2152907848358154,1.9602313041687012,0.4804958701133728,9.384459495544434,4.348595142364502,-0.06460657715797424,0.0341702476143837,-0.01467984076589346,21.286785125732422,-29.16419219970703,4.868705749511719,-0.02102595567703247,-0.031200408935546875,0.2183208465576172,0.5015218257904053,9.41565990447998,4.130274295806885
1_20251106_212721,1762435609569,1,0.37724560499191284,0.2659567594528198,0.47537466883659363,0.7489804029464722,0.33216506242752075,3.216082811355591,1.9762760400772095,0.4385991394519806,9.355731964111328,4.051727294921875,-0.054221875965595245,0.029283327981829643,-0.024453677237033844,21.23682975769043,-29.192214965820312,4.839183807373047,-0.05291137099266052,-0.050612449645996094,-0.0778498649597168,0.4915105104446411,9.406344413757324,4.129577159881592
1_20251106_212721,1762435609589,1,0.3773787021636963,0.2655991315841675,0.47505322098731995,0.7492441534996033,0.3332483470439911,3.2157986164093018,1.9836249351501465,0.39789944887161255,9.219266891479492,4.092426300048828,-0.054221875965595245,0.029283327981829643,-0.024453677237033844,21.16199493408203,-29.234115600585938,4.781383514404297,-0.07488885521888733,-0.14966201782226562,-0.029720783233642578,0.4727883040904999,9.368928909301758,4.122147083282471
1_20251106_212721,1762435609606,1,0.3775017261505127,0.26527711749076843,0.47468799352645874,0.7495276927947998,0.33396387100219727,3.2152719497680664,1.9898357391357422,0.40029358863830566,9.23363208770752,4.248043060302734,-0.09576067328453064,0.006070468109101057,0.01647425815463066,21.110530853271484,-29.287384033203125,4.764850616455078,-0.05799579620361328,-0.10823726654052734,0.10071659088134766,0.45828938484191895,9.341869354248047,4.147326469421387
1_20251106_212721,1762435609626,1,0.37746745347976685,0.2649267017841339,0.4740878641605377,0.7500485777854919,0.33464187383651733,3.2146308422088623,1.9971197843551636,0.41824930906295776,9.324607849121094,4.260013580322266,-0.09148462116718292,0.0024052797816693783,0.0195285826921463,21.01101303100586,-29.34288787841797,4.651741027832031,-0.0320320725440979,-0.0138092041015625,0.0901494026184082,0.45028138160705566,9.338417053222656,4.169864177703857
1_20251106_212721,1762435609646,1,0.3773249685764313,0.26445919275283813,0.4734025001525879,0.75071781873703,0.3348407447338104,3.2139453887939453,2.0039572715759277,0.2997414469718933,9.299469947814941,4.265998840332031,-0.067050039768219,0.0011835502227768302,0.009754747152328491,20.983413696289062,-29.4068603515625,4.608892440795898,-0.12043195962905884,-0.031157493591308594,0.07690763473510742,0.42017340660095215,9.33062744140625,4.189091205596924
1_20251106_212721,1762435609663,1,0.3772881329059601,0.26416298747062683,0.4729132354259491,0.7511488795280457,0.3348407447338104,3.2139453887939453,2.0039572715759277,0.2997414469718933,9.299469947814941,4.265998840332031,-0.04933495819568634,0.010346520692110062,0.02258290722966194,20.949180603027344,-29.35968780517578,4.676057815551758,-0.12043195962905884,-0.031157493591308594,0.07690763473510742,0.42017340660095215,9.33062744140625,4.189091205596924
1_20251106_212721,1762435609684,1,0.3770543336868286,0.2636970579624176,0.4726656973361969,0.7515856623649597,0.3346407413482666,3.2130961418151855,2.0109341144561768,0.28896796703338623,9.276725769042969,4.234875679016113,-0.057276204228401184,0.025007274001836777,0.044574033468961716,20.935882568359375,-29.38519287109375,4.634490966796875,-0.10496434569358826,-0.043121337890625,0.036627769470214844,0.3939323127269745,9.319847106933594,4.198247909545898
1_20251106_212721,1762435609703,1,0.37660783529281616,0.2631998360157013,0.4724058508872986,0.7521469593048096,0.33450713753700256,3.2112269401550293,2.0236728191375732,0.5547128915786743,9.226449966430664,4.335427284240723,-0.054221875965595245,0.026229003444314003,0.05679133161902428,20.88562774658203,-29.413619995117188,4.645517349243164,0.13316097855567932,-0.06820106506347656,0.09526395797729492,0.421551913022995,9.29465103149414,4.240163326263428
