session_id,timestamp,label,quaternion_w,quaternion_x,quaternion_y,quaternion_z,position_x,position_y,position_z,accelerometer_x,accelerometer_y,accelerometer_z,gyroscope_x,gyroscope_y,gyroscope_z,magnetometer_x,magnetometer_y,magnetometer_z,linear_acceleration_x,linear_acceleration_y,linear_acceleration_z,gravity_x,gravity_y,gravity_z
5_20251106_215121,1762437043889,5,0.08605541288852692,0.3147776126861572,0.7305741906166077,0.5998090505599976,0.34057682752609253,3.1427531242370605,0.34249070286750793,3.1080193519592285,9.94108772277832,-1.989781141281128,-0.09452367573976517,-0.017318014055490494,-0.01839466392993927,13.21350383758545,-26.24779510498047,38.190025329589844,-0.18888330459594727,0.3569211959838867,0.5888397693634033,3.296902656555176,9.584166526794434,-2.5786209106445312
5_20251106_215121,1762437043906,5,0.08659212291240692,0.3147948980331421,0.7298663854598999,0.6005839705467224,0.3541867733001709,3.1522557735443115,0.3442907929420471,2.955994129180908,9.771106719970703,-2.1370182037353516,-0.04015672206878662,-0.011209367774426937,-0.030611958354711533,13.205625534057617,-26.409286499023438,38.010887145996094,-0.27272701263427734,0.1495523452758789,0.35328221321105957,3.2287211418151855,9.621554374694824,-2.490300416946411
5_20251106_215121,1762437043926,5,0.0870104432106018,0.31474459171295166,0.729526698589325,0.6009624600410461,0.3541867733001709,3.1522557735443115,0.3442907929420471,2.955994129180908,9.771106719970703,-2.1370182037353516,-0.01450040191411972,-0.02464839071035385,-0.014118610881268978,13.222626686096191,-26.556900024414062,37.860015869140625,-0.27272701263427734,0.1495523452758789,0.35328221321105957,3.2287211418151855,9.621554374694824,-2.490300416946411
5_20251106_215121,1762437043947,5,0.08737874031066895,0.3149227201938629,0.7293001413345337,0.601090669631958,0.38060230016708374,3.1735198497772217,0.3501712679862976,2.735736846923828,9.574790954589844,-2.4219157695770264,0.014821103774011135,-0.04419606178998947,0.018257219344377518,13.170147895812988,-26.634742736816406,37.78888702392578,-0.32432007789611816,-0.04065418243408203,0.011398077011108398,3.0600569248199463,9.615445137023926,-2.4333138465881348
5_20251106_215121,1762437043963,5,0.0876045897603035,0.31542038917541504,0.729166567325592,0.6009588241577148,0.3889414072036743,3.1810905933380127,0.35186967253685,2.7022194862365723,9.597536087036133,-2.6589317321777344,0.03436877578496933,-0.11322377622127533,0.04024834930896759,13.155030250549316,-26.697509765625,37.70597839355469,-0.2862699031829834,-0.014327049255371094,-0.1804943084716797,2.9884893894195557,9.611863136291504,-2.4784374237060547
5_20251106_215121,1762437043982,5,0.08809462934732437,0.31645047664642334,0.7290690541267395,0.6004638075828552,0.3889414072036743,3.1810905933380127,0.35186967253685,2.7022194862365723,9.597536087036133,-2.6589317321777344,0.03436877578496933,-0.11322377622127533,0.04024834930896759,13.092169761657715,-26.75049591064453,37.58082580566406,-0.2862699031829834,-0.014327049255371094,-0.1804943084716797,2.9884893894195557,9.611863136291504,-2.4784374237060547
5_20251106_215121,1762437044002,5,0.08881937712430954,0.3176906406879425,0.7289294004440308,0.5998714566230774,0.4048430621623993,3.1970763206481934,0.3553570508956909,2.6076526641845703,9.464662551879883,-2.460221290588379,0.029481858015060425,-0.1407126933336258,0.04147007688879967,13.091550827026367,-26.77452850341797,37.47216796875,-0.24679994583129883,-0.0959320068359375,0.026789188385009766,2.854452610015869,9.56059455871582,-2.4870104789733887
5_20251106_215121,1762437044021,5,0.08957382291555405,0.3187302052974701,0.7289631366729736,0.5991663932800293,0.41032034158706665,3.20306134223938,0.35706737637519836,2.48435640335083,9.282711029052734,-2.414733409881592,0.09973130375146866,-0.1199432834982872,-0.009231693111360073,13.116924285888672,-26.759979248046875,37.43286895751953,-0.29607701301574707,-0.2223072052001953,0.05782175064086914,2.780433416366577,9.50501823425293,-2.472555160522461
5_20251106_215121,1762437044040,5,0.09021835029125214,0.3195066750049591,0.7293848991394043,0.5981419682502747,0.41032034158706665,3.20306134223938,0.35706737637519836,2.48435640335083,9.282711029052734,-2.414733409881592,0.13699403405189514,-0.07412842661142349,-0.036109741777181625,13.178756713867188,-26.743179321289062,37.40855407714844,-0.29607701301574707,-0.2223072052001953,0.05782175064086914,2.780433416366577,9.50501823425293,-2.472555160522461
5_20251106_215121,1762437044059,5,0.09059499204158783,0.319854736328125,0.730141818523407,0.5969743728637695,0.41657134890556335,3.21108341217041,0.35922348499298096,2.0342659950256348,8.795511245727539,-2.709207534790039,0.11622465401887894,-0.011820231564342976,-0.0477161705493927,13.195369720458984,-26.666770935058594,37.38359069824219,-0.5131714344024658,-0.5027332305908203,-0.16926956176757812,2.5474374294281006,9.29824447631836,-2.539937973022461
5_20251106_215121,1762437044079,5,0.09072461724281311,0.3197784721851349,0.730891227722168,0.5960778594017029,0.41657134890556335,3.21108341217041,0.35922348499298096,2.0342659950256348,8.795511245727539,-2.709207534790039,0.11622465401887894,-0.011820231564342976,-0.0477161705493927,13.195369720458984,-26.666770935058594,37.38359069824219,-0.5131714344024658,-0.5027332305908203,-0.16926956176757812,2.5474374294281006,9.29824447631836,-2.539937973022461
5_20251106_215121,1762437044099,5,0.09059657156467438,0.31941014528274536,0.7313657999038696,0.5957126021385193,0.4144479036331177,3.2104547023773193,0.357650488615036,1.7302154302597046,8.378938674926758,-2.8001832962036133,-0.010224348865449429,0.044990185648202896,-0.002512180246412754,13.335041999816895,-26.569198608398438,37.29621887207031,-0.5448564291000366,-0.6293430328369141,-0.14453125,2.275071859359741,9.008281707763672,-2.6556520462036133
5_20251106_215121,1762437044117,5,0.09048144519329071,0.3191949427127838,0.7313926219940186,0.5958124995231628,0.4144479036331177,3.2104547023773193,0.357650488615036,1.7302154302597046,8.378938674926758,-2.8001832962036133,-0.025495966896414757,0.06270526349544525,0.05796342343091965,13.335041999816895,-26.569198608398438,37.29621887207031,-0.5448564291000366,-0.6293430328369141,-0.14453125,2.275071859359741,9.008281707763672,-2.6556520462036133
5_20251106_215121,1762437044136,5,0.08997295051813126,0.31928887963294983,0.73115473985672,0.5961310863494873,0.406657874584198,3.2016348838806152,0.35533663630485535,1.6296632289886475,7.934832572937012,-2.740330934524536,-0.016943860799074173,0.07308996468782425,0.12515854835510254,13.398185729980469,-26.527420043945312,37.28594970703125,-0.41689205169677734,-0.723780632019043,-0.05457735061645508,2.046555280685425,8.658613204956055,-2.685753583908081
5_20251106_215121,1762437044155,5,0.08897250145673752,0.3197723925113678,0.7307817935943604,0.5964791774749756,0.40058958530426025,3.1926496028900146,0.3539138436317444,1.5937517881393433,7.587688446044922,-2.7331485748291016,-0.019998185336589813,0.09141591191291809,0.18196895718574524,13.485504150390625,-26.48432159423828,37.303688049316406,-0.36224281787872314,-0.8567399978637695,-0.037915945053100586,1.9559946060180664,8.444428443908691,-2.695232629776001
5_20251106_215121,1762437044174,5,0.08753908425569534,0.3205659091472626,0.7302338480949402,0.5969362854957581,0.40058958530426025,3.1926496028900146,0.3539138436317444,1.5937517881393433,7.587688446044922,-2.7331485748291016,-0.03954585641622543,0.15128064155578613,0.225340336561203,13.521456718444824,-26.494361877441406,37.2913818359375,-0.36224281787872314,-0.8567399978637695,-0.037915945053100586,1.9559946060180664,8.444428443908691,-2.695232629776001
5_20251106_215121,1762437044193,5,0.08552099019289017,0.32134416699409485,0.7294856905937195,0.5977245569229126,0.3859512507915497,3.1652724742889404,0.3506944179534912,1.3711005449295044,6.5079498291015625,-2.8289127349853516,-0.08963675796985626,0.2093127816915512,0.24244455993175507,13.473516464233398,-26.484848022460938,37.27616882324219,-0.389462947845459,-1.3408560752868652,-0.09532308578491211,1.7605634927749634,7.848805904388428,-2.7335896492004395
5_20251106_215121,1762437044212,5,0.08312767744064331,0.321834921836853,0.7284841537475586,0.5990182757377625,0.3765900731086731,3.1444921493530273,0.34965720772743225,1.0550795793533325,5.7095184326171875,-2.510497570037842,-0.1947055160999298,0.24779726564884186,0.21251219511032104,13.386099815368652,-26.528076171875,37.271942138671875,-0.5643872022628784,-1.7114295959472656,0.17847371101379395,1.619466781616211,7.420948028564453,-2.6889712810516357
5_20251106_215121,1762437044231,5,0.08086931705474854,0.3217431902885437,0.7270696759223938,0.6010916233062744,0.3646213114261627,3.118189811706543,0.3499825894832611,0.4984515905380249,5.029594421386719,-2.2112350463867188,-0.3431456387042999,0.35653120279312134,0.15203657746315002,13.294861793518066,-26.634498596191406,37.30694580078125,-0.8968122005462646,-1.9130830764770508,0.3821890354156494,1.3952637910842896,6.9426774978637695,-2.593424081802368
5_20251106_215121,1762437044250,5,0.0788177028298378,0.32063528895378113,0.724989116191864,0.6044597625732422,0.3488856554031372,3.0869884490966797,0.35071298480033875,-0.19583703577518463,4.677661418914795,-2.4398715496063232,-0.48730969429016113,0.5758316516876221,0.18196895718574524,13.145316123962402,-26.694931030273438,37.367584228515625,-1.2728806734085083,-1.8120126724243164,0.12284207344055176,1.0770436525344849,6.489674091339111,-2.562713623046875
5_20251106_215121,1762437044270,5,0.07552094012498856,0.31821179389953613,0.7221804261207581,0.6095024347305298,0.3294296860694885,3.0501391887664795,0.35205259919166565,-0.5657253265380859,3.862471103668213,-2.3273487091064453,-0.6119261384010315,0.7346564531326294,0.31941351294517517,12.87248706817627,-26.800033569335938,37.327919006347656,-1.3142151832580566,-2.1017627716064453,0.1882920265197754,0.7484898567199707,5.964233875274658,-2.5156407356262207
5_20251106_215121,1762437044289,5,0.07072795927524567,0.3155418336391449,0.7184361219406128,0.6158574819564819,0.30654603242874146,3.0072968006134033,0.35441330075263977,-0.855411171913147,3.108330249786377,-2.1190621852874756,-0.698058009147644,0.8189557790756226,0.5570399165153503,12.631393432617188,-26.978904724121094,37.369232177734375,-1.28312087059021,-2.2847228050231934,0.3172628879547119,0.4277096688747406,5.39305305480957,-2.4363250732421875
5_20251106_215121,1762437044309,5,0.06425262987613678,0.313918799161911,0.71347975730896,0.6231157183647156,0.2786630392074585,2.9523961544036865,0.35848093032836914,-0.7225387096405029,2.434391498565674,-1.9622490406036377,-0.7218817472457886,0.7706974744796753,0.895458996295929,12.254323959350586,-27.215530395507812,37.28245544433594,-0.9201986789703369,-2.366929531097412,0.379260778427124,0.19765999913215637,4.801321029663086,-2.3415098190307617
5_20251106_215121,1762437044327,5,0.05619342625141144,0.31484222412109375,0.7072369456291199,0.6305018067359924,0.2558821439743042,2.9055862426757812,0.3626182973384857,-0.4113059341907501,2.712106704711914,-1.8820466995239258,-0.8226744532585144,0.6692939400672913,1.2760276794433594,11.687514305114746,-27.589508056640625,37.172157287597656,-0.4871727526187897,-1.6713714599609375,0.3675706386566162,0.07586682587862015,4.383478164672852,-2.249617338180542
5_20251106_215121,1762437044346,5,0.04682834446430206,0.3189457356929779,0.699000895023346,0.638340413570404,0.22908571362495422,2.85172176361084,0.3681742548942566,-0.3634239137172699,3.874441623687744,-1.9430960416793823,-1.0181511640548706,0.6692939400672913,1.576573133468628,11.093611717224121,-28.015167236328125,37.04631042480469,-0.35143259167671204,-0.407228946685791,0.245216965675354,-0.011991318315267563,4.281670570373535,-2.1883130073547363
5_20251106_215121,1762437044365,5,0.03618331626057625,0.324872761964798,0.6884381771087646,0.6474575996398926,0.22908571362495422,2.85172176361084,0.3681742548942566,-0.3634239137172699,3.874441623687744,-1.9430960416793823,-1.0181511640548706,0.6692939400672913,1.576573133468628,10.425479888916016,-28.470298767089844,36.876441955566406,-0.35143259167671204,-0.407228946685791,0.245216965675354,-0.011991318315267563,4.281670570373535,-2.1883130073547363
5_20251106_215121,1762437044384,5,0.024415524676442146,0.33174511790275574,0.6756908297538757,0.6578684449195862,0.20361970365047455,2.7991559505462646,0.3766905963420868,-0.01508256047964096,3.8229684829711914,-1.123117446899414,-1.3693984746932983,0.8262861967086792,2.119020938873291,9.656124114990234,-29.006454467773438,36.63349151611328,-0.002472993917763233,-0.3669619560241699,0.852156400680542,-0.012609566561877728,4.189930438995361,-1.975273847579956
5_20251106_215121,1762437044403,5,0.010364200919866562,0.33954504132270813,0.6606246829032898,0.669460117816925,0.1709408462047577,2.71305513381958,0.40458160638809204,2.357469320297241,5.6376953125,0.19483405351638794,-1.3999415636062622,0.9344092607498169,2.356647253036499,8.556526184082031,-29.813461303710938,36.27789306640625,1.7214022874832153,1.1422300338745117,1.4668209552764893,0.6360670328140259,4.495465278625488,-1.271986961364746
5_20251106_215121,1762437044423,5,0.0058769057504832745,-0.3479718565940857,-0.6439711451530457,-0.6813092231750488,0.1709408462047577,2.71305513381958,0.40458160638809204,2.357469320297241,5.6376953125,0.19483405351638794,-1.3620680570602417,0.9533460140228271,2.5899975299835205,7.319160461425781,-30.6922607421875,35.94261169433594,1.7214022874832153,1.1422300338745117,1.4668209552764893,0.6360670328140259,4.495465278625488,-1.271986961364746
5_20251106_215121,1762437044442,5,0.023853935301303864,-0.3574730455875397,-0.626160204410553,-0.6925080418586731,0.1797519028186798,2.658284902572632,0.4567902088165283,6.651285171508789,8.860153198242188,1.6815693378448486,-1.2661622762680054,0.8849291801452637,2.8581671714782715,5.862716197967529,-31.608177185058594,35.368194580078125,4.242371559143066,3.1136350631713867,1.9766552448272705,2.4089133739471436,5.746518135070801,-0.2950858473777771
5_20251106_215121,1762437044461,5,0.0435737781226635,-0.3687056005001068,-0.6073358654975891,-0.7023536562919617,0.21025370061397552,2.6535098552703857,0.4922245144844055,9.483503341674805,11.0711030960083,2.855875015258789,-1.2661622762680054,0.8849291801452637,2.8581671714782715,4.267811298370361,-32.596832275390625,34.908714294433594,5.659672260284424,4.259667873382568,2.520768642425537,3.823831081390381,6.811435222625732,0.3351063132286072
5_20251106_215121,1762437044480,5,0.06380604952573776,-0.38196051120758057,-0.5876466035842896,-0.710426926612854,0.26404279470443726,2.665452003479004,0.5361431241035461,12.867563247680664,12.817598342895508,4.0732741355896,-1.1916368007659912,0.7114436030387878,3.0597527027130127,2.4104394912719727,-33.51411437988281,34.345672607421875,7.234985828399658,4.804930686950684,2.9905343055725098,5.632577419281006,8.012667655944824,1.0827398300170898
5_20251106_215121,1762437044499,5,0.08437030017375946,-0.39593061804771423,-0.5682058930397034,-0.716423511505127,0.34406664967536926,2.6942591667175293,0.5870657563209534,16.175010681152344,14.37735366821289,4.435979843139648,-1.0260924100875854,0.5709446668624878,3.133667230606079,0.33160483837127686,-34.483367919921875,33.77301788330078,8.43394660949707,5.09174919128418,2.6825919151306152,7.741064071655273,9.285604476928711,1.7533878087997437
5_20251106_215121,1762437044521,5,0.10414669662714005,-0.40954458713531494,-0.5514912605285645,-0.7192246317863464,0.4554939270019531,2.7414565086364746,0.6466638445854187,18.071136474609375,15.334993362426758,4.6071577072143555,-0.2515158951282501,0.19587378203868866,2.3920774459838867,-1.8543812036514282,-35.409942626953125,33.237548828125,8.264058113098145,4.839511871337891,2.2830159664154053,9.80707836151123,10.495481491088867,2.32414174079895
5_20251106_215121,1762437044539,5,0.12064207345247269,-0.4207189381122589,-0.5395030379295349,-0.7192896008491516,0.4554939270019531,2.7414565086364746,0.6466638445854187,18.071136474609375,15.334993362426758,4.6071577072143555,0.10156389325857162,0.24962985515594482,1.5087671279907227,-3.9943361282348633,-36.15887451171875,32.761314392089844,8.264058113098145,4.839511871337891,2.2830159664154053,9.80707836151123,10.495481491088867,2.32414174079895
5_20251106_215121,1762437044557,5,0.13283611834049225,-0.42629218101501465,-0.5333219170570374,-0.7184686660766602,0.7181520462036133,2.857927083969116,0.7650731205940247,17.695262908935547,13.84107494354248,2.982762098312378,0.3636248707771301,0.4921431541442871,0.6046873927116394,-3.9943361282348633,-36.15887451171875,32.761314392089844,4.927009582519531,1.947545051574707,0.20260071754455566,12.768253326416016,11.893529891967773,2.7801613807678223
5_20251106_215121,1762437044576,5,0.14106878638267517,-0.4253202974796295,-0.5322306752204895,-0.7182846069335938,0.8482525944709778,2.9132533073425293,0.8140342235565186,15.946372985839844,12.490803718566895,1.5379234552383423,0.4772457182407379,0.6192030310630798,-0.09169843047857285,-5.8774614334106445,-36.642127990722656,32.435333251953125,2.5424957275390625,0.47781944274902344,-0.9937905073165894,13.403877258300781,12.012984275817871,2.5317139625549316
5_20251106_215121,1762437044594,5,0.1455080807209015,-0.4200952351093292,-0.534604012966156,-0.7187113165855408,0.9800773859024048,2.9661853313446045,0.8589235544204712,13.900616645812988,11.084270477294922,0.9980541467666626,0.5053454637527466,0.5495644807815552,-0.44783255457878113,-7.606996059417725,-36.97825622558594,32.172203063964844,0.39739131927490234,-0.7429714202880859,-1.2269278764724731,13.503225326538086,11.827241897583008,2.2249820232391357
5_20251106_215121,1762437044614,5,0.14711730182170868,-0.41370055079460144,-0.5387970805168152,-0.718961775302887,0.9800773859024048,2.9661853313446045,0.8589235544204712,13.900616645812988,11.084270477294922,0.9980541467666626,0.5053454637527466,0.5495644807815552,-0.44783255457878113,-9.162883758544922,-37.22954559326172,32.0797119140625,0.39739131927490234,-0.7429714202880859,-1.2269278764724731,13.503225326538086,11.827241897583008,2.2249820232391357
5_20251106_215121,1762437044633,5,0.14762742817401886,-0.4082532823085785,-0.5442641377449036,-0.7178522944450378,1.21721613407135,3.0481631755828857,0.9344363212585449,10.75596809387207,8.641092300415039,1.0579066276550293,0.7961170673370361,0.08530726283788681,-0.33970949053764343,-10.456619262695312,-37.35127258300781,32.01342010498047,-1.9746713638305664,-2.2258758544921875,-0.7302653789520264,12.730639457702637,10.866968154907227,1.7881720066070557
5_20251106_215121,1762437044652,5,0.14885428547859192,-0.4049740731716156,-0.5507723093032837,-0.7144846320152283,1.3127385377883911,3.0727081298828125,0.9651299118995667,9.90726089477539,7.746896266937256,1.0519213676452637,0.9958698153495789,-0.15292999148368835,-0.04099665954709053,-11.216361999511719,-37.23968505859375,32.14814758300781,-2.2587032318115234,-2.4960579872131348,-0.5890004634857178,12.165964126586914,10.24295425415039,1.6409218311309814
5_20251106_215121,1762437044671,5,0.1514611393213272,-0.4046725332736969,-0.5576224327087402,-0.7087714076042175,1.397442102432251,3.0872137546539307,0.9908665418624878,9.963521003723145,7.031060695648193,0.3935442268848419,1.1644684076309204,-0.37956079840660095,0.267490029335022,-11.691372871398926,-37.01099395751953,32.458457946777344,-1.7619552612304688,-2.569514751434326,-0.9979021549224854,11.725476264953613,9.60057544708252,1.3914463520050049
5_20251106_215121,1762437044690,5,0.15540798008441925,-0.40739625692367554,-0.5645199418067932,-0.7008522748947144,1.4745969772338867,3.0922529697418213,1.010650634765625,10.517755508422852,6.414580345153809,-0.3091237545013428,1.2713698148727417,-0.7149255275726318,0.4562472403049469,-11.992551803588867,-36.70880126953125,32.81751251220703,-0.9661769866943359,-2.548795700073242,-1.360456109046936,11.483932495117188,8.96337604522705,1.0513323545455933
5_20251106_215121,1762437044710,5,0.15940730273723602,-0.4131523370742798,-0.5718708038330078,-0.6905492544174194,1.5504413843154907,3.088186502456665,1.0247596502304077,11.052835464477539,5.968080520629883,-0.8154756426811218,1.2670937776565552,-1.0399055480957031,0.4660210609436035,-12.183042526245117,-36.37488555908203,33.235565185546875,-0.3448772430419922,-2.3962364196777344,-1.4934463500976562,11.397712707519531,8.364316940307617,0.6779707670211792
5_20251106_215121,1762437044730,5,0.1616215854883194,-0.4212697744369507,-0.5793929696083069,-0.6787592172622681,1.5504413843154907,3.088186502456665,1.0247596502304077,11.052835464477539,5.968080520629883,-0.8154756426811218,1.1400338411331177,-1.1846805810928345,0.2748204171657562,-12.146714210510254,-35.87733459472656,33.80078125,-0.3448772430419922,-2.3962364196777344,-1.4934463500976562,11.397712707519531,8.364316940307617,0.6779707670211792
5_20251106_215121,1762437044749,5,0.1612800806760788,-0.42953047156333923,-0.5868226885795593,-0.6671817302703857,1.687127709388733,3.0548923015594482,1.034757375717163,11.34970474243164,4.620203018188477,-1.6115134954452515,0.9934263825416565,-1.1687980890274048,-0.015951205044984818,-12.051458358764648,-35.4017333984375,34.44902038574219,-0.02095794677734375,-2.518427848815918,-1.5476269721984863,11.370662689208984,7.1386308670043945,-0.06388649344444275
5_20251106_215121,1762437044767,5,0.1584475040435791,-0.43646320700645447,-0.5941243767738342,-0.6568184494972229,1.687127709388733,3.0548923015594482,1.034757375717163,11.34970474243164,4.620203018188477,-1.6115134954452515,0.8217734098434448,-1.1174854040145874,-0.34215298295021057,-11.831819534301758,-34.868370056152344,35.143768310546875,-0.02095794677734375,-2.518427848815918,-1.5476269721984863,11.370662689208984,7.1386308670043945,-0.06388649344444275
5_20251106_215121,1762437044787,5,0.15317073464393616,-0.44159799814224243,-0.6014142632484436,-0.6479434967041016,1.801092505455017,2.993455410003662,1.020079255104065,10.769135475158691,3.1885323524475098,-3.1090221405029297,0.5835362076759338,-1.1370331048965454,-0.6323136687278748,-11.524354934692383,-34.27961730957031,35.88355255126953,-0.4399452209472656,-2.6437458992004395,-2.070889949798584,11.209080696105957,5.832278251647949,-1.0381320714950562
5_20251106_215121,1762437044805,5,0.144962877035141,-0.4456673860549927,-0.6083279252052307,-0.64054936170578,1.8516652584075928,2.950967788696289,1.0033354759216309,10.171808242797852,2.5481112003326416,-3.373569965362549,0.5835362076759338,-1.1370331048965454,-0.6323136687278748,-11.074788093566895,-33.75654602050781,36.61412048339844,-0.8298187255859375,-2.627333402633667,-1.8683502674102783,11.001626968383789,5.175444602966309,-1.5052196979522705
5_20251106_215121,1762437044824,5,0.13331466913223267,-0.4492519795894623,-0.6143772602081299,-0.6347758769989014,1.8956328630447388,2.9020397663116455,0.9825130701065063,9.515825271606445,2.05372953414917,-3.2969589233398438,-0.09941060096025467,-1.303799033164978,-1.0904622077941895,-10.455855369567871,-33.270423889160156,37.134239196777344,-1.1886415481567383,-2.4973721504211426,-1.4333913326263428,10.704466819763184,4.5511016845703125,-1.863567590713501
5_20251106_215121,1762437044843,5,0.11864905059337616,-0.4524606168270111,-0.6191751956939697,-0.6307327747344971,1.9320358037948608,2.8478524684906006,0.9591275453567505,8.748516082763672,1.7424967288970947,-3.1772537231445312,-0.37307798862457275,-1.3997048139572144,-1.2382915019989014,-9.62160587310791,-32.84507751464844,37.63457489013672,-1.5647611618041992,-2.2468838691711426,-1.0509488582611084,10.313277244567871,3.9893805980682373,-2.126304864883423
5_20251106_215121,1762437044862,5,0.1013675406575203,-0.45556196570396423,-0.6228876113891602,-0.6278526186943054,1.9595798254013062,2.7901113033294678,0.9347504377365112,7.7477827072143555,1.706585168838501,-2.91390323638916,-0.37307798862457275,-1.3997048139572144,-1.2382915019989014,-8.648086547851562,-32.54724884033203,38.029754638671875,-2.052395820617676,-1.8262362480163574,-0.6300787925720215,9.800178527832031,3.5328214168548584,-2.2838244438171387
5_20251106_215121,1762437044882,5,0.08196468651294708,-0.4584915041923523,-0.6257036924362183,-0.6257493495941162,1.9773730039596558,2.7272841930389404,0.9087235331535339,6.592629909515381,1.8598076105117798,-2.8265185356140137,-0.77197265625,-1.4803389310836792,-1.421550989151001,-7.417988300323486,-32.46797180175781,38.17390441894531,-2.5660386085510254,-1.3384112119674683,-0.4341552257537842,9.158668518066406,3.198218822479248,-2.3923633098602295
5_20251106_215121,1762437044900,5,0.061380092054605484,-0.46075761318206787,-0.6275887489318848,-0.6245536208152771,1.9837833642959595,2.6738483905792236,0.8869740962982178,5.535635471343994,1.9675419330596924,-2.725966453552246,-0.77197265625,-1.4803389310836792,-1.421550989151001,-6.044503688812256,-32.45262145996094,38.13312530517578,-2.8984265327453613,-0.984541654586792,-0.26688241958618164,8.434062004089355,2.9520835876464844,-2.4590840339660645
5_20251106_215121,1762437044921,5,0.03988416865468025,-0.4625774323940277,-0.6283441781997681,-0.6241914629936218,1.9772071838378906,2.604254722595215,0.8593722581863403,4.50377893447876,1.8921279907226562,-2.69364595413208,-1.0896223783493042,-1.518823504447937,-1.347636342048645,-4.501441955566406,-32.46233367919922,37.949745178222656,-3.144226551055908,-0.8479645252227783,-0.18764948844909668,7.648005485534668,2.7400925159454346,-2.5059964656829834
5_20251106_215121,1762437044941,5,0.017929337918758392,-0.4649558961391449,-0.6277064681053162,-0.624082624912262,1.9602688550949097,2.544862747192383,0.8369503021240234,3.4407992362976074,1.904098391532898,-2.424309730529785,-1.181252121925354,-1.6678744554519653,-1.1130642890930176,-2.7942442893981934,-32.59730529785156,37.59461212158203,-3.36576509475708,-0.6687952280044556,0.06534934043884277,6.8065643310546875,2.5728936195373535,-2.489659070968628
5_20251106_215121,1762437044959,5,0.003937901929020882,0.4692426919937134,0.6253615617752075,0.6234731078147888,1.9328444004058838,2.4874067306518555,0.8169158101081848,2.675884246826172,2.196178436279297,-2.0280866622924805,-1.181252121925354,-1.6678744554519653,-1.1130642890930176,-2.7942442893981934,-32.59730529785156,37.59461212158203,-3.304543972015381,-0.3013722896575928,0.36925792694091797,5.980428218841553,2.4975507259368896,-2.3973445892333984
5_20251106_215121,1762437044977,5,0.024844154715538025,0.47559964656829834,0.6209366917610168,0.6225956678390503,1.8985515832901,2.436436891555786,0.8005751967430115,2.077359676361084,2.7982943058013916,-1.7108685970306396,-1.3791722059249878,-1.760725975036621,-0.4893713891506195,-0.9751924276351929,-32.93510437011719,36.969573974609375,-3.12245512008667,0.24059486389160156,0.5491807460784912,5.199814796447754,2.55769944190979,-2.260049343109131
5_20251106_215121,1762437044996,5,0.04465048387646675,0.4833553731441498,0.6141356825828552,0.6222630143165588,1.8985515832901,2.436436891555786,0.8005751967430115,2.077359676361084,2.7982943058013916,-1.7108685970306396,-1.5312775373458862,-1.7204087972640991,-0.2749578356742859,0.8178670406341553,-33.311492919921875,36.275184631347656,-3.12245512008667,0.24059486389160156,0.5491807460784912,5.199814796447754,2.55769944190979,-2.260049343109131
5_20251106_215121,1762437045015,5,0.06360233575105667,0.4915187656879425,0.6053366661071777,0.6228415369987488,1.805840015411377,2.345651865005493,0.7778127789497375,1.1604198217391968,3.862471103668213,-0.6574651002883911,-1.6821612119674683,-1.6257249116897583,-0.12285252660512924,2.596909523010254,-33.73755645751953,35.44407653808594,-2.657419204711914,0.9233484268188477,1.123524785041809,3.8178389072418213,2.9391226768493652,-1.7809898853302002
5_20251106_215121,1762437045034,5,0.08179344236850739,0.4994260370731354,0.5947861075401306,0.6245902180671692,1.7461645603179932,2.3064780235290527,0.7747630476951599,0.8587634563446045,4.434660911560059,0.3301006257534027,-1.7750126123428345,-1.4778956174850464,-0.008620827458798885,4.325475215911865,-34.215545654296875,34.461280822753906,-2.367260456085205,1.1964306831359863,1.6888724565505981,3.2260239124298096,3.2382302284240723,-1.358771800994873
5_20251106_215121,1762437045055,5,0.09886907786130905,0.506508469581604,0.5830649733543396,0.62746262550354,1.7461645603179932,2.3064780235290527,0.7747630476951599,0.8587634563446045,4.434660911560059,0.3301006257534027,-1.7615735530853271,-1.244545340538025,0.05613083019852638,5.938083171844482,-34.84839630126953,33.17353820800781,-2.367260456085205,1.1964306831359863,1.6888724565505981,3.2260239124298096,3.2382302284240723,-1.358771800994873
5_20251106_215121,1762437045072,5,0.11433353275060654,0.5122136473655701,0.5709640979766846,0.631320059299469,1.6216322183609009,2.253974676132202,0.7877650856971741,0.8084874153137207,5.826828956604004,1.3248486518859863,-1.7615735530853271,-1.244545340538025,0.05613083019852638,7.475433826446533,-35.546913146972656,31.692312240600586,-1.5393707752227783,1.7503604888916016,1.7855095863342285,2.347858190536499,4.076468467712402,-0.4606608748435974
5_20251106_215121,1762437045092,5,0.1281818449497223,0.516817569732666,0.5589635968208313,0.6356325745582581,1.5571494102478027,2.238525390625,0.8023949861526489,0.678009033203125,6.23143196105957,1.6312931776046753,-1.6595591306686401,-1.1077115535736084,0.25221842527389526,8.860010147094727,-36.368247985839844,30.229856491088867,-1.3358793258666992,1.723970890045166,1.6735632419586182,2.013888359069824,4.507461071014404,-0.04227006435394287
5_20251106_215121,1762437045112,5,0.1409594714641571,0.5219841003417969,0.5464425086975098,0.6395807862281799,1.4854145050048828,2.2303125858306885,0.8254237174987793,0.8120785355567932,6.89699125289917,2.2453794479370117,-1.6003053188323975,-1.0924400091171265,0.4366995394229889,10.013843536376953,-37.203590393066406,28.64995002746582,-0.9614478945732117,1.9116239547729492,1.8301196098327637,1.7735264301300049,4.985367298126221,0.41525983810424805
5_20251106_215121,1762437045130,5,0.15213583409786224,0.5277473330497742,0.5332910418510437,0.6433802247047424,1.4854145050048828,2.2303125858306885,0.8254237174987793,0.8120785355567932,6.89699125289917,2.2453794479370117,-1.5941966772079468,-0.8316006660461426,0.5332162380218506,10.959795951843262,-38.07660675048828,26.96656608581543,-0.9614478945732117,1.9116239547729492,1.8301196098327637,1.7735264301300049,4.985367298126221,0.41525983810424805
5_20251106_215121,1762437045151,5,0.16129347681999207,0.5320649743080139,0.5199301242828369,0.6485090255737305,1.364271879196167,2.2382869720458984,0.8780159950256348,1.3411743640899658,8.49625015258789,2.794825553894043,-1.684604525566101,-0.5371638536453247,0.47396230697631836,11.76987075805664,-39.007240295410156,25.141569137573242,-0.24663543701171875,2.376821517944336,1.5943620204925537,1.5878098011016846,6.119428634643555,1.2004635334014893
5_20251106_215121,1762437045168,5,0.16995860636234283,0.5340825319290161,0.5064767003059387,0.6552489995956421,1.308154821395874,2.2527360916137695,0.9103583693504333,1.0909910202026367,9.044498443603516,3.7273268699645996,-1.8489272594451904,-0.24211624264717102,0.3835543096065521,12.446109771728516,-39.934730529785156,23.3790225982666,-0.39745497703552246,2.3400559425354004,2.0214905738830566,1.4884459972381592,6.704442501068115,1.7058361768722534
5_20251106_215121,1762437045189,5,0.17859061062335968,0.5332987904548645,0.49278396368026733,0.6639742255210876,1.2401299476623535,2.2802605628967285,0.958649754524231,0.7091323137283325,9.626264572143555,4.625113487243652,-1.9277287721633911,0.029107704758644104,0.35606542229652405,13.036948204040527,-40.86791229248047,21.626558303833008,-0.6234508752822876,2.3374576568603516,2.3354218006134033,1.3325831890106201,7.288806915283203,2.289691686630249
5_20251106_215121,1762437045208,5,0.18634948134422302,0.5300329327583313,0.4791792333126068,0.674333930015564,1.2401299476623535,2.2802605628967285,0.958649754524231,0.7091323137283325,9.626264572143555,4.625113487243652,-1.8623663187026978,0.30033165216445923,0.41837361454963684,13.40299129486084,-41.70263671875,19.813085556030273,-0.6234508752822876,2.3374576568603516,2.3354218006134033,1.3325831890106201,7.288806915283203,2.289691686630249
5_20251106_215121,1762437045225,5,0.19204063713550568,0.5249718427658081,0.4661148488521576,0.6857564449310303,1.1306449174880981,2.3425583839416504,1.0541375875473022,0.3919142186641693,10.611435890197754,5.600708961486816,-1.7255325317382812,0.6222573518753052,0.5735332369804382,13.676295280456543,-42.44446563720703,18.119447708129883,-0.6152435541152954,2.206732749938965,2.1443328857421875,1.007157802581787,8.404703140258789,3.456376075744629
5_20251106_215121,1762437045244,5,0.1947181522846222,0.5185027718544006,0.453512579202652,0.6982592940330505,1.0752900838851929,2.382722854614258,1.1108487844467163,0.6205506324768066,10.72874641418457,5.953838348388672,-1.5789250135421753,0.8323948383331299,0.8245986700057983,13.794705390930176,-43.13383483886719,16.420753479003906,-0.3092857003211975,1.8592348098754883,1.997969627380371,0.9298363327980042,8.869511604309082,3.955868721008301
5_20251106_215121,1762437045264,5,0.19400663673877716,0.5117576718330383,0.4409824311733246,0.7113367915153503,1.0201812982559204,2.430027723312378,1.1758790016174316,1.0107887983322144,11.218339920043945,6.692418098449707,-1.4536978006362915,0.9386852979660034,1.115370273590088,13.780195236206055,-43.795623779296875,14.852619171142578,0.06476199626922607,1.8790626525878906,2.189239501953125,0.9460268020629883,9.339277267456055,4.503178596496582
5_20251106_215121,1762437045282,5,0.19007103145122528,0.5055062174797058,0.4279724955558777,0.724690318107605,0.9747408032417297,2.476308822631836,1.2388691902160645,1.6272692680358887,11.709131240844727,7.504017353057861,-1.2466145753860474,1.1048403978347778,1.384150743484497,13.490959167480469,-44.363739013671875,13.383710861206055,0.5449939966201782,1.895883560180664,2.4006710052490234,1.0822752714157104,9.813247680664062,5.103346347808838
5_20251106_215121,1762437045302,5,0.1821644902229309,0.49910691380500793,0.4154561758041382,0.7383119463920593,0.9314420819282532,2.5316123962402344,1.3124239444732666,2.6172292232513428,11.935373306274414,7.427406311035156,-0.8904803991317749,1.346742868423462,1.566799283027649,13.035781860351562,-44.83226013183594,12.14008903503418,1.2279632091522217,1.6977005004882812,1.8592476844787598,1.389266014099121,10.237672805786133,5.5681586265563965
5_20251106_215121,1762437045320,5,0.17016445100307465,0.4920593202114105,0.4048002362251282,0.7517037391662598,0.8987335562705994,2.583702325820923,1.380893588066101,3.1403396129608154,12.189146995544434,7.834403038024902,-0.6479671597480774,1.5165632963180542,1.5808491706848145,12.42169189453125,-45.31177520751953,10.957672119140625,1.4008588790893555,1.5611791610717773,1.8129959106445312,1.73948073387146,10.627967834472656,6.021407127380371
5_20251106_215121,1762437045340,5,0.15610069036483765,0.4841877818107605,0.39588630199432373,0.7645055651664734,0.8692161440849304,2.6422131061553955,1.4614115953445435,3.386931896209717,11.788135528564453,8.733386993408203,-0.5422875285148621,1.8476520776748657,1.4879977703094482,11.594412803649902,-45.68122863769531,9.89071273803711,1.3179609775543213,0.9281339645385742,2.169583797454834,2.0689709186553955,10.860001564025879,6.563803195953369
5_20251106_215121,1762437045359,5,0.14083188772201538,0.4734838604927063,0.38847121596336365,0.7778621912002563,0.8477789163589478,2.6956112384796143,1.5392433404922485,3.96510648727417,11.075891494750977,8.44609546661377,-0.3645258843898773,2.327791690826416,1.473336935043335,10.425692558288574,-46.0152587890625,9.324958801269531,1.5169084072113037,0.17271137237548828,1.505833625793457,2.448198080062866,10.903180122375488,6.9402618408203125
5_20251106_215121,1762437045380,5,0.12283983081579208,0.45902442932128906,0.3827763497829437,0.7922683954238892,0.8339607119560242,2.749886989593506,1.6222302913665771,5.041254043579102,10.36843490600586,7.317277908325195,-0.08902589976787567,2.553811550140381,1.676144003868103,9.148438453674316,-46.308502197265625,8.985624313354492,2.0744447708129883,-0.4277963638305664,0.30161285400390625,2.9668092727661133,10.796231269836426,7.015665054321289
5_20251106_215121,1762437045399,5,0.10104143619537354,0.4437740445137024,0.3781852424144745,0.8061210513114929,0.8316015601158142,2.792832136154175,1.689914345741272,6.578265190124512,10.288232803344727,7.059911727905273,0.10706167668104172,2.456684112548828,1.9687483310699463,9.148438453674316,-46.308502197265625,8.985624313354492,2.889164924621582,-0.4063987731933594,0.03539752960205078,3.6891002655029297,10.694631576538086,7.024514198303223
5_20251106_215121,1762437045417,5,0.07649797201156616,0.4306474030017853,0.37331947684288025,0.8181219100952148,0.8401090502738953,2.833174705505371,1.7544840574264526,8.054227828979492,10.509687423706055,7.134129524230957,0.3019275367259979,2.271592140197754,2.0842015743255615,7.6696858406066895,-46.49156188964844,8.829818725585938,3.4921021461486816,-0.14795494079589844,0.0876922607421875,4.5621256828308105,10.657642364501953,7.0464372634887695
5_20251106_215121,1762437045436,5,0.05085026100277901,0.41948431730270386,0.36893782019615173,0.8278478384017944,0.8401090502738953,2.833174705505371,1.7544840574264526,8.054227828979492,10.509687423706055,7.134129524230957,0.5377213358879089,2.201953411102295,1.9870741367340088,6.048238277435303,-46.60975646972656,8.764326095581055,3.4921021461486816,-0.14795494079589844,0.0876922607421875,4.5621256828308105,10.657642364501953,7.0464372634887695
5_20251106_215121,1762437045455,5,0.02554357796907425,0.4086669087409973,0.3662587106227875,0.8355796933174133,0.8983753323554993,2.9143452644348145,1.8842318058013916,10.56204605102539,10.342100143432617,6.804940700531006,0.7832888960838318,2.2422704696655273,1.8111450672149658,4.244868755340576,-46.669105529785156,9.152612686157227,4.044500827789307,-0.27606964111328125,-0.2076106071472168,6.517545223236084,10.618169784545898,7.012551307678223
5_20251106_215121,1762437045474,5,0.0003976743028033525,0.39678704738616943,0.3660118579864502,0.841780960559845,0.9454827308654785,2.947906255722046,1.9395889043807983,11.621435165405273,9.706466674804688,6.034040927886963,0.7832888960838318,2.2422704696655273,1.8111450672149658,2.369410514831543,-46.69702911376953,9.687429428100586,4.083111763000488,-0.7293624877929688,-0.7828083038330078,7.538323402404785,10.435829162597656,6.816849231719971
5_20251106_215121,1762437045494,5,0.024020323529839516,-0.38460466265678406,-0.3674108386039734,-0.846470057964325,0.9454827308654785,2.947906255722046,1.9395889043807983,11.621435165405273,9.706466674804688,6.034040927886963,0.9647157192230225,2.219057559967041,1.6529312133789062,0.4011017084121704,-46.64381408691406,10.260717391967773,4.083111763000488,-0.7293624877929688,-0.7828083038330078,7.538323402404785,10.435829162597656,6.816849231719971
5_20251106_215121,1762437045512,5,0.04624702036380768,-0.3734583258628845,-0.36973685026168823,-0.8495203256607056,1.0708580017089844,3.004880428314209,2.0362114906311035,12.789754867553711,9.615490913391113,6.302180290222168,1.0184718370437622,1.842764973640442,1.134917974472046,-1.590044617652893,-46.54371643066406,11.00979232788086,3.433505058288574,-0.5524053573608398,-0.263885498046875,9.356249809265137,10.167896270751953,6.566065788269043
5_20251106_215121,1762437045532,5,0.0646989718079567,-0.3628102242946625,-0.37280505895614624,-0.8515862822532654,1.1453922986984253,3.028759002685547,2.081940174102783,13.367929458618164,9.61788558959961,7.136523246765137,1.0184718370437622,1.842764973640442,1.134917974472046,-3.4887280464172363,-46.30073547363281,11.846302032470703,3.209343910217285,-0.44000911712646484,0.45636558532714844,10.158585548400879,10.057894706726074,6.680157661437988
5_20251106_215121,1762437045551,5,0.08000040054321289,-0.3516499996185303,-0.3774717152118683,-0.852911114692688,1.2322630882263184,3.05163836479187,2.130380868911743,14.21663761138916,9.729209899902344,7.572249412536621,1.1962333917617798,1.5825366973876953,0.3633957803249359,-5.375324726104736,-46.057098388671875,12.696817398071289,3.2464418411254883,-0.26294803619384766,0.7136735916137695,10.970195770263672,9.992157936096191,6.858575820922852
5_20251106_215121,1762437045570,5,0.09209131449460983,-0.33994990587234497,-0.3843596875667572,-0.8533585667610168,1.3203097581863403,3.071831464767456,2.173971176147461,14.485973358154297,9.826171875,6.812122821807861,1.431416392326355,1.3094801902770996,-0.08253546059131622,-7.0751118659973145,-45.73808288574219,13.488428115844727,2.8126220703125,-0.13278865814208984,-0.03716230392456055,11.673351287841797,9.95896053314209,6.849285125732422
5_20251106_215121,1762437045589,5,0.10045414417982101,-0.3286113142967224,-0.39464786648750305,-0.8521599769592285,1.4092077016830444,3.0899479389190674,2.2133686542510986,13.588186264038086,9.570002555847168,6.115440368652344,1.7289074659347534,0.9942740201950073,-0.48814964294433594,-8.593914031982422,-45.43280792236328,14.340932846069336,1.5318679809570312,-0.31116580963134766,-0.5870761871337891,12.056318283081055,9.881168365478516,6.702516555786133
5_20251106_215121,1762437045612,5,0.1051735132932663,-0.31815505027770996,-0.40879786014556885,-0.848881721496582,1.5134698152542114,3.1088616847991943,2.2538225650787354,12.561119079589844,9.40361213684082,5.495368480682373,1.8406957387924194,0.9539568424224854,-0.6518613696098328,-9.766362190246582,-45.00550842285156,15.276863098144531,0.4038410186767578,-0.38204479217529297,-0.9657187461853027,12.157278060913086,9.785656929016113,6.461087226867676
5_20251106_215121,1762437045627,5,0.10874549299478531,-0.3071734309196472,-0.42426663637161255,-0.844876766204834,1.5783747434616089,3.119750738143921,2.2763240337371826,12.337270736694336,9.300666809082031,4.962681770324707,1.8406957387924194,0.9539568424224854,-0.6518613696098328,-10.705161094665527,-44.52545166015625,16.222904205322266,0.14399433135986328,-0.38799190521240234,-1.1987247467041016,12.193276405334473,9.688658714294434,6.161406517028809
5_20251106_215121,1762437045646,5,0.11288164556026459,-0.2958120107650757,-0.438872754573822,-0.8409183621406555,1.5783747434616089,3.119750738143921,2.2763240337371826,12.337270736694336,9.300666809082031,4.962681770324707,1.7936590909957886,0.878820538520813,-0.483873575925827,-11.410000801086426,-43.980613708496094,17.23338508605957,0.14399433135986328,-0.38799190521240234,-1.1987247467041016,12.193276405334473,9.688658714294434,6.161406517028809
5_20251106_215121,1762437045665,5,0.11738013476133347,-0.2859496474266052,-0.4533245861530304,-0.8360332250595093,1.7276370525360107,3.139108896255493,2.3162403106689453,12.02843189239502,8.777556419372559,4.661025047302246,1.9647012948989868,0.5575056672096252,-0.43683698773384094,-11.894379615783691,-43.396766662597656,18.29376983642578,-0.16429996490478516,-0.6158571243286133,-0.9374523162841797,12.192731857299805,9.393413543701172,5.598477363586426
5_20251106_215121,1762437045683,5,0.12116631865501404,-0.2787807583808899,-0.46908482909202576,-0.829192042350769,1.7960807085037231,3.144514799118042,2.3309261798858643,11.429906845092773,8.378938674926758,4.60117244720459,2.0880961418151855,0.3882961571216583,-0.4588281214237213,-12.148916244506836,-42.811737060546875,19.498371124267578,-0.610260009765625,-0.811579704284668,-0.7978439331054688,12.040166854858398,9.190518379211426,5.399016380310059
5_20251106_215121,1762437045703,5,0.12443223595619202,-0.272536039352417,-0.4857946038246155,-0.8211238384246826,1.8603256940841675,3.1460087299346924,2.342087745666504,10.659006118774414,7.903709411621094,4.239663600921631,2.0880961418151855,0.3882961571216583,-0.4588281214237213,-12.289648056030273,-42.14434814453125,20.72248649597168,-1.104928970336914,-1.0294466018676758,-0.9274826049804688,11.763935089111328,8.93315601348877,5.1671462059021
5_20251106_215121,1762437045722,5,0.12682867050170898,-0.2658897340297699,-0.5028612017631531,-0.812617838382721,1.9125920534133911,3.1417672634124756,2.348112106323242,9.68101692199707,6.895793914794922,3.691415309906006,2.0960373878479004,0.3693593740463257,-0.7013413906097412,-12.301353454589844,-41.544647216796875,22.058542251586914,-1.6663341522216797,-1.6298894882202148,-1.1805849075317383,11.34735107421875,8.525683403015137,4.872000217437744
5_20251106_215121,1762437045740,5,0.12827414274215698,-0.25826990604400635,-0.5197715759277344,-0.8041641116142273,1.9528433084487915,3.1318819522857666,2.347679376602173,8.590505599975586,6.061450958251953,2.494365930557251,2.0960373878479004,0.3693593740463257,-0.7013413906097412,-12.234699249267578,-40.84026336669922,23.453718185424805,-2.205476760864258,-1.9713859558105469,-1.9021074771881104,10.795982360839844,8.0328369140625,4.396473407745361
5_20251106_215121,1762437045760,5,0.1291762888431549,-0.25035619735717773,-0.5353110432624817,-0.7962897419929504,1.98623526096344,3.114213705062866,2.340665102005005,7.804044246673584,5.653256893157959,2.2393946647644043,1.6977533102035522,0.27956223487854004,-0.7050065994262695,-12.104196548461914,-40.08154296875,24.838884353637695,-2.3935513496398926,-1.9036641120910645,-1.7256629467010498,10.197595596313477,7.556921005249023,3.965057611465454
5_20251106_215121,1762437045781,5,0.1290912628173828,-0.2437121570110321,-0.5490104556083679,-0.7890040278434753,2.009727716445923,3.090247869491577,2.33038592338562,7.490417003631592,5.19478702545166,2.775672435760498,1.6042910814285278,0.10546579211950302,-0.6695764064788818,-11.948517799377441,-39.30854034423828,26.211782455444336,-2.1657423973083496,-1.8897075653076172,-0.9515082836151123,9.656159400939941,7.084494590759277,3.7271807193756104
5_20251106_215121,1762437045802,5,0.1282130479812622,-0.23847675323486328,-0.5620198249816895,-0.781552255153656,2.025566816329956,3.0568742752075195,2.3150696754455566,7.288115978240967,4.820110321044922,2.4835925102233887,1.7392922639846802,-0.04480692371726036,-0.6591917276382446,-11.759100914001465,-38.58338165283203,27.585092544555664,-1.8944344520568848,-1.8115077018737793,-0.9948704242706299,9.182550430297852,6.631618022918701,3.4784629344940186
5_20251106_215121,1762437045818,5,0.12699247896671295,-0.23411394655704498,-0.5758993625640869,-0.7729188203811646,2.025566816329956,3.0568742752075195,2.3150696754455566,7.288115978240967,4.820110321044922,2.4835925102233887,1.7997678518295288,-0.21645991504192352,-0.6549156308174133,-11.546734809875488,-37.89336395263672,28.863981246948242,-1.8944344520568848,-1.8115077018737793,-0.9948704242706299,9.182550430297852,6.631618022918701,3.4784629344940186
5_20251106_215121,1762437045837,5,0.12492550164461136,-0.230986550450325,-0.5902090072631836,-0.7633427381515503,2.0335495471954346,2.9956212043762207,2.277533769607544,6.51123046875,4.683647155761719,0.7382944226264954,1.7997678518295288,-0.21645991504192352,-0.6549156308174133,-11.546734809875488,-37.89336395263672,28.863981246948242,-1.7787866592407227,-1.2593421936035156,-1.8554091453552246,8.290017127990723,5.942989349365234,2.593703508377075
5_20251106_215121,1762437045856,5,0.12185832858085632,-0.22948813438415527,-0.6033951044082642,-0.7539231181144714,2.029026746749878,2.959367513656616,2.2500953674316406,6.176056861877441,4.662099838256836,0.5132491588592529,1.3648320436477661,-0.4229322075843811,-0.5394622683525085,-11.220168113708496,-37.120452880859375,30.10831642150879,-1.6911683082580566,-1.0247116088867188,-1.6643636226654053,7.867225170135498,5.686811447143555,2.177612781524658
5_20251106_215121,1762437045875,5,0.11848504096269608,-0.22886261343955994,-0.6145018935203552,-0.7456343770027161,2.019981861114502,2.9222464561462402,2.218717098236084,6.136553764343262,4.709981918334961,0.24151895940303802,1.3648320436477661,-0.4229322075843811,-0.5394622683525085,-10.858861923217773,-36.382423400878906,31.31278419494629,-1.3845372200012207,-0.781463623046875,-1.548875093460083,7.521090984344482,5.491445541381836,1.7903940677642822
5_20251106_215121,1762437045894,5,0.11523257941007614,-0.22853253781795502,-0.6234085559844971,-0.7388207912445068,2.0074691772460938,2.885179042816162,2.1838536262512207,6.092263221740723,4.834475040435791,-0.05175813287496567,0.9121813774108887,-0.41621267795562744,-0.46738022565841675,-10.494946479797363,-35.606048583984375,32.450462341308594,-1.1430621147155762,-0.5255765914916992,-1.4737217426300049,7.235325336456299,5.36005163192749,1.4219635725021362
5_20251106_215121,1762437045913,5,0.11145111918449402,-0.22864900529384613,-0.6310252547264099,-0.7328747510910034,1.991634726524353,2.848923683166504,2.1456587314605713,5.7965922355651855,4.980515003204346,-0.4276316165924072,0.8119995594024658,-0.4913490414619446,-0.504642903804779,-10.063369750976562,-34.93670654296875,33.46705627441406,-1.150986671447754,-0.30362939834594727,-1.4796761274337769,6.9475789070129395,5.284144401550293,1.0520445108413696
5_20251106_215121,1762437045933,5,0.10668178647756577,-0.22919946908950806,-0.6380541920661926,-0.7273056507110596,1.9715152978897095,2.8118252754211426,2.102590799331665,5.538029670715332,5.006850242614746,-0.5509276986122131,0.6452335119247437,-0.5347204208374023,-0.5083081126213074,-9.57087516784668,-34.27500915527344,34.39122772216797,-1.1276392936706543,-0.22183513641357422,-1.2823777198791504,6.665668964385986,5.22868537902832,0.731450080871582
5_20251106_215121,1762437045952,5,0.10132740437984467,-0.2300490438938141,-0.6440144777297974,-0.7225341200828552,1.951539397239685,2.7805798053741455,2.0629489421844482,5.539226531982422,5.421029567718506,-0.41326704621315,0.4741913676261902,-0.5976395010948181,-0.47776493430137634,-9.057756423950195,-33.69800567626953,35.15233612060547,-0.9011540412902832,0.15387487411499023,-0.9157737493515015,6.440380573272705,5.267154693603516,0.502506673336029
5_20251106_215121,1762437045971,5,0.09541654586791992,-0.23161759972572327,-0.6487605571746826,-0.7185810208320618,1.9270591735839844,2.749652862548828,2.0176258087158203,5.323757648468018,5.9429426193237305,-0.6419035196304321,0.4161592423915863,-0.7124820947647095,-0.4893713891506195,-8.530745506286621,-33.094688415527344,35.87391662597656,-0.8932986259460449,0.5406303405761719,-0.9155281782150269,6.2170562744140625,5.402312278747559,0.2736246585845947
5_20251106_215121,1762437045990,5,0.08861906081438065,-0.2338615357875824,-0.6531744599342346,-0.7147157192230225,1.901440978050232,2.7238452434539795,1.9736285209655762,4.9323225021362305,6.169185161590576,-0.8537812232971191,0.36179229617118835,-0.8016682863235474,-0.5168602466583252,-7.934550762176514,-32.56153869628906,36.556304931640625,-1.027787208557129,0.6134982109069824,-0.901924729347229,5.960109710693359,5.555686950683594,0.04814349114894867
5_20251106_215121,1762437046009,5,0.08096803724765778,-0.23644785583019257,-0.6573668122291565,-0.7109187841415405,1.8738995790481567,2.701697587966919,1.92931067943573,4.792267799377441,6.419368743896484,-0.8705399632453918,0.2524474561214447,-0.8572570085525513,-0.48265185952186584,-7.319859981536865,-32.16236877441406,36.97996520996094,-0.9342737197875977,0.6909456253051758,-0.7349467873573303,5.726541519165039,5.728423118591309,-0.13559319078922272
5_20251106_215121,1762437046029,5,0.0729411169886589,-0.23957844078540802,-0.6607820391654968,-0.707565426826477,1.8431941270828247,2.6825602054595947,1.88381028175354,4.685730457305908,6.718630790710449,-0.5245925784111023,0.2524474561214447,-0.8572570085525513,-0.48265185952186584,-6.610105037689209,-31.806533813476562,37.35242462158203,-0.8326492309570312,0.7921662330627441,-0.31119951605796814,5.5183796882629395,5.926464557647705,-0.21339306235313416
5_20251106_215121,1762437046047,5,0.06450854241847992,-0.24330632388591766,-0.6634097099304199,-0.7046476006507874,1.8163998126983643,2.669680118560791,1.8467768430709839,4.607921600341797,7.098095893859863,-0.3462322950363159,0.14860045909881592,-0.9171217679977417,-0.45088687539100647,-5.88051700592041,-31.536476135253906,37.669952392578125,-0.7283663749694824,0.9373049736022949,-0.10627138614654541,5.336287975311279,6.160790920257568,-0.2399609088897705
5_20251106_215121,1762437046067,5,0.05591575801372528,-0.24686546623706818,-0.6653168797492981,-0.7023420333862305,1.783645749092102,2.658989429473877,1.8054091930389404,4.4128031730651855,7.379402160644531,-0.23251257836818695,-0.002893972210586071,-0.881691575050354,-0.5064755082130432,-5.165637969970703,-31.317031860351562,37.94538879394531,-0.7387881278991699,0.974888801574707,0.005958661437034607,5.1515913009643555,6.404513359069824,-0.23847123980522156
5_20251106_215121,1762437046085,5,0.04703153297305107,-0.24985824525356293,-0.6668598055839539,-0.7004690170288086,1.783645749092102,2.658989429473877,1.8054091930389404,4.4128031730651855,7.379402160644531,-0.23251257836818695,-0.035880666226148605,-0.8743612170219421,-0.5400730967521667,-4.359640598297119,-31.22747802734375,38.032615661621094,-0.7387881278991699,0.974888801574707,0.005958661437034607,5.1515913009643555,6.404513359069824,-0.23847123980522156
5_20251106_215121,1762437046105,5,0.037904042750597,-0.25248679518699646,-0.6681998372077942,-0.6988009214401245,1.7154514789581299,2.6482086181640625,1.7324577569961548,3.7987167835235596,7.36982536315918,0.19483403861522675,-0.035880666226148605,-0.8743612170219421,-0.5400730967521667,-3.4907960891723633,-31.09654998779297,38.150115966796875,-0.9208080768585205,0.5921344757080078,0.3274956941604614,4.71952486038208,6.777690887451172,-0.13266165554523468
5_20251106_215121,1762437046123,5,0.028928453102707863,-0.2550406754016876,-0.6693421602249146,-0.6972076296806335,1.6844472885131836,2.645514726638794,1.704408049583435,3.7651994228363037,7.117248058319092,0.2606717646121979,-0.07680860161781311,-0.7961705923080444,-0.36842015385627747,-2.662949562072754,-31.05522918701172,38.19671630859375,-0.7634603977203369,0.27164554595947266,0.314666748046875,4.528659820556641,6.845602512359619,-0.05399497598409653
5_20251106_215121,1762437046143,5,0.02131681703031063,-0.2580699026584625,-0.6698139309883118,-0.6959129571914673,1.6477468013763428,2.643319845199585,1.6714261770248413,4.43435001373291,7.134006500244141,-0.07330501824617386,-0.13606248795986176,-0.8163291215896606,-0.10819178074598312,-1.8196033239364624,-30.96221160888672,38.177284240722656,-0.07544803619384766,0.23072338104248047,-0.015448033809661865,4.509798049926758,6.90328311920166,-0.05785698443651199
5_20251106_215121,1762437046161,5,0.015201503410935402,-0.2628748416900635,-0.6692003011703491,-0.6948645114898682,1.6205620765686035,2.642713785171509,1.6433465480804443,5.606261253356934,7.382993698120117,-0.5545188784599304,-0.13606248795986176,-0.8163291215896606,-0.10819178074598312,-1.0189610719680786,-30.98432159423828,38.126976013183594,0.8771705627441406,0.38376855850219727,-0.39732950925827026,4.729090690612793,6.99922513961792,-0.15718935430049896
5_20251106_215121,1762437046181,5,0.009375623427331448,-0.2700355648994446,-0.6681306958198547,-0.6932490468025208,1.5991588830947876,2.6440014839172363,1.6097842454910278,7.127711296081543,7.633176803588867,-1.4475176334381104,-0.09574540704488754,-1.074724793434143,0.1013348251581192,-0.27804994583129883,-30.997177124023438,38.00688934326172,1.9188966751098633,0.5071616172790527,-1.0322625637054443,5.20881462097168,7.1260151863098145,-0.41525501012802124
5_20251106_215121,1762437046199,5,0.003129830351099372,-0.2783820629119873,-0.6670787334442139,-0.6910134553909302,1.5991588830947876,2.6440014839172363,1.6097842454910278,7.127711296081543,7.633176803588867,-1.4475176334381104,-0.20142501592636108,-1.1578024625778198,-0.03122282400727272,0.4501678943634033,-31.023109436035156,37.85902404785156,1.9188966751098633,0.5071616172790527,-1.0322625637054443,5.20881462097168,7.1260151863098145,-0.41525501012802124
5_20251106_215121,1762437046221,5,0.004754957742989063,0.28684309124946594,0.6655616164207458,0.6890037655830383,1.5913194417953491,2.6532585620880127,1.5274620056152344,9.758825302124023,8.05693244934082,-3.2023918628692627,-0.43049928545951843,-1.3202924728393555,-0.3164966404438019,1.1691179275512695,-30.999473571777344,37.698204040527344,3.099320888519287,0.623176097869873,-1.8785738945007324,6.659504413604736,7.433756351470947,-1.3238179683685303
5_20251106_215121,1762437046240,5,0.016105689108371735,0.294943243265152,0.6632081866264343,0.687680184841156,1.6019550561904907,2.659740447998047,1.4860436916351318,10.207719802856445,8.078478813171387,-2.947420597076416,-0.6626278758049011,-1.5340951681137085,-0.7245542407035828,1.9208781719207764,-31.059738159179688,37.37480926513672,2.8385725021362305,0.515777587890625,-1.2988821268081665,7.369147300720215,7.562701225280762,-1.6485384702682495
5_20251106_215121,1762437046258,5,0.03201309219002724,0.3020573556423187,0.6602450013160706,0.6868864893913269,1.6190024614334106,2.668111801147461,1.4439419507980347,9.695382118225098,8.244869232177734,-1.8557114601135254,-0.9002542495727539,-1.6758157014846802,-1.2004179954528809,1.9208781719207764,-31.059738159179688,37.37480926513672,1.860987663269043,0.5457344055175781,-0.16573834419250488,7.834394454956055,7.699134826660156,-1.6899731159210205
5_20251106_215121,1762437046276,5,0.052639421075582504,0.30713406205177307,0.6566619873046875,0.6867989301681519,1.6362688541412354,2.6766510009765625,1.4081978797912598,8.615644454956055,8.107208251953125,-0.8178697228431702,-0.9002542495727539,-1.6758157014846802,-1.2004179954528809,2.7654762268066406,-31.212753295898438,36.918067932128906,0.625,0.3264589309692383,0.697682797908783,7.990644454956055,7.780749320983887,-1.5155525207519531
5_20251106_215121,1762437046296,5,0.07680525630712509,0.30913296341896057,0.6533330678939819,0.6867995858192444,1.650619387626648,2.685845375061035,1.373287558555603,6.715926170349121,7.840266227722168,-0.5880362391471863,-0.98516446352005,-1.80226469039917,-1.991487741470337,3.760226249694824,-31.29291534423828,36.414466857910156,-1.0197744369506836,0.04761362075805664,0.7420130372047424,7.735700607299805,7.792652606964111,-1.3300492763519287
5_20251106_215121,1762437046315,5,0.10351578891277313,0.3091842234134674,0.6505637168884277,0.6858983039855957,1.6552258729934692,2.694031000137329,1.3458563089370728,4.694109916687012,7.751684188842773,0.15533141791820526,-0.98516446352005,-1.80226469039917,-1.991487741470337,4.885992527008057,-31.42645263671875,35.84735870361328,-2.433272361755371,-0.032774925231933594,1.1883045434951782,7.127382278442383,7.784459114074707,-1.0329731702804565
5_20251106_215121,1762437046334,5,0.13191556930541992,0.3098759353160858,0.6471444368362427,0.6839438676834106,1.6482394933700562,2.702026128768921,1.326196551322937,2.9859204292297363,7.8642072677612305,1.2997106313705444,-1.0212055444717407,-2.2726306915283203,-1.8705365657806396,6.4116530418396,-31.381866455078125,35.09636688232422,-3.313169479370117,0.06379890441894531,1.8661470413208008,6.2990899085998535,7.800408363342285,-0.5664364099502563
5_20251106_215121,1762437046354,5,0.16085372865200043,0.31233659386634827,0.6424933075904846,0.6810097694396973,1.62851881980896,2.7115797996520996,1.3157728910446167,1.5303081274032593,8.514205932617188,2.4416956901550293,-0.9998251795768738,-2.3550972938537598,-1.6652860641479492,8.073856353759766,-31.30194854736328,34.20262145996094,-3.8150253295898438,0.5710382461547852,2.406505823135376,5.345333576202393,7.943167686462402,0.03518995642662048
5_20251106_215121,1762437046372,5,0.18889519572257996,0.31590598821640015,0.6367186307907104,0.6775776147842407,1.5961841344833374,2.7235329151153564,1.3149985074996948,0.3883230686187744,8.991827964782715,3.362226963043213,-0.9442364573478699,-2.285459041595459,-1.5119588375091553,9.896257400512695,-31.209274291992188,33.07196044921875,-3.9656083583831787,0.83892822265625,2.6616296768188477,4.353931427001953,8.152899742126465,0.70059734582901
5_20251106_215121,1762437046391,5,0.2147330343723297,0.31882214546203613,0.6307508945465088,0.6740885972976685,1.5514200925827026,2.73786997795105,1.323864221572876,-0.7656325697898865,9.239617347717285,4.200160980224609,-0.8379460573196411,-2.1327426433563232,-1.4099445343017578,11.891265869140625,-31.079559326171875,31.867589950561523,-4.095651149749756,0.8693742752075195,2.7996509075164795,3.3300187587738037,8.370243072509766,1.4005100727081299
5_20251106_215121,1762437046410,5,0.238589808344841,0.3210279643535614,0.6250399351119995,0.6703290343284607,1.4950300455093384,2.7546865940093994,1.3403717279434204,-1.7232719659805298,9.535287857055664,4.347397804260254,-0.6766777634620667,-1.893283486366272,-1.3060975074768066,14.003281593322754,-30.828330993652344,30.534849166870117,-4.042632579803467,0.9320354461669922,2.3575100898742676,2.3193607330322266,8.603252410888672,1.9898875951766968
5_20251106_215121,1762437046431,5,0.25974783301353455,0.32213544845581055,0.6202611327171326,0.6663601994514465,1.4244945049285889,2.77441668510437,1.3629543781280518,-2.3337671756744385,9.561624526977539,3.988283634185791,-0.49219658970832825,-1.7240740060806274,-1.170485496520996,16.099878311157227,-30.427337646484375,29.1367130279541,-3.7225024700164795,0.766697883605957,1.5987167358398438,1.388735294342041,8.794926643371582,2.3895668983459473
5_20251106_215121,1762437046451,5,0.278617262840271,0.32328131794929504,0.616346001625061,0.661799967288971,1.3398816585540771,2.7966830730438232,1.3909672498703003,-2.864060163497925,9.566411972045898,4.0265889167785645,-0.3449782133102417,-1.6550463438034058,-1.0196019411087036,18.12355613708496,-30.030838012695312,27.708600997924805,-3.4022364616394043,0.6171884536743164,1.309617519378662,0.5381762385368347,8.949223518371582,2.7169713973999023
5_20251106_215121,1762437046468,5,0.2956848442554474,0.3251866102218628,0.6128971576690674,0.6566439270973206,1.2661992311477661,2.8153703212738037,1.415636658668518,-3.382382392883301,9.660978317260742,4.140308380126953,-0.3449782133102417,-1.6550463438034058,-1.0196019411087036,20.052452087402344,-29.602210998535156,26.196260452270508,-3.136446952819824,0.5694036483764648,1.138669729232788,-0.24593541026115417,9.091574668884277,3.001638650894165
5_20251106_215121,1762437046487,5,0.310420960187912,0.3272436261177063,0.6101720333099365,0.6513374447822571,1.1787267923355103,2.8366260528564453,1.4444940090179443,-3.613412857055664,9.607110977172852,3.972722053527832,-0.19959241151809692,-1.507827877998352,-0.8705509305000305,21.76370620727539,-29.16236114501953,24.635072708129883,-2.6939821243286133,0.4124288558959961,0.7768669128417969,-0.9194308519363403,9.194682121276855,3.195855140686035
5_20251106_215121,1762437046506,5,0.3221363425254822,0.32894161343574524,0.6082828044891357,0.6465428471565247,1.0886735916137695,2.8577370643615723,1.4723682403564453,-3.454205274581909,9.529302597045898,3.3634238243103027,-0.07864119112491608,-1.240880012512207,-0.6897349953651428,23.338218688964844,-28.75811767578125,23.24367332458496,-2.0278196334838867,0.2676963806152344,0.13405489921569824,-1.4263856410980225,9.261606216430664,3.2293689250946045
5_20251106_215121,1762437046526,5,0.33112838864326477,0.33074843883514404,0.6070809960365295,0.6421931982040405,1.003440022468567,2.877478837966919,1.495981216430664,-3.126213788986206,9.562820434570312,2.6308295726776123,0.123555026948452,-0.8957414627075195,-0.34826162457466125,24.804492950439453,-28.31268310546875,22.03814125061035,-1.3598625659942627,0.24097156524658203,-0.47883152961730957,-1.7663512229919434,9.32184886932373,3.109661102294922
5_20251106_215121,1762437046544,5,0.33823198080062866,0.3331949710845947,0.6062453389167786,0.6380022168159485,0.9152109622955322,2.8980844020843506,1.5171276330947876,-2.7718873023986816,9.616687774658203,2.1867241859436035,0.15287652611732483,-0.8322115540504456,-0.25174498558044434,26.11859893798828,-27.977638244628906,20.865161895751953,-0.8044288158416748,0.2358713150024414,-0.738349437713623,-1.9674584865570068,9.380816459655762,2.9250736236572266
5_20251106_215121,1762437046564,5,0.34427711367607117,0.3361268937587738,0.6054534316062927,0.6339701414108276,0.8208091259002686,2.9208357334136963,1.5357052087783813,-2.4929747581481934,9.713648796081543,1.8431710004806519,0.15654170513153076,-0.6953778862953186,-0.2279212772846222,27.10611915588379,-27.602737426757812,19.82893943786621,-0.4204130172729492,0.266265869140625,-0.8655222654342651,-2.072561740875244,9.447382926940918,2.708693265914917
5_20251106_215121,1762437046582,5,0.3493724763393402,0.3385671079158783,0.6049948334693909,0.6303114295005798,0.8208091259002686,2.9208357334136963,1.5357052087783813,-2.4929747581481934,9.713648796081543,1.8431710004806519,0.16875900328159332,-0.5683180093765259,-0.2431928813457489,27.927085876464844,-27.365211486816406,18.93238067626953,-0.4204130172729492,0.266265869140625,-0.8655222654342651,-2.072561740875244,9.447382926940918,2.708693265914917
5_20251106_215121,1762437046601,5,0.3538305461406708,0.3403896391391754,0.6050055027008057,0.6268230676651001,0.6649476289749146,2.9591500759124756,1.5571544170379639,-2.2667324542999268,9.567608833312988,1.3727306127548218,0.1492113322019577,-0.4498102366924286,-0.26090797781944275,28.710901260375977,-27.130882263183594,18.115449905395508,-0.12197089195251465,0.06947517395019531,-0.8789571523666382,-2.144761562347412,9.498133659362793,2.25168776512146
5_20251106_215121,1762437046621,5,0.3577631115913391,0.341452956199646,0.6053245067596436,0.6236968040466309,0.5901888608932495,2.977039098739624,1.5633189678192139,-2.374466896057129,9.353337287902832,1.3068928718566895,0.1339397132396698,-0.27693551778793335,-0.2737361192703247,29.385576248168945,-26.868186950683594,17.51115608215332,-0.18376421928405762,-0.11583709716796875,-0.755836009979248,-2.1907026767730713,9.4691743850708,2.0627288818359375
5_20251106_215121,1762437046641,5,0.3608309328556061,0.3414112627506256,0.606163501739502,0.6211321353912354,0.5106148719787598,2.9949567317962646,1.5661070346832275,-2.51212739944458,9.210887908935547,0.9633397459983826,0.1339397132396698,-0.0991738811135292,-0.21936915814876556,29.88473892211914,-26.68128204345703,17.08790397644043,-0.2571396827697754,-0.20662975311279297,-0.879511296749115,-2.2549877166748047,9.41751766204834,1.8428510427474976
5_20251106_215121,1762437046659,5,0.3625190258026123,0.3405890464782715,0.6074569821357727,0.6193343997001648,0.5106148719787598,2.9949567317962646,1.5661070346832275,-2.51212739944458,9.210887908935547,0.9633397459983826,0.1595960259437561,-0.036865685135126114,-0.07520508766174316,30.260025024414062,-26.53985595703125,16.64543914794922,-0.2571396827697754,-0.20662975311279297,-0.879511296749115,-2.2549877166748047,9.41751766204834,1.8428510427474976
5_20251106_215121,1762437046680,5,0.3630053699016571,0.34043586254119873,0.6086443066596985,0.6179665327072144,0.3731383979320526,3.02336049079895,1.5595074892044067,-2.1925153732299805,9.110336303710938,0.22356322407722473,0.20235656201839447,-0.08756745606660843,0.08178715407848358,30.64639663696289,-26.410736083984375,16.257266998291016,0.07867121696472168,-0.19774532318115234,-1.083268642425537,-2.271186590194702,9.30808162689209,1.3068318367004395
5_20251106_215121,1762437046697,5,0.3627318739891052,0.3417471647262573,0.6094207763671875,0.6166366934776306,0.31824126839637756,3.0342931747436523,1.5525702238082886,-2.0488696098327637,9.202508926391602,0.11822287738323212,0.19991309940814972,-0.0991738811135292,0.1886884570121765,30.64639663696289,-26.410736083984375,16.257266998291016,0.17785358428955078,-0.0844583511352539,-0.950887143611908,-2.2267231941223145,9.286967277526855,1.0691100358963013
5_20251106_215121,1762437046715,5,0.36194345355033875,0.3438911736011505,0.609757661819458,0.6155740022659302,0.2643847167491913,3.0452709197998047,1.5420863628387451,-1.672995924949646,9.279119491577148,-0.3546116352081299,0.19991309940814972,-0.0991738811135292,0.1886884570121765,30.914642333984375,-26.214889526367188,15.933355331420898,0.4429818391799927,-0.006278038024902344,-1.138977289199829,-2.1159777641296387,9.28539752960205,0.784365713596344
5_20251106_215121,1762437046735,5,0.36033371090888977,0.34612059593200684,0.6097732782363892,0.6152533292770386,0.21015280485153198,3.05774188041687,1.5273174047470093,-1.255225658416748,9.57598876953125,-0.43361687660217285,0.16265034675598145,-0.03503309190273285,0.28398337960243225,31.13648796081543,-26.173995971679688,15.794031143188477,0.6886017322540283,0.23247337341308594,-0.9743860960006714,-1.9438273906707764,9.343515396118164,0.5407692193984985
5_20251106_215121,1762437046754,5,0.35871416330337524,0.34882402420043945,0.6090993285179138,0.615340530872345,0.1637381911277771,3.070413112640381,1.5123003721237183,-1.0218011140823364,9.859688758850098,-0.07450206577777863,0.06063595786690712,-0.05702421814203262,0.3078071177005768,31.322790145874023,-26.11090850830078,15.707830429077148,0.7376210689544678,0.41293811798095703,-0.4922170042991638,-1.7594221830368042,9.44675064086914,0.4177149534225464
5_20251106_215121,1762437046773,5,0.35735246539115906,0.3511962294578552,0.6083242297172546,0.6155502200126648,0.12189465016126633,3.0837182998657227,1.4966706037521362,-0.9392046332359314,9.908767700195312,-0.07929027080535889,0.06918806582689285,0.12134828418493271,0.20334921777248383,31.384214401245117,-26.10626220703125,15.642702102661133,0.6561741232872009,0.3696136474609375,-0.39760419726371765,-1.5953787565231323,9.539154052734375,0.31831392645835876
5_20251106_215121,1762437046793,5,0.35549813508987427,0.3518950939178467,0.6085027456283569,0.6160480976104736,0.12189465016126633,3.0837182998657227,1.4966706037521362,-0.9392046332359314,9.908767700195312,-0.07929027080535889,0.04658607020974159,0.29910990595817566,0.13615410029888153,31.4672908782959,-26.150123596191406,15.563982009887695,0.6561741232872009,0.3696136474609375,-0.39760419726371765,-1.5953787565231323,9.539154052734375,0.31831392645835876
5_20251106_215121,1762437046811,5,0.35289135575294495,0.35091012716293335,0.6094692349433899,0.6171523332595825,0.04987628012895584,3.1099226474761963,1.4630995988845825,-0.7991499304771423,9.664569854736328,-0.14393094182014465,0.09484438598155975,0.36630502343177795,0.13493236899375916,31.421977996826172,-26.30359649658203,15.599891662597656,0.5216527581214905,0.06494331359863281,-0.2671075463294983,-1.3208026885986328,9.599626541137695,0.12317661941051483
5_20251106_215121,1762437046831,5,0.34997108578681946,0.34996646642684937,0.6108256578445435,0.6180095076560974,0.020156806334853172,3.121817111968994,1.4452488422393799,-0.35025638341903687,9.487406730651855,-0.5748686790466309,0.31047964096069336,0.3027750849723816,0.17708203196525574,31.4024600982666,-26.41875457763672,15.732187271118164,0.7764371037483215,-0.08977603912353516,-0.5584362745285034,-1.1266934871673584,9.57718276977539,-0.01643243432044983
5_20251106_215121,1762437046849,5,0.3464122414588928,0.3502996265888214,0.6130784153938293,0.6175949573516846,-0.004563802853226662,3.132998466491699,1.4222787618637085,0.15370139479637146,9.534090995788574,-2.20764422416687,0.5511603355407715,-0.08268053084611893,0.214344784617424,31.282535552978516,-26.59062957763672,15.873022079467773,1.0243159532546997,-0.034473419189453125,-1.75296950340271,-0.8706145286560059,9.568564414978027,-0.45467478036880493
5_20251106_215121,1762437046869,5,0.3440339267253876,0.35405629873275757,0.6153203248977661,0.6145451068878174,-0.004563802853226662,3.132998466491699,1.4222787618637085,0.15370139479637146,9.534090995788574,-2.20764422416687,0.5511603355407715,-0.08268053084611893,0.214344784617424,31.17591094970703,-26.73699951171875,16.055421829223633,1.0243159532546997,-0.034473419189453125,-1.75296950340271,-0.8706145286560059,9.568564414978027,-0.45467478036880493
5_20251106_215121,1762437046889,5,0.34477564692497253,0.36104363203048706,0.6156699061393738,0.6096948385238647,-0.045499444007873535,3.1569461822509766,1.3664920330047607,-0.16830489039421082,10.069172859191895,-0.9136337041854858,0.29581889510154724,-0.6672780513763428,0.18624500930309296,31.070484161376953,-26.870132446289062,16.17050552368164,0.41193869709968567,0.37784862518310547,-0.1091008186340332,-0.5802435874938965,9.691324234008789,-0.8045328855514526
5_20251106_215121,1762437046906,5,0.34680235385894775,0.3674990236759186,0.6146045923233032,0.605750560760498,-0.060098856687545776,3.1685383319854736,1.3462828397750854,-0.20541340112686157,10.42349910736084,0.03802057355642319,0.062468547374010086,-0.3166417181491852,0.11416298896074295,30.999908447265625,-27.026405334472656,16.32708168029785,0.29986411333084106,0.5857400894165039,0.6740427613258362,-0.5052775144577026,9.837759017944336,-0.6360222101211548
5_20251106_215121,1762437046926,5,0.3479873239994049,0.3704163134098053,0.6135169863700867,0.6043951511383057,-0.07510033249855042,3.1838572025299072,1.3269679546356201,-0.07254093885421753,10.61502742767334,0.4402291774749756,-0.17210350930690765,0.13356555998325348,0.024976730346679688,30.98209571838379,-27.116043090820312,16.419357299804688,0.3461892604827881,0.6218147277832031,0.8610011339187622,-0.4187301993370056,9.993212699890137,-0.4207719564437866
5_20251106_215121,1762437046946,5,0.34783226251602173,0.36920055747032166,0.6128296256065369,0.6059237122535706,-0.08813556283712387,3.2001402378082275,1.3116037845611572,-0.018673717975616455,10.562356948852539,0.5611311197280884,-0.2985524833202362,0.343703031539917,-0.012896879576146603,30.879995346069336,-27.186668395996094,16.562793731689453,0.3200451731681824,0.45531558990478516,0.7855224609375,-0.33871889114379883,10.107041358947754,-0.22439134120941162
5_20251106_215121,1762437046965,5,0.34714141488075256,0.3661345839500427,0.6121575236320496,0.6088526248931885,-0.09927795082330704,3.2162654399871826,1.3013904094696045,-0.11204357445240021,10.628194808959961,1.1069856882095337,-0.3034394085407257,0.30521857738494873,0.035361431539058685,30.76861572265625,-27.219337463378906,16.598400115966797,0.1813402622938156,0.41692256927490234,1.0651016235351562,-0.2933838367462158,10.211272239685059,0.04188404977321625
5_20251106_215121,1762437046983,5,0.34628012776374817,0.363431453704834,0.6112106442451477,0.6119061708450317,-0.09927795082330704,3.2162654399871826,1.3013904094696045,-0.11204357445240021,10.628194808959961,1.1069856882095337,-0.133619025349617,0.24413207173347473,0.12271509319543839,30.702863693237305,-27.299461364746094,16.67546272277832,0.1813402622938156,0.41692256927490234,1.0651016235351562,-0.2933838367462158,10.211272239685059,0.04188404977321625
5_20251106_215121,1762437047002,5,0.34476202726364136,0.36211639642715454,0.6106593608856201,0.6140896081924438,-0.11710140854120255,3.2475414276123047,1.2920613288879395,0.09863712638616562,10.47736644744873,0.9956600666046143,0.10034216940402985,0.18793253600597382,0.18746674060821533,30.614036560058594,-27.36780548095703,16.67070960998535,0.267556369304657,0.16397953033447266,0.5403174757957458,-0.16891923546791077,10.313386917114258,0.4553425908088684
5_20251106_215121,1762437047021,5,0.34231606125831604,0.36217591166496277,0.6110575795173645,0.6150259971618652,-0.1240060105919838,3.2625691890716553,1.2886302471160889,0.23869191110134125,10.28703498840332,0.5000816583633423,0.21335212886333466,0.15005891025066376,0.21129046380519867,30.50920295715332,-27.500137329101562,16.704694747924805,0.32608893513679504,-0.021081924438476562,0.035791248083114624,-0.0873970165848732,10.308116912841797,0.46429041028022766
5_20251106_215121,1762437047040,5,0.3396342396736145,0.36313098669052124,0.6118922829627991,0.6151197552680969,-0.1297035664319992,3.276275396347046,1.284644603729248,0.2267214059829712,10.100296020507812,0.199622243642807,0.24511709809303284,0.17510436475276947,0.18563413619995117,30.362377166748047,-27.510482788085938,16.7799072265625,0.25129473209381104,-0.16625595092773438,-0.21173453330993652,-0.02457333356142044,10.266551971435547,0.41135677695274353
5_20251106_215121,1762437047060,5,0.33679983019828796,0.36395856738090515,0.6131289601325989,0.6149576306343079,-0.1297035664319992,3.276275396347046,1.284644603729248,0.2267214059829712,10.100296020507812,0.199622243642807,0.24511709809303284,0.17510436475276947,0.18563413619995117,30.225933074951172,-27.545684814453125,16.909147262573242,0.25129473209381104,-0.16625595092773438,-0.21173453330993652,-0.02457333356142044,10.266551971435547,0.41135677695274353
5_20251106_215121,1762437047079,5,0.33353081345558167,0.3637596368789673,0.6147233247756958,0.6152653098106384,-0.13731271028518677,3.299700975418091,1.2720835208892822,0.4864811301231384,9.893206596374512,-0.4575578570365906,0.15226566791534424,0.40295690298080444,0.12088249623775482,30.225933074951172,-27.545684814453125,16.909147262573242,0.3519734740257263,-0.24813461303710938,-0.6141383647918701,0.13450764119625092,10.141341209411621,0.15658049285411835
5_20251106_215121,1762437047099,5,0.33003565669059753,0.36265358328819275,0.616407573223114,0.6161172986030579,-0.13899163901805878,3.3090579509735107,1.2623980045318604,0.5606981515884399,9.714845657348633,-0.710135281085968,0.15226566791534424,0.40295690298080444,0.12088249623775482,29.839845657348633,-27.686019897460938,17.161893844604492,0.34095239639282227,-0.34119701385498047,-0.6933726072311401,0.21974574029445648,10.056042671203613,-0.016762658953666687
5_20251106_215121,1762437047118,5,0.3269270062446594,0.3613366484642029,0.6178311705589294,0.617121696472168,-0.13974672555923462,3.3158907890319824,1.2519556283950806,0.49605751037597656,9.5819730758667,-0.8944809436798096,0.04353174567222595,0.3687484860420227,0.09705876559019089,29.839845657348633,-27.686019897460938,17.161893844604492,0.22104942798614502,-0.3792552947998047,-0.7021746635437012,0.27500808238983154,9.961228370666504,-0.1923062950372696
5_20251106_215121,1762437047136,5,0.3241506814956665,0.3601147532463074,0.6188513040542603,0.6182773113250732,-0.13974308967590332,3.321511745452881,1.2399978637695312,0.552318811416626,9.512544631958008,-0.7340763211250305,0.0038255397230386734,0.31071633100509644,0.13920842111110687,29.61589813232422,-27.752975463867188,17.39530372619629,0.22184860706329346,-0.3589468002319336,-0.4334160089492798,0.3304702043533325,9.871491432189941,-0.30066031217575073
5_20251106_215121,1762437047154,5,0.3215857744216919,0.35934722423553467,0.6193493604660034,0.6195631623268127,-0.13864822685718536,3.3261818885803223,1.2285194396972656,0.7737729549407959,9.713648796081543,-0.5916274189949036,0.0038255397230386734,0.31071633100509644,0.13920842111110687,29.38037109375,-27.80829620361328,17.64200210571289,0.35464221239089966,-0.12627410888671875,-0.23277369141578674,0.41913074254989624,9.839922904968262,-0.3588537275791168
5_20251106_215121,1762437047174,5,0.3189683258533478,0.3588995933532715,0.619610607624054,0.6209130883216858,-0.13594862818717957,3.331105947494507,1.2158702611923218,0.9269952774047852,9.838141441345215,-0.5341690182685852,-0.007780889980494976,0.2826165556907654,0.1630321443080902,29.146366119384766,-27.826759338378906,17.970590591430664,0.406291663646698,-0.0014247894287109375,-0.1402522325515747,0.5207036137580872,9.839566230773926,-0.3939167857170105
5_20251106_215121,1762437047193,5,0.3164008855819702,0.3583463132381439,0.619827389717102,0.6223282217979431,-0.13209867477416992,3.335651159286499,1.2044899463653564,1.0359268188476562,9.876447677612305,-0.38094669580459595,-0.061536986380815506,0.31987929344177246,0.10744347423315048,28.925336837768555,-27.843345642089844,18.191539764404297,0.41217857599258423,0.029504776000976562,0.010376065969467163,0.623748242855072,9.846942901611328,-0.3913227617740631
5_20251106_215121,1762437047213,5,0.3141587972640991,0.3571401834487915,0.6199748516082764,0.624008297920227,-0.12711215019226074,3.340216875076294,1.19357430934906,0.9976211786270142,9.853704452514648,-0.23849782347679138,-0.0719216838479042,0.34003785252571106,0.04696786031126976,28.76292610168457,-27.893905639648438,18.441181182861328,0.2990983724594116,0.00540924072265625,0.12225997447967529,0.6985228061676025,9.848295211791992,-0.3607577979564667
5_20251106_215121,1762437047231,5,0.3120688199996948,0.355305939912796,0.6203591227531433,0.6257197856903076,-0.12228313088417053,3.3438127040863037,1.1843096017837524,0.9281923770904541,9.723225593566895,-0.3330647349357605,-0.04382191225886345,0.3681375980377197,0.012148572131991386,28.53958511352539,-27.94843292236328,18.688371658325195,0.18373560905456543,-0.10005569458007812,0.02215445041656494,0.7444567680358887,9.823281288146973,-0.35521918535232544
5_20251106_215121,1762437047250,5,0.3100467026233673,0.3532658517360687,0.621029794216156,0.6272131204605103,-0.12228313088417053,3.3438127040863037,1.1843096017837524,0.9281923770904541,9.723225593566895,-0.3330647349357605,-0.03465893864631653,0.35042256116867065,0.01764635555446148,28.329345703125,-27.97772979736328,19.004159927368164,0.18373560905456543,-0.10005569458007812,0.02215445041656494,0.7444567680358887,9.823281288146973,-0.35521918535232544
5_20251106_215121,1762437047269,5,0.3080174922943115,0.3513396382331848,0.6217267513275146,0.6286028623580933,-0.11190220713615417,3.349726438522339,1.1644312143325806,0.8013050556182861,9.687313079833984,-0.6993618607521057,-0.03465893864631653,0.35042256116867065,0.01764635555446148,28.190305709838867,-28.039657592773438,19.295066833496094,0.021060705184936523,-0.08414649963378906,-0.24763983488082886,0.7802443504333496,9.771459579467773,-0.45172202587127686
5_20251106_215121,1762437047289,5,0.3059694468975067,0.3497367203235626,0.6221849322319031,0.6300418972969055,-0.10661973059177399,3.352982759475708,1.1536824703216553,0.8443988561630249,9.944679260253906,-0.6634503602981567,-0.04748709872364998,0.3314857482910156,0.051243916153907776,28.065467834472656,-28.063255310058594,19.600772857666016,0.05132359266281128,0.13857555389404297,-0.16938269138336182,0.7930752635002136,9.806103706359863,-0.4940676689147949
5_20251106_215121,1762437047308,5,0.30398309230804443,0.34855473041534424,0.6219886541366577,0.6318497061729431,-0.10146845132112503,3.3566434383392334,1.1442067623138428,0.9329805374145508,10.069171905517578,-0.41206997632980347,-0.11651480942964554,0.2551276683807373,0.14409533143043518,27.891773223876953,-28.101783752441406,19.823156356811523,0.11192423105239868,0.21045494079589844,0.06559816002845764,0.8210563063621521,9.85871696472168,-0.4776681363582611
5_20251106_215121,1762437047328,5,0.30199623107910156,0.34768757224082947,0.62156081199646,0.6336985230445862,-0.09589322656393051,3.360849142074585,1.1350687742233276,0.960512638092041,10.03804874420166,-0.36658209562301636,-0.11651480942964554,0.2551276683807373,0.14409533143043518,27.730758666992188,-28.138839721679688,19.97844886779785,0.11156511306762695,0.1434650421142578,0.08886885643005371,0.8489475250244141,9.894583702087402,-0.45545095205307007
5_20251106_215121,1762437047346,5,0.2997983694076538,0.34654074907302856,0.6213727593421936,0.6355519890785217,-0.09589322656393051,3.360849142074585,1.1350687742233276,0.960512638092041,10.03804874420166,-0.36658209562301636,-0.09574540704488754,0.30521854758262634,0.12454768270254135,27.606611251831055,-28.1614990234375,20.18954086303711,0.11156511306762695,0.1434650421142578,0.08886885643005371,0.8489475250244141,9.894583702087402,-0.45545095205307007
5_20251106_215121,1762437047365,5,0.29759481549263,0.34531864523887634,0.6212095618247986,0.6374096274375916,-0.08425239473581314,3.3684744834899902,1.1193126440048218,1.2322429418563843,9.943482398986816,-0.4384050965309143,-0.09574540704488754,0.30521854758262634,0.12454768270254135,27.406740188598633,-28.227264404296875,20.464479446411133,0.26810091733932495,0.029188156127929688,0.017995893955230713,0.9641420245170593,9.914294242858887,-0.456400990486145
5_20251106_215121,1762437047384,5,0.295849472284317,0.34470805525779724,0.6206784844398499,0.6390678286552429,-0.07759132236242294,3.372624635696411,1.1126854419708252,1.2178783416748047,10.089522361755371,-0.15470439195632935,-0.09696713835000992,0.13478730618953705,0.11721730977296829,27.219646453857422,-28.291427612304688,20.658811569213867,0.2029891014099121,0.1401824951171875,0.24135729670524597,1.0148892402648926,9.949339866638184,-0.3960616886615753
5_20251106_215121,1762437047404,5,0.29459914565086365,0.34446021914482117,0.6200702786445618,0.6403681039810181,-0.07074984908103943,3.377215623855591,1.1068720817565918,1.0742323398590088,10.094310760498047,-0.1283693015575409,-0.0670347660779953,0.1781586855649948,0.06834813207387924,27.00757598876953,-28.369606018066406,20.838382720947266,0.04747450351715088,0.11597633361816406,0.21415391564369202,1.026757836341858,9.978334426879883,-0.3425232172012329
5_20251106_215121,1762437047422,5,0.2932864725589752,0.3436799645423889,0.6199045777320862,0.641549289226532,-0.06462431699037552,3.381429433822632,1.1016654968261719,1.1388731002807617,10.095508575439453,-0.4384050965309143,-0.08352810889482498,0.24962987005710602,0.0500221848487854,26.811412811279297,-28.383934020996094,20.99273109436035,0.08969223499298096,0.09373950958251953,-0.07670551538467407,1.0491808652877808,10.001769065856934,-0.36169958114624023
5_20251106_215121,1762437047442,5,0.291735976934433,0.3422757089138031,0.6199100017547607,0.643000066280365,-0.05776572227478027,3.3864715099334717,1.0960237979888916,1.1783756017684937,10.197257041931152,-0.4096758961677551,-0.12751038372516632,0.1781586855649948,0.061628613620996475,26.67315101623535,-28.456398010253906,21.080629348754883,0.1033557653427124,0.15639019012451172,-0.03838106989860535,1.0750198364257812,10.04086685180664,-0.3712948262691498
5_20251106_215121,1762437047461,5,0.2906760275363922,0.3413195312023163,0.6194367408752441,0.6444427967071533,-0.05153859034180641,3.391648054122925,1.091874599456787,1.0885969400405884,10.269079208374023,-0.027817152440547943,-0.12751038372516632,0.1781586855649948,0.061628613620996475,26.524112701416016,-28.504547119140625,21.16856575012207,0.010861754417419434,0.1825695037841797,0.2747821509838104,1.077735185623169,10.086509704589844,-0.30259931087493896
5_20251106_215121,1762437047480,5,0.29004234075546265,0.3408465087413788,0.6188404560089111,0.6455506086349487,-0.0457046777009964,3.3967678546905518,1.0885882377624512,1.0478973388671875,10.160148620605469,-0.06372862309217453,-0.11407134681940079,0.1066875234246254,0.057963427156209946,26.371957778930664,-28.60332489013672,21.295995712280273,-0.023870229721069336,0.058910369873046875,0.19109654426574707,1.0717675685882568,10.101238250732422,-0.2548251748085022
5_20251106_215121,1762437047499,5,0.28910207748413086,0.34021151065826416,0.6186801195144653,0.6464604139328003,-0.040132708847522736,3.401790142059326,1.0853500366210938,1.0826116800308228,10.158950805664062,-0.2971532344818115,-0.0462653674185276,0.13112211227416992,0.054298240691423416,26.19826316833496,-28.64185333251953,21.51837730407715,0.008675336837768555,0.04617023468017578,-0.03386244177818298,1.0739363431930542,10.112780570983887,-0.26329079270362854
5_20251106_215121,1762437047520,5,0.2880336344242096,0.3400084674358368,0.6184934377670288,0.6472223401069641,-0.03438880667090416,3.4071383476257324,1.0824965238571167,1.1304936408996582,10.220001220703125,-0.13674864172935486,-0.08047378808259964,0.07003564387559891,0.06407207250595093,26.07208824157715,-28.713661193847656,21.620283126831055,0.04524588584899902,0.08577728271484375,0.10123372077941895,1.0852477550506592,10.134223937988281,-0.2379823625087738
5_20251106_215121,1762437047540,5,0.2873343229293823,0.3403890132904053,0.6180915236473083,0.6477169394493103,-0.02926471456885338,3.4124467372894287,1.0808755159378052,1.0634589195251465,10.30978012084961,0.10984353721141815,-0.07803032547235489,0.07431169599294662,0.04757872596383095,26.07208824157715,-28.713661193847656,21.620283126831055,-0.017431020736694336,0.14044570922851562,0.2782607078552246,1.0808899402618408,10.169334411621094,-0.16841718554496765
5_20251106_215121,1762437047556,5,0.2866630256175995,0.34050649404525757,0.6176398992538452,0.6483830213546753,-0.02464289590716362,3.4176409244537354,1.0800870656967163,1.0850058794021606,10.338508605957031,0.10385828465223312,-0.07803032547235489,0.13600902259349823,0.024976730346679688,25.92557144165039,-28.71198272705078,21.749826431274414,0.0032927989959716797,0.13533973693847656,0.21782037615776062,1.081713080406189,10.203168869018555,-0.1139620989561081
5_20251106_215121,1762437047576,5,0.28572872281074524,0.3396519124507904,0.6173649430274963,0.649504542350769,-0.02464289590716362,3.4176409244537354,1.0800870656967163,1.0850058794021606,10.338508605957031,0.10385828465223312,-0.07619773596525192,0.14517198503017426,0.01703549176454544,25.823570251464844,-28.782470703125,21.87974739074707,0.0032927989959716797,0.13533973693847656,0.21782037615776062,1.081713080406189,10.203168869018555,-0.1139620989561081
5_20251106_215121,1762437047595,5,0.2848132848739624,0.33877354860305786,0.6171426177024841,0.6505758166313171,-0.019312754273414612,3.4236948490142822,1.079991340637207,1.1436612606048584,10.291824340820312,0.11822288483381271,-0.04687623307108879,0.11279617995023727,0.002374737523496151,25.722557067871094,-28.851608276367188,21.8745059967041,0.04955852031707764,0.0709238052368164,0.18574798107147217,1.0941027402877808,10.220900535583496,-0.06752510368824005
5_20251106_215121,1762437047613,5,0.28414005041122437,0.3382541537284851,0.6169658899307251,0.6513076424598694,-0.010645509697496891,3.4332783222198486,1.0823084115982056,1.0969762802124023,10.180498123168945,0.3133419156074524,0.007490728981792927,0.11951568722724915,-0.01045342069119215,25.64804458618164,-28.869873046875,21.965913772583008,-0.004098296165466309,-0.03390216827392578,0.2483515739440918,1.1010745763778687,10.214400291442871,0.0649903416633606
5_20251106_215121,1762437047633,5,0.28326869010925293,0.3375198543071747,0.617098331451416,0.6519423723220825,-0.005890145432204008,3.438091278076172,1.0844213962554932,1.203513741493225,10.197257041931152,0.23313961923122406,0.04719693586230278,0.13539816439151764,-0.023281581699848175,25.586013793945312,-28.886940002441406,22.017263412475586,0.08195137977600098,-0.013714790344238281,0.13451942801475525,1.1215623617172241,10.21097183227539,0.09862019121646881
5_20251106_215121,1762437047652,5,0.28232428431510925,0.33668267726898193,0.617540717124939,0.6523658633232117,-0.0010911435820162296,3.4424827098846436,1.0871539115905762,1.3064600229263306,10.22838020324707,0.39952948689460754,0.04719693586230278,0.13539816439151764,-0.023281581699848175,25.489849090576172,-28.856704711914062,22.122262954711914,0.14791810512542725,0.013926506042480469,0.24072743952274323,1.1585419178009033,10.21445369720459,0.15880204737186432
5_20251106_215121,1762437047672,5,0.2814216911792755,0.3362596929073334,0.6182980537414551,0.6522566676139832,-0.0010911435820162296,3.4424827098846436,1.0871539115905762,1.3064600229263306,10.22838020324707,0.39952948689460754,0.22068250179290771,0.035827215760946274,-0.07153988629579544,25.416126251220703,-28.87389373779297,22.105539321899414,0.14791810512542725,0.013926506042480469,0.24072743952274323,1.1585419178009033,10.21445369720459,0.15880204737186432
5_20251106_215121,1762437047690,5,0.28058966994285583,0.336314857006073,0.6194776892662048,0.6514669060707092,0.004579979460686445,3.4469759464263916,1.0903003215789795,1.3471596240997314,10.179301261901855,0.24151895940303802,0.29459717869758606,-0.029535308480262756,-0.08681150525808334,25.331331253051758,-28.867164611816406,22.129404067993164,0.1508941650390625,-0.0281219482421875,0.06617353856563568,1.196265459060669,10.207423210144043,0.17534542083740234
5_20251106_215121,1762437047710,5,0.2800232172012329,0.3371141254901886,0.6210113763809204,0.6498352885246277,0.013521351851522923,3.453639030456543,1.093176245689392,1.1209173202514648,10.095508575439453,-0.293562114238739,0.27443861961364746,-0.025870122015476227,-0.09292015433311462,25.335968017578125,-28.77967071533203,22.17180061340332,-0.06335341930389404,-0.08139228820800781,-0.3372572362422943,1.1842707395553589,10.176900863647461,0.04369513317942619
5_20251106_215121,1762437047730,5,0.27962130308151245,0.3378792703151703,0.6227426528930664,0.6479514837265015,0.017567738890647888,3.4564526081085205,1.092591643333435,1.0395179986953735,10.02129077911377,-0.4503755569458008,0.27443861961364746,-0.025870122015476227,-0.09292015433311462,25.339603424072266,-28.70513916015625,22.254480361938477,-0.11580216884613037,-0.12448787689208984,-0.39525654911994934,1.155320167541504,10.14577865600586,-0.055118996649980545
5_20251106_215121,1762437047748,5,0.2792859375476837,0.3382428288459778,0.6244917511940002,0.6462207436561584,0.017567738890647888,3.4564526081085205,1.092591643333435,1.0395179986953735,10.02129077911377,-0.4503755569458008,0.16203948855400085,0.06392700225114822,-0.12346339970827103,25.341644287109375,-28.644378662109375,22.45854377746582,-0.11580216884613037,-0.12448787689208984,-0.39525654911994934,1.155320167541504,10.14577865600586,-0.055118996649980545
5_20251106_215121,1762437047767,5,0.27902311086654663,0.33811867237091064,0.626186728477478,0.6447573304176331,0.022374741733074188,3.4594812393188477,1.0876400470733643,0.7474378943443298,9.811807632446289,-0.6275388598442078,0.10095303505659103,0.11462876945734024,-0.11613302677869797,25.312952041625977,-28.49688720703125,22.541337966918945,-0.28441113233566284,-0.23212814331054688,-0.38033026456832886,1.0318490266799927,10.043935775756836,-0.2472085952758789
5_20251106_215121,1762437047786,5,0.27868303656578064,0.3374488949775696,0.6277582049369812,0.6437264084815979,0.023403679952025414,3.459738254547119,1.0835299491882324,0.7689847946166992,9.767515182495117,-0.683800220489502,0.05819249525666237,0.11035271733999252,-0.07581594586372375,25.30713653564453,-28.36144256591797,22.732980728149414,-0.21029138565063477,-0.22113609313964844,-0.34927329421043396,0.979276180267334,9.988651275634766,-0.334526926279068
5_20251106_215121,1762437047804,5,0.2783749997615814,0.33685946464538574,0.6290513277053833,0.6429055333137512,0.023806007578969002,3.459372043609619,1.0791683197021484,0.7665907144546509,9.745969772338867,-0.6035979390144348,0.05819249525666237,0.11035271733999252,-0.07581594586372375,25.349754333496094,-28.234832763671875,22.872255325317383,-0.17014837265014648,-0.19414520263671875,-0.21525681018829346,0.9367390871047974,9.940114974975586,-0.38834112882614136
5_20251106_215121,1762437047824,5,0.27806827425956726,0.33692705631256104,0.6300172209739685,0.6420564651489258,0.023724352940917015,3.458289623260498,1.0741755962371826,0.7701817750930786,9.711254119873047,-0.5162132978439331,0.05086212605237961,0.01750127226114273,0.0139811672270298,25.392372131347656,-28.108230590820312,23.01152992248535,-0.1332458257675171,-0.1830883026123047,-0.10229772329330444,0.9034276008605957,9.894342422485352,-0.41391557455062866
5_20251106_215121,1762437047843,5,0.2777220904827118,0.33735528588294983,0.6306729912757874,0.6413372755050659,0.02342630736529827,3.456810474395752,1.0693528652191162,0.8216549158096313,9.711254119873047,-0.5293808579444885,0.03375791385769844,0.029718566685914993,0.045746129006147385,25.445358276367188,-28.018096923828125,23.109952926635742,-0.06541812419891357,-0.1464710235595703,-0.09237223863601685,0.8870730400085449,9.857725143432617,-0.4370086193084717
5_20251106_215121,1762437047862,5,0.27716881036758423,0.3377535045146942,0.6310698986053467,0.6409764289855957,0.023250475525856018,3.4551923274993896,1.0647820234298706,0.9246011972427368,9.741180419921875,-0.5305778384208679,0.03375791385769844,0.029718566685914993,0.045746129006147385,25.41314125061035,-27.933387756347656,23.19142723083496,0.030022501945495605,-0.09323596954345703,-0.07485538721084595,0.8945786952972412,9.834416389465332,-0.455722451210022
5_20251106_215121,1762437047881,5,0.27659308910369873,0.33820009231567383,0.6312263607978821,0.6408355832099915,0.02314886637032032,3.4534192085266113,1.0599734783172607,0.9222071170806885,9.813004493713379,-0.45037558674812317,-0.032215479761362076,0.0394924022257328,0.051854778081178665,25.420795440673828,-27.795394897460938,23.20784568786621,0.022102713584899902,-0.017129898071289062,0.0042774975299835205,0.9001044034957886,9.830134391784668,-0.4546530842781067
5_20251106_215121,1762437047900,5,0.27603885531425476,0.33856257796287537,0.6311395764350891,0.6409686207771301,0.023042267188429832,3.4518606662750244,1.0557867288589478,0.8946749567985535,9.845324516296387,-0.3989024758338928,-0.058482661843299866,0.06209440156817436,0.04024834930896759,25.39048194885254,-27.684898376464844,23.222265243530273,-0.004343569278717041,0.012151718139648438,0.044600486755371094,0.8990185260772705,9.833172798156738,-0.4435029625892639
5_20251106_215121,1762437047920,5,0.2755679190158844,0.3385893404483795,0.6309155821800232,0.6413775086402893,0.023097136989235878,3.4504518508911133,1.0517246723175049,0.952133297920227,9.88243293762207,-0.40249359607696533,-0.05603920295834541,0.05659661442041397,0.03780489042401314,25.364206314086914,-27.71227264404297,23.288339614868164,0.042491793632507324,0.03940773010253906,0.032807499170303345,0.9096415042877197,9.843025207519531,-0.4353010952472687
5_20251106_215121,1762437047940,5,0.2751239538192749,0.3384968042373657,0.6307147741317749,0.6418142914772034,0.023227492347359657,3.4493751525878906,1.0477544069290161,0.9353746175765991,9.929117202758789,-0.47192245721817017,-0.041989315301179886,0.021777328103780746,0.0347505658864975,25.364206314086914,-27.71227264404297,23.288339614868164,0.020586490631103516,0.06887340545654297,-0.029297083616256714,0.9147881269454956,9.860243797302246,-0.44262537360191345
5_20251106_215121,1762437047959,5,0.2748384475708008,0.3387148380279541,0.6304835081100464,0.6420487761497498,0.023106038570404053,3.4486844539642334,1.0441861152648926,0.827640175819397,9.962635040283203,-0.43720802664756775,-0.052374016493558884,0.0016187913715839386,0.029252786189317703,25.32140350341797,-27.827537536621094,23.27097511291504,-0.0697183609008789,0.08191299438476562,0.00433388352394104,0.8973585367202759,9.880722045898438,-0.4415419101715088
5_20251106_215121,1762437047978,5,0.27478253841400146,0.3390490412712097,0.6302206516265869,0.6421543955802917,0.023106038570404053,3.4486844539642334,1.0441861152648926,0.827640175819397,9.962635040283203,-0.43720802664756775,-0.06459130346775055,0.008949168026447296,0.04085921496152878,25.32140350341797,-27.827537536621094,23.27097511291504,-0.0697183609008789,0.08191299438476562,0.00433388352394104,0.8973585367202759,9.880722045898438,-0.4415419101715088
5_20251106_215121,1762437047996,5,0.2746853232383728,0.3391280174255371,0.6299572587013245,0.6424126625061035,0.022154686972498894,3.4483394622802734,1.0388076305389404,0.8503841161727905,10.029670715332031,-0.25645357370376587,-0.06459130346775055,0.008949168026447296,0.04085921496152878,25.250104904174805,-27.79503631591797,23.30937385559082,-0.018571972846984863,0.10088157653808594,0.1266922652721405,0.8689560890197754,9.928789138793945,-0.38314583897590637
5_20251106_215121,1762437048016,5,0.2744028866291046,0.3390071988105774,0.629707932472229,0.6428413987159729,0.021971210837364197,3.448875904083252,1.036759614944458,0.9748772382736206,10.106281280517578,-0.244483083486557,-0.05420660600066185,0.01689041033387184,0.05551996827125549,25.17911720275879,-27.750518798828125,23.402101516723633,0.08473694324493408,0.14199352264404297,0.11093020439147949,0.8901402950286865,9.964287757873535,-0.3554132878780365
5_20251106_215121,1762437048034,5,0.2740124762058258,0.33901846408843994,0.6294289231300354,0.6432751417160034,0.02205541916191578,3.449819803237915,1.035508632659912,0.9880448579788208,10.161345481872559,-0.15231026709079742,-0.03404807299375534,-0.010598503053188324,0.031696245074272156,25.152729034423828,-27.789642333984375,23.386812210083008,0.07832366228103638,0.15764617919921875,0.16248242557048798,0.9097211956977844,10.00369930267334,-0.3147926926612854
5_20251106_215121,1762437048054,5,0.27388715744018555,0.3391971290111542,0.6291158199310303,0.6435405611991882,0.022142233327031136,3.451259136199951,1.0350860357284546,0.9090395569801331,10.149374961853027,-0.019437797367572784,-0.03404807299375534,-0.010598503053188324,0.031696245074272156,25.100967407226562,-27.84331512451172,23.410825729370117,-0.0005453228950500488,0.11654090881347656,0.23628392815589905,0.9095848798751831,10.03283405303955,-0.25572171807289124
5_20251106_215121,1762437048072,5,0.2738201320171356,0.3388501703739166,0.6288492679595947,0.6440122127532959,0.022142233327031136,3.451259136199951,1.0350860357284546,0.9090395569801331,10.149374961853027,-0.019437797367572784,-0.04748709872364998,0.022999055683612823,-0.0037339096888899803,25.07418441772461,-27.882980346679688,23.449602127075195,-0.0005453228950500488,0.11654090881347656,0.23628392815589905,0.9095848798751831,10.03283405303955,-0.25572171807289124
5_20251106_215121,1762437048092,5,0.2736814320087433,0.3378787934780121,0.6286224722862244,0.6448023915290833,0.021487638354301453,3.4546597003936768,1.0359745025634766,0.7929257750511169,10.047626495361328,-0.03380239009857178,-0.04931969195604324,0.08408553153276443,0.0005421433597803116,25.07298469543457,-27.896209716796875,23.51692008972168,-0.07715171575546265,-0.013899803161621094,0.14375212788581848,0.8700774908065796,10.06152629852295,-0.17755451798439026
5_20251106_215121,1762437048113,5,0.2732890546321869,0.33678776025772095,0.6285980939865112,0.6455629467964172,0.02085307240486145,3.4561843872070312,1.0370582342147827,0.8228520154953003,10.005729675292969,-0.0685168206691742,-0.012056943029165268,0.05904007703065872,0.031085379421710968,25.039344787597656,-27.848228454589844,23.502988815307617,-0.03778040409088135,-0.04463768005371094,0.08723016083240509,0.8606324195861816,10.05036735534668,-0.15574698150157928
5_20251106_215121,1762437048132,5,0.2727358043193817,0.3361209034919739,0.6286442279815674,0.6460993885993958,0.020332077518105507,3.457303285598755,1.0379301309585571,0.8695369362831116,9.9805908203125,-0.1774483174085617,-0.012056943029165268,0.05904007703065872,0.031085379421710968,25.001476287841797,-27.875587463378906,23.48747444152832,0.007123589515686035,-0.055820465087890625,-0.017361074686050415,0.8624133467674255,10.03641128540039,-0.1600872427225113
5_20251106_215121,1762437048150,5,0.27209994196891785,0.3360564708709717,0.6286548376083374,0.6463905572891235,0.02004159614443779,3.458179235458374,1.0383859872817993,0.9317834377288818,10.002138137817383,-0.2899709641933441,0.03192531690001488,-0.012431097216904163,0.0909501239657402,25.02252197265625,-27.93651580810547,23.46010398864746,0.05549609661102295,-0.027418136596679688,-0.10390697419643402,0.8762873411178589,10.029556274414062,-0.1860639899969101
5_20251106_215121,1762437048169,5,0.27148860692977905,0.3365965783596039,0.628626823425293,0.646393895149231,0.02004159614443779,3.458179235458374,1.0383859872817993,0.9317834377288818,10.002138137817383,-0.2899709641933441,0.03192531690001488,-0.012431097216904163,0.0909501239657402,24.982229232788086,-28.013565063476562,23.389467239379883,0.05549609661102295,-0.027418136596679688,-0.10390697419643402,0.8762873411178589,10.029556274414062,-0.1860639899969101
5_20251106_215121,1762437048188,5,0.2709660232067108,0.33738431334495544,0.6285386085510254,0.6462882161140442,0.019792824983596802,3.4599063396453857,1.0385271310806274,0.9437539577484131,10.065581321716309,-0.22413325309753418,-0.018776454031467438,0.013225221075117588,0.0756785050034523,24.99018669128418,-28.088111877441406,23.38837242126465,0.047966837882995605,0.033782005310058594,-0.009425163269042969,0.8957871198654175,10.03179931640625,-0.2147080898284912
5_20251106_215121,1762437048207,5,0.27045637369155884,0.3377033770084381,0.6284038424491882,0.646466076374054,0.019792824983596802,3.4599063396453857,1.0385271310806274,0.9437539577484131,10.065581321716309,-0.22413325309753418,-0.03160461410880089,0.03827067092061043,0.04024834930896759,25.000667572021484,-28.112838745117188,23.428884506225586,0.047966837882995605,0.033782005310058594,-0.009425163269042969,0.8957871198654175,10.03179931640625,-0.2147080898284912
5_20251106_215121,1762437048226,5,0.27007079124450684,0.3375799059867859,0.6282690167427063,0.6468226909637451,0.020529435947537422,3.4617910385131836,1.0393621921539307,0.9269952774047852,9.96383285522461,-0.12956634163856506,-0.03160461410880089,0.03827067092061043,0.04024834930896759,24.9842529296875,-28.18897247314453,23.426809310913086,0.005034029483795166,-0.0630340576171875,0.05334155261516571,0.92196124792099,10.026866912841797,-0.18290789425373077
5_20251106_215121,1762437048245,5,0.2697322964668274,0.3370409905910492,0.6282656788825989,0.6472480893135071,0.020472269505262375,3.462329626083374,1.039861798286438,0.7773641347885132,9.953058242797852,-0.1702660322189331,-0.02427423745393753,0.06209440156817436,-0.006177368573844433,24.896724700927734,-28.24394989013672,23.341222763061523,-0.11567771434783936,-0.059047698974609375,0.010113492608070374,0.8930418491363525,10.012105941772461,-0.18037952482700348
5_20251106_215121,1762437048264,5,0.2694745659828186,0.33634790778160095,0.6282221674919128,0.6477580070495605,0.020472269505262375,3.462329626083374,1.039861798286438,0.7773641347885132,9.953058242797852,-0.1702660322189331,-0.04076758399605751,0.05720748007297516,0.057963427156209946,24.808616638183594,-28.288124084472656,23.431612014770508,-0.11567771434783936,-0.059047698974609375,0.010113492608070374,0.8930418491363525,10.012105941772461,-0.18037952482700348
5_20251106_215121,1762437048282,5,0.2689758837223053,0.33590373396873474,0.628139853477478,0.6482754349708557,0.01988140121102333,3.4632010459899902,1.0408546924591064,1.0060005187988281,10.129024505615234,-0.18941880762577057,-0.04076758399605751,0.05720748007297516,0.057963427156209946,24.76943588256836,-28.340469360351562,23.40205192565918,0.11136519908905029,0.10336589813232422,-0.010381802916526794,0.8946353197097778,10.02565860748291,-0.17903700470924377
5_20251106_215121,1762437048303,5,0.2682133913040161,0.33608031272888184,0.6278241276741028,0.6488054394721985,0.020501285791397095,3.4641921520233154,1.0420067310333252,1.1340848207473755,10.151768684387207,0.04280876740813255,-0.018776454031467438,-0.04541778936982155,0.13676497340202332,24.632062911987305,-28.411720275878906,23.368303298950195,0.19155961275100708,0.10088825225830078,0.17747661471366882,0.9425252079963684,10.050880432128906,-0.13466784358024597
5_20251106_215121,1762437048322,5,0.2676946520805359,0.33711159229278564,0.6272261738777161,0.6490629315376282,0.021583011373877525,3.465550661087036,1.0440194606781006,1.1328877210617065,10.220001220703125,0.21997207403182983,-0.00472656637430191,-0.0008246675133705139,0.08972839266061783,24.604068756103516,-28.476226806640625,23.379518508911133,0.15229004621505737,0.13529586791992188,0.2837119400501251,0.9805976748466492,10.084705352783203,-0.06373986601829529
5_20251106_215121,1762437048339,5,0.26701512932777405,0.3374810218811035,0.6267463564872742,0.6496140956878662,0.022772392258048058,3.466844081878662,1.045919418334961,1.0682470798492432,10.113462448120117,-0.027817144989967346,0.011766781099140644,0.09385936707258224,0.02680932730436325,24.52934455871582,-28.506378173828125,23.4030818939209,0.07011955976486206,0.02300548553466797,0.028738178312778473,0.9981275200843811,10.09045696258545,-0.05655532330274582
5_20251106_215121,1762437048360,5,0.2660733461380005,0.3366944193840027,0.6267110109329224,0.6504422426223755,0.022772392258048058,3.466844081878662,1.045919418334961,1.0682470798492432,10.113462448120117,-0.027817144989967346,0.002603810280561447,0.13112209737300873,0.002985602244734764,24.40446662902832,-28.5648193359375,23.42415428161621,0.07011955976486206,0.02300548553466797,0.028738178312778473,0.9981275200843811,10.09045696258545,-0.05655532330274582
5_20251106_215121,1762437048380,5,0.2651735842227936,0.335736483335495,0.6270149946212769,0.6510116457939148,0.024746039882302284,3.4678492546081543,1.0478509664535522,0.8599605560302734,9.822580337524414,-0.30313852429389954,-0.016943860799074173,0.08347466588020325,0.04696786031126976,24.40446662902832,-28.5648193359375,23.42415428161621,-0.10681354999542236,-0.18772125244140625,-0.1606861799955368,0.9667741060256958,10.01030158996582,-0.14245234429836273
5_20251106_215121,1762437048398,5,0.26441454887390137,0.3354426920413971,0.6272055506706238,0.6512882113456726,0.025152742862701416,3.467491865158081,1.0482999086380005,0.8671427965164185,9.838142395019531,-0.18582767248153687,0.00993418786674738,0.01750127226114273,0.1282128542661667,24.294086456298828,-28.58452606201172,23.419477462768555,-0.07970505952835083,-0.1377277374267578,-0.03470025956630707,0.9468478560447693,9.975870132446289,-0.1511274129152298
5_20251106_215121,1762437048417,5,0.2635553479194641,0.3359586298465729,0.6272349953651428,0.6513421535491943,0.025648854672908783,3.467033863067627,1.0482503175735474,0.9868476986885071,9.932708740234375,-0.32468539476394653,0.06857720762491226,-0.02892444282770157,0.18563413619995117,24.194496154785156,-28.61693572998047,23.5096378326416,0.03199988603591919,-0.03452873229980469,-0.13884638249874115,0.9548478126525879,9.96723747253418,-0.18583901226520538
5_20251106_215121,1762437048435,5,0.26236864924430847,0.3370157480239868,0.6272746324539185,0.6512369513511658,0.026442384347319603,3.4665071964263916,1.0478224754333496,1.095779299736023,9.920738220214844,-0.34144407510757446,0.06857720762491226,-0.02892444282770157,0.18563413619995117,24.190662384033203,-28.691741943359375,23.453989028930664,0.11274516582489014,-0.03719902038574219,-0.12448406219482422,0.9830341339111328,9.957937240600586,-0.21696001291275024
5_20251106_215121,1762437048455,5,0.2613058090209961,0.33861157298088074,0.6272719502449036,0.6508390307426453,0.026442384347319603,3.4665071964263916,1.0478224754333496,1.095779299736023,9.920738220214844,-0.34144407510757446,0.02459493651986122,-0.011209366843104362,0.16242128610610962,24.09156608581543,-28.723480224609375,23.476572036743164,0.11274516582489014,-0.03719902038574219,-0.12448406219482422,0.9830341339111328,9.957937240600586,-0.21696001291275024
5_20251106_215121,1762437048474,5,0.26030826568603516,0.33977946639060974,0.627066433429718,0.6508280634880066,0.02936958149075508,3.465702533721924,1.047165036201477,1.1759815216064453,10.002138137817383,-0.09245781600475311,0.02459493651986122,-0.011209366843104362,0.16242128610610962,24.026506423950195,-28.802658081054688,23.459020614624023,0.12674224376678467,0.03154468536376953,0.10228170454502106,1.0492392778396606,9.970593452453613,-0.19473952054977417
5_20251106_215121,1762437048493,5,0.2593127191066742,0.3400689959526062,0.6267507672309875,0.6513781547546387,0.02936958149075508,3.465702533721924,1.047165036201477,1.1759815216064453,10.002138137817383,-0.09245781600475311,-0.045654501765966415,0.1372307538986206,0.08728493750095367,23.929426193237305,-28.796859741210938,23.495908737182617,0.12674224376678467,0.03154468536376953,0.10228170454502106,1.0492392778396606,9.970593452453613,-0.19473952054977417
5_20251106_215121,1762437048512,5,0.25809964537620544,0.3395017981529236,0.6265008449554443,0.652395486831665,0.031690504401922226,3.4652857780456543,1.0471473932266235,1.1891491413116455,9.957847595214844,-0.1570984572172165,-0.045654501765966415,0.1372307538986206,0.08728493750095367,23.840303421020508,-28.86560821533203,23.531705856323242,0.11192786693572998,-0.010196685791015625,0.030112862586975098,1.0772212743759155,9.96804428100586,-0.1872113198041916
5_20251106_215121,1762437048532,5,0.2569893002510071,0.3391852378845215,0.626360297203064,0.653132975101471,0.036418549716472626,3.463747978210449,1.0468926429748535,1.1843608617782593,9.82856559753418,-0.1211870014667511,-0.009002619422972202,0.010170897468924522,0.10561087727546692,23.799924850463867,-28.931182861328125,23.5694637298584,0.05573701858520508,-0.09309673309326172,0.06772877275943756,1.1286238431930542,9.921662330627441,-0.18891577422618866
5_20251106_215121,1762437048550,5,0.2562410533428192,0.3398946523666382,0.6260780096054077,0.6533287763595581,0.03878405690193176,3.4628355503082275,1.0473437309265137,1.1891491413116455,9.890811920166016,-0.001482054591178894,0.020929750055074692,-0.007544179446995258,0.12271509319543839,23.760053634643555,-28.984466552734375,23.634519577026367,0.04842019081115723,-0.024680137634277344,0.14994698762893677,1.1407289505004883,9.915492057800293,-0.15142904222011566
5_20251106_215121,1762437048570,5,0.2554105818271637,0.34053289890289307,0.6258550882339478,0.6535351872444153,0.04160284996032715,3.4616808891296387,1.047788143157959,1.2466075420379639,9.852506637573242,-0.16188667714595795,0.04780779778957367,0.03032943233847618,0.12027163058519363,23.743736267089844,-29.060470581054688,23.618928909301758,0.08470284938812256,-0.050388336181640625,-0.008366107940673828,1.1619046926498413,9.902894973754883,-0.15352056920528412
5_20251106_215121,1762437048589,5,0.2542688846588135,0.340799480676651,0.6258311867713928,0.6538642048835754,0.04160284996032715,3.4616808891296387,1.047788143157959,1.2466075420379639,9.852506637573242,-0.16188667714595795,0.03681223466992378,0.051709696650505066,0.11110866069793701,23.633358001708984,-29.080177307128906,23.6142520904541,0.08470284938812256,-0.050388336181640625,-0.008366107940673828,1.1619046926498413,9.902894973754883,-0.15352056920528412
5_20251106_215121,1762437048612,5,0.25313135981559753,0.34113380312919617,0.6258783936500549,0.6540859937667847,0.04863576218485832,3.4593639373779297,1.0466957092285156,1.331597924232483,9.894402503967285,-0.40847882628440857,-0.0016722427681088448,0.07308996468782425,0.08728493750095367,23.568408966064453,-29.147605895996094,23.67806053161621,0.1089867353439331,-0.005626678466796875,-0.173898845911026,1.2226111888885498,9.900029182434082,-0.23457998037338257
5_20251106_215121,1762437048626,5,0.2521674931049347,0.3414255976676941,0.6258752346038818,0.6543090343475342,0.05116809904575348,3.458648920059204,1.045706033706665,1.3663123846054077,9.905176162719727,-0.5138192176818848,-0.0016722427681088448,0.07308996468782425,0.08728493750095367,23.543148040771484,-29.150405883789062,23.79872703552246,0.11496090888977051,0.0041179656982421875,-0.22339138388633728,1.2513514757156372,9.901058197021484,-0.2904278337955475
5_20251106_215121,1762437048646,5,0.25125059485435486,0.34135255217552185,0.6259512901306152,0.6546270251274109,0.054954323917627335,3.457636594772339,1.0436511039733887,1.3663123846054077,9.88722038269043,-0.5245926380157471,-0.04443277418613434,0.08408553153276443,0.03352883830666542,23.515758514404297,-29.202491760253906,23.8237247467041,0.09196865558624268,-0.01107025146484375,-0.18733185529708862,1.274343729019165,9.898290634155273,-0.33726078271865845
5_20251106_215121,1762437048665,5,0.2506929636001587,0.3413495719432831,0.6260061860084534,0.6547898650169373,0.05836426466703415,3.456613779067993,1.0417718887329102,1.2717455625534058,9.858491897583008,-0.34623226523399353,-0.05359574407339096,0.038270674645900726,0.018257219344377518,23.463787078857422,-29.268051147460938,23.77989387512207,-0.002078533172607422,-0.03183937072753906,-0.007177203893661499,1.2738240957260132,9.890331268310547,-0.33905506134033203
5_20251106_215121,1762437048684,5,0.2505379617214203,0.34152814745903015,0.6259527206420898,0.6548071503639221,0.061377961188554764,3.4558305740356445,1.040347933769226,1.1915432214736938,9.959043502807617,-0.20737454295158386,-0.0566500686109066,0.044990185648202896,0.023144137114286423,23.400840759277344,-29.30956268310547,23.763132095336914,-0.06582474708557129,0.05496978759765625,0.10534441471099854,1.2573679685592651,9.904073715209961,-0.3127189576625824
5_20251106_215121,1762437048703,5,0.2503867745399475,0.3413781523704529,0.6258122324943542,0.6550774574279785,0.06420160084962845,3.4553260803222656,1.0392217636108398,1.243016242980957,9.991364479064941,-0.2301184982061386,-0.0566500686109066,0.07492256164550781,0.03658316284418106,23.349573135375977,-29.362564086914062,23.71956443786621,-0.011481404304504395,0.06983280181884766,0.06608037650585175,1.2544976472854614,9.921531677246094,-0.29619887471199036
5_20251106_215121,1762437048725,5,0.24995826184749603,0.3407745659351349,0.6257102489471436,0.6556525230407715,0.06708495318889618,3.4550774097442627,1.0385839939117432,1.274139642715454,10.005728721618652,-0.1355515867471695,-0.05420660972595215,0.07308996468782425,0.035361431539058685,23.27263641357422,-29.430519104003906,23.755849838256836,0.01571369171142578,0.06735801696777344,0.12851782143115997,1.2584259510040283,9.938370704650879,-0.26406940817832947
5_20251106_215121,1762437048741,5,0.24954785406589508,0.34031298756599426,0.625593900680542,0.6561594605445862,0.06708495318889618,3.4550774097442627,1.0385839939117432,1.274139642715454,10.005728721618652,-0.1355515867471695,-0.035880669951438904,0.08103121072053909,0.02375500276684761,23.18462562561035,-29.47455596923828,23.83272361755371,0.01571369171142578,0.06735801696777344,0.12851782143115997,1.2584259510040283,9.938370704650879,-0.26406940817832947
5_20251106_215121,1762437048761,5,0.249019056558609,0.33966895937919617,0.625588595867157,0.6566988825798035,0.07208557426929474,3.453930139541626,1.0393024682998657,1.245410442352295,9.802230834960938,-0.04218173772096634,-0.02121991291642189,0.0804203450679779,0.04330267384648323,23.087644577026367,-29.46862030029297,23.856096267700195,-0.008904576301574707,-0.09728050231933594,0.13721990585327148,1.2543150186538696,9.899511337280273,-0.17940165102481842
5_20251106_215121,1762437048779,5,0.2482852041721344,0.3390097916126251,0.6255491375923157,0.6573546528816223,0.07208557426929474,3.453930139541626,1.0393024682998657,1.245410442352295,9.802230834960938,-0.04218173772096634,-0.0004505133256316185,0.054764021188020706,0.07506763935089111,22.985729217529297,-29.55059051513672,23.877622604370117,-0.008904576301574707,-0.09728050231933594,0.13721990585327148,1.2543150186538696,9.899511337280273,-0.17940165102481842
5_20251106_215121,1762437048800,5,0.24744053184986115,0.3387753963470459,0.6255100965499878,0.6578308939933777,0.07679025828838348,3.45235538482666,1.040565013885498,1.3399772644042969,9.889615058898926,-0.22772438824176788,0.019708022475242615,0.03704894706606865,0.08545234054327011,22.886125564575195,-29.594619750976562,23.872907638549805,0.06823062896728516,-0.0017366409301757812,-0.04758948087692261,1.2717466354370117,9.891351699829102,-0.18013490736484528
5_20251106_215121,1762437048820,5,0.246604323387146,0.33884888887405396,0.6255818605422974,0.6580387949943542,0.07679025828838348,3.45235538482666,1.040565013885498,1.3399772644042969,9.889615058898926,-0.22772438824176788,0.0013820799067616463,0.04132499918341637,0.07323504984378815,22.886125564575195,-29.594619750976562,23.872907638549805,0.06823062896728516,-0.0017366409301757812,-0.04758948087692261,1.2717466354370117,9.891351699829102,-0.18013490736484528
5_20251106_215121,1762437048838,5,0.2458820790052414,0.3390250504016876,0.625593364238739,0.6582074165344238,0.08175931870937347,3.4513027667999268,1.0406779050827026,1.274139642715454,9.932708740234375,-0.26363587379455566,-0.04748709499835968,0.07919862121343613,0.05674169585108757,22.86236000061035,-29.583786010742188,23.885705947875977,-0.008044719696044922,0.024361610412597656,-0.047503262758255005,1.282184362411499,9.908347129821777,-0.21613261103630066
