session_id,timestamp,label,quaternion_w,quaternion_x,quaternion_y,quaternion_z,position_x,position_y,position_z,accelerometer_x,accelerometer_y,accelerometer_z,gyroscope_x,gyroscope_y,gyroscope_z,magnetometer_x,magnetometer_y,magnetometer_z,linear_acceleration_x,linear_acceleration_y,linear_acceleration_z,gravity_x,gravity_y,gravity_z
7_20251106_165457,1762419260520,7,0.11152166873216629,0.22936296463012695,0.7431527972221375,0.6186109185218811,2.5139729976654053,4.3011250495910645,2.5076375007629395,1.502776026725769,9.702875137329102,-2.177717685699463,-0.0954476073384285,0.068275585770607,-0.028370853513479233,3.767099380493164,-16.546049118041992,35.89910888671875,-0.22821223735809326,0.06982231140136719,-0.10579776763916016,1.7309882640838623,9.633052825927734,-2.0719199180603027
7_20251106_165457,1762419260538,7,0.11019305139780045,0.22734567523002625,0.7431188821792603,0.6196335554122925,2.5108907222747803,4.319579124450684,2.478505849838257,1.636845588684082,9.813004493713379,-2.189688205718994,-0.07651080936193466,0.013908626511693,0.06631318479776382,3.6892471313476562,-16.638444900512695,35.867286682128906,-0.07531416416168213,0.14396095275878906,-0.09421467781066895,1.7121597528457642,9.66904354095459,-2.095473527908325
7_20251106_165457,1762419260558,7,0.10864584892988205,0.22631528973579407,0.7429623007774353,0.620471179485321,2.5108907222747803,4.319579124450684,2.478505849838257,1.636845588684082,9.813004493713379,-2.189688205718994,-0.02214384451508522,-0.04473438858985901,0.12495619803667068,3.695892333984375,-16.737972259521484,35.852149963378906,-0.07531416416168213,0.14396095275878906,-0.09421467781066895,1.7121597528457642,9.66904354095459,-2.095473527908325
7_20251106_165457,1762419260578,7,0.10709210485219955,0.22619418799877167,0.7429108619689941,0.6208469271659851,2.5066611766815186,4.359218120574951,2.419743061065674,2.1360151767730713,10.121843338012695,-2.1094858646392822,0.005345067009329796,-0.08077540993690491,0.12495619803667068,3.592752456665039,-16.856395721435547,35.75123596191406,0.3109138011932373,0.3221607208251953,-0.009159564971923828,1.825101375579834,9.7996826171875,-2.1003262996673584
7_20251106_165457,1762419260595,7,0.10573553293943405,0.22638754546642303,0.742946207523346,0.6209666728973389,2.5061209201812744,4.37746524810791,2.3945863246917725,2.1360151767730713,10.146980285644531,-2.1489884853363037,-0.003207039088010788,-0.086273193359375,0.047376375645399094,3.5760269165039062,-16.944551467895508,35.69483184814453,0.24873113632202148,0.27783870697021484,-0.03892970085144043,1.8872840404510498,9.869141578674316,-2.1100587844848633
7_20251106_165457,1762419260616,7,0.10483578592538834,0.22605642676353455,0.7430852651596069,0.6210734248161316,2.5061209201812744,4.37746524810791,2.3945863246917725,2.1360151767730713,10.146980285644531,-2.1489884853363037,-0.0539088100194931,-0.06977984309196472,-0.03997727856040001,3.5018959045410156,-16.973892211914062,35.637298583984375,0.24873113632202148,0.27783870697021484,-0.03892970085144043,1.8872840404510498,9.869141578674316,-2.1100587844848633
7_20251106_165457,1762419260635,7,0.10446226596832275,0.22498071193695068,0.7431275248527527,0.6214762926101685,2.5063202381134033,4.417891979217529,2.343794584274292,1.998354434967041,10.17451286315918,-1.7527652978897095,-0.08689550310373306,-0.04412352293729782,-0.1377156376838684,3.416482925415039,-16.991199493408203,35.55250549316406,0.0613170862197876,0.1908407211303711,0.2794226408004761,1.9370373487472534,9.983672142028809,-2.0321879386901855
7_20251106_165457,1762419260654,7,0.10455236583948135,0.222993865609169,0.7432038187980652,0.622085690498352,2.5060386657714844,4.436400890350342,2.3227157592773438,1.7637327909469604,10.146980285644531,-1.7731151580810547,-0.08689550310373306,-0.04412352293729782,-0.1377156376838684,3.4635086059570312,-17.025156021118164,35.499610900878906,-0.13864362239837646,0.1306467056274414,0.2072582244873047,1.902376413345337,10.01633358001709,-1.9803733825683594
7_20251106_165457,1762419260673,7,0.10488323122262955,0.2202496975660324,0.7435152530670166,0.6226352453231812,2.5039916038513184,4.453311443328857,2.303436756134033,1.2537897825241089,9.771106719970703,-1.7084743976593018,-0.02214384451508522,-0.042290929704904556,-0.25316905975341797,3.4635086059570312,-17.025156021118164,35.499610900878906,-0.5188692808151245,-0.1961822509765625,0.21751916408538818,1.7726590633392334,9.967288970947266,-1.92599356174469
7_20251106_165457,1762419260692,7,0.10563413053750992,0.21755091845989227,0.7441468238830566,0.6227025985717773,2.4995198249816895,4.467971324920654,2.2857677936553955,0.8515812158584595,9.455085754394531,-1.690518856048584,0.009010255336761475,-0.05084303393959999,-0.1694806069135666,3.4885730743408203,-17.022624969482422,35.405975341796875,-0.736862301826477,-0.4097623825073242,0.18837976455688477,1.5884435176849365,9.864848136901855,-1.8788986206054688
7_20251106_165457,1762419260711,7,0.10588482767343521,0.2153688222169876,0.7448220252990723,0.6226113438606262,2.493046283721924,4.480435848236084,2.268911123275757,0.7773641347885132,9.331789016723633,-1.9047904014587402,0.031612247228622437,-0.06733638048171997,-0.027759987860918045,3.511930465698242,-17.045610427856445,35.35236358642578,-0.6488634347915649,-0.42644691467285156,-0.020713448524475098,1.4262275695800781,9.758235931396484,-1.8840769529342651
7_20251106_165457,1762419260730,7,0.10542265325784683,0.21425478160381317,0.7453438639640808,0.6224496364593506,2.4853692054748535,4.4915242195129395,2.2517929077148438,0.8695369362831116,9.48381519317627,-2.286649227142334,0.03894262760877609,-0.11131864041090012,0.14816904067993164,3.5457687377929688,-17.093320846557617,35.339263916015625,-0.4453524947166443,-0.21953678131103516,-0.32205772399902344,1.3148894309997559,9.703351974487305,-1.9645915031433105
7_20251106_165457,1762419260749,7,0.1042381227016449,0.21467941999435425,0.7455363273620605,0.6222721934318542,2.4783058166503906,4.502506732940674,2.2349064350128174,1.3986327648162842,9.866870880126953,-2.192082405090332,0.004734201356768608,-0.14919225871562958,0.3350936770439148,3.681619644165039,-17.058929443359375,35.29112243652344,0.06699466705322266,0.1308155059814453,-0.181992769241333,1.3316380977630615,9.736055374145508,-2.010089635848999
7_20251106_165457,1762419260769,7,0.10233137756586075,0.21671980619430542,0.7451323866844177,0.6223652362823486,2.474735736846924,4.514272689819336,2.217252016067505,2.4807653427124023,9.993758201599121,-2.2627081871032715,0.024281872436404228,-0.19134192168712616,0.5501180291175842,3.7302513122558594,-17.067501068115234,35.21172332763672,0.9193018674850464,0.2061624526977539,-0.20209479331970215,1.561463475227356,9.787595748901367,-2.0606133937835693
7_20251106_165457,1762419260788,7,0.10032039880752563,0.22206155955791473,0.7439671158790588,0.6222036480903625,2.4773037433624268,4.526589870452881,2.201253890991211,3.6718297004699707,10.406740188598633,-2.084347724914551,0.024281872436404228,-0.19134192168712616,0.5501180291175842,3.837810516357422,-17.0980224609375,35.21534729003906,1.6882929801940918,0.4953155517578125,-0.018987417221069336,1.983536720275879,9.91142463684082,-2.0653603076934814
7_20251106_165457,1762419260809,7,0.09644986689090729,0.2297086864709854,0.7425768971443176,0.6216999888420105,2.489847183227539,4.542073726654053,2.1853790283203125,4.921548843383789,10.6724853515625,-1.7898738384246826,0.15012000501155853,-0.3648275136947632,0.7523142695426941,3.9327754974365234,-17.14149284362793,35.17766571044922,2.350409746170044,0.6088485717773438,0.22038912773132324,2.571139097213745,10.063636779785156,-2.010262966156006
7_20251106_165457,1762419260827,7,0.09305811673402786,0.23665298521518707,0.7416346669197083,0.6207363605499268,2.5082480907440186,4.556956768035889,2.1728713512420654,5.895947456359863,10.987309455871582,-1.840149998664856,0.26740604639053345,-0.4149184226989746,0.6747344136238098,3.944255828857422,-17.153255462646484,35.177894592285156,2.659846782684326,0.7389373779296875,0.13609039783477783,3.236100673675537,10.248372077941895,-1.9762403964996338
7_20251106_165457,1762419260846,7,0.09014445543289185,0.24370679259300232,0.7413218021392822,0.6188077330589294,2.535912275314331,4.574699878692627,2.158534526824951,6.593827247619629,11.275798797607422,-2.630202293395996,0.40057456493377686,-0.5108242034912109,0.4841446578502655,4.000251770019531,-17.2371826171875,35.178497314453125,2.6861813068389893,0.8219413757324219,-0.5231695175170898,3.9076459407806396,10.453857421875,-2.1070327758789062
7_20251106_165457,1762419260864,7,0.08865200728178024,0.25027287006378174,0.7420309782028198,0.6155439615249634,2.535912275314331,4.574699878692627,2.158534526824951,6.593827247619629,11.275798797607422,-2.630202293395996,0.39629849791526794,-0.6439927220344543,0.20925553143024445,4.059377670288086,-17.258865356445312,35.23448944091797,2.6861813068389893,0.8219413757324219,-0.5231695175170898,3.9076459407806396,10.453857421875,-2.1070327758789062
7_20251106_165457,1762419260883,7,0.08970791846513748,0.2558891773223877,0.7432354688644409,0.6116161346435547,2.6081924438476562,4.613124370574951,2.1256983280181885,7.037932395935059,11.330862045288086,-3.1784508228302,0.39629849791526794,-0.6439927220344543,0.20925553143024445,4.096529006958008,-17.255672454833984,35.15486145019531,2.0167903900146484,0.5614748001098633,-0.7125213146209717,5.02114200592041,10.769387245178223,-2.4659295082092285
7_20251106_165457,1762419260901,7,0.09352309256792068,0.25997328758239746,0.744636595249176,0.6076049208641052,2.6081924438476562,4.613124370574951,2.1256983280181885,7.037932395935059,11.330862045288086,-3.1784508228302,0.3211621344089508,-0.7600570321083069,-0.10167460888624191,4.273773193359375,-17.131134033203125,35.123558044433594,2.0167903900146484,0.5614748001098633,-0.7125213146209717,5.02114200592041,10.769387245178223,-2.4659295082092285
7_20251106_165457,1762419260922,7,0.09990032017230988,0.26252105832099915,0.7462874054908752,0.6034547686576843,2.694841146469116,4.657848834991455,2.087158203125,6.101840019226074,11.557104110717773,-2.961785078048706,0.22098031640052795,-0.8993341326713562,-0.6740548610687256,4.597743988037109,-16.99639129638672,35.030555725097656,0.6045012474060059,0.5003080368041992,-0.28402185440063477,5.497338771820068,11.056796073913574,-2.6777632236480713
7_20251106_165457,1762419260940,7,0.10830003768205643,0.2632092833518982,0.7482850551605225,0.5992173552513123,2.7335376739501953,4.678211688995361,2.0700418949127197,5.79060697555542,11.242280960083008,-2.759483814239502,0.1623373031616211,-0.9329317212104797,-0.8493730425834656,4.950613021850586,-16.784313201904297,34.899566650390625,0.23461484909057617,0.14838790893554688,-0.06537628173828125,5.555992126464844,11.093893051147461,-2.6941075325012207
7_20251106_165457,1762419260959,7,0.11814156174659729,0.2626720666885376,0.7502539753913879,0.5951175689697266,2.771070718765259,4.698739528656006,2.0542783737182617,5.092727184295654,11.133349418640137,-2.1837029457092285,0.22159117460250854,-1.2505813837051392,-0.8921335339546204,5.459785461425781,-16.599578857421875,34.77416229248047,-0.37061166763305664,0.03156566619873047,0.4083237648010254,5.463338851928711,11.101783752441406,-2.592026710510254
7_20251106_165457,1762419260978,7,0.13028624653816223,0.2635536193847656,0.7521898746490479,0.5897247791290283,2.8034276962280273,4.718166351318359,2.042377471923828,4.260777950286865,11.07469367980957,-1.4714586734771729,0.22159117460250854,-1.2505813837051392,-0.8921335339546204,6.174297332763672,-16.225664138793945,34.59272003173828,-0.9620490074157715,-0.021671295166015625,0.8964545726776123,5.222826957702637,11.096364974975586,-2.367913246154785
7_20251106_165457,1762419260998,7,0.14420756697654724,0.26652011275291443,0.7545227408409119,0.5821225643157959,2.831015110015869,4.737163543701172,2.0333800315856934,3.653873920440674,10.954988479614258,-1.412803292274475,0.6137662529945374,-1.761875033378601,-0.8756402134895325,7.02728271484375,-15.767400741577148,34.39122772216797,-1.2551627159118652,-0.11310195922851562,0.7640880346298218,4.909036636352539,11.068090438842773,-2.176891326904297
7_20251106_165457,1762419261017,7,0.15905074775218964,0.2704114615917206,0.7574321627616882,0.5726054310798645,2.8492655754089355,4.752204895019531,2.0274627208709717,2.7417221069335938,10.580312728881836,-1.4558970928192139,0.7634281516075134,-1.9506322145462036,-0.9214550852775574,8.01561164855957,-15.287033081054688,34.114288330078125,-1.733851432800293,-0.39022159576416016,0.5767953395843506,4.475573539733887,10.970534324645996,-2.0326924324035645
7_20251106_165457,1762419261036,7,0.1751018464565277,0.2749987542629242,0.7607089281082153,0.5612815618515015,2.8597400188446045,4.766451835632324,2.0231375694274902,1.58417546749115,10.434272766113281,-1.4008327722549438,0.8232929110527039,-2.0159950256347656,-0.9556635022163391,9.15640640258789,-14.695869445800781,33.764251708984375,-2.3131184577941895,-0.42900848388671875,0.5054876804351807,3.897294044494629,10.86328125,-1.9063204526901245
7_20251106_165457,1762419261054,7,0.19165381789207458,0.2794894576072693,0.7640028595924377,0.5490483641624451,2.8606741428375244,4.777181625366211,2.020115375518799,0.6397034525871277,10.2738676071167,-1.6318633556365967,0.7334957718849182,-1.8748849630355835,-0.972156822681427,10.495292663574219,-14.041364669799805,33.382568359375,-2.606072425842285,-0.4715309143066406,0.21956562995910645,3.2457759380340576,10.74539852142334,-1.8514289855957031
7_20251106_165457,1762419261076,7,0.20757512748241425,0.2826458513736725,0.7668312191963196,0.5375814437866211,2.851229667663574,4.787156581878662,2.0170843601226807,0.11898694932460785,10.17331600189209,-1.7563564777374268,0.5239691734313965,-1.7075080871582031,-0.973378598690033,11.899833679199219,-13.30687141418457,32.937339782714844,-2.5014312267303467,-0.45766639709472656,0.076058030128479,2.620418071746826,10.630982398986816,-1.8324145078659058
7_20251106_165457,1762419261093,7,0.22297565639019012,0.2844338119029999,0.7686349153518677,0.5278064608573914,2.851229667663574,4.787156581878662,2.0170843601226807,0.11898694932460785,10.17331600189209,-1.7563564777374268,0.5239691734313965,-1.7075080871582031,-0.973378598690033,13.414331436157227,-12.576438903808594,32.36109924316406,-2.5014312267303467,-0.45766639709472656,0.076058030128479,2.620418071746826,10.630982398986816,-1.8324145078659058
7_20251106_165457,1762419261113,7,0.2385818213224411,0.28600287437438965,0.7697259783744812,0.5184621810913086,2.8119375705718994,4.798043727874756,2.020092248916626,-0.7728148698806763,9.860885620117188,-0.2301184982061386,0.5795578360557556,-1.7612642049789429,-0.8945770263671875,13.414331436157227,-12.576438903808594,32.36109924316406,-2.245598793029785,-0.4930534362792969,1.1528356075286865,1.4727840423583984,10.353939056396484,-1.3829541206359863
7_20251106_165457,1762419261132,7,0.2538650333881378,0.28852468729019165,0.7708333730697632,0.5080570578575134,2.7850000858306885,4.800669193267822,2.0258736610412598,-1.0421509742736816,9.799836158752441,-0.3079266846179962,0.9020944237709045,-1.8412874937057495,-0.8237167000770569,14.933467864990234,-11.75851058959961,31.82725715637207,-2.0119481086730957,-0.4432821273803711,0.8600219488143921,0.9697971343994141,10.243118286132812,-1.167948603630066
7_20251106_165457,1762419261150,7,0.26847410202026367,0.2924441993236542,0.7727499008178711,0.4952329695224762,2.7850000858306885,4.800669193267822,2.0258736610412598,-1.0421509742736816,9.799836158752441,-0.3079266846179962,1.1604902744293213,-1.9152021408081055,-0.8505947589874268,16.49186897277832,-10.89971923828125,31.21457862854004,-2.0119481086730957,-0.4432821273803711,0.8600219488143921,0.9697971343994141,10.243118286132812,-1.167948603630066
7_20251106_165457,1762419261169,7,0.2830204963684082,0.29714250564575195,0.7753762006759644,0.4799973964691162,2.746840476989746,4.8014235496521,2.034036636352539,-1.5078030824661255,9.599929809570312,-0.6442975401878357,1.2429569959640503,-1.8883241415023804,-0.9678807854652405,18.116727828979492,-9.948249816894531,30.525102615356445,-1.9820802211761475,-0.5145511627197266,0.4189208149909973,0.4742771089076996,10.114480972290039,-1.063218355178833
7_20251106_165457,1762419261188,7,0.29762521386146545,0.3009881377220154,0.7783966660499573,0.46359896659851074,2.708319664001465,4.799391269683838,2.0416030883789062,-2.5504331588745117,9.039710998535156,-0.6897854208946228,1.222798466682434,-1.6641367673873901,-1.090053677558899,19.77089500427246,-8.907291412353516,29.838457107543945,-2.4197683334350586,-0.8598165512084961,0.29874634742736816,-0.1306649148464203,9.899527549743652,-0.988531768321991
7_20251106_165457,1762419261207,7,0.3114451766014099,0.3030778765678406,0.7817935943603516,0.4471515417098999,2.604714870452881,4.778269290924072,2.056716203689575,-5.191123962402344,6.642019748687744,-1.4044239521026611,1.1574358940124512,-1.375808596611023,-1.0827232599258423,21.37993812561035,-7.806589126586914,29.137651443481445,-3.446693181991577,-2.2931876182556152,-0.39104723930358887,-1.7444307804107666,8.93520736694336,-1.0133767127990723
7_20251106_165457,1762419261227,7,0.32294657826423645,0.30277228355407715,0.7857604622840881,0.43198949098587036,2.604714870452881,4.778269290924072,2.056716203689575,-5.191123962402344,6.642019748687744,-1.4044239521026611,1.0554215908050537,-1.2206488847732544,-0.9135138392448425,22.857446670532227,-6.676414489746094,28.378175735473633,-3.446693181991577,-2.2931876182556152,-0.39104723930358887,-1.7444307804107666,8.93520736694336,-1.0133767127990723
7_20251106_165457,1762419261246,7,0.3329770863056183,0.3026561141014099,0.7891497611999512,0.4180527925491333,2.525158405303955,4.750376224517822,2.0596797466278076,-6.118837356567383,5.683183193206787,-2.267496347427368,1.0554215908050537,-1.2206488847732544,-0.9135138392448425,24.254289627075195,-5.464303970336914,27.65766716003418,-3.499525308609009,-2.601619243621826,-1.0032957792282104,-2.619312047958374,8.284802436828613,-1.2642005681991577
7_20251106_165457,1762419261266,7,0.34217000007629395,0.3038657307624817,0.7914996147155762,0.4051094353199005,2.3677799701690674,4.682354927062988,2.0523018836975098,-7.8342084884643555,4.419098854064941,-3.2035889625549316,0.9692895412445068,-1.1864405870437622,-0.6874938607215881,25.617395401000977,-4.204347610473633,26.936742782592773,-3.4763917922973633,-2.5834126472473145,-1.3067110776901245,-4.357816696166992,7.002511501312256,-1.8968778848648071
7_20251106_165457,1762419261286,7,0.3498009443283081,0.3063598871231079,0.792891263961792,0.39383548498153687,2.2715516090393066,4.634217262268066,2.041128635406494,-8.171777725219727,3.8086040019989014,-3.623753547668457,0.713337242603302,-0.8968906998634338,-0.02226221188902855,26.857118606567383,-2.98919677734375,26.1290225982666,-3.051168918609619,-2.5551259517669678,-1.3815007209777832,-5.120608806610107,6.363729953765869,-2.242252826690674
7_20251106_165457,1762419261304,7,0.3551187217235565,0.3104608654975891,0.7931308746337891,0.38528966903686523,2.1828360557556152,4.5869035720825195,2.0282092094421387,-7.736051082611084,3.863668203353882,-3.609388828277588,0.5612319111824036,-0.7301246523857117,0.3802976608276367,28.01777458190918,-1.891286849975586,25.261919021606445,-2.0923538208007812,-2.000049352645874,-1.0937089920043945,-5.643697261810303,5.863717555999756,-2.5156798362731934
7_20251106_165457,1762419261322,7,0.35817044973373413,0.31652379035949707,0.7921462655067444,0.37951400876045227,2.095367193222046,4.537961959838867,2.0134902000427246,-6.938816070556641,4.241935729980469,-3.5088367462158203,0.5508472323417664,-0.5774084329605103,0.6557976603507996,29.0223445892334,-0.9670925140380859,24.480112075805664,-1.036095142364502,-1.2974257469177246,-0.7945256233215332,-5.902720928192139,5.539361476898193,-2.714311122894287
7_20251106_165457,1762419261343,7,0.35915616154670715,0.32440948486328125,0.7906057238578796,0.37511053681373596,2.095367193222046,4.537961959838867,2.0134902000427246,-6.938816070556641,4.241935729980469,-3.5088367462158203,0.5813904404640198,-0.4863895773887634,0.7779706120491028,29.943029403686523,-0.23628997802734375,23.718435287475586,-1.036095142364502,-1.2974257469177246,-0.7945256233215332,-5.902720928192139,5.539361476898193,-2.714311122894287
7_20251106_165457,1762419261361,7,0.3588055372238159,0.33309707045555115,0.7889626026153564,0.3712719678878784,1.992760181427002,4.477221488952637,1.9915176630020142,-6.187069416046143,4.47536039352417,-4.041523456573486,0.5135844945907593,-0.45584636926651,0.7962965369224548,30.786680221557617,0.21347427368164062,23.029600143432617,-0.2274785041809082,-0.851201057434082,-1.061769962310791,-5.959590911865234,5.326561450958252,-2.9797534942626953
7_20251106_165457,1762419261379,7,0.358227014541626,0.34178900718688965,0.7870156764984131,0.36804893612861633,1.9133484363555908,4.428338050842285,1.9720308780670166,-5.820772171020508,4.647735595703125,-3.957730293273926,0.4298960566520691,-0.3110714256763458,0.7962965369224548,31.42348289489746,0.4488105773925781,22.409791946411133,0.11105537414550781,-0.543060302734375,-0.782381534576416,-5.931827545166016,5.1907958984375,-3.1753487586975098
7_20251106_165457,1762419261399,7,0.3567858338356018,0.3497186601161957,0.7851602435112,0.36595645546913147,1.7662270069122314,4.332391738891602,1.9266341924667358,-5.096557140350342,4.955377101898193,-4.696310043334961,0.4298960566520691,-0.3110714256763458,0.7962965369224548,32.02313232421875,0.4563941955566406,21.797765731811523,0.5962448120117188,-0.11274576187133789,-1.0634334087371826,-5.6928019523620605,5.068122863769531,-3.6328766345977783
7_20251106_165457,1762419261417,7,0.3546842038631439,0.3568653166294098,0.7831953167915344,0.3653099238872528,1.7034133672714233,4.289958477020264,1.9017293453216553,-4.688363075256348,5.440181732177734,-4.786088466644287,0.1000290960073471,-0.11131864041090012,0.8243963122367859,32.4691162109375,0.3399505615234375,21.32615852355957,0.803551197052002,0.29764747619628906,-0.9225695133209229,-5.49191427230835,5.142534255981445,-3.8635189533233643
7_20251106_165457,1762419261437,7,0.35264158248901367,0.36346369981765747,0.7806106805801392,0.3663126826286316,1.7034133672714233,4.289958477020264,1.9017293453216553,-4.688363075256348,5.440181732177734,-4.786088466644287,-0.017256926745176315,-0.07283416390419006,0.7999617457389832,32.90101623535156,-0.016021728515625,20.944150924682617,0.803551197052002,0.29764747619628906,-0.9225695133209229,-5.49191427230835,5.142534255981445,-3.8635189533233643
7_20251106_165457,1762419261456,7,0.35069528222084045,0.3693070709705353,0.7777893543243408,0.36833247542381287,1.5871095657348633,4.210233688354492,1.8488826751708984,-4.002453804016113,5.932169437408447,-4.149258613586426,0.0035124728456139565,-0.016634609550237656,0.7669749855995178,33.129913330078125,-0.5000076293945312,20.78169822692871,1.0057334899902344,0.5245194435119629,-0.17272257804870605,-5.008187294006348,5.407649993896484,-3.9765360355377197
7_20251106_165457,1762419261476,7,0.3484100103378296,0.37480470538139343,0.775199830532074,0.3704013526439667,1.5871095657348633,4.210233688354492,1.8488826751708984,-4.002453804016113,5.932169437408447,-4.149258613586426,0.0035124728456139565,-0.016634609550237656,0.7669749855995178,33.30744171142578,-1.037130355834961,20.58919334411621,1.0057334899902344,0.5245194435119629,-0.17272257804870605,-5.008187294006348,5.407649993896484,-3.9765360355377197
7_20251106_165457,1762419261496,7,0.34574195742607117,0.38052818179130554,0.7727091312408447,0.3722652196884155,1.4965330362319946,4.145728588104248,1.7922158241271973,-3.114243507385254,6.596531867980957,-5.02908992767334,0.012064581736922264,-0.08810578286647797,0.8353918790817261,33.37510681152344,-1.5816707611083984,20.4193058013916,1.2845215797424316,0.8365378379821777,-0.7192182540893555,-4.3987650871276855,5.759994029998779,-4.309871673583984
7_20251106_165457,1762419261517,7,0.343558132648468,0.38695505261421204,0.769558310508728,0.3741839528083801,1.4633454084396362,4.1229143142700195,1.7651336193084717,-2.8185720443725586,7.234559059143066,-4.652019500732422,-0.09178242832422256,-0.1015448048710823,0.7755271196365356,33.37510681152344,-1.5816707611083984,20.4193058013916,1.2641544342041016,1.1796517372131348,-0.27371835708618164,-4.08272647857666,6.054907321929932,-4.37830114364624
7_20251106_165457,1762419261533,7,0.34197255969047546,0.39269936084747314,0.7661470174789429,0.3766440153121948,1.4367220401763916,4.105908393859863,1.7404776811599731,-2.764704942703247,7.487136363983154,-4.49281120300293,-0.14920371770858765,0.015130354091525078,0.5879916548728943,33.34346008300781,-2.820281982421875,20.178388595581055,1.054417371749878,1.1457829475402832,-0.09160804748535156,-3.819122314453125,6.341353416442871,-4.401203155517578
7_20251106_165457,1762419261551,7,0.3404467701911926,0.396477073431015,0.7634827494621277,0.37946805357933044,1.4138109683990479,4.092411994934082,1.7166343927383423,-2.8520894050598145,7.421298980712891,-4.571816921234131,-0.14920371770858765,0.015130354091525078,0.5879916548728943,33.34346008300781,-2.820281982421875,20.178388595581055,0.7736263275146484,0.8639564514160156,-0.1364912986755371,-3.625715732574463,6.557342529296875,-4.435325622558594
7_20251106_165457,1762419261571,7,0.3385321795940399,0.397987961769104,0.7619211077690125,0.38272419571876526,1.3919970989227295,4.081021308898926,1.690076231956482,-2.846104145050049,7.496712684631348,-4.8926262855529785,-0.19624029099941254,0.18556161224842072,0.3961801528930664,33.25706481933594,-3.489389419555664,20.202985763549805,0.6236891746520996,0.7514963150024414,-0.36584043502807617,-3.4697933197021484,6.745216369628906,-4.526785850524902
7_20251106_165457,1762419261590,7,0.336269348859787,0.3983522057533264,0.760736346244812,0.3866764008998871,1.3751355409622192,4.073177337646484,1.6660377979278564,-2.7431578636169434,7.514668941497803,-5.067395210266113,-0.3275761902332306,0.3046802282333374,0.34303492307662964,33.17125701904297,-4.157688140869141,20.146486282348633,0.5813083648681641,0.6155619621276855,-0.43248748779296875,-3.3244662284851074,6.899106979370117,-4.6349077224731445
7_20251106_165457,1762419261609,7,0.3341890573501587,0.39868271350860596,0.7592615485191345,0.39101362228393555,1.359413743019104,4.067663669586182,1.6393346786499023,-2.641408920288086,7.809142589569092,-5.072183132171631,-0.39232784509658813,0.19961151480674744,0.38823890686035156,33.007102966308594,-4.706111907958984,20.10270881652832,0.5464458465576172,0.7280287742614746,-0.3498201370239258,-3.187854766845703,7.081113815307617,-4.722362995147705
7_20251106_165457,1762419261628,7,0.3329392969608307,0.39959508180618286,0.7570063471794128,0.39549535512924194,1.3466583490371704,4.065486431121826,1.616584062576294,-2.6653499603271484,8.10122299194336,-4.230657577514648,-0.4564686715602875,0.08660152554512024,0.4028996527194977,32.90306854248047,-5.263254165649414,20.074636459350586,0.41800403594970703,0.8160872459411621,0.39336442947387695,-3.0833539962768555,7.285135746002197,-4.624022006988525
7_20251106_165457,1762419261648,7,0.3326111435890198,0.40069952607154846,0.7541303038597107,0.40012145042419434,1.3355848789215088,4.066579818725586,1.5964630842208862,-2.530083179473877,8.360982894897461,-3.7590198516845703,-0.4308123290538788,0.16357047855854034,0.39373666048049927,32.75251770019531,-5.7741546630859375,20.12675666809082,0.44261646270751953,0.8606777191162109,0.6920018196105957,-2.9726996421813965,7.50030517578125,-4.451021671295166
7_20251106_165457,1762419261666,7,0.3317607641220093,0.40143099427223206,0.7515310049057007,0.4049556851387024,1.3355848789215088,4.066579818725586,1.5964630842208862,-2.530083179473877,8.360982894897461,-3.7590198516845703,-0.37094756960868835,0.28329998254776,0.3815193772315979,32.578094482421875,-6.285968780517578,20.110315322875977,0.44261646270751953,0.8606777191162109,0.6920018196105957,-2.9726996421813965,7.50030517578125,-4.451021671295166
7_20251106_165457,1762419261686,7,0.32984867691993713,0.4016667306423187,0.7495616674423218,0.4099036455154419,1.3215714693069458,4.075690746307373,1.5646535158157349,-2.0692191123962402,8.49864387512207,-4.067858695983887,-0.39599302411079407,0.3504950702190399,0.3876280188560486,32.39129638671875,-6.787235260009766,20.21529197692871,0.6209383010864258,0.6517696380615234,0.22243261337280273,-2.690157413482666,7.846874237060547,-4.2902913093566895
7_20251106_165457,1762419261706,7,0.3275167942047119,0.4017007052898407,0.7476274371147156,0.4152379035949707,1.3185330629348755,4.083489894866943,1.550770878791809,-1.804671287536621,8.578845977783203,-3.894286632537842,-0.46929678320884705,0.35904717445373535,0.40534311532974243,33.60693359375,-6.976987838745117,21.160724639892578,0.7083890438079834,0.5855770111083984,0.3168039321899414,-2.5130603313446045,7.993268966674805,-4.211090564727783
7_20251106_165457,1762419261724,7,0.325277715921402,0.4016338586807251,0.7453305721282959,0.4211495816707611,1.3182131052017212,4.092175006866455,1.5402827262878418,-1.5880054235458374,8.812271118164062,-3.6500885486602783,-0.50228351354599,0.31873011589050293,0.4218364357948303,33.414100646972656,-7.366302490234375,21.294620513916016,0.7400437593460083,0.6552019119262695,0.44880175590515137,-2.3280491828918457,8.157069206237793,-4.09889030456543
7_20251106_165457,1762419261742,7,0.32331517338752747,0.4016750454902649,0.7426913976669312,0.42723992466926575,1.3200851678848267,4.102702617645264,1.5318043231964111,-1.4443594217300415,9.0816068649292,-3.495668888092041,-0.50228351354599,0.31873011589050293,0.4218364357948303,33.19074249267578,-7.869951248168945,21.39812469482422,0.7069517374038696,0.7396306991577148,0.4825773239135742,-2.151311159133911,8.341976165771484,-3.9782462120056152
7_20251106_165457,1762419261762,7,0.3214135766029358,0.40191251039505005,0.7401093244552612,0.4328947365283966,1.3249017000198364,4.115612030029297,1.5244383811950684,-1.2169201374053955,8.933173179626465,-3.4573633670806885,-0.3782779574394226,0.2955172657966614,0.3815193772315979,32.95631408691406,-8.34968376159668,21.542217254638672,0.7475128173828125,0.4729576110839844,0.4167063236236572,-1.964432954788208,8.46021556854248,-3.8740696907043457
7_20251106_165457,1762419261780,7,0.31930050253868103,0.40213319659233093,0.7379271984100342,0.43794921040534973,1.3315060138702393,4.127572536468506,1.5184119939804077,-0.9547663927078247,8.835014343261719,-3.763808250427246,-0.3691149950027466,0.33339086174964905,0.37846505641937256,32.661354064941406,-8.832849502563477,21.629791259765625,0.8077332973480225,0.2998390197753906,0.08820915222167969,-1.7624996900558472,8.535175323486328,-3.852017402648926
7_20251106_165457,1762419261799,7,0.3168479800224304,0.4021969139575958,0.7358952164649963,0.4430612027645111,1.3413563966751099,4.140585899353027,1.512384295463562,-0.5860751271247864,8.906837463378906,-3.846404552459717,-0.3691149950027466,0.33339086174964905,0.37846505641937256,32.317543029785156,-9.319326400756836,21.728919982910156,0.9411396384239197,0.2973299026489258,0.004490375518798828,-1.527214765548706,8.60950756072998,-3.8508949279785156
7_20251106_165457,1762419261818,7,0.31434154510498047,0.40237388014793396,0.7334223389625549,0.44874969124794006,1.3413563966751099,4.140585899353027,1.512384295463562,-0.5860751271247864,8.906837463378906,-3.846404552459717,-0.4393644332885742,0.3474407494068146,0.42000386118888855,32.032257080078125,-9.839908599853516,21.870258331298828,0.9411396384239197,0.2973299026489258,0.004490375518798828,-1.527214765548706,8.60950756072998,-3.8508949279785156
7_20251106_165457,1762419261837,7,0.312258780002594,0.40220877528190613,0.7307443618774414,0.45468148589134216,1.3701305389404297,4.1698737144470215,1.5032202005386353,-0.04261469841003418,9.305455207824707,-3.451378345489502,-0.49984005093574524,0.3266713619232178,0.3857954144477844,31.714021682739258,-10.311565399169922,21.90304946899414,0.9748512506484985,0.45000267028808594,0.28748416900634766,-1.0174659490585327,8.855452537536621,-3.7388625144958496
7_20251106_165457,1762419261856,7,0.3111632764339447,0.4011315405368805,0.7285212278366089,0.4599214196205139,1.3872995376586914,4.185022830963135,1.5011416673660278,-0.19823111593723297,9.170188903808594,-3.1269779205322266,-0.48945534229278564,0.2912411689758301,0.0070593031123280525,31.37090492248535,-10.797098159790039,21.90756607055664,0.6553878784179688,0.2517890930175781,0.48950767517089844,-0.8536189794540405,8.918399810791016,-3.616485595703125
7_20251106_165457,1762419261877,7,0.31094714999198914,0.39863020181655884,0.7270491123199463,0.46454861760139465,1.407070279121399,4.20092248916626,1.5007402896881104,-0.33349767327308655,8.916414260864258,-3.085081100463867,-0.5047270059585571,0.36271238327026367,-0.1334395855665207,31.0178165435791,-11.24561882019043,21.89886474609375,0.4160970151424408,-0.0015888214111328125,0.4251236915588379,-0.7495946884155273,8.91800308227539,-3.510204792022705
7_20251106_165457,1762419261896,7,0.3109062910079956,0.39466574788093567,0.7262662053108215,0.4691627025604248,1.4236013889312744,4.213794708251953,1.5009208917617798,-0.5741046071052551,8.88768482208252,-3.304141044616699,-0.4760163128376007,0.38042742013931274,-0.19147175550460815,30.658788681030273,-11.582056045532227,21.905567169189453,0.14039206504821777,-0.024254798889160156,0.16485095024108887,-0.7144966721534729,8.91193962097168,-3.468991994857788
7_20251106_165457,1762419261915,7,0.310875803232193,0.3902509808540344,0.7258983850479126,0.4734257757663727,1.440720796585083,4.227089881896973,1.500928521156311,-0.8230909109115601,8.815861701965332,-3.529186248779297,-0.4760163128376007,0.38042742013931274,-0.19147175550460815,30.363706588745117,-11.864023208618164,21.888744354248047,-0.08687537908554077,-0.07686233520507812,-0.04815530776977539,-0.7362155318260193,8.89272403717041,-3.4810309410095215
7_20251106_165457,1762419261935,7,0.3109663128852844,0.3862835168838501,0.7255824208259583,0.4770902991294861,1.4563744068145752,4.23933744430542,1.5008147954940796,-0.9368105530738831,8.766782760620117,-3.5208072662353516,-0.42653629183769226,0.3358343243598938,-0.18230876326560974,30.119386672973633,-12.105276107788086,21.88819122314453,-0.16047602891921997,-0.1007528305053711,-0.03182101249694824,-0.7763345241546631,8.867535591125488,-3.4889862537384033
7_20251106_165457,1762419261953,7,0.31139910221099854,0.3830309808254242,0.7248824834823608,0.4804822504520416,1.4690624475479126,4.24981164932251,1.5013083219528198,-1.05890953540802,8.868532180786133,-3.2490768432617188,-0.45769038796424866,0.19411371648311615,-0.0815160796046257,29.91444206237793,-12.29391860961914,21.89016342163086,-0.22606003284454346,0.000797271728515625,0.19192743301391602,-0.8328495025634766,8.867734909057617,-3.4410042762756348
7_20251106_165457,1762419261971,7,0.3121550977230072,0.38031384348869324,0.7236508131027222,0.48399385809898376,1.480350136756897,4.260427474975586,1.5029041767120361,-1.1439000368118286,9.13786792755127,-2.9833319187164307,-0.4619664251804352,0.20388755202293396,-0.03936641663312912,29.91444206237793,-12.29391860961914,21.89016342163086,-0.24884045124053955,0.21610641479492188,0.3661379814147949,-0.8950595855712891,8.921761512756348,-3.3494699001312256
7_20251106_165457,1762419261991,7,0.31262579560279846,0.3776772916316986,0.722300112247467,0.4877576231956482,1.4910390377044678,4.271987438201904,1.5054268836975098,-1.1247472763061523,9.255179405212402,-3.0132579803466797,-0.44669482111930847,0.314454048871994,0.018054869025945663,29.676759719848633,-12.421754837036133,21.851436614990234,-0.18375015258789062,0.26673412322998047,0.2689695358276367,-0.9409971237182617,8.988445281982422,-3.2822275161743164
7_20251106_165457,1762419262009,7,0.3120652735233307,0.3749558925628662,0.7210828065872192,0.4919988811016083,1.5015859603881836,4.284042835235596,1.5084562301635742,-0.7979528903961182,9.379671096801758,-3.0515637397766113,-0.44669482111930847,0.314454048871994,0.018054869025945663,29.476762771606445,-12.510883331298828,21.95013427734375,0.11443543434143066,0.31298065185546875,0.18453097343444824,-0.9123883247375488,9.066690444946289,-3.2360947132110596
7_20251106_165457,1762419262029,7,0.31072407960891724,0.3726833462715149,0.7196779251098633,0.4966098368167877,1.512779951095581,4.297037124633789,1.511626958847046,-0.48432591557502747,9.628658294677734,-3.1293721199035645,-0.40576687455177307,0.22404608130455017,0.2330792397260666,29.300039291381836,-12.611520767211914,22.103614807128906,0.34244993329048157,0.44957447052001953,0.08537817001342773,-0.826775848865509,9.179083824157715,-3.214750289916992
7_20251106_165457,1762419262048,7,0.3094562888145447,0.37189626693725586,0.7176435589790344,0.5009168982505798,1.5254225730895996,4.312730312347412,1.5168330669403076,-0.35025638341903687,10.066778182983398,-2.5452117919921875,-0.368504136800766,0.068275585770607,0.28744620084762573,29.1101016998291,-12.749141693115234,22.107135772705078,0.38121557235717773,0.7101554870605469,0.5356307029724121,-0.7314719557762146,9.356622695922852,-3.0808424949645996
7_20251106_165457,1762419262067,7,0.30889201164245605,0.3725001811981201,0.7150416970252991,0.504524290561676,1.538436770439148,4.3291730880737305,1.524157166481018,-0.14675799012184143,10.1876802444458,-2.1238505840301514,-0.368504136800766,0.068275585770607,0.28744620084762573,28.94594383239746,-12.860057830810547,22.112163543701172,0.4677712023258209,0.6648464202880859,0.7655935287475586,-0.6145291924476624,9.522833824157715,-2.88944411277771
7_20251106_165457,1762419262086,7,0.30788809061050415,0.3727951943874359,0.7129256725311279,0.5079032182693481,1.5527011156082153,4.346411228179932,1.533126950263977,0.0782872810959816,10.112266540527344,-2.1561708450317383,-0.20173807442188263,0.1965571790933609,0.20986637473106384,28.69207191467285,-13.040533065795898,22.234085083007812,0.5542532205581665,0.4715461730957031,0.5866186618804932,-0.4759659171104431,9.64072036743164,-2.7427895069122314
7_20251106_165457,1762419262105,7,0.30622974038124084,0.37261584401130676,0.7116476893424988,0.5108212232589722,1.5683804750442505,4.3639302253723145,1.5426074266433716,0.2997414171695709,10.057201385498047,-2.393186569213867,-0.20173807442188263,0.1965571790933609,0.20986637473106384,28.45069694519043,-13.208196640014648,22.41082763671875,0.6205658912658691,0.33318519592285156,0.2796823978424072,-0.32082444429397583,9.724016189575195,-2.6728689670562744
7_20251106_165457,1762419262125,7,0.30415356159210205,0.3723023533821106,0.7109488844871521,0.5132575035095215,1.5865358114242554,4.3831095695495605,1.552592396736145,0.4936634302139282,10.27027702331543,-2.506906270980835,-0.08017599582672119,0.13363811373710632,0.14267125725746155,28.304990768432617,-13.40677261352539,22.550151824951172,0.6515903472900391,0.4370088577270508,0.13277006149291992,-0.15792688727378845,9.833268165588379,-2.639676332473755
7_20251106_165457,1762419262145,7,0.3026336133480072,0.3722820281982422,0.710389256477356,0.5149428248405457,1.605807900428772,4.402665615081787,1.56333327293396,0.5080280303955078,10.27267074584961,-2.2267966270446777,-0.006261362694203854,0.014519492164254189,0.021109191700816154,28.09895896911621,-13.59689712524414,22.7008056640625,0.5327639579772949,0.35152244567871094,0.3303036689758301,-0.02473590523004532,9.921148300170898,-2.557100296020508
7_20251106_165457,1762419262162,7,0.3022569715976715,0.37232041358947754,0.7102439999580383,0.5153364539146423,1.6219197511672974,4.418479919433594,1.5731000900268555,0.22552436590194702,9.931511878967285,-2.0592100620269775,0.09392045438289642,0.059112612158060074,-0.11450277268886566,27.823732376098633,-13.728464126586914,22.795772552490234,0.20020821690559387,0.008291244506835938,0.3983123302459717,0.0253161434084177,9.92322063446045,-2.457522392272949
7_20251106_165457,1762419262183,7,0.301901251077652,0.37147584557533264,0.7111710906028748,0.5148757696151733,1.6395823955535889,4.43532133102417,1.5838038921356201,-0.08810257911682129,9.649007797241211,-2.5272560119628906,0.11713331192731857,0.19411371648311615,-0.17253494262695312,27.646684646606445,-13.852733612060547,22.800045013427734,-0.09073498100042343,-0.21936988830566406,-0.055786848068237305,0.002632400020956993,9.868377685546875,-2.4714691638946533
7_20251106_165457,1762419262201,7,0.300807386636734,0.3694838285446167,0.7128701210021973,0.5145996809005737,1.6395823955535889,4.43532133102417,1.5838038921356201,-0.08810257911682129,9.649007797241211,-2.5272560119628906,0.06276635080575943,0.24115028977394104,-0.13466131687164307,27.46431541442871,-13.84088134765625,22.92837905883789,-0.09073498100042343,-0.21936988830566406,-0.055786848068237305,0.002632400020956993,9.868377685546875,-2.4714691638946533
7_20251106_165457,1762419262221,7,0.2994827628135681,0.3674660921096802,0.7143284678459167,0.5147947072982788,1.6694823503494263,4.463472366333008,1.5986007452011108,-0.22815737128257751,9.683723449707031,-2.9198882579803467,0.06276635080575943,0.24115028977394104,-0.13466131687164307,27.2564754486084,-13.843713760375977,23.10953140258789,-0.1421511471271515,-0.09327983856201172,-0.25730133056640625,-0.08600622415542603,9.777003288269043,-2.6625869274139404
7_20251106_165457,1762419262239,7,0.29888075590133667,0.3662962019443512,0.7148942947387695,0.5151926875114441,1.6694823503494263,4.463472366333008,1.5986007452011108,-0.22815737128257751,9.683723449707031,-2.9198882579803467,-0.014202604070305824,0.013908626511693,-0.030814308673143387,27.174104690551758,-13.787296295166016,23.188514709472656,-0.1421511471271515,-0.09327983856201172,-0.25730133056640625,-0.08600622415542603,9.777003288269043,-2.6625869274139404
7_20251106_165457,1762419262259,7,0.29883134365081787,0.36586275696754456,0.7150275111198425,0.5153444409370422,1.6950335502624512,4.486483097076416,1.6127701997756958,-0.11204355955123901,9.568805694580078,-2.2471466064453125,0.051159925758838654,0.018184680491685867,-0.03692295774817467,27.057374954223633,-13.707069396972656,23.158424377441406,-0.013982497155666351,-0.13745975494384766,0.3016974925994873,-0.09806106239557266,9.706265449523926,-2.5488440990448
7_20251106_165457,1762419262279,7,0.29856476187705994,0.3655187785625458,0.7154643535614014,0.51513671875,1.7071613073349,4.497103691101074,1.6200833320617676,-0.189851775765419,9.596338272094727,-2.584714412689209,0.10369428992271423,0.08782325685024261,-0.07357483357191086,26.89311408996582,-13.605175018310547,23.153934478759766,-0.0734325647354126,-0.08794116973876953,-0.028696060180664062,-0.11641921103000641,9.684279441833496,-2.556018352508545
7_20251106_165457,1762419262297,7,0.2978421151638031,0.36472493410110474,0.7164508700370789,0.5147464871406555,1.7166433334350586,4.50479793548584,1.6249291896820068,-0.2580835819244385,9.282711029052734,-3.0383963584899902,0.0902552679181099,0.10737092792987823,-0.09923116117715836,26.717878341674805,-13.479230880737305,23.176513671875,-0.11333149671554565,-0.3212547302246094,-0.38590240478515625,-0.14475208520889282,9.603965759277344,-2.652493953704834
7_20251106_165457,1762419262316,7,0.2971436679363251,0.36363688111305237,0.7175556421279907,0.5143809914588928,1.7263507843017578,4.5118231773376465,1.6284178495407104,-0.27603933215141296,9.186946868896484,-3.2562594413757324,-0.008093956857919693,0.042008403688669205,-0.0815160796046257,26.676790237426758,-13.344413757324219,23.19097137451172,-0.10502979159355164,-0.3336153030395508,-0.48301243782043457,-0.17100954055786133,9.520562171936035,-2.773247003555298
7_20251106_165457,1762419262336,7,0.2971319258213043,0.36277082562446594,0.7179861664772034,0.5143985152244568,1.736588716506958,4.518418312072754,1.631348729133606,-0.15753144025802612,9.287498474121094,-2.991711378097534,-0.008093956857919693,0.042008403688669205,-0.0815160796046257,26.56550407409668,-13.163999557495117,23.190025329589844,0.010782480239868164,-0.18645095825195312,-0.17477154731750488,-0.1683139204978943,9.473949432373047,-2.8169398307800293
7_20251106_165457,1762419262355,7,0.29796725511550903,0.3619457185268402,0.7175548076629639,0.515097975730896,1.745621681213379,4.524061679840088,1.6328399181365967,-0.08331438899040222,9.464662551879883,-3.1916184425354004,-0.22556179761886597,-0.06855811178684235,-0.10839413106441498,26.484235763549805,-13.094486236572266,23.2152099609375,0.06799963116645813,-0.0074291229248046875,-0.2997426986694336,-0.15131402015686035,9.472091674804688,-2.891875743865967
7_20251106_165457,1762419262374,7,0.2995864748954773,0.3608594834804535,0.7166738510131836,0.5161462426185608,1.7539527416229248,4.52925443649292,1.633411169052124,-0.24252194166183472,9.410795211791992,-3.199997901916504,-0.2646571099758148,-0.17118337750434875,-0.18658483028411865,26.37928581237793,-13.025617599487305,23.144798278808594,-0.07296633720397949,-0.04903697967529297,-0.24649763107299805,-0.16955560445785522,9.459832191467285,-2.953500270843506
7_20251106_165457,1762419262393,7,0.3023659884929657,0.35963281989097595,0.7155998349189758,0.5168712735176086,1.7608612775802612,4.533760070800781,1.6348068714141846,-0.4089118242263794,9.391643524169922,-2.5954880714416504,-0.2646571099758148,-0.17118337750434875,-0.18658483028411865,26.37928581237793,-13.025617599487305,23.144798278808594,-0.1914849877357483,-0.054551124572753906,0.286409854888916,-0.2174268364906311,9.446194648742676,-2.8818979263305664
7_20251106_165457,1762419262411,7,0.3056964874267578,0.3579689562320709,0.7143745422363281,0.5177614092826843,1.7670568227767944,4.5380730628967285,1.637448787689209,-0.48432591557502747,9.371292114257812,-2.429098129272461,-0.37583449482917786,-0.06306032836437225,-0.2568342387676239,26.322065353393555,-12.978147506713867,23.02175521850586,-0.21351924538612366,-0.059922218322753906,0.3622398376464844,-0.2708066701889038,9.431214332580566,-2.7913379669189453
7_20251106_165457,1762419262430,7,0.3085586428642273,0.3553577959537506,0.7132310271263123,0.5194361805915833,1.7670568227767944,4.5380730628967285,1.637448787689209,-0.48432591557502747,9.371292114257812,-2.429098129272461,-0.3923278748989105,-0.029462767764925957,-0.26538634300231934,26.314306259155273,-12.903329849243164,22.99581527709961,-0.21351924538612366,-0.059922218322753906,0.3622398376464844,-0.2708066701889038,9.431214332580566,-2.7913379669189453
7_20251106_165457,1762419262449,7,0.3112425208091736,0.3523825407028198,0.7121461629867554,0.5213467478752136,1.7763155698776245,4.547429084777832,1.6460636854171753,-0.6567010879516602,9.729209899902344,-2.177717685699463,-0.3843866288661957,-0.059395138174295425,-0.29409700632095337,26.307336807250977,-12.827434539794922,22.861743927001953,-0.2688066363334656,0.21906280517578125,0.42240381240844727,-0.3878944516181946,9.510147094726562,-2.60012149810791
7_20251106_165457,1762419262469,7,0.3142728805541992,0.349427729845047,0.7110607624053955,0.5229965448379517,1.7786952257156372,4.5526628494262695,1.6531050205230713,-0.9320223331451416,9.608308792114258,-1.9059875011444092,-0.34468039870262146,-0.07161243259906769,-0.3295271396636963,26.359281539916992,-12.785102844238281,22.715816497802734,-0.4353023171424866,0.07852935791015625,0.555307149887085,-0.49672001600265503,9.529779434204102,-2.461294651031494
7_20251106_165457,1762419262489,7,0.31753432750701904,0.34650111198425293,0.71016526222229,0.5241891145706177,1.778765082359314,4.5571980476379395,1.6612001657485962,-1.2540286779403687,9.461071968078613,-1.8269824981689453,-0.34468039870262146,-0.07161243259906769,-0.3295271396636963,26.425615310668945,-12.715784072875977,22.462779998779297,-0.6058469414710999,-0.054965972900390625,0.5074496269226074,-0.6481817364692688,9.516037940979004,-2.3344321250915527
7_20251106_165457,1762419262507,7,0.319909930229187,0.34348875284194946,0.7097452282905579,0.5252949595451355,1.778765082359314,4.5571980476379395,1.6612001657485962,-1.2540286779403687,9.461071968078613,-1.8269824981689453,-0.20967930555343628,0.08965585380792618,-0.1847522258758545,26.46476936340332,-12.686668395996094,22.30258560180664,-0.6058469414710999,-0.054965972900390625,0.5074496269226074,-0.6481817364692688,9.516037940979004,-2.3344321250915527
7_20251106_165457,1762419262527,7,0.3209236264228821,0.3409351110458374,0.7095831632614136,0.5265576839447021,1.7734609842300415,4.565858364105225,1.6797866821289062,-1.2205113172531128,9.516136169433594,-2.148988723754883,-0.1516471654176712,0.13241638243198395,-0.06319013237953186,26.520029067993164,-12.593435287475586,22.090133666992188,-0.34254151582717896,-0.0005121231079101562,0.0708017349243164,-0.8779698014259338,9.516648292541504,-2.219790458679199
7_20251106_165457,1762419262546,7,0.3207918703556061,0.3390653133392334,0.7094966173171997,0.5279601216316223,1.7734609842300415,4.565858364105225,1.6797866821289062,-1.2205113172531128,9.516136169433594,-2.148988723754883,-0.09605848044157028,0.029180243611335754,0.05470675230026245,26.66152000427246,-12.458587646484375,22.04410171508789,-0.34254151582717896,-0.0005121231079101562,0.0708017349243164,-0.8779698014259338,9.516648292541504,-2.219790458679199
7_20251106_165457,1762419262564,7,0.32057058811187744,0.3387824594974518,0.7089969515800476,0.5289463400840759,1.7663742303848267,4.574137210845947,1.6963233947753906,-0.9451899528503418,9.748363494873047,-2.0436482429504395,-0.04169151186943054,0.0047456552274525166,0.13167570531368256,26.689306259155273,-12.405961990356445,21.965042114257812,-0.015249371528625488,0.17338848114013672,0.1401195526123047,-0.9299405813217163,9.57497501373291,-2.183767795562744
7_20251106_165457,1762419262583,7,0.31988734006881714,0.3392709195613861,0.7084760665893555,0.5297442674636841,1.7635982036590576,4.579467296600342,1.704557180404663,-0.7093712091445923,9.987771987915039,-2.1190621852874756,-0.04108065366744995,0.10126228630542755,0.12068014591932297,26.60700798034668,-12.372636795043945,21.840755462646484,0.17645549774169922,0.33023738861083984,0.051764488220214844,-0.8858267068862915,9.6575345993042,-2.1708266735076904
7_20251106_165457,1762419262603,7,0.3186438977718353,0.3392716348171234,0.708219051361084,0.530835747718811,1.7622246742248535,4.586641788482666,1.712751865386963,-0.42447346448898315,10.264291763305664,-2.1837029457092285,-0.14859284460544586,0.21060706675052643,0.005837573669850826,26.50115394592285,-12.316595077514648,21.79711151123047,0.36908262968063354,0.48540592193603516,-0.01030111312866211,-0.7935560941696167,9.778885841369629,-2.1734018325805664
7_20251106_165457,1762419262622,7,0.3175179064273834,0.3376166820526123,0.708124577999115,0.5326883792877197,1.7625198364257812,4.594136714935303,1.7197251319885254,-0.23414261639118195,10.150571823120117,-2.3273489475250244,-0.34529125690460205,0.22465696930885315,-0.1737566590309143,26.443239212036133,-12.270069122314453,21.76868438720703,0.4475308060646057,0.2973489761352539,-0.12315773963928223,-0.6816734075546265,9.853222846984863,-2.204191207885742
7_20251106_165457,1762419262642,7,0.3177899718284607,0.33414313197135925,0.7076207995414734,0.5353790521621704,1.7637461423873901,4.601349353790283,1.7264004945755005,-0.37539443373680115,9.760334014892578,-2.302210807800293,-0.34529125690460205,0.22465696930885315,-0.1737566590309143,26.345354080200195,-12.276962280273438,21.818824768066406,0.2450232207775116,-0.0743112564086914,-0.0784156322479248,-0.6204176545143127,9.83464527130127,-2.223795175552368
7_20251106_165457,1762419262660,7,0.31965646147727966,0.3301258087158203,0.7065326571464539,0.5381898283958435,1.7637461423873901,4.601349353790283,1.7264004945755005,-0.37539443373680115,9.760334014892578,-2.302210807800293,-0.45830121636390686,0.07621682435274124,-0.2977621853351593,26.285634994506836,-12.25609016418457,21.84393310546875,0.2450232207775116,-0.0743112564086914,-0.0784156322479248,-0.6204176545143127,9.83464527130127,-2.223795175552368
7_20251106_165457,1762419262678,7,0.32193899154663086,0.3263671100139618,0.7053552269935608,0.5406605005264282,1.7646251916885376,4.607418060302734,1.732653260231018,-0.7033858895301819,9.67414665222168,-2.1406092643737793,-0.40149083733558655,0.07866028696298599,-0.2464495599269867,26.213224411010742,-12.248298645019531,21.84125518798828,-0.06637459993362427,-0.12839889526367188,0.06654882431030273,-0.6370112895965576,9.802545547485352,-2.207158088684082
7_20251106_165457,1762419262698,7,0.32375219464302063,0.32298287749290466,0.7043467164039612,0.5429201126098633,1.7639917135238647,4.618515491485596,1.743712306022644,-0.9272342324256897,9.897994995117188,-2.238767147064209,-0.4253145456314087,0.07927115261554718,-0.1847522258758545,26.088529586791992,-12.318082809448242,21.74041748046875,-0.18114596605300903,0.07947444915771484,-0.02023005485534668,-0.7460882663726807,9.818520545959473,-2.2185370922088623
7_20251106_165457,1762419262717,7,0.3253440260887146,0.31993192434310913,0.7030365467071533,0.54546719789505,1.7630046606063843,4.624912261962891,1.7505782842636108,-0.8889286518096924,10.181694984436035,-1.6186957359313965,-0.4668533504009247,0.0047456552274525166,-0.17253494262695312,26.053789138793945,-12.283199310302734,21.780284881591797,-0.1142723560333252,0.2905397415161133,0.4798731803894043,-0.7746562957763672,9.891155242919922,-2.098568916320801
7_20251106_165457,1762419262736,7,0.3274778425693512,0.3172363340854645,0.701227605342865,0.5480868220329285,1.7613604068756104,4.631452560424805,1.7590240240097046,-1.0816534757614136,10.209227561950684,-1.1781816482543945,-0.4356992542743683,0.018184678629040718,-0.23789745569229126,26.043508529663086,-12.25820541381836,21.71274185180664,-0.2455977201461792,0.2544584274291992,0.7363098859786987,-0.8360557556152344,9.954769134521484,-1.9144915342330933
7_20251106_165457,1762419262756,7,0.329734206199646,0.314018189907074,0.6997519135475159,0.5504680871963501,1.7576355934143066,4.638956546783447,1.770651936531067,-1.4036598205566406,10.030866622924805,-1.2380340099334717,-0.38133230805397034,0.09942968189716339,-0.2672189474105835,26.079755783081055,-12.267841339111328,21.65988540649414,-0.4540832042694092,0.060878753662109375,0.5411659479141235,-0.9495766162872314,9.969987869262695,-1.7791999578475952
7_20251106_165457,1762419262776,7,0.3314879536628723,0.3102934658527374,0.698845386505127,0.5526742339134216,1.7527533769607544,4.644639015197754,1.7813085317611694,-1.7005281448364258,9.796245574951172,-1.296689510345459,-0.35445424914360046,0.14890971779823303,-0.17986531555652618,26.10614585876465,-12.228715896606445,21.675174713134766,-0.6007611751556396,-0.1389942169189453,0.3860083818435669,-1.0997669696807861,9.935239791870117,-1.6826978921890259
7_20251106_165457,1762419262795,7,0.33238330483436584,0.3069145083427429,0.6980144381523132,0.5550681352615356,1.745184302330017,4.6500701904296875,1.7944613695144653,-1.7436219453811646,9.67654037475586,-1.2823249101638794,-0.30314159393310547,0.1293620616197586,-0.021651335060596466,26.08106803894043,-12.242860794067383,21.673931121826172,-0.515083909034729,-0.20695972442626953,0.320298433303833,-1.2285380363464355,9.883500099182129,-1.6026233434677124
7_20251106_165457,1762419262813,7,0.33242183923721313,0.30477723479270935,0.6969774961471558,0.55752032995224,1.7381534576416016,4.654033184051514,1.8062727451324463,-1.5808230638504028,9.696889877319336,-1.155437707901001,-0.23777908086776733,0.11164698004722595,0.13717348873615265,26.067461013793945,-12.28038215637207,21.578033447265625,-0.28182804584503174,-0.14928817749023438,0.35774850845336914,-1.298995018005371,9.84617805480957,-1.5131862163543701
7_20251106_165457,1762419262832,7,0.3315485715866089,0.3039904832839966,0.6957743167877197,0.5599673390388489,1.7306944131851196,4.657614231109619,1.8190360069274902,-1.4479506015777588,9.702875137329102,-1.1781816482543945,-0.17424917221069336,0.0780494213104248,0.24896173179149628,26.067461013793945,-12.28038215637207,21.578033447265625,-0.11916446685791016,-0.11464214324951172,0.2680037021636963,-1.3287861347198486,9.817517280578613,-1.4461853504180908
7_20251106_165457,1762419262852,7,0.33015453815460205,0.3044033646583557,0.6944235563278198,0.562238872051239,1.723433494567871,4.661195755004883,1.832854151725769,-1.2636051177978516,9.817791938781738,-1.0991764068603516,-0.1266017109155655,0.06888645142316818,0.32593071460723877,25.977819442749023,-12.37303352355957,21.491653442382812,0.052144765853881836,0.0002193450927734375,0.2776072025299072,-1.3157498836517334,9.817572593688965,-1.3767836093902588
7_20251106_165457,1762419262870,7,0.3282385468482971,0.3055253028869629,0.693077564239502,0.5644087791442871,1.723433494567871,4.661195755004883,1.832854151725769,-1.2636051177978516,9.817791938781738,-1.0991764068603516,-0.08811723440885544,0.13730329275131226,0.3240981101989746,25.888586044311523,-12.453531265258789,21.446086883544922,0.052144765853881836,0.0002193450927734375,0.2776072025299072,-1.3157498836517334,9.817572593688965,-1.3767836093902588
7_20251106_165457,1762419262889,7,0.3257242441177368,0.30636996030807495,0.6921437978744507,0.5665493607521057,1.7136601209640503,4.667018413543701,1.8588676452636719,-0.848228931427002,9.714845657348633,-1.1733934879302979,-0.05635226517915726,0.19838976860046387,0.28011584281921387,25.761384963989258,-12.561527252197266,21.398521423339844,0.3212391138076782,-0.07896137237548828,0.10450506210327148,-1.1694680452346802,9.793807029724121,-1.2778985500335693
7_20251106_165457,1762419262908,7,0.32290440797805786,0.3067014217376709,0.6916754245758057,0.5685526728630066,1.7136601209640503,4.667018413543701,1.8588676452636719,-0.848228931427002,9.714845657348633,-1.1733934879302979,-0.09300415217876434,0.23015473783016205,0.243463933467865,25.65534019470215,-12.718700408935547,21.404945373535156,0.3212391138076782,-0.07896137237548828,0.10450506210327148,-1.1694680452346802,9.793807029724121,-1.2778985500335693
7_20251106_165457,1762419262927,7,0.32032841444015503,0.3067477345466614,0.6911304593086243,0.5706437230110168,1.7091660499572754,4.670633316040039,1.882205843925476,-0.6207895874977112,9.587959289550781,-1.3565418720245361,-0.1773034930229187,0.2063310146331787,0.20803378522396088,25.4404239654541,-12.870330810546875,21.39370346069336,0.37069010734558105,-0.13289165496826172,-0.035201072692871094,-0.9914796948432922,9.720850944519043,-1.321340799331665
7_20251106_165457,1762419262947,7,0.3182283341884613,0.3063614070415497,0.6902373433113098,0.5731019377708435,1.7086570262908936,4.671666145324707,1.8929786682128906,-0.6447305679321289,9.568805694580078,-1.305068850517273,-0.1773034930229187,0.2063310146331787,0.20803378522396088,25.26004981994629,-13.05711555480957,21.369625091552734,0.27739930152893066,-0.12163639068603516,0.013017535209655762,-0.9221298694610596,9.690442085266113,-1.3180863857269287
7_20251106_165457,1762419262967,7,0.316512793302536,0.30552342534065247,0.689329206943512,0.5755869746208191,1.7087754011154175,4.672394752502441,1.903543472290039,-0.7273269295692444,9.584367752075195,-1.5408875942230225,-0.21456623077392578,0.20938533544540405,0.11762582510709763,25.05328941345215,-13.283025741577148,21.330257415771484,0.1558423638343811,-0.08485984802246094,-0.17824101448059082,-0.8831692934036255,9.669227600097656,-1.3626465797424316
7_20251106_165457,1762419262986,7,0.31496545672416687,0.3043760657310486,0.6884916424751282,0.5780408382415771,1.7087754011154175,4.672394752502441,1.903543472290039,-0.7273269295692444,9.584367752075195,-1.5408875942230225,-0.25793761014938354,0.19044852256774902,0.11640409380197525,24.80071449279785,-13.450136184692383,21.37134552001953,0.1558423638343811,-0.08485984802246094,-0.17824101448059082,-0.8831692934036255,9.669227600097656,-1.3626465797424316
7_20251106_165457,1762419263004,7,0.3136890232563019,0.30322349071502686,0.687389612197876,0.5806463360786438,1.7095506191253662,4.672883033752441,1.913432002067566,-0.6854302883148193,9.608308792114258,-1.4068180322647095,-0.2976438105106354,0.20266582071781158,0.1035759374499321,24.61189079284668,-13.563045501708984,21.415943145751953,0.15819120407104492,-0.04873466491699219,-0.035337090492248535,-0.8436214923858643,9.65704345703125,-1.371480941772461
7_20251106_165457,1762419263023,7,0.3124801814556122,0.3017488121986389,0.6861387491226196,0.5835386514663696,1.7119736671447754,4.674981594085693,1.9298737049102783,-0.6746567487716675,9.909964561462402,-1.0632648468017578,-0.28298306465148926,0.222824364900589,0.06631318479776382,24.431432723999023,-13.738351821899414,21.500259399414062,0.10200852155685425,0.17278575897216797,0.22905194759368896,-0.7766652703285217,9.737178802490234,-1.2923167943954468
7_20251106_165457,1762419263043,7,0.31131258606910706,0.2999689280986786,0.6851008534431458,0.5862933993339539,1.7131954431533813,4.67652702331543,1.9396215677261353,-0.8326672315597534,9.818988800048828,-0.8813133835792542,-0.253661572933197,0.23443078994750977,0.057150211185216904,24.239084243774414,-13.914047241210938,21.543537139892578,-0.04480159282684326,0.06544780731201172,0.3288026452064514,-0.7878656387329102,9.753540992736816,-1.2101160287857056
7_20251106_165457,1762419263061,7,0.30999302864074707,0.2980591952800751,0.6842888593673706,0.5889089703559875,1.7140558958053589,4.677823543548584,1.9495083093643188,-0.8973079323768616,9.69090461730957,-0.9818655252456665,-0.2396116852760315,0.2527567148208618,0.11945841461420059,24.023576736450195,-14.066486358642578,21.613391876220703,-0.08755379915237427,-0.050108909606933594,0.18260037899017334,-0.8097541332244873,9.741013526916504,-1.1644659042358398
7_20251106_165457,1762419263080,7,0.3081824779510498,0.29643329977989197,0.6834257245063782,0.5916757583618164,1.7151128053665161,4.6792473793029785,1.9587823152542114,-0.6950066089630127,9.845324516296387,-1.011791706085205,-0.21639883518218994,0.2167157083749771,0.19887080788612366,23.87725257873535,-14.289098739624023,21.644058227539062,0.09179800748825073,0.08344841003417969,0.1221393346786499,-0.7868046164512634,9.761876106262207,-1.133931040763855
7_20251106_165457,1762419263100,7,0.306095153093338,0.2955904006958008,0.6823835372924805,0.5943776965141296,1.7172338962554932,4.681578159332275,1.9694583415985107,-0.5034787654876709,9.986576080322266,-1.0153828859329224,-0.21639883518218994,0.2167157083749771,0.19887080788612366,23.621152877807617,-14.518993377685547,21.683826446533203,0.22666066884994507,0.17975997924804688,0.09483850002288818,-0.730139434337616,9.806816101074219,-1.1102213859558105
7_20251106_165457,1762419263118,7,0.30403369665145874,0.29511308670043945,0.681349515914917,0.5968539118766785,1.7195663452148438,4.683836460113525,1.9780285358428955,-0.48432591557502747,9.953059196472168,-1.1602258682250977,-0.21090105175971985,0.17700950801372528,0.1805448830127716,23.429410934448242,-14.682266235351562,21.740882873535156,0.19665083289146423,0.11699485778808594,-0.04000365734100342,-0.6809767484664917,9.836064338684082,-1.1202222108840942
7_20251106_165457,1762419263137,7,0.3022286295890808,0.2944509983062744,0.6802453398704529,0.5993519425392151,1.7224053144454956,4.686609268188477,1.9865949153900146,-0.49869051575660706,10.02129077911377,-1.130299687385559,-0.21090105175971985,0.17700950801372528,0.1805448830127716,23.184186935424805,-14.936346054077148,21.76709747314453,0.1458289921283722,0.14818096160888672,-0.008062005043029785,-0.6445195078849792,9.873109817504883,-1.1222376823425293
7_20251106_165457,1762419263157,7,0.30079346895217896,0.2935279309749603,0.6787673830986023,0.6021955013275146,1.7257225513458252,4.689830303192139,1.995226502418518,-0.41848820447921753,10.087128639221191,-0.942362904548645,-0.44241878390312195,0.18739420175552368,0.1090737134218216,22.937963485717773,-15.203388214111328,21.833599090576172,0.18082505464553833,0.17121505737304688,0.1438997983932495,-0.5993132591247559,9.915913581848145,-1.0862627029418945
7_20251106_165457,1762419263176,7,0.29993927478790283,0.29195436835289,0.6767452359199524,0.6056525707244873,1.7295130491256714,4.693153381347656,2.0051798820495605,-0.4436262547969818,9.949467658996582,-0.6514798998832703,-0.4570794999599457,0.14096848666667938,0.09258037060499191,22.706941604614258,-15.419137954711914,21.874614715576172,0.12454959750175476,0.02684307098388672,0.3478262424468994,-0.5681758522987366,9.922624588012695,-0.9993061423301697
7_20251106_165457,1762419263196,7,0.299456387758255,0.29045090079307556,0.6744160652160645,0.6092020273208618,1.7334489822387695,4.696534156799316,2.016468048095703,-0.4579908549785614,9.9961519241333,-0.3965083360671997,-0.43203404545783997,0.07560595870018005,0.13167570531368256,22.486879348754883,-15.670551300048828,21.793682098388672,0.08814802765846252,0.058821678161621094,0.482238233089447,-0.5461388826370239,9.93733024597168,-0.8787465691566467
7_20251106_165457,1762419263215,7,0.29910463094711304,0.2893139719963074,0.6718166470527649,0.6127774715423584,1.7374762296676636,4.699831962585449,2.0285797119140625,-0.3730003237724304,10.027276039123535,-0.1774483174085617,-0.39171698689460754,0.10737092792987823,0.14633643627166748,22.267324447631836,-15.909677505493164,21.74004364013672,0.1385108232498169,0.07195663452148438,0.561038613319397,-0.5115111470222473,9.95531940460205,-0.7384869456291199
7_20251106_165457,1762419263234,7,0.29846620559692383,0.2880476117134094,0.669327437877655,0.6163985729217529,1.7420072555541992,4.703017711639404,2.041717052459717,-0.2544924318790436,9.974605560302734,-0.14393094182014465,-0.3159697353839874,0.15746183693408966,0.15183423459529877,22.0606632232666,-16.135452270507812,21.68716049194336,0.20561498403549194,0.015428543090820312,0.4756447970867157,-0.4601074159145355,9.959177017211914,-0.6195757389068604
7_20251106_165457,1762419263253,7,0.2971816658973694,0.2866207957267761,0.6672565340995789,0.6199195981025696,1.7470005750656128,4.7057976722717285,2.054802894592285,-0.20900456607341766,9.86926555633545,-0.3989024758338928,-0.25793763995170593,0.1965571790933609,0.1707710325717926,21.890756607055664,-16.35857391357422,21.608715057373047,0.20088230073451996,-0.0719289779663086,0.1765386462211609,-0.4098868668079376,9.941194534301758,-0.5754411220550537
7_20251106_165457,1762419263272,7,0.29541248083114624,0.28557443618774414,0.665850043296814,0.622753918170929,1.7523971796035767,4.70827054977417,2.067249059677124,-0.17189602553844452,9.88003921508789,-0.5700805187225342,-0.2713766396045685,0.17884209752082825,0.18726438283920288,21.890756607055664,-16.35857391357422,21.608715057373047,0.19039268791675568,-0.04892444610595703,0.00428849458694458,-0.3622887134552002,9.928963661193848,-0.5743690133094788
7_20251106_165457,1762419263291,7,0.2936064600944519,0.2848615050315857,0.6642017364501953,0.625687837600708,1.757734775543213,4.7103376388549805,2.078652858734131,-0.16710783541202545,9.864477157592773,-0.4922723174095154,-0.3214675486087799,0.1763986498117447,0.16405153274536133,21.683290481567383,-16.5970401763916,21.56908416748047,0.15614472329616547,-0.051589012145996094,0.06567734479904175,-0.3232525587081909,9.91606616973877,-0.5579496622085571
7_20251106_165457,1762419263310,7,0.2920617163181305,0.284078985452652,0.662502646446228,0.6285613179206848,1.757734775543213,4.7103376388549805,2.078652858734131,-0.16710783541202545,9.864477157592773,-0.4922723174095154,-0.34590214490890503,0.18983766436576843,0.13106483221054077,21.53826332092285,-16.806285858154297,21.518917083740234,0.15614472329616547,-0.051589012145996094,0.06567734479904175,-0.3232525587081909,9.91606616973877,-0.5579496622085571
7_20251106_165457,1762419263328,7,0.29071304202079773,0.28288158774375916,0.6607734560966492,0.6315397024154663,1.7690008878707886,4.713473320007324,2.103710651397705,-0.2293543964624405,9.711254119873047,-0.17864535748958588,-0.3410152196884155,0.24053943157196045,0.12373446673154831,21.416196823120117,-17.039058685302734,21.46920394897461,0.05779649317264557,-0.15023231506347656,0.24907518923282623,-0.28715088963508606,9.861486434936523,-0.4277205467224121
7_20251106_165457,1762419263348,7,0.28935080766677856,0.28125423192977905,0.6589880585670471,0.6347494721412659,1.7747797966003418,4.713737487792969,2.116816282272339,-0.21977801620960236,9.532894134521484,-0.26363587379455566,-0.3526216447353363,0.23870684206485748,0.1805448830127716,21.2477970123291,-17.23693084716797,21.37777328491211,0.05389828979969025,-0.26287364959716797,0.1312677264213562,-0.2736763060092926,9.795767784118652,-0.39490360021591187
7_20251106_165457,1762419263368,7,0.28748413920402527,0.279668927192688,0.6571232676506042,0.6382218599319458,1.7747797966003418,4.713737487792969,2.116816282272339,-0.21977801620960236,9.532894134521484,-0.26363587379455566,-0.37705621123313904,0.21427226066589355,0.25507038831710815,21.055646896362305,-17.412357330322266,21.39401626586914,0.05389828979969025,-0.26287364959716797,0.1312677264213562,-0.2736763060092926,9.795767784118652,-0.39490360021591187
7_20251106_165457,1762419263387,7,0.2853827178478241,0.2787008583545685,0.6549985408782959,0.6417627334594727,1.7813186645507812,4.71352481842041,2.130979061126709,-0.04261469095945358,9.653796195983887,-0.06971386820077896,-0.3513999283313751,0.20449841022491455,0.2746180593967438,20.82179069519043,-17.68994903564453,21.339096069335938,0.18484929203987122,-0.11357688903808594,0.26015180349349976,-0.2274639904499054,9.767373085021973,-0.3298656642436981
7_20251106_165457,1762419263406,7,0.28306761384010315,0.2780572474002838,0.6527320146560669,0.6453664302825928,1.7943545579910278,4.712414264678955,2.1566672325134277,0.047164008021354675,9.6346435546875,0.006897285580635071,-0.33001965284347534,0.21977004408836365,0.25995728373527527,20.61201286315918,-17.96635627746582,21.325706481933594,0.16465330123901367,-0.09126758575439453,0.21284689009189606,-0.1174893006682396,9.725911140441895,-0.205949604511261
7_20251106_165457,1762419263425,7,0.2806120216846466,0.27741825580596924,0.6505616903305054,0.6488955616950989,1.8014194965362549,4.711788654327393,2.170351028442383,0.10701647400856018,9.743574142456055,0.21518388390541077,-0.40271255373954773,0.25520020723342896,0.24529653787612915,20.380891799926758,-18.182239532470703,21.380237579345703,0.17960461974143982,0.014130592346191406,0.3369067907333374,-0.07258814573287964,9.729443550109863,-0.12172290682792664
7_20251106_165457,1762419263444,7,0.2783321142196655,0.27606791257858276,0.6481921076774597,0.6528129577636719,1.8089721202850342,4.711991786956787,2.1850039958953857,0.233903706073761,10.02009391784668,0.48092883825302124,-0.40271255373954773,0.25520020723342896,0.24529653787612915,20.098081588745117,-18.474891662597656,21.255512237548828,0.2451934814453125,0.23252010345458984,0.48212140798568726,-0.011289779096841812,9.78757381439209,-0.0011925697326660156
7_20251106_165457,1762419263463,7,0.27642887830734253,0.27418646216392517,0.645409107208252,0.6571574807167053,1.816051959991455,4.712768077850342,2.1993463039398193,0.10342532396316528,10.028472900390625,0.4677613079547882,-0.4833466708660126,0.25153499841690063,0.2068120539188385,19.874906539916992,-18.77693748474121,21.214069366455078,0.09177208691835403,0.1927194595336914,0.37516310811042786,0.011653239838778973,9.835753440856934,0.09259819984436035
7_20251106_165457,1762419263482,7,0.2750740349292755,0.2722262442111969,0.6427581906318665,0.6611270904541016,1.8231127262115479,4.713827610015869,2.2162954807281494,-0.12401406466960907,9.914752960205078,0.6880183815956116,-0.4442513585090637,0.2484806776046753,0.09013690799474716,19.642351150512695,-19.041162490844727,21.07831573486328,-0.1085338443517685,0.06319999694824219,0.47633615136146545,-0.015480219386518002,9.851552963256836,0.21168223023414612
7_20251106_165457,1762419263501,7,0.27385979890823364,0.26976853609085083,0.6404519081115723,0.6648662090301514,1.8284286260604858,4.714034080505371,2.233283281326294,-0.40053248405456543,9.57838249206543,0.8280732035636902,-0.46440988779067993,0.31811922788619995,0.07303269952535629,19.41705894470215,-19.38088035583496,21.036083221435547,-0.3080418109893799,-0.218536376953125,0.49311280250549316,-0.09249066561460495,9.796918869018555,0.334960401058197
7_20251106_165457,1762419263520,7,0.2724548876285553,0.26669272780418396,0.6382034420967102,0.6688345670700073,1.8321934938430786,4.713381290435791,2.2511227130889893,-0.5609370470046997,9.487406730651855,0.9549603462219238,-0.5010617971420288,0.35782545804977417,0.14389298856258392,19.106157302856445,-19.738174438476562,20.93608856201172,-0.3747571110725403,-0.24761009216308594,0.4959999620914459,-0.18617993593215942,9.735016822814941,0.4589603841304779
7_20251106_165457,1762419263538,7,0.2703593373298645,0.26351767778396606,0.6356807351112366,0.6733307242393494,1.8321934938430786,4.713381290435791,2.2511227130889893,-0.5609370470046997,9.487406730651855,0.9549603462219238,-0.5303833484649658,0.35477113723754883,0.253237783908844,18.860511779785156,-20.016021728515625,20.826614379882812,-0.3747571110725403,-0.24761009216308594,0.4959999620914459,-0.18617993593215942,9.735016822814941,0.4589603841304779
7_20251106_165457,1762419263558,7,0.2676316499710083,0.2608710527420044,0.6326814889907837,0.6782578229904175,1.8376998901367188,4.7105889320373535,2.2903401851654053,-0.2856157124042511,9.558032989501953,1.3643512725830078,-0.5016726851463318,0.35843631625175476,0.34242403507232666,18.554147720336914,-20.28595733642578,20.78253173828125,-0.04123014211654663,-0.10599136352539062,0.6031997203826904,-0.24438557028770447,9.664024353027344,0.7611515522003174
7_20251106_165457,1762419263577,7,0.26426076889038086,0.2588519752025604,0.6295725107192993,0.6832278966903687,1.840667486190796,4.709156513214111,2.311673402786255,-0.06535863876342773,9.67654037475586,1.5642584562301636,-0.4747945964336395,0.43112921714782715,0.3656368851661682,18.318870544433594,-20.60027503967285,20.632205963134766,0.14322155714035034,0.010012626647949219,0.6424855589866638,-0.20858019590377808,9.66652774810791,0.9217728972434998
7_20251106_165457,1762419263596,7,0.26013320684432983,0.25649869441986084,0.6267456412315369,0.6882797479629517,1.840667486190796,4.709156513214111,2.311673402786255,-0.06535863876342773,9.67654037475586,1.5642584562301636,-0.46807506680488586,0.489772230386734,0.3619717061519623,18.056922912597656,-20.942508697509766,20.60201644897461,0.14322155714035034,0.010012626647949219,0.6424855589866638,-0.20858019590377808,9.66652774810791,0.9217728972434998
7_20251106_165457,1762419263616,7,0.25570523738861084,0.2538406550884247,0.6240231990814209,0.693379282951355,1.8484424352645874,4.705413341522217,2.358182668685913,0.05434630066156387,9.443115234375,1.6947368383407593,-0.47968152165412903,0.5087090134620667,0.38335198163986206,17.746824264526367,-21.287113189697266,20.48876953125,0.16731533408164978,-0.1663503646850586,0.5021663904190063,-0.11296902596950531,9.609465599060059,1.192570447921753
7_20251106_165457,1762419263636,7,0.2509918212890625,0.2511325478553772,0.6211865544319153,0.6986149549484253,1.8529808521270752,4.703037738800049,2.380493402481079,0.1596866399049759,9.462268829345703,1.3715336322784424,-0.5047270059585571,0.5435283184051514,0.45115795731544495,17.348913192749023,-21.675487518310547,20.42536163330078,0.21812453866004944,-0.11775779724121094,0.14317059516906738,-0.05843789502978325,9.580026626586914,1.228363037109375
7_20251106_165457,1762419263656,7,0.24570146203041077,0.24854309856891632,0.6180596351623535,0.7041728496551514,1.8597129583358765,4.701448440551758,2.4044957160949707,0.5283778309822083,9.850112915039062,1.400262713432312,-0.5352702736854553,0.48305273056030273,0.5293486714363098,16.890169143676758,-22.067697525024414,20.345985412597656,0.4694525897502899,0.21606922149658203,0.1375197172164917,0.05892524495720863,9.63404369354248,1.2627429962158203
7_20251106_165457,1762419263674,7,0.2402789443731308,0.24678243696689606,0.6144228577613831,0.7098232507705688,1.8672734498977661,4.70140266418457,2.424682855606079,0.9030542969703674,10.140995025634766,1.5235588550567627,-0.5816959738731384,0.5038221478462219,0.501859724521637,16.890169143676758,-22.067697525024414,20.345985412597656,0.6753032207489014,0.4055614471435547,0.20865273475646973,0.22775104641914368,9.735433578491211,1.314906120300293
7_20251106_165457,1762419263691,7,0.234876811504364,0.24458448588848114,0.6105685234069824,0.7156936526298523,1.876010775566101,4.702636241912842,2.4431850910186768,1.1173261404037476,10.315764427185059,1.4924355745315552,-0.6580540537834167,0.5099307894706726,0.4077865481376648,16.46868896484375,-22.444969177246094,20.26834487915039,0.7116600871086121,0.4642648696899414,0.14202356338500977,0.4056660532951355,9.851499557495117,1.3504120111465454
7_20251106_165457,1762419263711,7,0.2302483469247818,0.2417173683643341,0.60634446144104,0.7217373251914978,1.876010775566101,4.702636241912842,2.4431850910186768,1.1173261404037476,10.315764427185059,1.4924355745315552,-0.7435751557350159,0.46106159687042236,0.3143242597579956,16.066646575927734,-22.908550262451172,20.189838409423828,0.7116600871086121,0.4642648696899414,0.14202356338500977,0.4056660532951355,9.851499557495117,1.3504120111465454
7_20251106_165457,1762419263730,7,0.22680136561393738,0.2385808378458023,0.6015776991844177,0.7278355956077576,1.901071548461914,4.710782051086426,2.487030029296875,1.2094990015029907,10.601859092712402,2.1567978858947754,-0.7307469844818115,0.45128774642944336,0.23124665021896362,15.652912139892578,-23.372251510620117,20.043258666992188,0.5148361921310425,0.49516963958740234,0.5745029449462891,0.6946628093719482,10.106689453125,1.5822949409484863
7_20251106_165457,1762419263749,7,0.22389356791973114,0.23501095175743103,0.5970134139060974,0.7336324453353882,1.914481282234192,4.7167510986328125,2.5095303058624268,1.1520406007766724,10.638967514038086,2.2346062660217285,-0.6953168511390686,0.458007276058197,0.16710585355758667,15.140081405639648,-23.867691040039062,19.919261932373047,0.3659021854400635,0.42582225799560547,0.5218490362167358,0.7861384153366089,10.21314525604248,1.7127572298049927
7_20251106_165457,1762419263769,7,0.22123828530311584,0.23101483285427094,0.5928011536598206,0.7391025424003601,1.92857027053833,4.723821640014648,2.534410238265991,1.0095916986465454,10.57552433013916,2.49556303024292,-0.6947059035301208,0.429296612739563,0.12801051139831543,14.703174591064453,-24.31974983215332,19.704383850097656,0.17876267433166504,0.2899036407470703,0.6262446641921997,0.8308290243148804,10.28562068939209,1.8693183660507202
7_20251106_165457,1762419263787,7,0.21941451728343964,0.22730547189712524,0.5884729623794556,0.7442372441291809,1.9406527280807495,4.730533599853516,2.5573484897613525,0.8455959558486938,10.556371688842773,2.5458390712738037,-0.6537780165672302,0.4219662547111511,0.12556706368923187,14.180656433105469,-24.789386749267578,19.431743621826172,0.011813521385192871,0.2166004180908203,0.5412166118621826,0.833782434463501,10.339771270751953,2.004622459411621
7_20251106_165457,1762419263807,7,0.21722924709320068,0.2233992964029312,0.5844812393188477,0.7491901516914368,1.9533113241195679,4.7384514808654785,2.5833699703216553,0.8025021553039551,10.61383056640625,2.5997064113616943,-0.5871937870979309,0.40608376264572144,0.17871227860450745,13.733072280883789,-25.216991424560547,19.203388214111328,-0.025024235248565674,0.21924781799316406,0.47606706619262695,0.8275263905525208,10.394582748413086,2.1236393451690674
7_20251106_165457,1762419263826,7,0.21456587314605713,0.2199639528989792,0.5808278322219849,0.7538012862205505,1.964936375617981,4.746251583099365,2.607628583908081,0.9006602168083191,10.63298225402832,2.4057843685150146,-0.5871937870979309,0.40608376264572144,0.17871227860450745,13.397361755371094,-25.611255645751953,18.871845245361328,0.05850708484649658,0.1907196044921875,0.22571587562561035,0.8421531319618225,10.442262649536133,2.1800684928894043
7_20251106_165457,1762419263845,7,0.21140055358409882,0.21699640154838562,0.5775461792945862,0.7580651640892029,1.964936375617981,4.746251583099365,2.607628583908081,0.9006602168083191,10.63298225402832,2.4057843685150146,-0.48884448409080505,0.37981659173965454,0.27767235040664673,13.046758651733398,-26.04479217529297,18.6201171875,0.05850708484649658,0.1907196044921875,0.22571587562561035,0.8421531319618225,10.442262649536133,2.1800684928894043
7_20251106_165457,1762419263864,7,0.20798508822917938,0.21455729007720947,0.5743385553359985,0.7621303200721741,1.9777038097381592,4.754759788513184,2.634021043777466,1.0095916986465454,10.53721809387207,2.4548633098602295,-0.49006620049476624,0.38042744994163513,0.3082156181335449,12.651948928833008,-26.394147872924805,18.422340393066406,0.1339508295059204,0.07596397399902344,0.21983599662780762,0.875640869140625,10.461254119873047,2.235027313232422
7_20251106_165457,1762419263883,7,0.20425018668174744,0.21223551034927368,0.571056067943573,0.7662460207939148,1.9895707368850708,4.7623372077941895,2.6574044227600098,1.2011195421218872,10.55756950378418,2.4895777702331543,-0.45952296257019043,0.346219003200531,0.29660916328430176,12.33285140991211,-26.712005615234375,18.065837860107422,0.2603829503059387,0.07705211639404297,0.20364022254943848,0.9407365918159485,10.480517387390137,2.285937547683716
7_20251106_165457,1762419263902,7,0.20069894194602966,0.21019557118415833,0.5679305791854858,0.7700601816177368,2.0141332149505615,4.776288986206055,2.701690196990967,1.5937517881393433,10.525247573852539,2.9133334159851074,-0.4185950458049774,0.3352234661579132,0.2569029629230499,12.040042877197266,-26.99087142944336,17.738140106201172,0.4434030055999756,0.015604019165039062,0.4386897087097168,1.1503487825393677,10.5096435546875,2.4746437072753906
7_20251106_165457,1762419263921,7,0.1975623518228531,0.2082580029964447,0.5650674104690552,0.7734963297843933,2.0280609130859375,4.782958984375,2.72542667388916,1.5973429679870605,10.447440147399902,2.9875502586364746,-0.39660391211509705,0.35416024923324585,0.2068120539188385,11.748855590820312,-27.23274040222168,17.478816986083984,0.3575953245162964,-0.049762725830078125,0.410325288772583,1.2397476434707642,10.49720287322998,2.5772249698638916
7_20251106_165457,1762419263940,7,0.19458524882793427,0.20593227446079254,0.5624567270278931,0.7767695188522339,2.042224168777466,4.789283752441406,2.749138355255127,1.5793871879577637,10.492928504943848,3.000717878341675,-0.39660391211509705,0.35416024923324585,0.2068120539188385,11.528583526611328,-27.496036529541016,17.330036163330078,0.27171170711517334,-0.0034189224243164062,0.338794469833374,1.3076754808425903,10.496347427368164,2.661923408508301
7_20251106_165457,1762419263960,7,0.19203947484493256,0.20340420305728912,0.56007319688797,0.7797855734825134,2.042224168777466,4.789283752441406,2.749138355255127,1.5793871879577637,10.492928504943848,3.000717878341675,-0.35017818212509155,0.33949950337409973,0.0986890122294426,11.294208526611328,-27.797529220581055,17.152942657470703,0.27171170711517334,-0.0034189224243164062,0.338794469833374,1.3076754808425903,10.496347427368164,2.661923408508301
7_20251106_165457,1762419263978,7,0.1898285150527954,0.2006753832101822,0.5579793453216553,0.7825302481651306,2.0700843334198,4.799944877624512,2.7956607341766357,1.4668645858764648,10.204439163208008,3.074934959411621,-0.3330739736557007,0.3138431906700134,0.09196949750185013,11.03847885131836,-28.050113677978516,16.948890686035156,0.09230458736419678,-0.22053050994873047,0.28462958335876465,1.374559998512268,10.424969673156738,2.7903053760528564
7_20251106_165457,1762419263998,7,0.18775580823421478,0.19811886548995972,0.5559920072555542,0.7850920557975769,2.0840468406677246,4.80360221862793,2.819368600845337,1.4620764255523682,10.050020217895508,2.9911413192749023,-0.2707657814025879,0.28696513175964355,0.12129100412130356,10.788585662841797,-28.201969146728516,16.71991729736328,0.07001316547393799,-0.2999601364135742,0.16066884994506836,1.3920632600784302,10.349980354309082,2.830472469329834
7_20251106_165457,1762419264017,7,0.18552270531654358,0.1960318684577942,0.5543293952941895,0.7873193025588989,2.0969715118408203,4.805962085723877,2.8409464359283447,1.509958267211914,10.006926536560059,2.8965744972229004,-0.21029017865657806,0.24542635679244995,0.13350829482078552,10.56085205078125,-28.390043258666992,16.504650115966797,0.09431600570678711,-0.2744436264038086,0.052881479263305664,1.415642261505127,10.281370162963867,2.8436930179595947
7_20251106_165457,1762419264036,7,0.18324190378189087,0.19439302384853363,0.5530455708503723,0.7891604900360107,2.0969715118408203,4.805962085723877,2.8409464359283447,1.509958267211914,10.006926536560059,2.8965744972229004,-0.21029017865657806,0.24542635679244995,0.13350829482078552,10.282779693603516,-28.59506607055664,16.408802032470703,0.09431600570678711,-0.2744436264038086,0.052881479263305664,1.415642261505127,10.281370162963867,2.8436930179595947
7_20251106_165457,1762419264056,7,0.18105830252170563,0.19275234639644623,0.5517368912696838,0.7909809350967407,2.110328435897827,4.807247161865234,2.8625357151031494,1.557840347290039,9.927921295166016,2.8474955558776855,-0.23044870793819427,0.2216026335954666,0.10968457907438278,10.065933227539062,-28.795711517333984,16.274860382080078,0.11375844478607178,-0.2827596664428711,0.003041982650756836,1.4440819025039673,10.210680961608887,2.8444535732269287
7_20251106_165457,1762419264075,7,0.17910949885845184,0.19117075204849243,0.550317645072937,0.7927950620651245,2.1341209411621094,4.8079304695129395,2.9009203910827637,1.4704557657241821,9.999744415283203,3.124013900756836,-0.22739440202713013,0.22954386472702026,0.06875663995742798,9.824728012084961,-28.986331939697266,16.234813690185547,-0.0041887760162353516,-0.13519001007080078,0.20151877403259277,1.4746445417404175,10.134934425354004,2.922495126724243
7_20251106_165457,1762419264097,7,0.17746160924434662,0.18935146927833557,0.5489800572395325,0.7945277094841003,2.146240234375,4.80726957321167,2.9219346046447754,1.3711005449295044,9.902782440185547,3.0809202194213867,-0.23167043924331665,0.24909153580665588,0.057150211185216904,9.662969589233398,-29.07078742980957,16.105209350585938,-0.08283519744873047,-0.18572139739990234,0.1267399787902832,1.4539357423782349,10.08850383758545,2.9541802406311035
7_20251106_165457,1762419264114,7,0.17572210729122162,0.1872127801179886,0.5476730465888977,0.7963211536407471,2.1564791202545166,4.805866718292236,2.9406731128692627,1.3890564441680908,9.78427505493164,3.200624942779541,-0.20112720131874084,0.2277112752199173,0.10052160918712616,9.662969589233398,-29.07078742980957,16.105209350585938,-0.051903486251831055,-0.24338340759277344,0.19715571403503418,1.4409599304199219,10.027658462524414,3.003469228744507
7_20251106_165457,1762419264131,7,0.1738298088312149,0.18557530641555786,0.5464680790901184,0.7979458570480347,2.1653547286987305,4.804147720336914,2.956770896911621,1.519534707069397,9.78786563873291,3.0809202194213867,-0.1259908378124237,0.17945295572280884,0.16649499535560608,9.486909866333008,-29.193706512451172,15.974323272705078,0.06285977363586426,-0.1918344497680664,0.061960697174072266,1.4566749334335327,9.979700088500977,3.0189595222473145
7_20251106_165457,1762419264150,7,0.17150521278381348,0.18473485112190247,0.5456201434135437,0.7992231249809265,2.175279378890991,4.8019208908081055,2.9739575386047363,1.6392396688461304,9.833353996276855,3.0533881187438965,-0.09850193560123444,0.1299729198217392,0.1915404498577118,9.27591323852539,-29.282012939453125,15.910335540771484,0.14605176448822021,-0.11707687377929688,0.027543067932128906,1.4931879043579102,9.950430870056152,3.0258450508117676
7_20251106_165457,1762419264169,7,0.16916176676750183,0.18446438014507294,0.5448774099349976,0.8002910614013672,2.185368061065674,4.799674987792969,2.9910271167755127,1.7338064908981323,9.902782440185547,3.296389102935791,-0.14859284460544586,0.11103612184524536,0.14328213036060333,9.158670425415039,-29.43863296508789,15.781108856201172,0.19249475002288818,-0.03811836242675781,0.21643543243408203,1.5413117408752441,9.940900802612305,3.079953670501709
7_20251106_165457,1762419264189,7,0.16746890544891357,0.184104785323143,0.5437856912612915,0.8014715909957886,2.1957907676696777,4.797276496887207,3.009551525115967,1.6512101888656616,9.890811920166016,3.5585427284240723,-0.17424915730953217,0.139746755361557,0.041878592222929,9.043146133422852,-29.558122634887695,15.706737518310547,0.08791875839233398,-0.04007148742675781,0.382871150970459,1.5632914304733276,9.930883407592773,3.1756715774536133
7_20251106_165457,1762419264208,7,0.16675662994384766,0.18421681225299835,0.5426977872848511,0.802331268787384,2.2047388553619385,4.794476509094238,3.027008295059204,1.3962386846542358,9.699284553527832,3.4448232650756836,-0.16569705307483673,0.16906826198101044,-0.044864196330308914,8.917043685913086,-29.65302085876465,15.60537338256836,-0.13364219665527344,-0.18527889251708984,0.21532130241394043,1.5298808813095093,9.884563446044922,3.229501962661743
7_20251106_165457,1762419264226,7,0.16615356504917145,0.18311767280101776,0.5417296886444092,0.8033615946769714,2.2047388553619385,4.794476509094238,3.027008295059204,1.3962386846542358,9.699284553527832,3.4448232650756836,-0.1571449488401413,0.1452445387840271,-0.04303160682320595,8.778556823730469,-29.74898338317871,15.530548095703125,-0.13364219665527344,-0.18527889251708984,0.21532130241394043,1.5298808813095093,9.884563446044922,3.229501962661743
7_20251106_165457,1762419264246,7,0.16568312048912048,0.18184490501880646,0.5409979820251465,0.8042404651641846,2.218402147293091,4.786382675170898,3.061387062072754,1.1292966604232788,9.463464736938477,3.5585427284240723,-0.11743874102830887,0.12386427819728851,0.016833139583468437,8.702398300170898,-29.82747459411621,15.363826751708984,-0.2600128650665283,-0.2785053253173828,0.22533345222473145,1.3893095254898071,9.74197006225586,3.333209276199341
7_20251106_165457,1762419264267,7,0.1646399199962616,0.18053574860095978,0.540518045425415,0.8050718903541565,2.2243807315826416,4.780951023101807,3.08032488822937,1.2310458421707153,9.510150909423828,3.612410068511963,-0.08872810006141663,0.09454277157783508,0.07242182642221451,7.154321670532227,-30.147708892822266,14.43638801574707,-0.12661099433898926,-0.185455322265625,0.22336053848266602,1.3576568365097046,9.695606231689453,3.389049530029297
7_20251106_165457,1762419264285,7,0.16330182552337646,0.17971092462539673,0.5400081276893616,0.805870771408081,2.228872537612915,4.77603006362915,3.0962014198303223,1.204710841178894,9.493391036987305,3.5741045475006104,-0.08567377179861069,0.05728002265095711,0.053485024720430374,7.067497253417969,-30.19013214111328,14.351064682006836,-0.12235677242279053,-0.1617717742919922,0.14804410934448242,1.3270676136016846,9.655162811279297,3.426060438156128
7_20251106_165457,1762419264304,7,0.16226033866405487,0.1792210042476654,0.5394297242164612,0.8065773248672485,2.2323343753814697,4.770476341247559,3.111513137817383,1.000015377998352,9.298273086547852,3.51904034614563,-0.08689550310373306,0.0676647275686264,-0.003936260938644409,7.0121002197265625,-30.318340301513672,14.292398452758789,-0.2616417407989502,-0.28551197052001953,0.07438397407531738,1.2616571187973022,9.583785057067871,3.4446563720703125
7_20251106_165457,1762419264322,7,0.16164757311344147,0.17836374044418335,0.5390188097953796,0.8071649074554443,2.2346346378326416,4.763615131378174,3.126641035079956,0.8348224759101868,9.112730026245117,3.362226724624634,-0.08017599582672119,0.11286871135234833,0.008281033486127853,6.96052360534668,-30.383359909057617,14.194501876831055,-0.34146779775619507,-0.3768434524536133,-0.06594371795654297,1.1762902736663818,9.48957347869873,3.4281704425811768
7_20251106_165457,1762419264342,7,0.16066241264343262,0.17686887085437775,0.538811445236206,0.8078287243843079,2.2346346378326416,4.763615131378174,3.126641035079956,0.8348224759101868,9.112730026245117,3.362226724624634,-0.08017599582672119,0.11286871135234833,0.008281033486127853,6.873291015625,-30.43793487548828,14.068365097045898,-0.34146779775619507,-0.3768434524536133,-0.06594371795654297,1.1762902736663818,9.48957347869873,3.4281704425811768
7_20251106_165457,1762419264360,7,0.15896935760974884,0.17556977272033691,0.5387646555900574,0.8084779381752014,2.2371985912323,4.748139381408691,3.152728319168091,1.1783756017684937,9.281515121459961,3.249704122543335,-0.0948367491364479,0.1037057414650917,0.1817665994167328,6.78697395324707,-30.468069076538086,14.010339736938477,0.048833489418029785,-0.1030874252319336,-0.0960230827331543,1.1295421123504639,9.384602546691895,3.3457272052764893
7_20251106_165457,1762419264379,7,0.15684635937213898,0.17505399882793427,0.5385646224021912,0.8091375231742859,2.239283323287964,4.741081237792969,3.164517879486084,1.4297560453414917,9.473042488098145,3.3167388439178467,-0.12843430042266846,0.09454277157783508,0.17504708468914032,6.760276794433594,-30.51921272277832,13.94072151184082,0.24017107486724854,0.07075214385986328,-0.023190736770629883,1.1895849704742432,9.402290344238281,3.3399295806884766
7_20251106_165457,1762419264399,7,0.15482036769390106,0.17496582865715027,0.5379409790039062,0.809961199760437,2.242175579071045,4.7349934577941895,3.1758220195770264,1.5219287872314453,9.627461433410645,3.3777883052825928,-0.14004072546958923,0.07194077223539352,0.10113247483968735,6.659757614135742,-30.587678909301758,13.867898941040039,0.26587510108947754,0.18013668060302734,0.03028702735900879,1.2560536861419678,9.447324752807617,3.347501277923584
7_20251106_165457,1762419264417,7,0.15359613299369812,0.1751401722431183,0.5372076630592346,0.8106429576873779,2.242175579071045,4.7349934577941895,3.1758220195770264,1.5219287872314453,9.627461433410645,3.3777883052825928,-0.16508617997169495,0.05666915699839592,0.00950276292860508,6.606573104858398,-30.678081512451172,13.796506881713867,0.26587510108947754,0.18013668060302734,0.03028702735900879,1.2560536861419678,9.447324752807617,3.347501277923584
7_20251106_165457,1762419264437,7,0.1531686633825302,0.1750406175851822,0.5364061594009399,0.8112758994102478,2.248614549636841,4.725402355194092,3.199350118637085,1.2717455625534058,9.67654037475586,3.718947410583496,-0.182190403342247,0.062166936695575714,-0.0558597631752491,6.49427604675293,-30.735187530517578,13.764005661010742,-0.012940645217895508,0.14210128784179688,0.2662632465362549,1.2846862077713013,9.534439086914062,3.452684164047241
7_20251106_165457,1762419264456,7,0.15325221419334412,0.1742701381444931,0.5355242490768433,0.812008261680603,2.250988721847534,4.721385478973389,3.2112739086151123,1.101764440536499,9.555638313293457,3.7740116119384766,-0.15531235933303833,0.0627778023481369,-0.06990964710712433,6.359920501708984,-30.755943298339844,13.704282760620117,-0.1463373899459839,0.016959190368652344,0.2570619583129883,1.248101830482483,9.538679122924805,3.5169496536254883
7_20251106_165457,1762419264475,7,0.1532621681690216,0.17304271459579468,0.5347781777381897,0.8127602338790894,2.252622604370117,4.717228412628174,3.2230701446533203,1.0215622186660767,9.414386749267578,3.687824249267578,-0.10827577114105225,0.03467802703380585,-0.02348393201828003,6.286197662353516,-30.773130416870117,13.687559127807617,-0.18123161792755127,-0.09943389892578125,0.13669967651367188,1.202793836593628,9.51382064819336,3.5511245727539062
7_20251106_165457,1762419264496,7,0.15289288759231567,0.1719561666250229,0.5342777967453003,0.813389241695404,2.252622604370117,4.717228412628174,3.2230701446533203,1.0215622186660767,9.414386749267578,3.687824249267578,-0.10827577114105225,0.03467802703380585,-0.02348393201828003,6.286197662353516,-30.773130416870117,13.687559127807617,-0.18123161792755127,-0.09943389892578125,0.13669967651367188,1.202793836593628,9.51382064819336,3.5511245727539062
7_20251106_165457,1762419264517,7,0.15244683623313904,0.17146985232830048,0.5338205695152283,0.813875675201416,2.2547600269317627,4.708704471588135,3.249298334121704,1.1101438999176025,9.57957935333252,3.795558452606201,-0.0954476073384285,0.009632573463022709,0.020498327910900116,6.233705520629883,-30.862590789794922,13.521554946899414,-0.05029416084289551,0.05779075622558594,0.16218352317810059,1.160438060760498,9.521788597106934,3.6333749294281006
7_20251106_165457,1762419264533,7,0.1519423872232437,0.17082329094409943,0.5333303809165955,0.8144271969795227,2.255176305770874,4.705906867980957,3.259014129638672,1.0275473594665527,9.58077621459961,3.750070571899414,-0.10827577114105225,0.02734765037894249,-0.027759984135627747,6.233705520629883,-30.862590789794922,13.521554946899414,-0.10631251335144043,0.04718971252441406,0.09335660934448242,1.1338598728179932,9.533586502075195,3.6567139625549316
7_20251106_165457,1762419264552,7,0.1518436074256897,0.16995751857757568,0.5328212976455688,0.8149597644805908,2.2547597885131836,4.702613830566406,3.2704477310180664,0.810881495475769,9.483816146850586,3.829075813293457,-0.11804960668087006,0.07377336919307709,-0.054027169942855835,6.124425888061523,-30.869199752807617,13.463075637817383,-0.2583826780319214,-0.03981590270996094,0.13788938522338867,1.0692641735076904,9.523632049560547,3.6911864280700684
7_20251106_165457,1762419264571,7,0.15162314474582672,0.16842316091060638,0.5324814319610596,0.8155412673950195,2.2535665035247803,4.699156284332275,3.281527042388916,0.7785611748695374,9.40361213684082,3.770420551300049,-0.11010836809873581,0.1140904426574707,-0.00882317777723074,6.135808944702148,-30.88109588623047,13.476816177368164,-0.2325623631477356,-0.09601593017578125,0.06338715553283691,1.011123538017273,9.499628067016602,3.707033395767212
7_20251106_165457,1762419264590,7,0.1508629024028778,0.1664271503686905,0.5321640968322754,0.81629878282547,2.2535665035247803,4.699156284332275,3.281527042388916,0.7785611748695374,9.40361213684082,3.770420551300049,-0.0539088100194931,0.09209930896759033,0.09135863929986954,6.123016357421875,-30.89431381225586,13.462545394897461,-0.2325623631477356,-0.09601593017578125,0.06338715553283691,1.011123538017273,9.499628067016602,3.707033395767212
7_20251106_165457,1762419264609,7,0.14936521649360657,0.16518545150756836,0.5321405529975891,0.8168416023254395,2.252079725265503,4.694943428039551,3.2936012744903564,0.94135981798172,9.325804710388184,3.8386526107788086,0.007788525894284248,0.06338866800069809,0.15794289112091064,6.132877349853516,-30.943073272705078,13.394399642944336,-0.05581098794937134,-0.13905811309814453,0.10529541969299316,0.9971708059310913,9.464862823486328,3.7333571910858154
7_20251106_165457,1762419264628,7,0.14735567569732666,0.1648254245519638,0.5322530269622803,0.8172059655189514,2.2515835762023926,4.688250541687012,3.313344955444336,1.3842681646347046,9.516136169433594,3.7740116119384766,0.0035124728456139565,0.06033434346318245,0.13900607824325562,6.142330169677734,-31.003986358642578,13.285440444946289,0.2745562791824341,0.04469013214111328,0.016825437545776367,1.1097118854522705,9.47144603729248,3.7571861743927
7_20251106_165457,1762419264647,7,0.14597710967063904,0.1651843786239624,0.532200813293457,0.8174148797988892,2.2524847984313965,4.685194969177246,3.3231217861175537,1.368706464767456,9.522120475769043,3.800346851348877,-0.03802632540464401,0.05056050792336464,0.07975220680236816,6.092584609985352,-31.020124435424805,13.323762893676758,0.20719563961029053,0.04053974151611328,0.034528493881225586,1.1615108251571655,9.48158073425293,3.7658183574676514
7_20251106_165457,1762419264666,7,0.14476849138736725,0.1653168946504593,0.5320221781730652,0.8177192807197571,2.253603935241699,4.6820387840271,3.3326785564422607,1.2573809623718262,9.389248847961426,3.863790512084961,-0.04291324317455292,0.05605829134583473,0.04554377868771553,6.050683975219727,-31.122560501098633,13.279630661010742,0.07669615745544434,-0.07386589050292969,0.07837772369384766,1.1806848049163818,9.463114738464355,3.7854127883911133
7_20251106_165457,1762419264686,7,0.1438056230545044,0.16516439616680145,0.5318589806556702,0.818026065826416,2.2548179626464844,4.678239822387695,3.34234619140625,1.2118929624557495,9.251587867736816,3.8218936920166016,-0.014813468791544437,0.07560595870018005,0.05592847988009453,5.949670791625977,-31.191699981689453,13.274385452270508,0.02496659755706787,-0.1692209243774414,0.029184818267822266,1.1869263648986816,9.420808792114258,3.7927088737487793
7_20251106_165457,1762419264706,7,0.14258155226707458,0.1646733433008194,0.531848132610321,0.8183463215827942,2.256436586380005,4.674181938171387,3.3511788845062256,1.3399772644042969,9.273134231567383,3.6770505905151367,-0.0019853096455335617,0.058501750230789185,0.09441296011209488,5.886613845825195,-31.24495506286621,13.176263809204102,0.12244069576263428,-0.11814022064208984,-0.09252643585205078,1.2175365686416626,9.391274452209473,3.7695770263671875
7_20251106_165457,1762419264725,7,0.14112037420272827,0.1644408106803894,0.5318596959114075,0.8186388611793518,2.2583858966827393,4.670905590057373,3.3581948280334473,1.5099583864212036,9.391641616821289,3.7165534496307373,0.015729768201708794,0.005967384669929743,0.10540852695703506,5.801607131958008,-31.250110626220703,13.132280349731445,0.23393750190734863,0.000293731689453125,-0.0424189567565918,1.276020884513855,9.391347885131836,3.758972406387329
7_20251106_165457,1762419264743,7,0.1398676633834839,0.16500772535800934,0.5320329666137695,0.818627119064331,2.26155948638916,4.667626857757568,3.365717887878418,1.6033281087875366,9.517333030700684,3.6543068885803223,0.015729768201708794,0.005967384669929743,0.10540852695703506,5.74146842956543,-31.25300407409668,13.021699905395508,0.26184582710266113,0.10078811645507812,-0.08373260498046875,1.3414822816848755,9.416544914245605,3.738039493560791
7_20251106_165457,1762419264763,7,0.13917505741119385,0.1656210571527481,0.5321114659309387,0.8185703158378601,2.264738082885742,4.664619445800781,3.3721792697906494,1.4560911655426025,9.398824691772461,3.6183953285217285,-0.04413497447967529,-0.02457584999501705,-0.04914024844765663,5.701780319213867,-31.3176326751709,12.964845657348633,0.09168720245361328,-0.014176368713378906,-0.09571528434753418,1.3644039630889893,9.41300106048584,3.7141106128692627
7_20251106_165457,1762419264781,7,0.13954372704029083,0.16613411903381348,0.5320158004760742,0.8184657692909241,2.2670602798461914,4.661135673522949,3.3781566619873047,1.110143780708313,9.184553146362305,3.655503749847412,-0.04413497447967529,-0.02457584999501705,-0.04914024844765663,5.666631698608398,-31.294902801513672,12.963903427124023,-0.2034081220626831,-0.18275833129882812,-0.04688549041748047,1.313551902770996,9.367311477661133,3.7023892402648926
7_20251106_165457,1762419264800,7,0.1403963416814804,0.16605709493160248,0.5317384004592896,0.8185158371925354,2.26821231842041,4.657232761383057,3.3839924335479736,0.9293893575668335,9.15103530883789,3.7596468925476074,-0.10827577114105225,-0.008082503452897072,-0.08334866911172867,5.626733779907227,-31.371414184570312,12.839200973510742,-0.30733001232147217,-0.1730213165283203,0.045806169509887695,1.2367193698883057,9.324056625366211,3.7138407230377197
7_20251106_165457,1762419264818,7,0.1408870667219162,0.1651894599199295,0.5313360691070557,0.8188682794570923,2.26821231842041,4.657232761383057,3.3839924335479736,0.9293893575668335,9.15103530883789,3.7596468925476074,-0.10827577114105225,-0.008082503452897072,-0.08334866911172867,5.640329360961914,-31.345504760742188,12.840219497680664,-0.30733001232147217,-0.1730213165283203,0.045806169509887695,1.2367193698883057,9.324056625366211,3.7138407230377197
7_20251106_165457,1762419264838,7,0.14098162949085236,0.16430950164794922,0.530953586101532,0.8192770481109619,2.2683355808258057,4.649265289306641,3.3969523906707764,0.9736802577972412,9.200115203857422,4.0122246742248535,-0.04108065366744995,-0.01541288010776043,-0.006379719823598862,5.688863754272461,-31.354211807250977,12.774335861206055,-0.1679619550704956,-0.08602619171142578,0.19517922401428223,1.1416422128677368,9.286141395568848,3.8170454502105713
7_20251106_165457,1762419264858,7,0.1407385915517807,0.16355763375759125,0.5306843519210815,0.8196436166763306,2.267408847808838,4.644918441772461,3.404094696044922,0.9138277769088745,9.180962562561035,3.9799041748046875,-0.04108065366744995,-0.01541288010776043,-0.006379719823598862,5.713235855102539,-31.352622985839844,12.77531623840332,-0.18225157260894775,-0.08414268493652344,0.13028717041015625,1.0960793495178223,9.265105247497559,3.8496170043945312
7_20251106_165457,1762419264876,7,0.14049319922924042,0.16278736293315887,0.5302993059158325,0.8200881481170654,2.2659850120544434,4.640853404998779,3.4107933044433594,0.8396106958389282,9.123502731323242,4.090032577514648,-0.069180428981781,0.016352085396647453,0.006448438856750727,5.749286651611328,-31.36252784729004,12.749490737915039,-0.20517492294311523,-0.1132822036743164,0.19233250617980957,1.0447856187820435,9.236784934997559,3.897700071334839
7_20251106_165457,1762419264896,7,0.14002399146556854,0.1617497205734253,0.5298663377761841,0.8206533789634705,2.263869524002075,4.636390686035156,3.418064594268799,0.7941228151321411,9.09597110748291,4.099609375,-0.069180428981781,0.016352085396647453,0.006448438856750727,5.757848739624023,-31.424654006958008,12.762178421020508,-0.20053023099899292,-0.11265087127685547,0.1615276336669922,0.994653046131134,9.208621978759766,3.938081741333008
7_20251106_165457,1762419264915,7,0.13917042315006256,0.16053299605846405,0.529367983341217,0.8213587999343872,2.261439085006714,4.631323337554932,3.4254775047302246,0.891083836555481,9.009783744812012,3.9846925735473633,-0.021532980725169182,0.03162370249629021,0.11579322814941406,5.786041259765625,-31.359874725341797,12.723932266235352,-0.08285534381866455,-0.15907001495361328,0.037288665771484375,0.9739391803741455,9.168853759765625,3.947403907775879
7_20251106_165457,1762419264935,7,0.13771145045757294,0.1597369909286499,0.5290624499320984,0.8219565749168396,2.259671688079834,4.626531600952148,3.4328114986419678,1.1520404815673828,9.17617416381836,4.043347358703613,0.02000582404434681,-0.0007521271472796798,0.160997211933136,5.808990478515625,-31.3950138092041,12.629507064819336,0.1424809694290161,0.005856513977050781,0.07675457000732422,1.0095595121383667,9.170317649841309,3.966592788696289
7_20251106_165457,1762419264956,7,0.13607627153396606,0.15974293649196625,0.5290073156356812,0.8222631216049194,2.2588114738464355,4.622096538543701,3.440432548522949,1.2789278030395508,9.273134231567383,4.057712554931641,0.02367101050913334,0.0035239257849752903,0.11090631037950516,5.785829544067383,-31.37175750732422,12.656087875366211,0.21549463272094727,0.08225345611572266,0.07289576530456543,1.0634331703186035,9.19088077545166,3.984816789627075
7_20251106_165457,1762419264972,7,0.13480739295482635,0.15990932285785675,0.5289634466171265,0.8224679827690125,2.2583868503570557,4.6188812255859375,3.445671319961548,1.165208101272583,9.18814468383789,3.8422436714172363,-0.011148280464112759,0.018184678629040718,0.024774380028247833,5.785829544067383,-31.37175750732422,12.656087875366211,0.0814199447631836,-0.0021886825561523438,-0.1140584945678711,1.0837881565093994,9.190333366394043,3.9563021659851074
7_20251106_165457,1762419264992,7,0.13414539396762848,0.1596793532371521,0.5287901163101196,0.8227323293685913,2.2576680183410645,4.614801406860352,3.4513819217681885,1.0131827592849731,9.104351043701172,3.7883763313293457,-0.011148280464112759,0.018184678629040718,0.024774380028247833,5.763164520263672,-31.347827911376953,12.615087509155273,-0.056484341621398926,-0.0687856674194336,-0.13434052467346191,1.069667100906372,9.173136711120605,3.9227168560028076
7_20251106_165457,1762419265017,7,0.1339939683675766,0.15899214148521423,0.5285794734954834,0.8230254650115967,2.256375312805176,4.609607219696045,3.4581618309020996,0.977271318435669,9.099562644958496,3.922445774078369,-0.10766490548849106,0.032234564423561096,-0.035090360790491104,5.716943740844727,-31.30118179321289,12.654729843139648,-0.07391667366027832,-0.058859825134277344,-0.00021696090698242188,1.0511879920959473,9.158422470092773,3.9226627349853516
7_20251106_165457,1762419265033,7,0.13396315276622772,0.15794892609119415,0.5281295776367188,0.8235200047492981,2.255753517150879,4.607172966003418,3.4615559577941895,1.0215622186660767,9.098365783691406,4.1989641189575195,-0.09911280125379562,0.014519492164254189,-0.014320961199700832,5.689046859741211,-31.365554809570312,12.652429580688477,-0.023700594902038574,-0.04804515838623047,0.22104120254516602,1.0452628135681152,9.146410942077637,3.9779229164123535
7_20251106_165457,1762419265048,7,0.1337592452764511,0.1570015847682953,0.5275788903236389,0.8240870833396912,2.2547433376312256,4.603373050689697,3.4667422771453857,1.0179710388183594,9.09597110748291,4.007436275482178,-0.036193735897541046,-0.0007521271472796798,0.014389680698513985,5.675846099853516,-31.39092445373535,12.597345352172852,-0.021833419799804688,-0.04035186767578125,0.023610591888427734,1.039804458618164,9.136322975158691,3.98382568359375
7_20251106_165457,1762419265068,7,0.13361327350139618,0.15656445920467377,0.5270580649375916,0.8245270252227783,2.2534375190734863,4.599654197692871,3.471585512161255,0.9425569772720337,9.163005828857422,3.8709726333618164,-0.03191768378019333,-0.017245473340153694,0.04920896887779236,5.665069580078125,-31.366605758666992,12.597383499145508,-0.07779800891876221,0.021346092224121094,-0.09028244018554688,1.020354986190796,9.1416597366333,3.9612550735473633
7_20251106_165457,1762419265087,7,0.13304707407951355,0.1563718467950821,0.5267884135246277,0.8248274326324463,2.2534375190734863,4.599654197692871,3.471585512161255,0.9425569772720337,9.163005828857422,3.8709726333618164,-0.06246091425418854,0.011465167626738548,0.06631318479776382,5.636468887329102,-31.44353675842285,12.594820022583008,-0.07779800891876221,0.021346092224121094,-0.09028244018554688,1.020354986190796,9.1416597366333,3.9612550735473633
7_20251106_165457,1762419265107,7,0.1322905272245407,0.1559373140335083,0.5265400409698486,0.8251898884773254,2.252258777618408,4.596346378326416,3.476308584213257,1.040714979171753,9.215676307678223,4.001451015472412,-0.06246091425418854,0.011465167626738548,0.06631318479776382,5.623689651489258,-31.445138931274414,12.67542839050293,0.016288042068481445,0.05921363830566406,0.03215670585632324,1.0244269371032715,9.156462669372559,3.969294309616089
7_20251106_165457,1762419265126,7,0.13125260174274445,0.1554008424282074,0.526205837726593,0.8256698846817017,2.2516632080078125,4.5934295654296875,3.4811317920684814,1.1975284814834595,9.270740509033203,4.00264835357666,-0.03436113893985748,0.045062724500894547,0.08097393810749054,5.5832977294921875,-31.52232551574707,12.618307113647461,0.1384812593460083,0.09142208099365234,0.026683330535888672,1.0590472221374512,9.17931842803955,3.9759650230407715
7_20251106_165457,1762419265145,7,0.13012684881687164,0.15519745647907257,0.5260128974914551,0.826009213924408,2.251722574234009,4.591294288635254,3.485119104385376,1.2801249027252197,9.276725769042969,4.000253677368164,-0.03436113893985748,0.045062724500894547,0.08097393810749054,5.529211044311523,-31.62555503845215,12.573686599731445,0.17686223983764648,0.0779256820678711,0.019430875778198242,1.1032626628875732,9.198800086975098,3.980822801589966
7_20251106_165457,1762419265162,7,0.12903454899787903,0.15484730899333954,0.5257530212402344,0.8264116048812866,2.2532219886779785,4.587966442108154,3.4924404621124268,1.3495535850524902,9.253981590270996,4.039756774902344,-0.06612610071897507,0.068275585770607,0.046765509992837906,5.502218246459961,-31.677101135253906,12.544618606567383,0.16509580612182617,0.029761314392089844,0.04671955108642578,1.184457778930664,9.224220275878906,3.993037223815918
7_20251106_165457,1762419265182,7,0.12812137603759766,0.15445421636104584,0.5254011154174805,0.826850950717926,2.2548041343688965,4.586113452911377,3.4963254928588867,1.3591300249099731,9.176173210144043,3.9775099754333496,-0.05207622051239014,0.03162370249629021,0.047376375645399094,5.525279998779297,-31.70049285888672,12.531557083129883,0.13973784446716309,-0.038437843322753906,-0.012421846389770508,1.21939218044281,9.214611053466797,3.98993182182312
7_20251106_165457,1762419265202,7,0.12738966941833496,0.15443870425224304,0.5250141024589539,0.8272126317024231,2.2548041343688965,4.586113452911377,3.4963254928588867,1.3591300249099731,9.176173210144043,3.9775099754333496,-0.05207622051239014,0.03162370249629021,0.047376375645399094,5.476831436157227,-31.703266143798828,12.489046096801758,0.13973784446716309,-0.038437843322753906,-0.012421846389770508,1.21939218044281,9.214611053466797,3.98993182182312
7_20251106_165457,1762419265220,7,0.1267457753419876,0.15490569174289703,0.5246049761772156,0.8274837136268616,2.258390188217163,4.582023620605469,3.504093647003174,1.300474762916565,9.185750961303711,3.9906773567199707,-0.0490218922495842,-0.009915097616612911,0.0675349161028862,5.400276184082031,-31.78229522705078,12.37639045715332,0.04691314697265625,-0.001041412353515625,-0.02595376968383789,1.2535616159439087,9.186792373657227,4.016631126403809
7_20251106_165457,1762419265239,7,0.12586267292499542,0.1550833135843277,0.5240316987037659,0.8279483914375305,2.260179281234741,4.580233097076416,3.507322311401367,1.274139642715454,9.222858428955078,3.9020962715148926,-0.04657842963933945,0.022460732609033585,0.06692405045032501,5.315778732299805,-31.775163650512695,12.359704971313477,0.016462326049804688,0.028852462768554688,-0.0916280746459961,1.2576773166656494,9.194005966186523,3.9937243461608887
7_20251106_165457,1762419265259,7,0.12507303059101105,0.1551377922296524,0.5237380862236023,0.828243613243103,2.262080192565918,4.578752517700195,3.5106544494628906,1.2944895029067993,9.295878410339355,4.0277862548828125,-0.04657842963933945,0.022460732609033585,0.06692405045032501,5.27659797668457,-31.827505111694336,12.330144882202148,0.0294497013092041,0.0814981460571289,0.027249813079833984,1.2650398015975952,9.214380264282227,4.0005364418029785
7_20251106_165457,1762419265278,7,0.12431994080543518,0.15508858859539032,0.5233650207519531,0.8286018967628479,2.2641263008117676,4.577882766723633,3.513946771621704,1.385465145111084,9.38446044921875,4.104397296905518,-0.07834339886903763,0.02368246205151081,0.06448058784008026,5.203271865844727,-31.844154357910156,12.259355545043945,0.09634017944335938,0.1360645294189453,0.08308887481689453,1.2891249656677246,9.248395919799805,4.021308422088623
7_20251106_165457,1762419265296,7,0.12336724996566772,0.15495316684246063,0.5229650735855103,0.8290220499038696,2.2665233612060547,4.577420234680176,3.51710844039917,1.5147465467453003,9.378475189208984,4.10200309753418,-0.01542433351278305,0.011465167626738548,0.08097393810749054,5.094203948974609,-31.83888053894043,12.268720626831055,0.18049728870391846,0.10406303405761719,0.06455564498901367,1.3342492580413818,9.274412155151367,4.037447452545166
7_20251106_165457,1762419265316,7,0.12238149344921112,0.1551826298236847,0.5228891372680664,0.8291730880737305,2.269627571105957,4.57717227935791,3.5204272270202637,1.5231258869171143,9.353337287902832,4.03137731552124,0.02000582031905651,-0.014802015386521816,0.06081539765000343,5.01795768737793,-31.90589141845703,12.210393905639648,0.15110135078430176,0.0631399154663086,-0.004856109619140625,1.3720245361328125,9.290197372436523,4.036233425140381
7_20251106_165457,1762419265336,7,0.12156424671411514,0.1557338982820511,0.5230411291122437,0.8290941119194031,2.27306866645813,4.577226638793945,3.523780107498169,1.5338993072509766,9.38565731048584,4.10200309753418,-0.011148280464112759,-0.017245475202798843,0.007059304043650627,4.932035446166992,-31.935487747192383,12.098302841186523,0.12949979305267334,0.07636833190917969,0.05261564254760742,1.4043995141983032,9.30928897857666,4.049387454986572
7_20251106_165457,1762419265355,7,0.12137635052204132,0.15612328052520752,0.5230634212493896,0.8290343880653381,2.276132345199585,4.577260971069336,3.5270416736602783,1.4536969661712646,9.304258346557617,4.209737777709961,-0.04413497447967529,0.00535651994869113,-0.05952494964003563,4.902927398681641,-32.02470779418945,12.068441390991211,0.03943789005279541,-0.004024505615234375,0.1282801628112793,1.4142590761184692,9.308282852172852,4.081457614898682
7_20251106_165457,1762419265375,7,0.12168685346841812,0.15598268806934357,0.5228757858276367,0.8291336297988892,2.2788238525390625,4.576851844787598,3.530881643295288,1.235834002494812,9.161808967590332,4.212131500244141,-0.027641627937555313,0.02062813751399517,-0.08518126606941223,4.879766464233398,-32.00144958496094,12.095022201538086,-0.14274001121520996,-0.11717891693115234,0.10453939437866211,1.378574013710022,9.278987884521484,4.1075921058654785
7_20251106_165457,1762419265394,7,0.12208500504493713,0.15543219447135925,0.5227368474006653,0.8292660713195801,2.2805328369140625,4.5758161544799805,3.534332036972046,1.1161290407180786,9.03611946105957,4.10200309753418,-0.009926551021635532,0.026125920936465263,-0.03692295774817467,4.854787826538086,-32.01546096801758,12.080263137817383,-0.20995604991912842,-0.19429492950439453,-0.004471302032470703,1.326085090637207,9.230414390563965,4.10647439956665
7_20251106_165457,1762419265411,7,0.12196294218301773,0.15465573966503143,0.5227066278457642,0.8294482827186584,2.281892776489258,4.574452877044678,3.5374557971954346,1.2537897825241089,9.05527114868164,4.113973617553711,0.0029016081243753433,-0.007471638265997171,0.04126772657036781,4.854787826538086,-32.01546096801758,12.080263137817383,-0.057836294174194336,-0.14011478424072266,0.005999565124511719,1.3116260766983032,9.195385932922363,4.107974052429199
7_20251106_165457,1762419265430,7,0.12132705003023148,0.15434612333774567,0.5227495431900024,0.8295721411705017,2.2836694717407227,4.5731611251831055,3.540850877761841,1.4620763063430786,9.222858428955078,4.203752517700195,0.019394954666495323,-0.049621302634477615,0.06875663995742798,4.854181289672852,-32.02788162231445,12.066484451293945,0.12036013603210449,0.021978378295898438,0.07662296295166016,1.3417161703109741,9.20088005065918,4.127129554748535
7_20251106_165457,1762419265450,7,0.12072690576314926,0.1548030525445938,0.5227543115615845,0.829571545124054,2.285837411880493,4.571903228759766,3.5442934036254883,1.4704556465148926,9.212085723876953,4.142703056335449,0.019394954666495323,-0.049621302634477615,0.06875663995742798,4.85468864440918,-32.015594482421875,12.093782424926758,0.10299158096313477,0.00896453857421875,0.01245880126953125,1.3674640655517578,9.203121185302734,4.130244255065918
7_20251106_165457,1762419265469,7,0.12038237601518631,0.1553904265165329,0.5228528380393982,0.8294497132301331,2.285837411880493,4.571903228759766,3.5442934036254883,1.4704556465148926,9.212085723876953,4.142703056335449,0.03649916499853134,-0.05328649282455444,0.027828704565763474,4.891950607299805,-32.00065612792969,12.095518112182617,0.10299158096313477,0.00896453857421875,0.01245880126953125,1.3674640655517578,9.203121185302734,4.130244255065918
7_20251106_165457,1762419265488,7,0.12069987505674362,0.15590538084506989,0.5228350758552551,0.829318106174469,2.289361000061035,4.569132328033447,3.549919843673706,1.2657603025436401,9.079212188720703,4.152278900146484,-0.016646062955260277,-0.0349605493247509,-0.025927390903234482,4.892852783203125,-31.987829208374023,12.068750381469727,-0.07907187938690186,-0.09098529815673828,0.03210592269897461,1.344832181930542,9.170197486877441,4.12017297744751
7_20251106_165457,1762419265508,7,0.12077215313911438,0.1558782160282135,0.5228224992752075,0.8293206095695496,2.289361000061035,4.569132328033447,3.549919843673706,1.2657603025436401,9.079212188720703,4.152278900146484,-0.016646062955260277,-0.0349605493247509,-0.025927390903234482,4.928718566894531,-31.98638916015625,12.164834976196289,-0.07907187938690186,-0.09098529815673828,0.03210592269897461,1.344832181930542,9.170197486877441,4.12017297744751
