session_id,timestamp,label,quaternion_w,quaternion_x,quaternion_y,quaternion_z,position_x,position_y,position_z,accelerometer_x,accelerometer_y,accelerometer_z,gyroscope_x,gyroscope_y,gyroscope_z,magnetometer_x,magnetometer_y,magnetometer_z,linear_acceleration_x,linear_acceleration_y,linear_acceleration_z,gravity_x,gravity_y,gravity_z
2_20251106_213705,1762436188793,2,0.3647103011608124,0.609119713306427,0.5378568172454834,0.45460930466651917,0.3693644404411316,2.9910597801208496,0.8887360692024231,2.174320697784424,10.140995979309082,-3.1413426399230957,-0.04718548059463501,0.09011019021272659,0.1620471179485321,25.47559356689453,-20.26012420654297,13.01162338256836,0.17020845413208008,0.6803350448608398,-0.14747190475463867,2.0041122436523438,9.460660934448242,-2.993870735168457
2_20251106_213705,1762436188810,2,0.3631906509399414,0.6086776256561279,0.537763774394989,0.4565241038799286,0.3693644404411316,2.9910597801208496,0.8887360692024231,2.174320697784424,10.140995979309082,-3.1413426399230957,-0.010533597320318222,0.015584686771035194,0.2090837061405182,25.26340103149414,-20.574607849121094,13.03799057006836,0.17020845413208008,0.6803350448608398,-0.14747190475463867,2.0041122436523438,9.460660934448242,-2.993870735168457
2_20251106_213705,1762436188830,2,0.3616419732570648,0.6089314222335815,0.5372926592826843,0.4579674303531647,0.4022881090641022,3.023510217666626,0.8342658877372742,2.4652037620544434,10.401952743530273,-2.8576416969299316,0.052385471761226654,-0.04183659702539444,0.22679878771305084,25.09341049194336,-20.78624725341797,13.067939758300781,0.3226785659790039,0.6102800369262695,0.10825443267822266,2.1425251960754395,9.791672706604004,-2.9658961296081543
2_20251106_213705,1762436188849,2,0.35994580388069153,0.6097012758255005,0.5367933511734009,0.45886409282684326,0.4022881090641022,3.023510217666626,0.8342658877372742,2.4652037620544434,10.401952743530273,-2.8576416969299316,0.1171371340751648,-0.08459712564945221,0.2090837061405182,24.93680191040039,-20.983863830566406,13.031063079833984,0.3226785659790039,0.6102800369262695,0.10825443267822266,2.1425251960754395,9.791672706604004,-2.9658961296081543
2_20251106_213705,1762436188869,2,0.35816824436187744,0.6107808947563171,0.5365053415298462,0.45915597677230835,0.4210829436779022,3.043199062347412,0.8070579171180725,2.5549826622009277,10.38519287109375,-2.8408830165863037,0.14157171547412872,-0.10353393107652664,0.17670787870883942,24.831756591796875,-21.128074645996094,12.997203826904297,0.32996606826782227,0.47481632232666016,0.10001039505004883,2.2250165939331055,9.91037654876709,-2.9408934116363525
2_20251106_213705,1762436188886,2,0.3565073609352112,0.611889660358429,0.5364050269126892,0.45908957719802856,0.4382939338684082,3.060899257659912,0.7842682600021362,2.610046625137329,10.193666458129883,-2.723572254180908,0.1739475429058075,-0.09925787895917892,0.15044069290161133,24.729633331298828,-21.221923828125,12.950885772705078,0.30802392959594727,0.22663211822509766,0.1738569736480713,2.302022695541382,9.967034339904785,-2.8974292278289795
2_20251106_213705,1762436188907,2,0.35474473237991333,0.6129425168037415,0.5366080403327942,0.4588130712509155,0.4699162542819977,3.090466260910034,0.7459871172904968,2.6543376445770264,9.745969772338867,-2.8708090782165527,0.2093776911497116,-0.1261359304189682,0.1357799470424652,24.618858337402344,-21.242164611816406,13.00027084350586,0.22663068771362305,-0.17040157318115234,-0.0003921985626220703,2.4277069568634033,9.91637134552002,-2.8704168796539307
2_20251106_213705,1762436188925,2,0.35298144817352295,0.614198625087738,0.5369289517402649,0.4581173360347748,0.48663973808288574,3.104287624359131,0.7266420722007751,2.60884952545166,9.638235092163086,-2.91510009765625,0.24908392131328583,-0.1774485558271408,0.12722784280776978,24.529327392578125,-21.32306671142578,12.995254516601562,0.1449141502380371,-0.22250938415527344,-0.03574657440185547,2.463935375213623,9.86074447631836,-2.8793535232543945
2_20251106_213705,1762436188944,2,0.3512474000453949,0.6157538294792175,0.5373374223709106,0.4568817913532257,0.5036618709564209,3.116901397705078,0.7068171501159668,2.562164783477783,9.463464736938477,-3.037199020385742,0.29367703199386597,-0.1976071000099182,0.12234093993902206,24.414817810058594,-21.41797637939453,12.975475311279297,0.0785834789276123,-0.3178234100341797,-0.12627649307250977,2.483581304550171,9.781288146972656,-2.9109225273132324
2_20251106_213705,1762436188963,2,0.3494221568107605,0.6175618171691895,0.5378511548042297,0.45523369312286377,0.5189574956893921,3.12719988822937,0.6878102421760559,2.4592185020446777,9.38565731048584,-3.3173089027404785,0.3168898820877075,-0.20615921914577484,0.11073450744152069,24.303028106689453,-21.462799072265625,12.970268249511719,-0.01949024200439453,-0.31650447845458984,-0.32510924339294434,2.4787087440490723,9.70216178894043,-2.992199659347534
2_20251106_213705,1762436188981,2,0.3475768566131592,0.6194643974304199,0.5384736657142639,0.4533214271068573,0.5189574956893921,3.12719988822937,0.6878102421760559,2.4592185020446777,9.38565731048584,-3.3173089027404785,0.3175007700920105,-0.2037157565355301,0.09729548543691635,24.21682357788086,-21.481185913085938,12.993602752685547,-0.01949024200439453,-0.31650447845458984,-0.32510924339294434,2.4787087440490723,9.70216178894043,-2.992199659347534
2_20251106_213705,1762436189001,2,0.34575796127319336,0.6212922930717468,0.53922039270401,0.4513188898563385,0.5464728474617004,3.1420912742614746,0.6482599377632141,2.33113431930542,9.068439483642578,-3.750640630722046,0.31444644927978516,-0.19699622690677643,0.09240856021642685,24.17886734008789,-21.4970703125,13.086483001708984,-0.10268330574035645,-0.4245433807373047,-0.5313689708709717,2.4338176250457764,9.492982864379883,-3.219271659851074
2_20251106_213705,1762436189020,2,0.34393301606178284,0.6230580806732178,0.540021538734436,0.44931671023368835,0.5586491227149963,3.146721839904785,0.6266000866889954,2.298814058303833,8.929581642150879,-4.128908634185791,0.30467259883880615,-0.2348698526620865,0.09607375413179398,24.15349578857422,-21.511619567871094,13.125785827636719,-0.10800290107727051,-0.45072078704833984,-0.7277097702026367,2.4068169593811035,9.380302429199219,-3.4011988639831543
2_20251106_213705,1762436189039,2,0.3423178791999817,0.6249828934669495,0.5406633019447327,0.44709959626197815,0.5586491227149963,3.146721839904785,0.6266000866889954,2.298814058303833,8.929581642150879,-4.128908634185791,0.30467259883880615,-0.2348698526620865,0.09607375413179398,24.117443084716797,-21.50171661376953,13.151611328125,-0.10800290107727051,-0.45072078704833984,-0.7277097702026367,2.4068169593811035,9.380302429199219,-3.4011988639831543
2_20251106_213705,1762436189059,2,0.34128889441490173,0.6272438764572144,0.5407741069793701,0.4445788860321045,0.5702677965164185,3.1498913764953613,0.6021966934204102,2.2233996391296387,8.899654388427734,-4.303677558898926,0.2649664282798767,-0.3057301640510559,0.10645844787359238,24.091663360595703,-21.528419494628906,13.150104522705078,-0.14673376083374023,-0.3845186233520508,-0.7219829559326172,2.370133399963379,9.284173011779785,-3.5816946029663086
2_20251106_213705,1762436189079,2,0.34088024497032166,0.6297311782836914,0.5403444766998291,0.4418904185295105,0.5812252163887024,3.15157151222229,0.5754505395889282,2.1815030574798584,8.842196464538574,-4.29888916015625,0.18005619943141937,-0.41263148188591003,0.1315038949251175,24.091663360595703,-21.528419494628906,13.150104522705078,-0.15090417861938477,-0.35358142852783203,-0.5737557411193848,2.332407236099243,9.195777893066406,-3.7251334190368652
2_20251106_213705,1762436189096,2,0.3408248722553253,0.632296085357666,0.5395833253860474,0.4391922950744629,0.5976212024688721,3.1513876914978027,0.5315473675727844,2.3179666996002197,8.625530242919922,-4.091799736022949,0.15501073002815247,-0.4156858026981354,0.1467755138874054,24.044132232666016,-21.506752014160156,13.175704956054688,0.0070378780364990234,-0.3973264694213867,-0.22968673706054688,2.3109288215637207,9.022856712341309,-3.8621129989624023
2_20251106_213705,1762436189116,2,0.3408687710762024,0.6348136067390442,0.5386193990707397,0.43670275807380676,0.6069077849388123,3.1490230560302734,0.5069637894630432,2.5154800415039062,8.486673355102539,-4.205519676208496,0.11774799227714539,-0.4297357201576233,0.1932012289762497,24.128631591796875,-21.513885498046875,13.192390441894531,0.16364097595214844,-0.42894649505615234,-0.27472543716430664,2.351839065551758,8.915619850158691,-3.9307942390441895
2_20251106_213705,1762436189135,2,0.341014564037323,0.6375353336334229,0.5371217131614685,0.43446290493011475,0.6166508793830872,3.145291805267334,0.4838591516017914,2.848259449005127,8.333451271057129,-4.265371799468994,0.07498747110366821,-0.5225871205329895,0.26772671937942505,24.167499542236328,-21.47356414794922,13.167621612548828,0.39713621139526367,-0.46573448181152344,-0.26766204833984375,2.4511232376098633,8.799185752868652,-3.9977097511291504
2_20251106_213705,1762436189155,2,0.341521292924881,0.6408849954605103,0.5346899628639221,0.4321298897266388,0.6282575726509094,3.1403708457946777,0.4616844356060028,3.307926654815674,8.297539710998535,-4.079829216003418,0.07376573979854584,-0.6771358847618103,0.32881319522857666,24.191959381103516,-21.48345184326172,13.06020736694336,0.6854426860809326,-0.40131664276123047,-0.06569576263427734,2.622483968734741,8.698856353759766,-4.014133453369141
2_20251106_213705,1762436189173,2,0.34254157543182373,0.6452453136444092,0.531266450881958,0.4290451109409332,0.642116904258728,3.1342105865478516,0.4403856694698334,3.6550707817077637,8.157485008239746,-4.098981857299805,0.12324577569961548,-0.8060283660888672,0.33431100845336914,24.237449645996094,-21.565879821777344,12.830543518066406,0.8260693550109863,-0.43309688568115234,-0.06787872314453125,2.8290014266967773,8.590581893920898,-4.031103134155273
2_20251106_213705,1762436189192,2,0.34386536478996277,0.6503435969352722,0.5274461507797241,0.4249827563762665,0.6581507325172424,3.126352310180664,0.41971272230148315,3.874130964279175,7.859418869018555,-4.191155433654785,0.14523689448833466,-0.9153731465339661,0.28788527846336365,24.209636688232422,-21.64173126220703,12.7198486328125,0.8361036777496338,-0.584930419921875,-0.12804174423217773,3.038027286529541,8.44434928894043,-4.063113689422607
2_20251106_213705,1762436189212,2,0.34606972336769104,0.6561537981033325,0.5230143666267395,0.41970691084861755,0.6768354773521423,3.116180896759033,0.39806464314460754,3.9100422859191895,7.683452606201172,-4.383879661560059,0.09820032119750977,-0.9813465476036072,0.21213802695274353,24.239715576171875,-21.787338256835938,12.447826385498047,0.6976120471954346,-0.6087169647216797,-0.25661277770996094,3.212430238723755,8.292169570922852,-4.127266883850098
2_20251106_213705,1762436189230,2,0.3486444354057312,0.6610971689224243,0.519319474697113,0.41437292098999023,0.6941661834716797,3.105938196182251,0.37850216031074524,3.762805461883545,7.664299964904785,-4.555057525634766,0.09820032119750977,-0.9813465476036072,0.21213802695274353,24.295265197753906,-21.918258666992188,12.12298583984375,0.44030022621154785,-0.5022954940795898,-0.34223270416259766,3.322505235671997,8.166595458984375,-4.212824821472168
2_20251106_213705,1762436189250,2,0.35242441296577454,0.6653971672058105,0.515745997428894,0.40871718525886536,0.7130813002586365,3.093275785446167,0.3565104305744171,3.526986598968506,7.557762622833252,-4.654413223266602,-0.1039959043264389,-0.9691292643547058,-0.07680096477270126,24.41012191772461,-22.08220672607422,11.732223510742188,0.16358518600463867,-0.48706674575805664,-0.3532705307006836,3.363401412963867,8.044829368591309,-4.301142692565918
2_20251106_213705,1762436189269,2,0.3573720455169678,0.6682737469673157,0.5128923654556274,0.4032825529575348,0.7297044396400452,3.079887628555298,0.33560827374458313,3.2001922130584717,7.330323219299316,-4.6855363845825195,-0.26098811626434326,-0.878721296787262,-0.24173444509506226,24.564544677734375,-22.20488739013672,11.222076416015625,-0.1305675506591797,-0.5716047286987305,-0.30751514434814453,3.3307597637176514,7.901927947998047,-4.378021240234375
2_20251106_213705,1762436189289,2,0.36351147294044495,0.6694459319114685,0.510748028755188,0.3985448479652405,0.7297044396400452,3.079887628555298,0.33560827374458313,3.2001922130584717,7.330323219299316,-4.6855363845825195,-0.4094282388687134,-0.8261868953704834,-0.3486357629299164,24.715328216552734,-22.402099609375,10.629249572753906,-0.1305675506591797,-0.5716047286987305,-0.30751514434814453,3.3307597637176514,7.901927947998047,-4.378021240234375
2_20251106_213705,1762436189308,2,0.3707893490791321,0.6694156527519226,0.5087966322898865,0.39436522126197815,0.7562204599380493,3.046243906021118,0.29428738355636597,2.361060619354248,6.741374969482422,-4.39345645904541,-0.5328229665756226,-0.8732234835624695,-0.368794322013855,24.895206451416016,-22.521705627441406,9.971405029296875,-0.6966438293457031,-0.7772283554077148,0.02957630157470703,3.057704448699951,7.518603324890137,-4.423032760620117
2_20251106_213705,1762436189326,2,0.37917497754096985,0.6690292358398438,0.5062600374221802,0.3902909457683563,0.7562204599380493,3.046243906021118,0.29428738355636597,2.361060619354248,6.741374969482422,-4.39345645904541,-0.5328229665756226,-0.8732234835624695,-0.368794322013855,25.06683349609375,-22.567169189453125,9.355201721191406,-0.6966438293457031,-0.7772283554077148,0.02957630157470703,3.057704448699951,7.518603324890137,-4.423032760620117
2_20251106_213705,1762436189346,2,0.38820791244506836,0.6687119603157043,0.502861738204956,0.3863275945186615,0.7640135288238525,3.0276801586151123,0.2764424681663513,1.9803987741470337,6.753345489501953,-4.1672139167785645,-0.6330047845840454,-1.016165852546692,-0.2588386535644531,25.373470306396484,-22.625778198242188,8.419475555419922,-0.8618446588516235,-0.612205982208252,0.20465517044067383,2.8422434329986572,7.365551471710205,-4.371869087219238
2_20251106_213705,1762436189364,2,0.39753955602645874,0.6687924861907959,0.49867725372314453,0.3820992708206177,0.768473207950592,3.006441354751587,0.2588846981525421,1.731412410736084,6.844321250915527,-4.01997709274292,-0.6104028224945068,-1.120012879371643,-0.23623666167259216,25.646774291992188,-22.6243896484375,7.524147033691406,-0.888664960861206,-0.41698408126831055,0.28151369094848633,2.62007737159729,7.261305332183838,-4.301490783691406
2_20251106_213705,1762436189384,2,0.4072069823741913,0.6694440245628357,0.49382928013801575,0.3770408630371094,0.7665684223175049,2.969900608062744,0.23527954518795013,1.0646559000015259,6.750950813293457,-3.48250150680542,-0.611013650894165,-1.1426149606704712,-0.26311469078063965,25.99359130859375,-22.617691040039062,6.577695846557617,-1.0550349950790405,-0.34941864013671875,0.5752911567687988,2.1196908950805664,7.100369453430176,-4.057792663574219
2_20251106_213705,1762436189403,2,0.4170960783958435,0.6699488162994385,0.48895731568336487,0.3716452717781067,0.7610712051391602,2.952489137649536,0.2272341102361679,0.6756149530410767,6.680325508117676,-3.386737823486328,-0.694091260433197,-1.0845826864242554,-0.2557843327522278,26.318744659423828,-22.57410430908203,5.549959182739258,-1.1552608013153076,-0.33603477478027344,0.5368437767028809,1.8308757543563843,7.016360282897949,-3.923581600189209
2_20251106_213705,1762436189422,2,0.4271942377090454,0.6697802543640137,0.48396047949790955,0.36699017882347107,0.7503198981285095,2.932349681854248,0.22057285904884338,0.3153030574321747,6.792848110198975,-3.1569042205810547,-0.8376444578170776,-1.0222744941711426,-0.2295171618461609,26.517696380615234,-22.62554931640625,4.4343719482421875,-1.2124581336975098,-0.17880964279174805,0.6133418083190918,1.5277612209320068,6.971657752990723,-3.7702460289001465
2_20251106_213705,1762436189440,2,0.4378308057785034,0.6688500046730042,0.47844982147216797,0.3633587658405304,0.7362558245658875,2.9136962890625,0.21746885776519775,-0.061767496168613434,6.797636032104492,-2.710404872894287,-0.9561522006988525,-0.9404186010360718,-0.1879783570766449,26.792770385742188,-22.633346557617188,3.2008724212646484,-1.271622896194458,-0.13921737670898438,0.8478729724884033,1.2098554372787476,6.936853408813477,-3.5582778453826904
2_20251106_213705,1762436189461,2,0.44879433512687683,0.6673167943954468,0.4723646342754364,0.3607541620731354,0.7362558245658875,2.9136962890625,0.21746885776519775,-0.061767496168613434,6.797636032104492,-2.710404872894287,-0.9921932220458984,-0.8933820128440857,-0.09451604634523392,27.104907989501953,-22.62647247314453,1.9961414337158203,-1.271622896194458,-0.13921737670898438,0.8478729724884033,1.2098554372787476,6.936853408813477,-3.5582778453826904
2_20251106_213705,1762436189480,2,0.4594983756542206,0.6657576560974121,0.46563956141471863,0.35889801383018494,0.6950877904891968,2.8762171268463135,0.22337226569652557,-0.7153564691543579,6.743768692016602,-1.9047906398773193,-0.9921932220458984,-0.8933820128440857,-0.09451604634523392,27.352169036865234,-22.710121154785156,0.651947021484375,-1.2677597999572754,-0.11476421356201172,1.1020915508270264,0.5524033904075623,6.858532905578613,-3.0068821907043457
2_20251106_213705,1762436189499,2,0.4690452814102173,0.6648127436637878,0.45788276195526123,0.3582790791988373,0.6950877904891968,2.8762171268463135,0.22337226569652557,-0.7153564691543579,6.743768692016602,-1.9047906398773193,-0.9292742013931274,-0.8292412161827087,0.41066908836364746,27.352169036865234,-22.710121154785156,0.651947021484375,-1.2677597999572754,-0.11476421356201172,1.1020915508270264,0.5524033904075623,6.858532905578613,-3.0068821907043457
2_20251106_213705,1762436189519,2,0.4773663282394409,0.6652331948280334,0.4483067989349365,0.3586184084415436,0.6446093320846558,2.842642307281494,0.2450065016746521,-0.16112259030342102,7.161539077758789,-1.2116990089416504,-0.8700202703475952,-0.8585627675056458,0.6550149917602539,27.437896728515625,-23.028656005859375,-2.1093292236328125,-0.39881521463394165,0.2251429557800293,1.2264862060546875,0.23769263923168182,6.93639612197876,-2.438185214996338
2_20251106_213705,1762436189537,2,0.48459210991859436,0.6670255064964294,0.43702495098114014,0.35952281951904297,0.6227648258209229,2.830658435821533,0.25993189215660095,0.1632777899503708,7.59008264541626,-0.8585694432258606,-0.830314040184021,-0.8408476710319519,0.784518301486969,27.437896728515625,-23.028656005859375,-2.1093292236328125,-0.05953188240528107,0.52294921875,1.2636926174163818,0.22280967235565186,7.06713342666626,-2.1222620010375977
2_20251106_213705,1762436189555,2,0.4910758137702942,0.6694156527519226,0.4248366057872772,0.3608893156051636,0.6022874712944031,2.821840524673462,0.2770783007144928,0.33445584774017334,8.109601974487305,-0.9172248840332031,-0.8443639278411865,-0.7828155159950256,0.7680249214172363,27.325603485107422,-23.25969696044922,-3.592031478881836,0.0893169492483139,0.8339748382568359,0.9640296697616577,0.24513889849185944,7.275627136230469,-1.8812545537948608
2_20251106_213705,1762436189575,2,0.49739474058151245,0.6712875366210938,0.41287827491760254,0.36263352632522583,0.6022874712944031,2.821840524673462,0.2770783007144928,0.33445584774017334,8.109601974487305,-0.9172248840332031,-0.9152243137359619,-0.6875206232070923,0.609200119972229,27.09941864013672,-23.561614990234375,-4.985854148864746,0.0893169492483139,0.8339748382568359,0.9640296697616577,0.24513889849185944,7.275627136230469,-1.8812545537948608
2_20251106_213705,1762436189593,2,0.5042320489883423,0.671741783618927,0.4020935893058777,0.3644636273384094,0.5780909657478333,2.815352201461792,0.3024354577064514,0.1309574544429779,8.295145034790039,-0.4000994563102722,-0.9152243137359619,-0.6875206232070923,0.609200119972229,26.823787689208984,-23.87926483154297,-6.381902694702148,-0.0913451611995697,0.8156142234802246,1.1849241256713867,0.2223026156425476,7.4795308113098145,-1.5850235223770142
2_20251106_213705,1762436189614,2,0.5115686655044556,0.670172929763794,0.393129825592041,0.36689871549606323,0.5375373363494873,2.8108441829681396,0.3522703945636749,-0.8625935912132263,8.186213493347168,0.2738392949104309,-1.0477819442749023,-0.17378337681293488,0.32331544160842896,26.479873657226562,-24.113914489746094,-7.765529632568359,-0.7738176584243774,0.4327411651611328,1.1710939407348633,-0.08877591788768768,7.753472328186035,-0.8972547054290771
2_20251106_213705,1762436189632,2,0.5181370377540588,0.6663855910301208,0.38666415214538574,0.37142306566238403,0.5118837356567383,2.8104441165924072,0.38239094614982605,-1.0648947954177856,8.175440788269043,-0.2768034338951111,-1.0868772268295288,-0.04794524610042572,0.39539745450019836,25.994651794433594,-24.49475860595703,-9.22503662109375,-0.7808951139450073,0.33757495880126953,0.49636101722717285,-0.2839996814727783,7.837865829467773,-0.7731644511222839
2_20251106_213705,1762436189651,2,0.5245499014854431,0.6625235676765442,0.37961575388908386,0.37656575441360474,0.4870716631412506,2.810588836669922,0.4108577370643616,-0.8889286518096924,8.022217750549316,-0.3055325746536255,-1.1473528146743774,-0.16950733959674835,0.5939285159111023,25.51177215576172,-24.814437866210938,-10.521028518676758,-0.4839431643486023,0.14748144149780273,0.3741055130958557,-0.4049854874610901,7.874736309051514,-0.6796380877494812
2_20251106_213705,1762436189670,2,0.5310460329055786,0.6596149206161499,0.37031590938568115,0.38179099559783936,0.46280959248542786,2.812080144882202,0.44121667742729187,-0.6567010879516602,8.368165016174316,0.5288108587265015,-1.207828402519226,-0.3930838108062744,0.7686358094215393,25.0091552734375,-25.04821014404297,-11.775604248046875,-0.20137247443199158,0.3947429656982422,0.9667591452598572,-0.4553286135196686,7.973422050476074,-0.4379482865333557
2_20251106_213705,1762436189690,2,0.53791743516922,0.6577081084251404,0.3585559129714966,0.3866555690765381,0.43901437520980835,2.8155980110168457,0.4758957624435425,-0.7273269891738892,8.739250183105469,1.6899486780166626,-1.1895025968551636,-0.4089663028717041,0.7777987718582153,24.53223419189453,-25.243797302246094,-12.92027759552002,-0.21759867668151855,0.6126623153686523,1.7023175954818726,-0.5097283124923706,8.126587867736816,-0.012368917465209961
2_20251106_213705,1762436189709,2,0.5447015762329102,0.6557304263114929,0.3465877175331116,0.3914009630680084,0.4135896861553192,2.8218190670013428,0.5164303779602051,-1.0457420349121094,9.015769958496094,1.9137969017028809,-1.1895025968551636,-0.4089663028717041,0.7777987718582153,23.986328125,-25.368942260742188,-14.052793502807617,-0.4288110136985779,0.7113456726074219,1.5409326553344727,-0.6169310212135315,8.304424285888672,0.3728642165660858
2_20251106_213705,1762436189728,2,0.5501995086669922,0.6523993015289307,0.33696484565734863,0.3976309597492218,0.4135896861553192,2.8218190670013428,0.5164303779602051,-1.0457420349121094,9.015769958496094,1.9137969017028809,-1.0593883991241455,0.316130131483078,0.7716901302337646,23.514442443847656,-25.47649383544922,-15.209135055541992,-0.4288110136985779,0.7113456726074219,1.5409326553344727,-0.6169310212135315,8.304424285888672,0.3728642165660858
2_20251106_213705,1762436189746,2,0.5539267659187317,0.647857666015625,0.32921332120895386,0.4062809348106384,0.3869277536869049,2.829437732696533,0.560291051864624,-1.0050424337387085,8.726083755493164,1.3954744338989258,-1.0184603929519653,0.4963352084159851,1.0038187503814697,23.060081481933594,-25.483200073242188,-16.32232666015625,-0.3104891777038574,0.3373279571533203,0.818088173866272,-0.6945532560348511,8.388755798339844,0.5773862600326538
2_20251106_213705,1762436189766,2,0.55579674243927,0.6435711979866028,0.32107818126678467,0.41691112518310547,0.36539602279663086,2.8353431224823,0.5978496670722961,-0.6219865679740906,8.267613410949707,1.3260457515716553,-0.9396588802337646,0.4303618371486664,1.3043642044067383,22.500198364257812,-25.62317657470703,-17.306917190551758,0.05805331468582153,-0.09691429138183594,0.5989276170730591,-0.6800398826599121,8.364527702331543,0.7271181344985962
2_20251106_213705,1762436189785,2,0.5561289191246033,0.6408606171607971,0.31081148982048035,0.42826923727989197,0.3294459879398346,2.8442330360412598,0.6740691065788269,0.38712602853775024,8.44477653503418,1.163246989250183,-0.9005635380744934,0.25626540184020996,1.5456557273864746,21.981624603271484,-25.661529541015625,-18.166278839111328,0.7655347585678101,0.14501667022705078,0.2348794937133789,-0.3784087002277374,8.299759864807129,0.9283674955368042
2_20251106_213705,1762436189804,2,0.5555995106697083,0.6396186351776123,0.29816552996635437,0.4396527111530304,0.3294459879398346,2.8442330360412598,0.6740691065788269,0.38712602853775024,8.44477653503418,1.163246989250183,-0.9005635380744934,0.25626540184020996,1.5456557273864746,21.388015747070312,-25.742050170898438,-19.056407928466797,0.7655347585678101,0.14501667022705078,0.2348794937133789,-0.3784087002277374,8.299759864807129,0.9283674955368042
2_20251106_213705,1762436189822,2,0.5553114414215088,0.638195276260376,0.28441351652145386,0.45104873180389404,0.308870404958725,2.8583292961120605,0.7455925345420837,1.1304936408996582,9.142656326293945,1.630096197128296,-1.1216965913772583,0.2953607439994812,1.4625781774520874,20.70487403869629,-25.903472900390625,-19.951553344726562,1.0107065439224243,0.5547761917114258,0.5464025735855103,0.11978708207607269,8.58788013458252,1.0836936235427856
2_20251106_213705,1762436189843,2,0.5560227036476135,0.6350631713867188,0.2713787257671356,0.46247929334640503,0.3043234050273895,2.868696451187134,0.789025068283081,1.4441205263137817,9.180961608886719,2.5637948513031006,-1.3177841901779175,0.5751367807388306,1.2793186902999878,19.996471405029297,-26.06769561767578,-20.72603416442871,1.05946683883667,0.47446537017822266,1.1840810775756836,0.3846537470817566,8.706496238708496,1.379713773727417
2_20251106_213705,1762436189861,2,0.5579944252967834,0.6289145946502686,0.25987356901168823,0.47494667768478394,0.3041263818740845,2.8785369396209717,0.8249197006225586,1.8870289325714111,9.556835174560547,2.5147159099578857,-1.3177841901779175,0.5751367807388306,1.2793186902999878,19.345699310302734,-26.267234802246094,-21.336658477783203,1.2019001245498657,0.6802711486816406,0.9080016613006592,0.6851288080215454,8.876564025878906,1.6067142486572266
2_20251106_213705,1762436189880,2,0.5604649782180786,0.6199968457221985,0.2495799958705902,0.48907336592674255,0.3089646100997925,2.8940484523773193,0.8678921461105347,2.349090099334717,10.361251831054688,2.545839309692383,-1.5456366539001465,0.8530802130699158,1.1779152154922485,18.665205001831055,-26.35546875,-22.013959884643555,1.3311691284179688,1.1877508163452148,0.7513000965118408,1.017920970916748,9.173501014709473,1.794539213180542
2_20251106_213705,1762436189899,2,0.5630666017532349,0.6104657649993896,0.23915551602840424,0.5030827522277832,0.3089646100997925,2.8940484523773193,0.8678921461105347,2.349090099334717,10.361251831054688,2.545839309692383,-1.4136899709701538,0.7254094481468201,1.1614218950271606,17.961156845092773,-26.420989990234375,-22.61061668395996,1.3311691284179688,1.1877508163452148,0.7513000965118408,1.017920970916748,9.173501014709473,1.794539213180542
2_20251106_213705,1762436189921,2,0.5651516914367676,0.6020758152008057,0.2286384403705597,0.5155896544456482,0.331940621137619,2.9351677894592285,0.9588861465454102,2.899732828140259,10.7251558303833,3.7404942512512207,-1.107035756111145,0.6466079354286194,1.134543776512146,17.37120819091797,-26.40374755859375,-23.228307723999023,1.2309820652008057,0.9771623611450195,1.3153188228607178,1.6687507629394531,9.747993469238281,2.425175428390503
2_20251106_213705,1762436189940,2,0.5657069683074951,0.5953827500343323,0.2192905992269516,0.5266940593719482,0.331940621137619,2.9351677894592285,0.9588861465454102,2.899732828140259,10.7251558303833,3.7404942512512207,-1.107035756111145,0.6466079354286194,1.134543776512146,17.37120819091797,-26.40374755859375,-23.228307723999023,1.2309820652008057,0.9771623611450195,1.3153188228607178,1.6687507629394531,9.747993469238281,2.425175428390503
2_20251106_213705,1762436189957,2,0.5646936893463135,0.5896753072738647,0.21154145896434784,0.5372655391693115,0.36685118079185486,2.9807374477386475,1.055835485458374,3.2301182746887207,10.583904266357422,4.175023078918457,-0.8107664585113525,0.8567454218864441,1.0917832851409912,16.757396697998047,-26.375808715820312,-23.819684982299805,1.0425605773925781,0.5464754104614258,1.1534199714660645,2.1875576972961426,10.037428855895996,3.0216031074523926
2_20251106_213705,1762436189977,2,0.5631706118583679,0.5830298066139221,0.2050456702709198,0.5485174059867859,0.36685118079185486,2.9807374477386475,1.055835485458374,3.2301182746887207,10.583904266357422,4.175023078918457,-0.9115591049194336,1.0748239755630493,1.012981653213501,16.23090362548828,-26.304771423339844,-24.393320083618164,1.0425605773925781,0.5464754104614258,1.1534199714660645,2.1875576972961426,10.037428855895996,3.0216031074523926
2_20251106_213705,1762436189995,2,0.5620861649513245,0.5744102001190186,0.199596107006073,0.560600996017456,0.4137480854988098,3.0295135974884033,1.1611955165863037,4.090796947479248,10.649741172790527,5.119495391845703,-0.932939350605011,1.238535761833191,0.87736976146698,15.815123558044434,-26.178787231445312,-24.718191146850586,1.292768955230713,0.3602781295776367,1.400683879852295,2.798027992248535,10.28946304321289,3.718811511993408
2_20251106_213705,1762436190015,2,0.5613157153129578,0.5643072128295898,0.19570861756801605,0.572870135307312,0.44112807512283325,3.0535635948181152,1.2167179584503174,4.133890628814697,10.647347450256348,5.425939559936523,-0.932939350605011,1.238535761833191,0.87736976146698,15.513854026794434,-25.9578857421875,-25.023284912109375,1.068690299987793,0.28630733489990234,1.3657026290893555,3.0652003288269043,10.361040115356445,4.060236930847168
2_20251106_213705,1762436190033,2,0.5611413717269897,0.5542774796485901,0.1928362101316452,0.5837045907974243,0.46832722425460815,3.0772621631622314,1.2757368087768555,3.4982571601867676,10.671287536621094,6.346470832824707,-0.8626899123191833,1.160345196723938,0.48824888467788696,15.270892143249512,-25.782974243164062,-25.354015350341797,0.34644532203674316,0.2481975555419922,1.8289871215820312,3.1518118381500244,10.423089981079102,4.517483711242676
2_20251106_213705,1762436190053,2,0.5619269609451294,0.5439602136611938,0.19098125398159027,0.5931875705718994,0.49435609579086304,3.101027488708496,1.3424592018127441,2.7668604850769043,10.445045471191406,7.051532745361328,-0.8626899123191833,1.160345196723938,0.48824888467788696,15.085362434387207,-25.643646240234375,-25.493858337402344,-0.30796122550964355,0.017563819885253906,2.0272393226623535,3.074821710586548,10.427481651306152,5.024293422698975
2_20251106_213705,1762436190071,2,0.5617808699607849,0.5316310524940491,0.1922023445367813,0.6040107011795044,0.5154309272766113,3.1197688579559326,1.4044662714004517,2.595682144165039,9.78666877746582,7.038365364074707,-0.6629371643066406,1.7938119173049927,0.46259260177612305,15.10964298248291,-25.417633056640625,-25.407520294189453,-0.38331174850463867,-0.5126504898071289,1.611257553100586,2.9789938926696777,10.29931926727295,5.427107810974121
2_20251106_213705,1762436190090,2,0.5603371262550354,0.5180622339248657,0.19525063037872314,0.6160446405410767,0.5368033647537231,3.134916067123413,1.467936396598816,3.066122531890869,8.970281600952148,5.897577285766602,-0.6629371643066406,1.7938119173049927,0.46259260177612305,15.102614402770996,-25.307029724121094,-25.243438720703125,0.0697028636932373,-1.0632295608520508,0.376375675201416,2.996419668197632,10.0335111618042,5.5212016105651855
2_20251106_213705,1762436190110,2,0.5550969243049622,0.5047993659973145,0.1991899013519287,0.630371630191803,0.5611060857772827,3.1467509269714355,1.5317100286483765,3.9603185653686523,8.94394588470459,5.621058464050293,-0.43630629777908325,2.0186100006103516,0.7942920923233032,15.192988395690918,-25.17859649658203,-24.967041015625,0.7711191177368164,-0.8716516494750977,0.07988548278808594,3.189199447631836,9.815597534179688,5.541172981262207
2_20251106_213705,1762436190129,2,0.5467807650566101,0.49472880363464355,0.19978639483451843,0.6452593803405762,0.5876279473304749,3.157559394836426,1.5918890237808228,4.861696243286133,9.862083435058594,6.497298717498779,-0.31291162967681885,1.3258894681930542,1.5853619575500488,15.376437187194824,-25.107810974121094,-24.56639289855957,1.3379974365234375,0.03718852996826172,0.7649006843566895,3.5236988067626953,9.824894905090332,5.73239803314209
2_20251106_213705,1762436190149,2,0.5363956689834595,0.4877716302871704,0.19707459211349487,0.6599394679069519,0.6191234588623047,3.171079158782959,1.656485676765442,5.159762382507324,10.716775894165039,7.185602188110352,-0.22861230373382568,1.2831288576126099,1.4705194234848022,15.504303932189941,-25.153884887695312,-24.102500915527344,1.3088510036468506,0.7135047912597656,1.1625633239746094,3.8509113788604736,10.003271102905273,6.023038864135742
2_20251106_213705,1762436190167,2,0.526187002658844,0.48109740018844604,0.19513820111751556,0.6734935641288757,0.6486530303955078,3.184041976928711,1.7154157161712646,4.907184600830078,10.573129653930664,7.525564193725586,-0.1815757304430008,1.5537420511245728,1.1534806489944458,15.50287914276123,-25.32239532470703,-23.497209548950195,0.8450183868408203,0.4558868408203125,1.2020201683044434,4.062166213989258,10.117242813110352,6.323544025421143
2_20251106_213705,1762436190187,2,0.5170959830284119,0.47212374210357666,0.1963585466146469,0.6864067316055298,0.6801134347915649,3.196268320083618,1.778132438659668,4.736006259918213,9.835748672485352,7.64407205581665,-0.2322774976491928,1.8078616857528687,1.0624617338180542,15.513145446777344,-25.49079132080078,-22.8238468170166,0.5390720367431641,-0.22519588470458984,1.056422233581543,4.196934223175049,10.060944557189941,6.587649822235107
2_20251106_213705,1762436190205,2,0.5084267258644104,0.46091413497924805,0.19872674345970154,0.6996914148330688,0.7105126976966858,3.2062370777130127,1.8363327980041504,5.0436482429504395,9.640628814697266,7.300518989562988,-0.18524090945720673,1.7858705520629883,1.2970337867736816,15.45906925201416,-25.714195251464844,-22.072893142700195,0.6773710250854492,-0.33625221252441406,0.5702953338623047,4.36627721786499,9.97688102722168,6.730223655700684
2_20251106_213705,1762436190224,2,0.49774348735809326,0.45029035210609436,0.20021796226501465,0.7137246131896973,0.7467088103294373,3.2170474529266357,1.8996858596801758,5.717586994171143,10.07156753540039,7.361568450927734,0.04749855026602745,1.5586289167404175,1.5535969734191895,15.209824562072754,-26.16352081298828,-21.279720306396484,1.0810480117797852,0.07574939727783203,0.5050754547119141,4.636538982391357,9.995818138122559,6.85649299621582
2_20251106_213705,1762436190244,2,0.4844573736190796,0.4427233636379242,0.20106111466884613,0.7272355556488037,0.7467088103294373,3.2170474529266357,1.8996858596801758,5.717586994171143,10.07156753540039,7.361568450927734,0.2906227111816406,1.3558218479156494,1.6061313152313232,14.910735130310059,-26.629119873046875,-20.434707641601562,1.0810480117797852,0.07574939727783203,0.5050754547119141,4.636538982391357,9.995818138122559,6.85649299621582
2_20251106_213705,1762436190262,2,0.46981143951416016,0.4376770555973053,0.20243282616138458,0.7394165992736816,0.8235384821891785,3.240516424179077,2.0188772678375244,6.517215728759766,10.582706451416016,8.1121187210083,0.4634974002838135,1.3313871622085571,1.4741846323013306,14.460887908935547,-27.18000030517578,-19.55661392211914,1.2473015785217285,0.3790559768676758,0.8692941665649414,5.269914150238037,10.20365047454834,7.242824554443359
2_20251106_213705,1762436190282,2,0.45523926615715027,0.4331924617290497,0.2053913176059723,0.7502772212028503,0.8651912212371826,3.2520973682403564,2.0778253078460693,6.776975631713867,10.248729705810547,8.15401554107666,0.5905572175979614,1.451116681098938,1.3123054504394531,13.923821449279785,-27.773841857910156,-18.70977783203125,1.2056493759155273,0.036063194274902344,0.7289528846740723,5.57132625579834,10.212666511535645,7.425062656402588
2_20251106_213705,1762436190301,2,0.4407900273799896,0.4278743863105774,0.21039171516895294,0.7605018019676208,0.9111531972885132,3.2626852989196777,2.1373445987701416,6.988853454589844,9.886024475097656,7.612948894500732,0.744495153427124,1.4908229112625122,1.2524406909942627,13.309830665588379,-28.424026489257812,-17.73177719116211,1.1340217590332031,-0.26131439208984375,0.15030908584594727,5.854831695556641,10.1473388671875,7.462639808654785
2_20251106_213705,1762436190320,2,0.42587196826934814,0.4226643145084381,0.21676872670650482,0.7700644731521606,0.9566943645477295,3.2708539962768555,2.1904845237731934,7.334800720214844,9.641825675964355,7.252636909484863,0.744495153427124,1.4908229112625122,1.2524406909942627,12.736430168151855,-28.996749877929688,-16.723690032958984,1.1839752197265625,-0.40441036224365234,-0.16800212860107422,6.150825500488281,10.046236038208008,7.4206390380859375
2_20251106_213705,1762436190338,2,0.4095173478126526,0.41882771253585815,0.22374853491783142,0.7789836525917053,1.0022740364074707,3.27738094329834,2.2373721599578857,8.015921592712402,9.711254119873047,7.039562225341797,0.909428596496582,1.3949171304702759,1.3171923160552979,12.013273239135742,-29.64179229736328,-15.722807884216309,1.4920768737792969,-0.2679862976074219,-0.30486154556274414,6.5238447189331055,9.979240417480469,7.344423770904541
2_20251106_213705,1762436190359,2,0.39204323291778564,0.41683053970336914,0.2305103838443756,0.7870320081710815,1.0602436065673828,3.2851452827453613,2.288269281387329,8.747318267822266,10.13740348815918,7.025197505950928,1.1372811794281006,0.9905247688293457,1.4039350748062134,11.225166320800781,-30.354263305664062,-14.658116340637207,1.7787790298461914,0.12653064727783203,-0.25538110733032227,6.968539237976074,10.010872840881348,7.28057861328125
2_20251106_213705,1762436190380,2,0.37463200092315674,0.4169444441795349,0.23700903356075287,0.7934953570365906,1.1160372495651245,3.293121576309204,2.332350492477417,9.143543243408203,10.485745429992676,7.402268409729004,1.2270783185958862,0.7706134915351868,1.2151778936386108,10.314013481140137,-31.0762939453125,-13.436134338378906,1.7400031089782715,0.3798980712890625,0.0973520278930664,7.403540134429932,10.105847358703613,7.3049163818359375
2_20251106_213705,1762436190399,2,0.35853245854377747,0.41851821541786194,0.24409084022045135,0.7979452610015869,1.1160372495651245,3.293121576309204,2.332350492477417,9.143543243408203,10.485745429992676,7.402268409729004,1.3431426286697388,0.7003640532493591,0.848048210144043,10.314013481140137,-31.0762939453125,-13.436134338378906,1.7400031089782715,0.3798980712890625,0.0973520278930664,7.403540134429932,10.105847358703613,7.3049163818359375
2_20251106_213705,1762436190416,2,0.34442755579948425,0.4198744297027588,0.25336480140686035,0.8005506992340088,1.2283943891525269,3.309206962585449,2.414898157119751,8.572549819946289,9.919541358947754,7.744624137878418,1.461039423942566,0.799934983253479,0.424718976020813,9.42814826965332,-31.772300720214844,-12.145061492919922,0.6769180297851562,-0.2035074234008789,0.29865074157714844,7.895631790161133,10.123048782348633,7.4459733963012695
2_20251106_213705,1762436190435,2,0.3326946496963501,0.41959717869758606,0.2654728591442108,0.8017334938049316,1.2865098714828491,3.313843250274658,2.45664644241333,8.243361473083496,9.123502731323242,7.496835231781006,1.5636647939682007,0.9526512026786804,0.11684314906597137,8.631715774536133,-32.387535095214844,-10.835455894470215,0.2781839370727539,-0.7996368408203125,0.04068899154663086,7.965177536010742,9.923139572143555,7.456146240234375
2_20251106_213705,1762436190454,2,0.3223598003387451,0.4174340069293976,0.2799476981163025,0.8021610379219055,1.2865098714828491,3.313843250274658,2.45664644241333,8.243361473083496,9.123502731323242,7.496835231781006,1.6785072088241577,0.9893030524253845,0.0062766363844275475,7.7906694412231445,-32.93074035644531,-9.512711524963379,0.2781839370727539,-0.7996368408203125,0.04068899154663086,7.965177536010742,9.923139572143555,7.456146240234375
2_20251106_213705,1762436190472,2,0.31244516372680664,0.4149658679962158,0.2955142557621002,0.8017809391021729,1.387043833732605,3.3099520206451416,2.5204741954803467,7.972827911376953,8.042567253112793,5.779068946838379,1.7426481246948242,0.8213152289390564,0.024602578952908516,7.101606369018555,-33.352210998535156,-8.100608825683594,-0.011383533477783203,-1.2608327865600586,-1.2022275924682617,7.984211444854736,9.303400039672852,6.981296539306641
2_20251106_213705,1762436190492,2,0.30274656414985657,0.4140852689743042,0.310700923204422,0.8002142310142517,1.4364960193634033,3.301949977874756,2.5454955101013184,7.768132209777832,8.00426197052002,5.405590057373047,1.7426481246948242,0.8213152289390564,0.024602578952908516,6.4746856689453125,-33.74486541748047,-6.6584930419921875,-0.17286300659179688,-1.0393104553222656,-1.2605652809143066,7.940995216369629,9.043572425842285,6.6661553382873535
2_20251106_213705,1762436190511,2,0.2931413948535919,0.4147201180458069,0.32532596588134766,0.7976455092430115,1.4364960193634033,3.301949977874756,2.5454955101013184,7.768132209777832,8.00426197052002,5.405590057373047,1.6998876333236694,0.4804527163505554,-0.06275107711553574,5.470029830932617,-31.555938720703125,-5.332187652587891,-0.17286300659179688,-1.0393104553222656,-1.2605652809143066,7.940995216369629,9.043572425842285,6.6661553382873535
2_20251106_213705,1762436190530,2,0.28460535407066345,0.41565775871276855,0.3396165668964386,0.794285237789154,1.4825570583343506,3.2908101081848145,2.5655975341796875,7.638851165771484,7.8797688484191895,5.459456920623779,1.6271946430206299,0.4871722459793091,-0.23257148265838623,5.046952247619629,-31.773048400878906,-3.838245391845703,-0.2417149543762207,-0.9310431480407715,-0.9653587341308594,7.880566120147705,8.810811996459961,6.424815654754639
2_20251106_213705,1762436190550,2,0.27741700410842896,0.41556021571159363,0.35396260023117065,0.7906073331832886,1.5600801706314087,3.262241840362549,2.5902998447418213,7.7142653465271,7.201041221618652,4.797489166259766,1.4915827512741089,0.5433717966079712,-0.38162246346473694,4.837084770202637,-31.864044189453125,-2.293041229248047,-0.09743070602416992,-1.1013097763061523,-1.1066083908081055,7.8116960525512695,8.302350997924805,5.904097557067871
2_20251106_213705,1762436190571,2,0.2716060280799866,0.41408514976501465,0.3678798973560333,0.7870374917984009,1.6020970344543457,3.238940477371216,2.5964086055755615,7.692718505859375,6.802424430847168,4.437176704406738,1.3724640607833862,0.4865613579750061,-0.4567587971687317,4.693674087524414,-31.86235809326172,-0.8246345520019531,-0.09518194198608398,-1.199941635131836,-1.173536777496338,7.787900447845459,8.002366065979004,5.610713481903076
2_20251106_213705,1762436190588,2,0.2666379511356354,0.4122808873653412,0.38106411695480347,0.7834020853042603,1.6020970344543457,3.238940477371216,2.5964086055755615,7.692718505859375,6.802424430847168,4.437176704406738,1.3852921724319458,0.2892521023750305,-0.48424774408340454,4.600924968719482,-31.820098876953125,0.6735572814941406,-0.09518194198608398,-1.199941635131836,-1.173536777496338,7.787900447845459,8.002366065979004,5.610713481903076
2_20251106_213705,1762436190607,2,0.2625599503517151,0.4118671715259552,0.393776535987854,0.7786961793899536,1.660738229751587,3.194932460784912,2.5954463481903076,7.04990291595459,6.396624565124512,3.8194994926452637,1.4757002592086792,0.1511966437101364,-0.4494284391403198,4.572729587554932,-31.71094512939453,2.162006378173828,-0.5209665298461914,-1.056978702545166,-1.2044095993041992,7.570869445800781,7.453603267669678,5.023909091949463
2_20251106_213705,1762436190626,2,0.25825706124305725,0.41265347599983215,0.4066523313522339,0.7730810046195984,1.6876968145370483,3.1677422523498535,2.5877678394317627,6.969700813293457,6.172776222229004,3.0701467990875244,1.5221258401870728,0.008865173906087875,-0.3944506049156189,4.598013877868652,-31.510986328125,3.6812973022460938,-0.48093461990356445,-1.0246615409851074,-1.5630099773406982,7.4506354331970215,7.197437763214111,4.633156776428223
2_20251106_213705,1762436190645,2,0.25392481684684753,0.4147125780582428,0.41921550035476685,0.7666772603988647,1.7120667695999146,3.1389689445495605,2.5743062496185303,6.998429775238037,6.124894142150879,2.38543438911438,1.441491723060608,-0.23670245707035065,-0.3993375301361084,4.625091075897217,-31.296981811523438,5.05217170715332,-0.36176443099975586,-0.8580350875854492,-1.79817795753479,7.360194206237793,6.982929229736328,4.18361234664917
2_20251106_213705,1762436190664,2,0.25058844685554504,0.4181581437587738,0.4307263493537903,0.7594892978668213,1.734296202659607,3.107208728790283,2.554304838180542,6.656073570251465,6.000401020050049,2.0323047637939453,1.3022147417068481,-0.47860485315322876,-0.48302599787712097,4.728288173675537,-31.039329528808594,6.305135726928711,-0.5632963180541992,-0.7860226631164551,-1.7210462093353271,7.219369888305664,6.786423683166504,3.7533509731292725
2_20251106_213705,1762436190683,2,0.2494475543498993,0.42270150780677795,0.44089430570602417,0.7514729499816895,1.7510958909988403,3.0780208110809326,2.533015727996826,6.323293685913086,5.960898399353027,2.05265474319458,1.1268965005874634,-0.5793975591659546,-0.5722122192382812,4.93330192565918,-30.699844360351562,7.550090789794922,-0.7168607711791992,-0.6604204177856445,-1.3605570793151855,7.040154457092285,6.621318817138672,3.4132118225097656
2_20251106_213705,1762436190702,2,0.2500884532928467,0.427071750164032,0.4498814344406128,0.7434192895889282,1.7660346031188965,3.0454511642456055,2.505902051925659,6.120992660522461,6.042298316955566,1.8862648010253906,0.9882301688194275,-0.5787866711616516,-0.6229140162467957,5.2300214767456055,-30.2764892578125,8.502704620361328,-0.7353291511535645,-0.46321678161621094,-1.2215576171875,6.856321811676025,6.505515098571777,3.1078224182128906
2_20251106_213705,1762436190721,2,0.25160062313079834,0.4307001233100891,0.45806410908699036,0.7357797026634216,1.7768031358718872,3.0154824256896973,2.476776599884033,5.867218017578125,6.296072483062744,1.4110361337661743,0.9045417308807373,-0.6099408268928528,-0.6644527912139893,5.574187278747559,-29.863327026367188,9.538114547729492,-0.7912826538085938,-0.16755390167236328,-1.3574291467666626,6.658500671386719,6.463626384735107,2.768465280532837
2_20251106_213705,1762436190740,2,0.2538892924785614,0.4340668320655823,0.46571433544158936,0.7281733155250549,1.7839821577072144,2.9869072437286377,2.4452781677246094,5.5464091300964355,6.425353527069092,1.3727304935455322,0.9045417308807373,-0.6099408268928528,-0.6644527912139893,5.98128604888916,-29.420272827148438,10.495405197143555,-0.8896737098693848,-0.03061819076538086,-1.1165878772735596,6.43608283996582,6.455971717834473,2.489318370819092
2_20251106_213705,1762436190760,2,0.25721099972724915,0.4374278485774994,0.4729067087173462,0.7203184366226196,1.787543535232544,2.9597983360290527,2.4122745990753174,5.248343467712402,6.469644546508789,1.3667453527450562,0.7316669821739197,-0.711955189704895,-0.7890691757202148,6.447793006896973,-29.010108947753906,11.373258590698242,-0.9501914978027344,0.010938644409179688,-0.8980585336685181,6.198534965515137,6.458705902099609,2.264803886413574
2_20251106_213705,1762436190780,2,0.2614137530326843,0.4402250349521637,0.47969889640808105,0.7125684022903442,1.7870030403137207,2.930913209915161,2.3737404346466064,4.921548843383789,6.333181381225586,1.1069855690002441,0.6754674911499023,-0.7174529433250427,-0.8287754058837891,7.065118789672852,-28.54936981201172,11.919881820678711,-1.0215888023376465,-0.10041999816894531,-0.9262547492980957,5.9431376457214355,6.433601379394531,2.03324031829834
2_20251106_213705,1762436190799,2,0.26619666814804077,0.4426347315311432,0.48618581891059875,0.7048667669296265,1.7828718423843384,2.9057281017303467,2.33693528175354,4.606724739074707,6.3032546043396,0.6904125213623047,0.6009419560432434,-0.7394440770149231,-0.7909018397331238,7.757773399353027,-28.046058654785156,12.456724166870117,-1.0691304206848145,-0.10427713394165039,-1.074262261390686,5.6758551597595215,6.40753173828125,1.7646747827529907
2_20251106_213705,1762436190817,2,0.27118179202079773,0.4451214671134949,0.49190446734428406,0.6973932385444641,1.7765992879867554,2.884141683578491,2.303225517272949,4.418788433074951,6.325998306274414,0.6604862809181213,0.6009419560432434,-0.7394440770149231,-0.7909018397331238,7.757773399353027,-28.046058654785156,12.456724166870117,-1.0056533813476562,-0.06522703170776367,-0.8833507895469666,5.424441814422607,6.391225337982178,1.543837070465088
2_20251106_213705,1762436190836,2,0.2768138647079468,0.44800078868865967,0.49612337350845337,0.6903122067451477,1.7661385536193848,2.860257863998413,2.2628390789031982,4.289506912231445,6.470841407775879,0.6521068811416626,0.331550657749176,-0.9343099594116211,-0.6962177753448486,8.509540557861328,-27.57604217529297,12.954679489135742,-0.9079475402832031,0.06369304656982422,-0.7133841514587402,5.197454452514648,6.407148361206055,1.3654910326004028
2_20251106_213705,1762436190855,2,0.2832340896129608,0.45137080550193787,0.4991021156311035,0.6833300590515137,1.7531919479370117,2.839353561401367,2.2243642807006836,3.919618606567383,6.644413948059082,0.6269688606262207,0.2906227111816406,-1.0131114721298218,-0.7243175506591797,9.249404907226562,-27.11803436279297,13.316717147827148,-1.0222687721252441,0.18981266021728516,-0.5908176898956299,4.941887378692627,6.454601287841797,1.2177865505218506
2_20251106_213705,1762436190874,2,0.29039326310157776,0.45492997765541077,0.5016579627990723,0.6760545372962952,1.7366856336593628,2.820580244064331,2.18538761138916,3.4084787368774414,6.850306510925293,0.3336917757987976,0.2906227111816406,-1.0131114721298218,-0.7243175506591797,10.011712074279785,-26.70745086669922,13.557031631469727,-1.22672700881958,0.31656408309936523,-0.7072758078575134,4.6352057456970215,6.533742427825928,1.040967583656311
2_20251106_213705,1762436190893,2,0.2980614900588989,0.4579884707927704,0.504015326499939,0.6688605546951294,1.7366856336593628,2.820580244064331,2.18538761138916,3.4084787368774414,6.850306510925293,0.3336917757987976,0.23747749626636505,-1.0008941888809204,-0.7646346092224121,10.85063362121582,-26.252540588378906,13.611852645874023,-1.22672700881958,0.31656408309936523,-0.7072758078575134,4.6352057456970215,6.533742427825928,1.040967583656311
2_20251106_213705,1762436190913,2,0.306109756231308,0.4602685570716858,0.5056297183036804,0.6624109148979187,1.7138102054595947,2.801708459854126,2.1419551372528076,2.9811320304870605,6.784468650817871,0.29299208521842957,-0.03924424201250076,-0.8860516548156738,-0.6986612677574158,11.65349006652832,-25.799339294433594,13.597623825073242,-1.323258876800537,0.20058107376098633,-0.598380446434021,4.304390907287598,6.583887577056885,0.8913725018501282
2_20251106_213705,1762436190931,2,0.314875990152359,0.4625386595726013,0.5057063698768616,0.6566370129585266,1.689847707748413,2.7861266136169434,2.102909803390503,2.736933946609497,6.816788673400879,0.2666569948196411,-0.10582849383354187,-0.9172057509422302,-0.6247466206550598,12.526729583740234,-25.40308380126953,13.476884841918945,-1.2539656162261963,0.18632078170776367,-0.4997723698616028,3.9908995628356934,6.630467891693115,0.7664293646812439
2_20251106_213705,1762436190950,2,0.3227335512638092,0.46440669894218445,0.5055328607559204,0.6516180038452148,1.6633769273757935,2.7721734046936035,2.0641403198242188,2.6399729251861572,6.940085411071777,0.15533140301704407,-0.1809648722410202,-0.9581336379051208,-0.5551080703735352,13.41053581237793,-25.04302978515625,13.288263320922852,-1.0807414054870605,0.2476940155029297,-0.48887839913368225,3.7207143306732178,6.692391395568848,0.6442098021507263
2_20251106_213705,1762436190970,2,0.33081740140914917,0.4667068421840668,0.5043175220489502,0.6468449234962463,1.634939432144165,2.7602345943450928,2.0263028144836426,2.521465301513672,7.1723127365112305,0.2774304449558258,-0.2842010259628296,-0.989287793636322,-0.5025736689567566,14.279914855957031,-24.74480438232422,12.922121047973633,-0.9593992233276367,0.38393688201904297,-0.29342350363731384,3.4808645248413086,6.7883758544921875,0.5708539485931396
2_20251106_213705,1762436190990,2,0.33919256925582886,0.4690539836883545,0.5020719766616821,0.6425422430038452,1.5733598470687866,2.7447311878204346,1.9568299055099487,2.188685417175293,7.807945728302002,0.8867285847663879,-0.3006943464279175,-0.9941746592521667,-0.5099040269851685,15.091777801513672,-24.399513244628906,12.473485946655273,-0.8582136631011963,0.6871914863586426,0.2546384334564209,3.0468990802764893,7.120754241943359,0.632090151309967
2_20251106_213705,1762436191008,2,0.3478027582168579,0.4712984561920166,0.49961814284324646,0.6381948590278625,1.542337417602539,2.740600109100342,1.927199363708496,1.9480783939361572,7.760064125061035,0.7897676229476929,-0.295196533203125,-0.8994906544685364,-0.5172344446182251,15.862037658691406,-24.15625,11.940168380737305,-0.8790566921234131,0.5114479064941406,0.1261419653892517,2.8271350860595703,7.2486162185668945,0.6636256575584412
2_20251106_213705,1762436191027,2,0.35595571994781494,0.47280392050743103,0.4975074529647827,0.6342225670814514,1.5104303359985352,2.737952709197998,1.8976808786392212,1.8379498720169067,7.767246246337891,0.10744941234588623,-0.295196533203125,-0.8994906544685364,-0.5172344446182251,16.646682739257812,-23.886001586914062,11.299741744995117,-0.7913480997085571,0.4149041175842285,-0.444940984249115,2.629297971725464,7.352342128753662,0.5523903965950012
2_20251106_213705,1762436191046,2,0.3639537990093231,0.47383707761764526,0.49527639150619507,0.6306483745574951,1.4737517833709717,2.736961603164673,1.8643109798431396,1.6428308486938477,7.945606231689453,-0.17505420744419098,-0.33307015895843506,-0.8335172533988953,-0.5062388777732849,17.318029403686523,-23.685821533203125,10.667095184326172,-0.7891736030578613,0.4746112823486328,-0.5819556713104248,2.432004451751709,7.47099494934082,0.406901478767395
2_20251106_213705,1762436191065,2,0.3726162910461426,0.4751094877719879,0.49188897013664246,0.6272745132446289,1.4378962516784668,2.7382659912109375,1.8337146043777466,1.4285589456558228,8.272401809692383,0.2319425642490387,-0.6195657253265381,-0.9013232588768005,-0.42743730545043945,18.037601470947266,-23.506362915039062,9.914236068725586,-0.8027564287185669,0.6411256790161133,-0.139967143535614,2.2313153743743896,7.6312761306762695,0.3719097077846527
2_20251106_213705,1762436191085,2,0.38187259435653687,0.47611379623413086,0.48721954226493835,0.6245847344398499,1.3992655277252197,2.7421998977661133,1.8043957948684692,1.3184304237365723,8.49625015258789,0.7921617031097412,-0.6195657253265381,-0.9013232588768005,-0.42743730545043945,18.671772003173828,-23.332603454589844,9.17146110534668,-0.7303080558776855,0.6919794082641602,0.33620160818099976,2.048738479614258,7.8042707443237305,0.45596009492874146
2_20251106_213705,1762436191105,2,0.3912281095981598,0.4761775732040405,0.48208028078079224,0.6227311491966248,1.3604481220245361,2.7482481002807617,1.7783074378967285,1.3519479036331177,8.564481735229492,1.0363597869873047,-0.7557885646820068,-0.7003487944602966,-0.3736812174320221,19.20954132080078,-23.163711547851562,8.276082992553711,-0.5574324131011963,0.6081686019897461,0.46431976556777954,1.909380316734314,7.956313133239746,0.5720400214195251
2_20251106_213705,1762436191123,2,0.3998779058456421,0.4754846692085266,0.4769279360771179,0.6217328310012817,1.3263789415359497,2.7549140453338623,1.7570126056671143,1.5518549680709839,8.563283920288086,0.9824925661087036,-0.7252453565597534,-0.6881314516067505,-0.25761693716049194,19.683671951293945,-23.037269592285156,7.458559036254883,-0.2860203981399536,0.4855766296386719,0.32836204767227173,1.8378753662109375,8.077707290649414,0.6541305184364319
2_20251106_213705,1762436191141,2,0.4077253043651581,0.4753972887992859,0.47131016850471497,0.6209864616394043,1.293668508529663,2.7627577781677246,1.7372785806655884,1.6978950500488281,8.691368103027344,0.8556052446365356,-0.6684349179267883,-0.8200782537460327,-0.11162025481462479,20.169878005981445,-22.921783447265625,6.560163497924805,-0.1119842529296875,0.49092864990234375,0.161179780960083,1.8098793029785156,8.200439453125,0.6944254636764526
2_20251106_213705,1762436191160,2,0.41496768593788147,0.47697708010673523,0.46478989720344543,0.6198911070823669,1.2610623836517334,2.771641731262207,1.7180994749069214,1.8810436725616455,8.571663856506348,0.9166548252105713,-0.6684349179267883,-0.8200782537460327,-0.11162025481462479,20.6651554107666,-22.85614013671875,5.701751708984375,0.056931495666503906,0.2969789505004883,0.17778348922729492,1.8241121768951416,8.27468490600586,0.7388713359832764
2_20251106_213705,1762436191180,2,0.42192521691322327,0.4806042015552521,0.4570850431919098,0.6181197166442871,1.2297428846359253,2.7814829349517822,1.699995756149292,2.247340679168701,8.589618682861328,1.092621088027954,-0.5810812711715698,-1.1163476705551147,0.1718209683895111,21.062620162963867,-22.820480346679688,4.690208435058594,0.33858275413513184,0.25194740295410156,0.28299981355667114,1.9087579250335693,8.337671279907227,0.809621274471283
2_20251106_213705,1762436191200,2,0.42833206057548523,0.48554113507270813,0.4484142065048218,0.6162030100822449,1.2297428846359253,2.7814829349517822,1.699995756149292,2.247340679168701,8.589618682861328,1.092621088027954,-0.5810812711715698,-1.1163476705551147,0.1718209683895111,21.412948608398438,-22.762611389160156,3.6501998901367188,0.33858275413513184,0.25194740295410156,0.28299981355667114,1.9087579250335693,8.337671279907227,0.809621274471283
2_20251106_213705,1762436191220,2,0.4351150393486023,0.49033862352371216,0.43891972303390503,0.614485502243042,1.1781189441680908,2.8045480251312256,1.6730130910873413,2.5418148040771484,9.258769989013672,1.8276093006134033,-0.7942730784416199,-0.9868443012237549,0.04964803159236908,21.648866653442383,-22.799522399902344,2.5768966674804688,0.40630555152893066,0.6513662338256836,0.7206538915634155,2.1355092525482178,8.607403755187988,1.1069554090499878
2_20251106_213705,1762436191240,2,0.44275081157684326,0.49316078424453735,0.42969515919685364,0.613291323184967,1.153870701789856,2.819718360900879,1.6653913259506226,2.3347253799438477,9.34495735168457,2.433316469192505,-0.9091156721115112,-0.8182457089424133,-0.19042180478572845,21.850439071655273,-22.801010131835938,1.4893970489501953,0.15937280654907227,0.5900430679321289,1.0610889196395874,2.1753525733947754,8.754914283752441,1.3722275495529175
2_20251106_213705,1762436191257,2,0.4516087770462036,0.49340352416038513,0.42156335711479187,0.612280011177063,1.1358774900436401,2.8315207958221436,1.6633085012435913,1.9480783939361572,9.177370071411133,3.137181520462036,-0.9665369391441345,-0.6636968851089478,-0.4036135673522949,21.850439071655273,-22.801010131835938,1.4893970489501953,-0.18181920051574707,0.3379650115966797,1.4119632244110107,2.1298975944519043,8.839405059814453,1.7252182960510254
2_20251106_213705,1762436191275,2,0.461357057094574,0.4914713501930237,0.41468387842178345,0.6112633347511292,1.1136809587478638,2.8449742794036865,1.6645305156707764,1.4381355047225952,8.890079498291016,3.027052879333496,-0.9769216179847717,-0.5335826873779297,-0.5050171613693237,22.029247283935547,-22.778701782226562,0.37441253662109375,-0.5534096956253052,0.04053974151611328,1.0414676666259766,1.9915452003479004,8.849539756774902,1.9855852127075195
2_20251106_213705,1762436191294,2,0.47133222222328186,0.4881907105445862,0.40864327549934387,0.6103494763374329,1.089755654335022,2.8574624061584473,1.6673040390014648,0.9569215178489685,8.742841720581055,2.573371171951294,-0.9469892382621765,-0.4963199496269226,-0.4763064980506897,22.221046447753906,-22.742904663085938,-0.7533340454101562,-0.8276990056037903,-0.0853586196899414,0.470228910446167,1.7846205234527588,8.828200340270996,2.103142261505127
2_20251106_213705,1762436191314,2,0.48082396388053894,0.48485273122787476,0.4028317928314209,0.6094692349433899,1.064089059829712,2.868885040283203,1.670365333557129,0.7139204740524292,8.667427062988281,2.258547306060791,-0.9396588802337646,-0.5201436877250671,-0.3730703592300415,22.390981674194336,-22.670486450195312,-1.9353351593017578,-0.8565601110458374,-0.12861919403076172,0.12432408332824707,1.5704805850982666,8.796046257019043,2.134223222732544
2_20251106_213705,1762436191333,2,0.48989370465278625,0.4821726381778717,0.3964059352874756,0.6085852384567261,1.0358548164367676,2.8800549507141113,1.6742411851882935,0.7258909940719604,8.712915420532227,2.402193069458008,-0.9396588802337646,-0.5201436877250671,-0.3730703592300415,22.579137802124023,-22.49627685546875,-3.1687984466552734,-0.6756716966629028,-0.06650447845458984,0.21437597274780273,1.4015626907348633,8.779419898986816,2.187817096710205
2_20251106_213705,1762436191352,2,0.4982132315635681,0.47959694266319275,0.3893401026725769,0.6084280014038086,1.0358548164367676,2.8800549507141113,1.6742411851882935,0.7258909940719604,8.712915420532227,2.402193069458008,-1.0648860931396484,-0.600777804851532,-0.19530874490737915,22.697616577148438,-22.25257110595703,-4.295490264892578,-0.6756716966629028,-0.06650447845458984,0.21437597274780273,1.4015626907348633,8.779419898986816,2.187817096710205
2_20251106_213705,1762436191371,2,0.5069670677185059,0.4773632884025574,0.3809892535209656,0.608240008354187,0.9819599390029907,2.9033870697021484,1.6873302459716797,0.9401628375053406,9.63105297088623,3.2377336025238037,-1.0709947347640991,-0.5873388051986694,-0.1873674988746643,22.85285186767578,-22.00621795654297,-5.4477434158325195,-0.279973566532135,0.630274772644043,0.7249999046325684,1.2201364040374756,9.000778198242188,2.5127336978912354
2_20251106_213705,1762436191390,2,0.5157191157341003,0.47501716017723083,0.372455358505249,0.6080045700073242,0.9561659097671509,2.9176435470581055,1.6973406076431274,1.0538824796676636,9.893206596374512,3.5238282680511475,-1.0154061317443848,-0.5177002549171448,-0.2081368863582611,23.02540397644043,-21.6708984375,-6.624691009521484,-0.1330031156539917,0.7139425277709961,0.8088757991790771,1.1868855953216553,9.179264068603516,2.7149524688720703
2_20251106_213705,1762436191411,2,0.5240346789360046,0.47239625453948975,0.36463063955307007,0.6076791286468506,0.9561659097671509,2.9176435470581055,1.6973406076431274,1.0538824796676636,9.893206596374512,3.5238282680511475,-0.9359936714172363,-0.45844632387161255,-0.20019565522670746,23.223243713378906,-21.309547424316406,-7.732548713684082,-0.1330031156539917,0.7139425277709961,0.8088757991790771,1.1868855953216553,9.179264068603516,2.7149524688720703
2_20251106_213705,1762436191430,2,0.5317500829696655,0.4698372483253479,0.3574184775352478,0.6072452664375305,0.906916618347168,2.9513046741485596,1.7220940589904785,1.4393324851989746,9.909964561462402,3.545375347137451,-0.9048395752906799,-0.5519086718559265,-0.16843068599700928,23.360858917236328,-20.939613342285156,-8.842595100402832,0.18723082542419434,0.47894763946533203,0.5812680721282959,1.2521016597747803,9.43101692199707,2.9641072750091553
2_20251106_213705,1762436191448,2,0.5393584966659546,0.46813446283340454,0.34973475337028503,0.6063234806060791,0.906916618347168,2.9513046741485596,1.7220940589904785,1.4393324851989746,9.909964561462402,3.545375347137451,-0.8926222920417786,-0.6019995808601379,-0.19225440919399261,23.499277114868164,-20.556983947753906,-9.965892791748047,0.18723082542419434,0.47894763946533203,0.5812680721282959,1.2521016597747803,9.43101692199707,2.9641072750091553
2_20251106_213705,1762436191466,2,0.5472942590713501,0.46671608090400696,0.3417939245700836,0.6048322319984436,0.8691741228103638,2.9847774505615234,1.7523574829101562,1.4548940658569336,10.161345481872559,4.37971830368042,-0.8431422710418701,-0.5421348214149475,-0.3015991747379303,23.61353302001953,-20.1640625,-11.022326469421387,0.12193453311920166,0.48005199432373047,0.9529151916503906,1.332959532737732,9.681293487548828,3.4268031120300293
2_20251106_213705,1762436191486,2,0.5553717017173767,0.4647209644317627,0.33489593863487244,0.6028609871864319,0.8497471213340759,3.0037341117858887,1.7724775075912476,1.2513957023620605,10.000940322875977,4.413235664367676,-0.8431422710418701,-0.5421348214149475,-0.3015991747379303,23.60956573486328,-19.704551696777344,-12.000983238220215,-0.06525111198425293,0.2557182312011719,0.7891461849212646,1.3166468143463135,9.745222091674805,3.624089479446411
2_20251106_213705,1762436191504,2,0.5638188123703003,0.46165770292282104,0.3294680714607239,0.600359320640564,0.8497471213340759,3.0037341117858887,1.7724775075912476,1.2513957023620605,10.000940322875977,4.413235664367676,-0.8242054581642151,-0.30878448486328125,-0.6149727702140808,23.62534523010254,-19.31932830810547,-12.926177978515625,-0.06525111198425293,0.2557182312011719,0.7891461849212646,1.3166468143463135,9.745222091674805,3.624089479446411
2_20251106_213705,1762436191524,2,0.5728067755699158,0.45731255412101746,0.3252408802509308,0.5974746942520142,0.8112600445747375,3.037193536758423,1.8161684274673462,0.4769046902656555,9.73519515991211,4.9459228515625,-0.8242054581642151,-0.30878448486328125,-0.6149727702140808,23.706790924072266,-18.842506408691406,-13.820039749145508,-0.6038951277732849,-0.010438919067382812,0.9026656150817871,1.0807998180389404,9.745634078979492,4.043257236480713
2_20251106_213705,1762436191544,2,0.582274317741394,0.4516126811504364,0.321580171585083,0.5946333408355713,0.7885389924049377,3.052953004837036,1.8422887325286865,0.11419875919818878,9.58077621459961,5.123085975646973,-0.8914005756378174,-0.19638536870479584,-0.7041590213775635,23.813920974731445,-18.33911895751953,-14.698877334594727,-0.7732808589935303,-0.13188648223876953,0.8638629913330078,0.8874796032905579,9.712662696838379,4.259222984313965
2_20251106_213705,1762436191563,2,0.5915087461471558,0.44526568055152893,0.318423330783844,0.5919986963272095,0.7885389924049377,3.052953004837036,1.8422887325286865,0.11419875919818878,9.58077621459961,5.123085975646973,-0.7796123027801514,-0.10353393107652664,-0.6284117698669434,23.960033416748047,-17.783653259277344,-15.521121978759766,-0.7732808589935303,-0.13188648223876953,0.8638629913330078,0.8874796032905579,9.712662696838379,4.259222984313965
2_20251106_213705,1762436191581,2,0.599830687046051,0.43973204493522644,0.3155139088630676,0.5893130302429199,0.741634726524353,3.0779659748077393,1.8923754692077637,-0.26885703206062317,9.395234107971191,4.915996551513672,-0.6794304847717285,-0.17561598122119904,-0.47813910245895386,22.01447296142578,-17.3421630859375,-16.271648406982422,-0.7557607293128967,-0.2111988067626953,0.4053959846496582,0.48690369725227356,9.606432914733887,4.510600566864014
2_20251106_213705,1762436191600,2,0.6070229411125183,0.43557772040367126,0.31218385696411133,0.5868018865585327,0.741634726524353,3.0779659748077393,1.8923754692077637,-0.26885703206062317,9.395234107971191,4.915996551513672,-0.6262852549552917,-0.23731331527233124,-0.30526435375213623,22.166149139404297,-16.66315460205078,-16.88850975036621,-0.7557607293128967,-0.2111988067626953,0.4053959846496582,0.48690369725227356,9.606432914733887,4.510600566864014
2_20251106_213705,1762436191620,2,0.6132568717002869,0.4326332211494446,0.30802300572395325,0.5846933126449585,0.6918548345565796,3.100855588912964,1.9439659118652344,0.16208073496818542,9.912359237670898,5.248776435852051,-0.602461576461792,-0.22265256941318512,-0.20202824473381042,22.31330108642578,-16.059890747070312,-17.466405868530273,-0.16172847151756287,0.25612449645996094,0.5251030921936035,0.3238092064857483,9.656234741210938,4.723673343658447
2_20251106_213705,1762436191640,2,0.6186926960945129,0.43005719780921936,0.30366119742393494,0.5831466913223267,0.6678434014320374,3.114572763442993,1.9724116325378418,0.48528406023979187,10.357662200927734,5.521703720092773,-0.6128462553024292,-0.0955926850438118,-0.22157591581344604,22.482711791992188,-15.492713928222656,-18.044113159179688,0.12917989492416382,0.5611419677734375,0.6384243965148926,0.35610416531562805,9.796520233154297,4.883279323577881
2_20251106_213705,1762436191659,2,0.6238678097724915,0.4266653060913086,0.3000202178955078,0.5820081830024719,0.6461093425750732,3.129448175430298,2.0018198490142822,0.7103293538093567,10.403148651123047,5.667743682861328,-0.5749726295471191,0.061399538069963455,-0.31442731618881226,22.665630340576172,-14.888145446777344,-18.512407302856445,0.2833801507949829,0.4853029251098633,0.6275715827941895,0.4269492030143738,9.917845726013184,5.040172100067139
2_20251106_213705,1762436191677,2,0.6289095282554626,0.4224047362804413,0.29784631729125977,0.5808051228523254,0.6281360983848572,3.1429903507232666,2.02807879447937,0.6744178533554077,10.252321243286133,5.492974281311035,-0.49678194522857666,0.1676899939775467,-0.37062689661979675,22.665630340576172,-14.888145446777344,-18.512407302856445,0.19797492027282715,0.2675800323486328,0.3622417449951172,0.47644293308258057,9.9847412109375,5.130732536315918
2_20251106_213705,1762436191696,2,0.6336060166358948,0.41789349913597107,0.29691267013549805,0.5794404745101929,0.6281360983848572,3.1429903507232666,2.02807879447937,0.6744178533554077,10.252321243286133,5.492974281311035,-0.4143151640892029,0.14264453947544098,-0.3419162631034851,22.774433135986328,-14.301307678222656,-18.943359375,0.19797492027282715,0.2675800323486328,0.3622417449951172,0.47644293308258057,9.9847412109375,5.130732536315918
2_20251106_213705,1762436191715,2,0.6378988027572632,0.41415590047836304,0.2961422801017761,0.5778059959411621,0.6096206307411194,3.1577563285827637,2.056497573852539,0.6265358924865723,10.139799118041992,5.361299514770508,-0.3220745921134949,0.07911462336778641,-0.25761693716049194,22.86492919921875,-13.804779052734375,-19.214454650878906,0.12007439136505127,0.12404632568359375,0.18445348739624023,0.506461501121521,10.015752792358398,5.176846027374268
2_20251106_213705,1762436191734,2,0.641456127166748,0.4115571081638336,0.29521679878234863,0.576196014881134,0.5789082646369934,3.1832101345062256,2.1060521602630615,0.749832034111023,9.962635040283203,5.198500156402588,-0.22922317683696747,0.05651262402534485,-0.16904154419898987,22.940418243408203,-13.359275817871094,-19.487096786499023,0.17739975452423096,-0.04931831359863281,-0.005103111267089844,0.572432279586792,10.011953353881836,5.203603267669678
2_20251106_213705,1762436191754,2,0.644187867641449,0.40989866852760315,0.29433372616767883,0.5747806429862976,0.5655267238616943,3.194993495941162,2.128885507583618,0.9006602168083191,9.935103416442871,4.961484909057617,-0.1766888052225113,0.02719111740589142,-0.10978766530752182,23.010677337646484,-13.0020751953125,-19.721036911010742,0.26258236169815063,-0.06147956848144531,-0.193695068359375,0.6380778551101685,9.996582984924316,5.155179977416992
2_20251106_213705,1762436191773,2,0.6464971899986267,0.40895408391952515,0.2932734489440918,0.5734009146690369,0.553823709487915,3.206150531768799,2.1497764587402344,1.0060005187988281,9.982985496520996,4.8633270263671875,-0.16691496968269348,0.009476039558649063,-0.09329431504011154,23.040756225585938,-12.710174560546875,-19.944252014160156,0.2943381071090698,-0.010877609252929688,-0.23348236083984375,0.7116624116897583,9.993863105773926,5.096809387207031
2_20251106_213705,1762436191792,2,0.6476482152938843,0.4077413082122803,0.2928350865840912,0.5731896758079529,0.5436118841171265,3.2168116569519043,2.169123411178589,1.0419119596481323,10.016502380371094,4.914799213409424,-0.15897372364997864,0.01375209167599678,-0.13483312726020813,23.083740234375,-12.393310546875,-20.071834564208984,0.2641996741294861,0.018111228942871094,-0.14560794830322266,0.7777122855186462,9.998391151428223,5.0604071617126465
2_20251106_213705,1762436191810,2,0.6499905586242676,0.40700510144233704,0.29188987612724304,0.5715412497520447,0.5344352126121521,3.227130651473999,2.1868605613708496,0.968891978263855,10.067975044250488,4.826218128204346,-0.13087394833564758,0.035132355988025665,-0.20508256554603577,23.14666748046875,-12.150466918945312,-20.172988891601562,0.15294373035430908,0.05566692352294922,-0.18735170364379883,0.8159482479095459,10.012308120727539,5.0135698318481445
2_20251106_213705,1762436191830,2,0.652503490447998,0.40612107515335083,0.29151585698127747,0.5694939494132996,0.5249847173690796,3.2370002269744873,2.2047815322875977,0.7258909940719604,9.864477157592773,5.074007511138916,-0.08566995710134506,0.000923932995647192,-0.2704451084136963,23.236190795898438,-11.856620788574219,-20.191007614135742,-0.07204580307006836,-0.11826515197753906,0.048349857330322266,0.7979367971420288,9.982742309570312,5.025657653808594
2_20251106_213705,1762436191849,2,0.6552701592445374,0.40553539991378784,0.29145151376724243,0.5667610168457031,0.5153449773788452,3.24487042427063,2.2212159633636475,0.39311128854751587,9.604717254638672,5.120691776275635,-0.02152916230261326,0.011308632791042328,-0.28754931688308716,23.320079803466797,-11.663230895996094,-20.211137771606445,-0.3238604664802551,-0.30242061614990234,0.07602691650390625,0.716971755027771,9.907137870788574,5.0446648597717285
2_20251106_213705,1762436191869,2,0.6578479409217834,0.4051496386528015,0.29188063740730286,0.5638222694396973,0.5153449773788452,3.24487042427063,2.2212159633636475,0.39311128854751587,9.604717254638672,5.120691776275635,-0.02152916230261326,0.011308632791042328,-0.28754931688308716,23.393386840820312,-11.44525146484375,-20.258264541625977,-0.3238604664802551,-0.30242061614990234,0.07602691650390625,0.716971755027771,9.907137870788574,5.0446648597717285
2_20251106_213705,1762436191887,2,0.6598348617553711,0.4049651622772217,0.2928488552570343,0.5611245036125183,0.493868350982666,3.2534844875335693,2.249943971633911,0.17883943021297455,8.951128005981445,4.699330806732178,0.05482892692089081,0.08522326499223709,-0.1256701499223709,23.45431137084961,-11.22833251953125,-20.278846740722656,-0.3442131280899048,-0.6524496078491211,-0.2631497383117676,0.5230525732040405,9.603577613830566,4.962480545043945
2_20251106_213705,1762436191906,2,0.6610730886459351,0.40501436591148376,0.29356828331947327,0.5592525005340576,0.48197367787361145,3.2546744346618652,2.262819528579712,0.3141060173511505,8.936763763427734,4.634690284729004,0.04016817361116409,0.01375209167599678,0.025213440880179405,23.52440643310547,-11.061119079589844,-20.272964477539062,-0.16715726256370544,-0.5334510803222656,-0.26223230361938477,0.48126327991485596,9.47021484375,4.896922588348389
2_20251106_213705,1762436191926,2,0.6617345809936523,0.4057891368865967,0.2931906580924988,0.55810546875,0.4707951247692108,3.254230499267578,2.2753021717071533,0.5211955904960632,8.952325820922852,4.979440689086914,0.05360719561576843,-0.0900949016213417,0.1461646407842636,23.594398498535156,-10.89404296875,-20.253564834594727,0.0319458544254303,-0.41431140899658203,0.06601428985595703,0.48924973607063293,9.366637229919434,4.913426399230957
2_20251106_213705,1762436191947,2,0.661989688873291,0.4075668752193451,0.29173117876052856,0.5572717785835266,0.4607675075531006,3.252403736114502,2.2878854274749756,0.6839942932128906,8.904443740844727,5.151815414428711,0.12080231308937073,-0.12369246780872345,0.19075778126716614,23.663082122802734,-10.751945495605469,-20.24820899963379,0.1557956337928772,-0.3697547912597656,0.19071149826049805,0.5281986594200134,9.274198532104492,4.961103916168213
2_20251106_213705,1762436191963,2,0.6617946028709412,0.41000327467918396,0.2902100086212158,0.5565100312232971,0.4607675075531006,3.252403736114502,2.2878854274749756,0.6839942932128906,8.904443740844727,5.151815414428711,0.16661716997623444,-0.10353393107652664,0.15960365533828735,23.694107055664062,-10.625328063964844,-20.190523147583008,0.1557956337928772,-0.3697547912597656,0.19071149826049805,0.5281986594200134,9.274198532104492,4.961103916168213
2_20251106_213705,1762436191983,2,0.6614965796470642,0.4124915301799774,0.28915223479270935,0.5555753707885742,0.4455564320087433,3.2458834648132324,2.3104803562164307,0.8240490555763245,8.710521697998047,5.079992294311523,0.1629519909620285,-0.040614865720272064,0.09729548543691635,23.607494354248047,-10.655868530273438,-20.20800018310547,0.19413244724273682,-0.3831615447998047,0.07053422927856445,0.6299166083335876,9.093683242797852,5.009458065032959
2_20251106_213705,1762436192002,2,0.6613106727600098,0.41442984342575073,0.28872764110565186,0.5545741319656372,0.4455564320087433,3.2458834648132324,2.3104803562164307,0.8240490555763245,8.710521697998047,5.079992294311523,0.14462603628635406,0.03391062840819359,0.044761113822460175,23.580318450927734,-10.696075439453125,-20.11515998840332,0.19413244724273682,-0.3831615447998047,0.07053422927856445,0.6299166083335876,9.093683242797852,5.009458065032959
2_20251106_213705,1762436192020,2,0.6612857580184937,0.4157138764858246,0.28885307908058167,0.5535765886306763,0.43408241868019104,3.235217332839966,2.3294296264648438,0.8731280565261841,8.545328140258789,4.662221908569336,0.1171371191740036,0.025358520448207855,0.011163554154336452,23.574790954589844,-10.784782409667969,-20.03590965270996,0.15852820873260498,-0.3632049560546875,-0.24847030639648438,0.7145998477935791,8.908533096313477,4.91069221496582
2_20251106_213705,1762436192040,2,0.6614739298820496,0.4167705476284027,0.2889789044857025,0.5524905323982239,0.4291169345378876,3.2284607887268066,2.3373684883117676,0.7953198552131653,8.503432273864746,4.674192428588867,0.08842648565769196,-0.021067196503281593,-0.018157953396439552,23.497554779052734,-10.853141784667969,-19.959074020385742,0.06457597017288208,-0.3240804672241211,-0.18919992446899414,0.7307438850402832,8.827512741088867,4.863392353057861
2_20251106_213705,1762436192061,2,0.6620447039604187,0.41782867908477783,0.28878089785575867,0.5511094331741333,0.42393290996551514,3.220635175704956,2.3447394371032715,0.658856213092804,8.475898742675781,4.676586627960205,0.045665957033634186,-0.02228892594575882,-0.05908589065074921,23.429080963134766,-10.983352661132812,-19.896583557128906,-0.057510197162628174,-0.28129100799560547,-0.149444580078125,0.7163664102554321,8.757189750671387,4.82603120803833
2_20251106_213705,1762436192081,2,0.6630167961120605,0.4184969663619995,0.2885136306285858,0.5495715141296387,0.41793859004974365,3.211656093597412,2.352081775665283,0.5595011711120605,8.539342880249023,4.728059768676758,-0.032524727284908295,0.005810850765556097,-0.07435750216245651,23.325462341308594,-11.090835571289062,-19.835037231445312,-0.1254921555519104,-0.17427730560302734,-0.07837724685668945,0.684993326663971,8.71362018585205,4.806437015533447
2_20251106_213705,1762436192099,2,0.6643035411834717,0.4184577763080597,0.2881006896495819,0.5482625961303711,0.41793859004974365,3.211656093597412,2.352081775665283,0.5595011711120605,8.539342880249023,4.728059768676758,-0.08750255405902863,0.010086903348565102,-0.05603156238794327,23.220626831054688,-11.223167419433594,-19.80105209350586,-0.1254921555519104,-0.17427730560302734,-0.07837724685668945,0.684993326663971,8.71362018585205,4.806437015533447
2_20251106_213705,1762436192116,2,0.6657065749168396,0.4180839955806732,0.28737178444862366,0.5472275614738464,0.4078076183795929,3.1980648040771484,2.3640706539154053,0.4948604702949524,8.785934448242188,5.119495391845703,-0.10094156861305237,0.03879754617810249,-0.010216712951660156,23.220626831054688,-11.223167419433594,-19.80105209350586,-0.12015283107757568,0.07443523406982422,0.23157644271850586,0.6150133013725281,8.711499214172363,4.887918949127197
2_20251106_213705,1762436192136,2,0.6668431758880615,0.4175589680671692,0.28658589720726013,0.5466563701629639,0.402317076921463,3.1923463344573975,2.371917247772217,0.5319690108299255,9.069636344909668,5.428333759307861,-0.14125865697860718,0.05712348595261574,0.04598284512758255,23.204917907714844,-11.2867431640625,-19.8028621673584,-0.06643545627593994,0.28650951385498047,0.43233156204223633,0.5984044671058655,8.783126831054688,4.996002197265625
2_20251106_213705,1762436192155,2,0.667793869972229,0.4168173372745514,0.28548464179039,0.5466380715370178,0.3968283534049988,3.1879756450653076,2.3823373317718506,0.599003791809082,9.226449966430664,5.842512607574463,-0.11560232937335968,0.04124100133776665,0.09363029152154922,23.22728729248047,-11.311080932617188,-19.721311569213867,0.0004794597625732422,0.3546581268310547,0.677208423614502,0.5985243320465088,8.87179183959961,5.165304183959961
2_20251106_213705,1762436192174,2,0.6683890223503113,0.41640058159828186,0.2842588722705841,0.5468670129776001,0.3968283534049988,3.1879756450653076,2.3823373317718506,0.599003791809082,9.226449966430664,5.842512607574463,0.0707114115357399,0.060788676142692566,0.12417352944612503,23.25295639038086,-11.296127319335938,-19.801164627075195,0.0004794597625732422,0.3546581268310547,0.677208423614502,0.5985243320465088,8.87179183959961,5.165304183959961
2_20251106_213705,1762436192193,2,0.6680930852890015,0.41712450981140137,0.28393852710723877,0.5468433499336243,0.3917792737483978,3.1847379207611084,2.3936545848846436,0.6528710126876831,9.172582626342773,5.631832122802734,0.0707114115357399,0.060788676142692566,0.12417352944612503,23.24066925048828,-11.29705810546875,-19.78813934326172,0.04347735643386841,0.2406330108642578,0.37322235107421875,0.6093936562538147,8.931949615478516,5.258609771728516
2_20251106_213705,1762436192212,2,0.6661497354507446,0.41848745942115784,0.285047709941864,0.5475953221321106,0.3840956687927246,3.179701328277588,2.409231424331665,0.827640175819397,8.914019584655762,4.37852144241333,0.23197969794273376,0.08094721287488937,0.156549334526062,23.25033187866211,-11.346084594726562,-19.829254150390625,0.1597881317138672,-0.033308982849121094,-0.6477203369140625,0.6678520441055298,8.947328567504883,5.026241779327393
2_20251106_213705,1762436192231,2,0.664768636226654,0.4205428659915924,0.2854040563106537,0.5475133657455444,0.3840956687927246,3.179701328277588,2.409231424331665,0.827640175819397,8.914019584655762,4.37852144241333,0.17455841600894928,0.03696495294570923,0.20725111663341522,23.261516571044922,-11.358253479003906,-19.78847885131836,0.1597881317138672,-0.033308982849121094,-0.6477203369140625,0.6678520441055298,8.947328567504883,5.026241779327393
2_20251106_213705,1762436192250,2,0.6636311411857605,0.42251354455947876,0.2851675748825073,0.5474992990493774,0.38037246465682983,3.1741082668304443,2.4148552417755127,1.148449420928955,8.760797500610352,4.121155738830566,0.1525672823190689,0.03574322164058685,0.1779296100139618,23.243297576904297,-11.460044860839844,-19.737014770507812,0.3305656909942627,-0.1375751495361328,-0.5842347145080566,0.8178837299346924,8.898372650146484,4.705390453338623
2_20251106_213705,1762436192270,2,0.6626687049865723,0.42429476976394653,0.28494176268577576,0.5474050641059875,0.3806803524494171,3.1707229614257812,2.414438009262085,1.3256126642227173,8.757205963134766,4.00264835357666,0.1525672823190689,0.03574322164058685,0.1779296100139618,23.21451187133789,-11.525634765625,-19.61766815185547,0.406183123588562,-0.11293315887451172,-0.5621938705444336,0.9194295406341553,8.870139122009277,4.564842224121094
2_20251106_213705,1762436192293,2,0.6618762612342834,0.4256245791912079,0.28501588106155396,0.5472928285598755,0.38303956389427185,3.167124032974243,2.411423444747925,1.4225736856460571,8.894866943359375,3.9284310340881348,0.055439792573451996,0.08827759325504303,0.0740826204419136,23.170310974121094,-11.654396057128906,-19.540681838989258,0.4025152921676636,0.019782066345214844,-0.5091290473937988,1.0200583934783936,8.87508487701416,4.437560081481934
2_20251106_213705,1762436192307,2,0.6616076231002808,0.4262435734272003,0.28503161668777466,0.5471277236938477,0.38482865691185,3.165295362472534,2.4092249870300293,1.3052629232406616,9.044498443603516,4.131929397583008,0.055439792573451996,0.08827759325504303,0.0740826204419136,23.18622589111328,-11.803489685058594,-19.542869567871094,0.22816359996795654,0.1355304718017578,-0.24450445175170898,1.077099323272705,8.908967971801758,4.376433849334717
2_20251106_213705,1762436192327,2,0.6620474457740784,0.426645427942276,0.28457149863243103,0.5465216636657715,0.38482865691185,3.165295362472534,2.4092249870300293,1.3052629232406616,9.044498443603516,4.131929397583008,-0.00809013843536377,0.0332997627556324,0.018493931740522385,23.11412811279297,-11.996627807617188,-19.468183517456055,0.22816359996795654,0.1355304718017578,-0.24450445175170898,1.077099323272705,8.908967971801758,4.376433849334717
2_20251106_213705,1762436192345,2,0.6625012159347534,0.42745620012283325,0.28412967920303345,0.5455672740936279,0.38757702708244324,3.1625442504882812,2.4055235385894775,1.0981732606887817,8.90324592590332,4.262407302856445,0.13118702173233032,-0.05527561902999878,0.04170679301023483,23.07093048095703,-12.1124267578125,-19.431480407714844,0.01685917377471924,-0.00457763671875,-0.09122133255004883,1.0813140869140625,8.90782356262207,4.353628635406494
2_20251106_213705,1762436192365,2,0.6625300049781799,0.42915090918540955,0.2837717533111572,0.5443868637084961,0.38954484462738037,3.1600124835968018,2.40228533744812,1.0586707592010498,8.674610137939453,4.116367816925049,0.16967149078845978,-0.11819468438625336,0.07652608305215836,23.01495361328125,-12.229827880859375,-19.314170837402344,-0.018114686012268066,-0.1865711212158203,-0.18980884552001953,1.0767854452133179,8.861181259155273,4.306176662445068
2_20251106_213705,1762436192384,2,0.6623638272285461,0.4314877688884735,0.28309324383735657,0.5430936217308044,0.39410600066185,3.1514992713928223,2.393338680267334,1.1771785020828247,8.380135536193848,4.055318355560303,0.11347194015979767,-0.17683769762516022,0.10462585836648941,22.93419647216797,-12.360977172851562,-19.238656997680664,0.07287025451660156,-0.32070159912109375,-0.1519308090209961,1.1043082475662231,8.700837135314941,4.207249164581299
2_20251106_213705,1762436192402,2,0.6623895168304443,0.43382447957992554,0.2816528081893921,0.5419484376907349,0.39410600066185,3.1514992713928223,2.393338680267334,1.1771785020828247,8.380135536193848,4.055318355560303,0.11347194015979767,-0.17683769762516022,0.10462585836648941,22.917484283447266,-12.437515258789062,-19.20018196105957,0.07287025451660156,-0.32070159912109375,-0.1519308090209961,1.1043082475662231,8.700837135314941,4.207249164581299
2_20251106_213705,1762436192422,2,0.6628290414810181,0.4360211193561554,0.2791281044483185,0.5409535765647888,0.3970121145248413,3.146253824234009,2.3893654346466064,1.289701223373413,8.518993377685547,4.416827201843262,-0.022140026092529297,-0.29290199279785156,0.12478439509868622,22.876190185546875,-12.52752685546875,-19.230533599853516,0.14831435680389404,-0.1454753875732422,0.1676626205444336,1.141386866569519,8.664468765258789,4.249164581298828
2_20251106_213705,1762436192441,2,0.6635668277740479,0.43804630637168884,0.27616167068481445,0.5399344563484192,0.4042511582374573,3.1373677253723145,2.388249397277832,1.4931995868682861,8.74643325805664,5.1721649169921875,-0.022140026092529297,-0.29290199279785156,0.12478439509868622,22.824329376220703,-12.581336975097656,-19.193002700805664,0.23435354232788086,0.06873703002929688,0.6223220825195312,1.2588460445404053,8.677696228027344,4.549842834472656
2_20251106_213705,1762436192461,2,0.6645886301994324,0.43967726826667786,0.273629754781723,0.5386395454406738,0.4084489047527313,3.1331710815429688,2.390636444091797,1.3172333240509033,8.720098495483398,5.168574333190918,-0.016031380742788315,-0.22570687532424927,-0.06641626358032227,22.749393463134766,-12.623367309570312,-19.237285614013672,0.04670977592468262,0.033921241760253906,0.49498558044433594,1.2705235481262207,8.686177253723145,4.673588752746582
2_20251106_213705,1762436192480,2,0.6660468578338623,0.44074511528015137,0.27190452814102173,0.5368363857269287,0.4116922616958618,3.1291680335998535,2.3937580585479736,1.0718382596969604,8.607575416564941,5.026124954223633,-0.0374116450548172,-0.14812706410884857,-0.15865685045719147,22.65200424194336,-12.629585266113281,-19.254724502563477,-0.15894818305969238,-0.0628814697265625,0.2820291519165039,1.2307864427566528,8.670456886291504,4.744095802307129
2_20251106_213705,1762436192500,2,0.6679496169090271,0.4410529136657715,0.27091553807258606,0.5347152352333069,0.41379547119140625,3.1250908374786377,2.3965842723846436,0.874325156211853,8.570466995239258,4.693345069885254,-0.07711784541606903,-0.05894080922007561,-0.19591960310935974,22.565082550048828,-12.672142028808594,-19.32653045654297,-0.28516900539398193,-0.07999229431152344,-0.04060077667236328,1.159494161605835,8.650459289550781,4.733945846557617
2_20251106_213705,1762436192519,2,0.6699820756912231,0.44054365158081055,0.2704942226409912,0.532802164554596,0.41452592611312866,3.1203773021698,2.39859938621521,0.7079352736473083,8.441184997558594,4.467103004455566,-0.1046067625284195,-0.017402008175849915,-0.18920008838176727,22.540992736816406,-12.6849365234375,-19.46293830871582,-0.36124712228775024,-0.16741943359375,-0.21347427368164062,1.0691823959350586,8.608604431152344,4.680577278137207
2_20251106_213705,1762436192537,2,0.6719835996627808,0.43970438838005066,0.2702186703681946,0.531112015247345,0.41393375396728516,3.1158878803253174,2.399404525756836,0.5750628113746643,8.422032356262207,4.307895660400391,-0.1046067625284195,-0.017402008175849915,-0.18920008838176727,22.540992736816406,-12.6849365234375,-19.46293830871582,-0.3952956795692444,-0.14925765991210938,-0.2981452941894531,0.9703584909439087,8.571290016174316,4.606040954589844
2_20251106_213705,1762436192556,2,0.673846423625946,0.4390915036201477,0.26960107684135437,0.5295705199241638,0.41199594736099243,3.110677480697632,2.3994827270507812,0.4804958701133728,8.313100814819336,4.340215682983398,-0.088724285364151,-0.04794524237513542,-0.08229874819517136,22.520526885986328,-12.634811401367188,-19.611543655395508,-0.39189010858535767,-0.20655155181884766,-0.2126603126525879,0.8723859786987305,8.519652366638184,4.552875995635986
2_20251106_213705,1762436192576,2,0.6753419041633606,0.4388268291950226,0.2688053250312805,0.5282878279685974,0.40939080715179443,3.10546875,2.399125337600708,0.6528710126876831,8.520191192626953,4.409645080566406,-0.13270653784275055,-0.011293360963463783,0.014217877760529518,22.50006103515625,-12.584686279296875,-19.760147094726562,-0.1756119728088379,0.000431060791015625,-0.11458492279052734,0.828482985496521,8.519760131835938,4.524230003356934
2_20251106_213705,1762436192594,2,0.6764388084411621,0.4383118152618408,0.2676391899585724,0.5279039740562439,0.4074036180973053,3.1015028953552246,2.399071455001831,0.881507396697998,8.629121780395508,4.631098747253418,-0.19501475989818573,-0.016791144385933876,0.09118682891130447,22.493698120117188,-12.496368408203125,-19.880435943603516,0.042419493198394775,0.08748912811279297,0.0854949951171875,0.8390879034996033,8.541632652282715,4.5456037521362305
2_20251106_213705,1762436192613,2,0.6774088144302368,0.4376469552516937,0.2657814025878906,0.5281502604484558,0.4074036180973053,3.1015028953552246,2.399071455001831,0.881507396697998,8.629121780395508,4.631098747253418,-0.17485621571540833,-0.05894080549478531,0.15532761812210083,22.484107971191406,-12.470428466796875,-20.042593002319336,0.042419493198394775,0.08748912811279297,0.0854949951171875,0.8390879034996033,8.541632652282715,4.5456037521362305
2_20251106_213705,1762436192633,2,0.6780257821083069,0.4374614357948303,0.26347801089286804,0.5286661386489868,0.40585193037986755,3.097539186477661,2.3997864723205566,1.0814145803451538,8.78952693939209,4.757986068725586,-0.10643935948610306,-0.1267467886209488,0.1828165352344513,22.46596908569336,-12.370750427246094,-20.122560501098633,0.19386136531829834,0.19831562042236328,0.1699061393737793,0.8875532150268555,8.591211318969727,4.588079929351807
2_20251106_213705,1762436192651,2,0.6778656840324402,0.4378860890865326,0.2613610625267029,0.5295699238777161,0.40577128529548645,3.0935728549957275,2.4017856121063232,1.2106959819793701,8.98464584350586,4.759182929992676,-0.08566995710134506,-0.18538980185985565,0.18464910984039307,22.49435806274414,-12.305702209472656,-20.187841415405273,0.2045130729675293,0.27382373809814453,0.1183161735534668,1.0061829090118408,8.710822105407715,4.640866756439209
2_20251106_213705,1762436192670,2,0.6782273054122925,0.4392886459827423,0.25848448276519775,0.5293571352958679,0.40577128529548645,3.0935728549957275,2.4017856121063232,1.2106959819793701,8.98464584350586,4.759182929992676,-0.10705022513866425,-0.17378337681293488,0.18709257245063782,22.47451400756836,-12.231544494628906,-20.227787017822266,0.2045130729675293,0.27382373809814453,0.1183161735534668,1.0061829090118408,8.710822105407715,4.640866756439209
2_20251106_213705,1762436192690,2,0.67863929271698,0.440453439950943,0.25569960474967957,0.5292137265205383,0.4065246880054474,3.0929973125457764,2.4039194583892822,1.1376760005950928,9.034921646118164,4.894449234008789,-0.09300033748149872,-0.135909765958786,0.24023780226707458,22.38980484008789,-12.236297607421875,-20.312318801879883,0.10519444942474365,0.2592792510986328,0.2028660774230957,1.0324815511703491,8.775642395019531,4.691583156585693
2_20251106_213705,1762436192709,2,0.6787211298942566,0.4414118826389313,0.2531350553035736,0.5295430421829224,0.4076898992061615,3.093177556991577,2.4061102867126465,1.1915432214736938,9.006193161010742,4.777138710021973,-0.027026943862438202,-0.19577451050281525,0.3263697624206543,22.364517211914062,-12.2623291015625,-20.38140869140625,0.1272493600845337,0.18444061279296875,0.06844425201416016,1.0642938613891602,8.821752548217773,4.7086944580078125
2_20251106_213705,1762436192728,2,0.6782498359680176,0.443436861038208,0.25016364455223083,0.5298669934272766,0.4121522903442383,3.0943658351898193,2.408818006515503,1.5925546884536743,8.964295387268066,4.550896644592285,0.02184223383665085,-0.3020649552345276,0.41555601358413696,22.265804290771484,-12.305145263671875,-20.507770538330078,0.3773500919342041,0.0940999984741211,-0.10558748245239258,1.2152045965194702,8.870195388793945,4.656484127044678
2_20251106_213705,1762436192748,2,0.6772668957710266,0.44674721360206604,0.2463451325893402,0.5301325917243958,0.4170053005218506,3.0956199169158936,2.410095691680908,1.849920392036438,9.030134201049805,4.676586627960205,0.035892121493816376,-0.36009711027145386,0.4460992217063904,22.12519073486328,-12.450393676757812,-20.678264617919922,0.50777268409729,0.12795066833496094,0.016082286834716797,1.342147707939148,8.902183532714844,4.660504341125488
2_20251106_213705,1762436192766,2,0.6761398315429688,0.45063015818595886,0.24189352989196777,0.5303347706794739,0.42306819558143616,3.0972166061401367,2.411681652069092,2.1192564964294434,9.115123748779297,4.860932350158691,0.035892121493816376,-0.36009711027145386,0.4460992217063904,21.937450408935547,-12.561820983886719,-20.782346725463867,0.6216870546340942,0.17035198211669922,0.16034221649169922,1.4975694417953491,8.944771766662598,4.700590133666992
2_20251106_213705,1762436192785,2,0.6751415133476257,0.4539640545845032,0.23755691945552826,0.5307233333587646,0.43092766404151917,3.0993032455444336,2.4139485359191895,2.3502869606018066,9.17617416381836,5.009366035461426,-0.06123536825180054,-0.22265255451202393,0.2952156662940979,21.706501007080078,-12.800666809082031,-20.944602966308594,0.6821739673614502,0.1851215362548828,0.24702072143554688,1.6681129932403564,8.991052627563477,4.762345314025879
2_20251106_213705,1762436192804,2,0.6745789647102356,0.4559994041919708,0.23381590843200684,0.5313547253608704,0.43092766404151917,3.0993032455444336,2.4139485359191895,2.3502869606018066,9.17617416381836,5.009366035461426,-0.11254800856113434,-0.12857939302921295,0.1516624391078949,21.452789306640625,-13.015716552734375,-21.134347915649414,0.6821739673614502,0.1851215362548828,0.24702072143554688,1.6681129932403564,8.991052627563477,4.762345314025879
2_20251106_213705,1762436192823,2,0.6750155687332153,0.45654070377349854,0.23125721514225006,0.5314552783966064,0.44235023856163025,3.102152109146118,2.4173412322998047,2.4771742820739746,9.15103530883789,5.024928092956543,-0.12110011279582977,-0.08581884950399399,-0.004108062945306301,21.214672088623047,-13.178932189941406,-21.403642654418945,0.6472489833831787,0.12798595428466797,0.2100663185119629,1.829925298690796,9.023049354553223,4.81486177444458
2_20251106_213705,1762436192843,2,0.6761599779129028,0.45646706223487854,0.22959937155246735,0.5307821035385132,0.454492449760437,3.104649305343628,2.4211113452911377,2.424504280090332,8.99661636352539,5.0452775955200195,-0.11804578453302383,-0.06932549923658371,-0.12444841116666794,21.036895751953125,-13.338981628417969,-21.589387893676758,0.4756631851196289,-0.021146774291992188,0.18433284759521484,1.9488410949707031,9.017763137817383,4.860944747924805
2_20251106_213705,1762436192861,2,0.6779378056526184,0.4560759365558624,0.22852541506290436,0.529312014579773,0.47544434666633606,3.1072497367858887,2.427642822265625,1.83316171169281,8.686580657958984,4.828612327575684,-0.11804578453302383,-0.06932549923658371,-0.12444841116666794,20.760021209716797,-13.530769348144531,-21.752552032470703,-0.12076759338378906,-0.2349405288696289,-0.035248756408691406,1.9539293050765991,8.921521186828613,4.863861083984375
2_20251106_213705,1762436192880,2,0.6798723936080933,0.4554028809070587,0.22782281041145325,0.5277106165885925,0.4847208261489868,3.1073479652404785,2.4303805828094482,1.6835304498672485,8.629121780395508,4.722074508666992,-0.1253761649131775,-0.05099957063794136,-0.1672089695930481,20.572071075439453,-13.654083251953125,-21.92447853088379,-0.21631908416748047,-0.2339191436767578,-0.11342906951904297,1.899849534034729,8.863040924072266,4.835503578186035
2_20251106_213705,1762436192901,2,0.6817293763160706,0.4547624886035919,0.22710558772087097,0.5261741280555725,0.4926871061325073,3.106733798980713,2.4325783252716064,1.591357707977295,8.605180740356445,4.688557147979736,-0.10094156861305237,-0.08826231211423874,-0.11162025481462479,20.41545867919922,-13.638755798339844,-21.984392166137695,-0.24679350852966309,-0.20628833770751953,-0.11755704879760742,1.838151216506958,8.811469078063965,4.806114196777344
2_20251106_213705,1762436192922,2,0.6834169626235962,0.4545499384403229,0.2260795682668686,0.5246080756187439,0.4926871061325073,3.106733798980713,2.4325783252716064,1.591357707977295,8.605180740356445,4.688557147979736,-0.08078303933143616,-0.11880555003881454,-0.06214020401239395,20.355419158935547,-13.641517639160156,-22.108489990234375,-0.24679350852966309,-0.20628833770751953,-0.11755704879760742,1.838151216506958,8.811469078063965,4.806114196777344
2_20251106_213705,1762436192940,2,0.6848083734512329,0.4547097682952881,0.22478236258029938,0.5232106447219849,0.5011770129203796,3.105060338973999,2.434471368789673,1.5291110277175903,8.620742797851562,4.626310348510742,-0.08566995710134506,-0.12735766172409058,-0.027320923283696175,20.312103271484375,-13.556121826171875,-22.176185607910156,-0.2472320795059204,-0.15258121490478516,-0.1438431739807129,1.7763431072235107,8.773324012756348,4.770153522491455
2_20251106_213705,1762436192958,2,0.6860217452049255,0.45494112372398376,0.2233070433139801,0.5220504403114319,0.510186493396759,3.102337598800659,2.4369595050811768,1.5087612867355347,8.716506958007812,4.924376010894775,-0.08566995710134506,-0.12735766172409058,-0.027320923283696175,20.312103271484375,-13.556121826171875,-22.176185607910156,-0.16837942600250244,-0.02506256103515625,0.1331777572631836,1.677140712738037,8.741569519042969,4.791198253631592
2_20251106_213705,1762436192977,2,0.6872457265853882,0.45484721660614014,0.221873477101326,0.5211328864097595,0.510186493396759,3.102337598800659,2.4369595050811768,1.5087612867355347,8.716506958007812,4.924376010894775,-0.11071541160345078,-0.09070577472448349,-0.0157144945114851,20.341197967529297,-13.478515625,-22.24120330810547,-0.16837942600250244,-0.02506256103515625,0.1331777572631836,1.677140712738037,8.741569519042969,4.791198253631592
2_20251106_213705,1762436192995,2,0.6884211897850037,0.4541727304458618,0.2207951545715332,0.5206273794174194,0.5180538892745972,3.1000428199768066,2.4419050216674805,1.6595895290374756,8.772768020629883,5.090765953063965,-0.13148480653762817,-0.005795578937977552,-0.021212277933955193,20.35741424560547,-13.40264892578125,-22.21209716796875,0.0012165307998657227,0.012689590454101562,0.19344711303710938,1.6583729982376099,8.760078430175781,4.8973188400268555
2_20251106_213705,1762436193015,2,0.68953937292099,0.45345062017440796,0.21986013650894165,0.5201725959777832,0.5217384696006775,3.0988059043884277,2.445004940032959,1.6404366493225098,8.698551177978516,5.058444976806641,-0.07711784541606903,-0.0797102078795433,-0.006551522761583328,20.292251586914062,-13.269012451171875,-22.239168167114258,-0.014349102973937988,-0.04922199249267578,0.12890100479125977,1.6547857522964478,8.747773170471191,4.929543972015381
2_20251106_213705,1762436193034,2,0.690531313419342,0.4535016715526581,0.21859994530677795,0.5193426012992859,0.5249170064926147,3.097285747528076,2.4482345581054688,1.5374904870986938,8.621940612792969,5.033307075500488,-0.019696567207574844,-0.14079667627811432,0.008109230548143387,20.28769302368164,-13.155036926269531,-22.412994384765625,-0.09383618831634521,-0.10066604614257812,0.08301067352294922,1.631326675415039,8.722606658935547,4.950296401977539
2_20251106_213705,1762436193052,2,0.6913819909095764,0.45428070425987244,0.2171141356229782,0.5181519985198975,0.5275149345397949,3.0954766273498535,2.4514451026916504,1.4776380062103271,8.589619636535645,5.00218391418457,-0.019696567207574844,-0.14079667627811432,0.008109230548143387,20.293628692626953,-13.054176330566406,-22.451431274414062,-0.12295091152191162,-0.10638999938964844,0.04151010513305664,1.6005889177322388,8.696009635925293,4.960673809051514
2_20251106_213705,1762436193071,2,0.6917985677719116,0.45452359318733215,0.21640145778656006,0.5176808834075928,0.5298788547515869,3.0936501026153564,2.454444646835327,1.5626283884048462,8.656654357910156,4.942331790924072,-0.07650698721408844,-0.03756054490804672,0.012996148318052292,20.31879425048828,-13.051506042480469,-22.55858039855957,-0.030368447303771973,-0.03148365020751953,-0.014673709869384766,1.5929968357086182,8.688138008117676,4.957005500793457
2_20251106_213705,1762436193091,2,0.6927785277366638,0.45422542095184326,0.21558886766433716,0.5169706344604492,0.53245609998703,3.0916731357574463,2.457261323928833,1.6631805896759033,8.63869857788086,4.896843910217285,-0.09055687487125397,-0.029619302600622177,0.014828742481768131,20.337608337402344,-12.948905944824219,-22.69114112854004,0.056146979331970215,-0.039551734924316406,-0.04812955856323242,1.607033610343933,8.678250312805176,4.944973468780518
2_20251106_213705,1762436193110,2,0.693693220615387,0.4539867341518402,0.2147192806005478,0.516315221786499,0.5348376035690308,3.089918375015259,2.4599242210388184,1.6272691488265991,8.688974380493164,4.989016532897949,-0.09055687487125397,-0.029619302600622177,0.014828742481768131,20.326622009277344,-12.936470031738281,-22.758949279785156,0.016188502311706543,0.008579254150390625,0.03523445129394531,1.6110806465148926,8.680395126342773,4.953782081604004
2_20251106_213705,1762436193130,2,0.6945406198501587,0.45441579818725586,0.21332484483718872,0.5153756737709045,0.5370097756385803,3.088169813156128,2.4629874229431152,1.5781902074813843,8.65066909790039,5.148223876953125,-0.04107683151960373,-0.11758381873369217,0.04537197947502136,20.229724884033203,-12.9420166015625,-22.843971252441406,-0.02631235122680664,-0.02378082275390625,0.15555334091186523,1.604502558708191,8.674449920654297,4.99267053604126
2_20251106_213705,1762436193149,2,0.6952280402183533,0.45498618483543396,0.21196304261684418,0.5145066976547241,0.539480447769165,3.0862834453582764,2.4659013748168945,1.7026833295822144,8.629121780395508,4.943528175354004,-0.005035814829170704,-0.09437095373868942,0.07713694125413895,20.16604995727539,-13.019309997558594,-23.050750732421875,0.0785444974899292,-0.03626251220703125,-0.03931379318237305,1.6241388320922852,8.665384292602539,4.982841968536377
2_20251106_213705,1762436193168,2,0.6956230401992798,0.4554649591445923,0.21083027124404907,0.5140144228935242,0.539480447769165,3.0862834453582764,2.4659013748168945,1.7026833295822144,8.629121780395508,4.943528175354004,0.007181478664278984,-0.16462041437625885,0.11989747732877731,20.16472625732422,-13.055900573730469,-23.159671783447266,0.0785444974899292,-0.03626251220703125,-0.03931379318237305,1.6241388320922852,8.665384292602539,4.982841968536377
2_20251106_213705,1762436193187,2,0.6958448886871338,0.4567866325378418,0.2089785784482956,0.5132969617843628,0.545904278755188,3.0828194618225098,2.470198392868042,1.9516695737838745,8.667428016662598,4.992608070373535,0.02795088291168213,-0.2342589944601059,0.13333649933338165,20.15093231201172,-13.082077026367188,-23.133657455444336,0.22283518314361572,0.0057125091552734375,0.03306436538696289,1.7288343906402588,8.661715507507324,4.959543704986572
2_20251106_213705,1762436193205,2,0.6958929300308228,0.45881277322769165,0.20662853121757507,0.5123753547668457,0.5497837662696838,3.0816400051116943,2.472578763961792,2.0222954750061035,8.794315338134766,5.142238616943359,0.028561744838953018,-0.20005056262016296,0.1003498062491417,20.08757781982422,-13.135734558105469,-23.19123077392578,0.23476886749267578,0.1060800552368164,0.14615631103515625,1.7875266075134277,8.68823528289795,4.996082305908203
2_20251106_213705,1762436193224,2,0.6959754228591919,0.4603891372680664,0.20462927222251892,0.5116511583328247,0.5497837662696838,3.0816400051116943,2.472578763961792,2.0222954750061035,8.794315338134766,5.142238616943359,-0.00809013843536377,-0.0852079838514328,0.017883066087961197,19.988258361816406,-13.190971374511719,-23.33137321472168,0.23476886749267578,0.1060800552368164,0.14615631103515625,1.7875266075134277,8.68823528289795,4.996082305908203
2_20251106_213705,1762436193243,2,0.6963999271392822,0.460918128490448,0.2035229653120041,0.5110381841659546,0.5594457983970642,3.080240249633789,2.4781906604766846,2.0258867740631104,8.772768020629883,5.066824913024902,-0.00809013843536377,-0.0852079838514328,0.017883066087961197,19.82489013671875,-13.300811767578125,-23.43447494506836,0.14603865146636963,0.04644012451171875,0.03359222412109375,1.8798481225967407,8.726327896118164,5.033232688903809
2_20251106_213705,1762436193263,2,0.6973223090171814,0.4604327976703644,0.203255295753479,0.5103240013122559,0.5643026232719421,3.0792579650878906,2.4812049865722656,1.849920392036438,8.600393295288086,5.108721733093262,-0.08811341226100922,0.05956694483757019,-0.13788744807243347,19.800506591796875,-13.314010620117188,-23.530332565307617,-0.023942112922668457,-0.10074806213378906,0.06039142608642578,1.8738625049591064,8.701141357421875,5.048330307006836
2_20251106_213705,1762436193281,2,0.698577344417572,0.4595930874347687,0.2033277451992035,0.5093345642089844,0.5679511427879333,3.0778074264526367,2.4841079711914062,1.6691659688949585,8.453155517578125,5.180544853210449,-0.08811341226100922,0.05956694483757019,-0.13788744807243347,19.85336685180664,-13.247238159179688,-23.6081485748291,-0.16375732421875,-0.19838905334472656,0.10577154159545898,1.8329232931137085,8.651544570922852,5.07477331161499
2_20251106_213705,1762436193302,2,0.6996690630912781,0.45868682861328125,0.2034427970647812,0.5086065530776978,0.5712426900863647,3.0757932662963867,2.4875991344451904,1.6488159894943237,8.492658615112305,5.215258598327637,-0.05757018178701401,0.014362957328557968,-0.013271035626530647,19.834129333496094,-13.160659790039062,-23.634315490722656,-0.1472858190536499,-0.12710857391357422,0.11238813400268555,1.7961018085479736,8.619767189025879,5.102870464324951
2_20251106_213705,1762436193320,2,0.7004680037498474,0.4579772353172302,0.20310039818286896,0.5082830786705017,0.5741212368011475,3.0738697052001953,2.4913113117218018,1.7625356912612915,8.581239700317383,5.307432174682617,-0.028248675167560577,-0.013125956058502197,0.06797397881746292,19.821842193603516,-13.161590576171875,-23.621288299560547,-0.026852846145629883,-0.030821800231933594,0.1636495590209961,1.7893885374069214,8.612061500549316,5.143782615661621
2_20251106_213705,1762436193340,2,0.7008790969848633,0.45775651931762695,0.20235130190849304,0.5082139372825623,0.5741212368011475,3.0738697052001953,2.4913113117218018,1.7625356912612915,8.581239700317383,5.307432174682617,0.02184223383665085,-0.007017308380454779,0.10584758967161179,19.78738784790039,-13.137916564941406,-23.716846466064453,-0.026852846145629883,-0.030821800231933594,0.1636495590209961,1.7893885374069214,8.612061500549316,5.143782615661621
2_20251106_213705,1762436193359,2,0.7007040977478027,0.4578726887702942,0.20173591375350952,0.5085951089859009,0.5812944173812866,3.0703723430633545,2.497755289077759,2.077359676361084,8.671018600463867,4.908814430236816,0.02184223383665085,-0.007017308380454779,0.10584758967161179,19.787586212158203,-13.137649536132812,-23.743879318237305,0.20230519771575928,0.04654216766357422,-0.18657827377319336,1.8750544786453247,8.624476432800293,5.09539270401001
2_20251106_213705,1762436193379,2,0.7004232406616211,0.45857787132263184,0.2009272426366806,0.5086667537689209,0.5854877233505249,3.0688769817352295,2.499619483947754,2.1013007164001465,8.624334335327148,4.833400249481201,0.029172610491514206,-0.030230168253183365,0.05331321805715561,19.764720916748047,-13.113990783691406,-23.757848739624023,0.18099689483642578,-0.00011348724365234375,-0.2095942497253418,1.9203038215637207,8.6244478225708,5.042994499206543
2_20251106_213705,1762436193398,2,0.7002670764923096,0.4595053195953369,0.20018038153648376,0.5083391666412354,0.5894951224327087,3.067392349243164,2.5005717277526855,2.015113353729248,8.568072319030762,4.748410224914551,-0.0025923559442162514,-0.003962984774261713,-0.012660171836614609,19.764720916748047,-13.113990783691406,-23.757848739624023,0.07584762573242188,-0.04510021209716797,-0.23566722869873047,1.9392657279968262,8.61317253112793,4.984077453613281
2_20251106_213705,1762436193415,2,0.700555682182312,0.46006396412849426,0.19965796172618866,0.5076411962509155,0.5934130549430847,3.0655205249786377,2.5009589195251465,1.9025905132293701,8.473505973815918,4.777138710021973,-0.05329412594437599,0.04673878476023674,-0.05236637592315674,19.788894653320312,-13.1126708984375,-23.729835510253906,-0.029340147972106934,-0.11173343658447266,-0.16555118560791016,1.931930661201477,8.58523941040039,4.942689895629883
2_20251106_213705,1762436193435,2,0.7011493444442749,0.4599713087081909,0.19952940940856934,0.506955623626709,0.597332775592804,3.0634071826934814,2.500922918319702,1.9325168132781982,8.50582504272461,4.803473949432373,-0.09605465829372406,0.0638430044054985,-0.03770562261343002,19.752731323242188,-13.114517211914062,-23.785371780395508,0.00046896934509277344,-0.06353187561035156,-0.11137247085571289,1.9320478439331055,8.569356918334961,4.914846420288086
2_20251106_213705,1762436193453,2,0.7019404768943787,0.4594069719314575,0.19929005205631256,0.5064664483070374,0.600894570350647,3.061717987060547,2.5009539127349854,2.017507314682007,8.617151260375977,4.939937591552734,-0.10582849383354187,0.021693332120776176,-0.011438440531492233,19.70398712158203,-13.117691040039062,-23.78733253479004,0.06836748123168945,0.03823566436767578,0.02007293701171875,1.9491398334503174,8.5789155960083,4.919864654541016
2_20251106_213705,1762436193473,2,0.7026746869087219,0.45904338359832764,0.198613703250885,0.5060434937477112,0.6048184037208557,3.0603678226470947,2.501535177230835,2.003142833709717,8.721294403076172,5.100342273712158,-0.08811341226100922,-0.03756054490804672,-0.01632535830140114,19.72796630859375,-13.116645812988281,-23.73228645324707,0.04320240020751953,0.11390304565429688,0.14438199996948242,1.9599404335021973,8.607391357421875,4.955960273742676
2_20251106_213705,1762436193493,2,0.7030880451202393,0.4588946998119354,0.19789738953113556,0.5058848857879639,0.6082261204719543,3.0593039989471436,2.5027592182159424,1.8547085523605347,8.679398536682129,5.176953315734863,-0.08811341226100922,-0.03756054490804672,-0.01632535830140114,19.741252899169922,-13.102752685546875,-23.78559684753418,-0.08418548107147217,0.057605743408203125,0.17679452896118164,1.9388940334320068,8.621792793273926,5.000158786773682
2_20251106_213705,1762436193512,2,0.703938901424408,0.45900893211364746,0.1970997154712677,0.5049083828926086,0.6107028126716614,3.058331251144409,2.5040502548217773,1.7206391096115112,8.617151260375977,5.068021774291992,-0.04840720817446709,-0.0033521191217005253,-0.07130318135023117,19.769851684570312,-13.025825500488281,-23.78303337097168,-0.17460393905639648,-0.0037136077880859375,0.0542902946472168,1.8952430486679077,8.620864868164062,5.013731479644775
2_20251106_213705,1762436193530,2,0.7048332095146179,0.4586219787597656,0.19693133234977722,0.5040774345397949,0.6124783158302307,3.057340383529663,2.504918336868286,1.7110626697540283,8.574057579040527,4.894449710845947,-0.04840720817446709,-0.0033521191217005253,-0.07130318135023117,19.788284301757812,-12.912155151367188,-23.766651153564453,-0.14734435081481934,-0.037446022033691406,-0.09542560577392578,1.8584070205688477,8.611503601074219,4.989875316619873
2_20251106_213705,1762436193550,2,0.70586758852005,0.45790278911590576,0.19705229997634888,0.5032358765602112,0.6137698888778687,3.0560460090637207,2.5054826736450195,1.6667717695236206,8.529767990112305,4.8740997314453125,-0.07284180074930191,0.04612791910767555,-0.07313577085733414,19.87982940673828,-12.793716430664062,-23.747325897216797,-0.15330827236175537,-0.06538867950439453,-0.0926203727722168,1.820080041885376,8.5951566696167,4.966720104217529
2_20251106_213705,1762436193569,2,0.7069314122200012,0.45730265974998474,0.1972186267375946,0.5022221803665161,0.6140058636665344,3.0545835494995117,2.5059876441955566,1.4812291860580444,8.487870216369629,4.965075492858887,-0.08078303933143616,0.018639009445905685,-0.09268344193696976,19.897048950195312,-12.704887390136719,-23.758502960205078,-0.27108073234558105,-0.08582878112792969,-0.0013155937194824219,1.7523099184036255,8.573698997497559,4.966391086578369
2_20251106_213705,1762436193589,2,0.7081020474433899,0.45684200525283813,0.19722045958042145,0.5009900331497192,0.6131184697151184,3.05277156829834,2.5068182945251465,1.347159504890442,8.419638633728027,5.094357490539551,-0.06978747248649597,0.015584684908390045,-0.050533778965473175,19.948726654052734,-12.639732360839844,-23.67412567138672,-0.3241204023361206,-0.12324810028076172,0.10237312316894531,1.6712799072265625,8.542886734008789,4.9919843673706055
2_20251106_213705,1762436193608,2,0.7091480493545532,0.4563019573688507,0.19724436104297638,0.4999921917915344,0.6114551424980164,3.050840139389038,2.50797700881958,1.372297763824463,8.466323852539062,5.1266770362854,-0.06490055471658707,0.025358520448207855,0.006887501105666161,19.976215362548828,-12.587509155273438,-23.712636947631836,-0.23918581008911133,-0.06125068664550781,0.10775423049926758,1.6114835739135742,8.52757453918457,5.018922805786133
2_20251106_213705,1762436193626,2,0.7099273800849915,0.45555993914604187,0.19725823402404785,0.499557226896286,0.6096668839454651,3.049201488494873,2.509491443634033,1.4931997060775757,8.568072319030762,5.210470676422119,-0.06673315167427063,0.04001927748322487,0.03559814393520355,19.952434539794922,-12.588287353515625,-23.794715881347656,-0.0946270227432251,0.032398223876953125,0.15323829650878906,1.5878267288208008,8.535674095153809,5.05723237991333
2_20251106_213705,1762436193645,2,0.7105895280838013,0.4548463821411133,0.1971580535173416,0.49930548667907715,0.6079282760620117,3.0478286743164062,2.5121490955352783,1.636845588684082,8.65306282043457,5.405590057373047,-0.07711785286664963,0.07056251913309097,0.02032652497291565,19.954551696777344,-12.550613403320312,-23.79392433166504,0.039215087890625,0.09391117095947266,0.2786860466003418,1.597630500793457,8.559151649475098,5.126904010772705
2_20251106_213705,1762436193664,2,0.7112348675727844,0.4539583623409271,0.1971568465232849,0.49919527769088745,0.6066047549247742,3.047110080718994,2.515512466430664,1.6871216297149658,8.74882698059082,5.478610038757324,-0.07711785286664963,0.07056251913309097,0.02032652497291565,20.004703521728516,-12.522323608398438,-23.791433334350586,0.07159292697906494,0.15174007415771484,0.28136444091796875,1.6155287027359009,8.597086906433105,5.1972455978393555
2_20251106_213705,1762436193683,2,0.7118533849716187,0.4527181088924408,0.19746117293834686,0.4993196725845337,0.6054807901382446,3.046745777130127,2.51956844329834,1.642830729484558,8.711718559265137,5.6150736808776855,-0.067954882979393,0.13225984573364258,-0.06580539792776108,20.068145751953125,-12.480140686035156,-23.842254638671875,0.02184164524078369,0.091705322265625,0.3342623710632324,1.6209890842437744,8.620013236999512,5.280811309814453
2_20251106_213705,1762436193702,2,0.7125731110572815,0.4513985216617584,0.19810952246189117,0.4992309510707855,0.6042329668998718,3.046365976333618,2.5244903564453125,1.5769931077957153,8.614757537841797,5.592329502105713,-0.067954882979393,0.13225984573364258,-0.06580539792776108,20.11639404296875,-12.477638244628906,-23.77271270751953,-0.035196781158447266,-0.004204750061035156,0.24921464920043945,1.6121898889541626,8.618962287902832,5.343114852905273
2_20251106_213705,1762436193721,2,0.7132661938667297,0.44976696372032166,0.1991928070783615,0.49928274750709534,0.6027653813362122,3.0456786155700684,2.529940605163574,1.5398845672607422,8.517796516418457,5.516915321350098,-0.026416080072522163,0.20434187352657318,-0.0749683752655983,20.168777465820312,-12.399925231933594,-23.688068389892578,-0.05784416198730469,-0.0809326171875,0.13904047012329102,1.5977287292480469,8.598729133605957,5.377874851226807
2_20251106_213705,1762436193740,2,0.7136881947517395,0.4481392800807953,0.20061375200748444,0.4995742738246918,0.6027653813362122,3.0456786155700684,2.529940605163574,1.5398845672607422,8.517796516418457,5.516915321350098,-0.011144462041556835,0.2287764698266983,-0.03770562261343002,20.231822967529297,-12.358283996582031,-23.684823989868164,-0.05784416198730469,-0.0809326171875,0.13904047012329102,1.5977287292480469,8.598729133605957,5.377874851226807
2_20251106_213705,1762436193759,2,0.7138212323188782,0.44662997126579285,0.2020866870880127,0.5001418590545654,0.6010046601295471,3.043332099914551,2.5386412143707275,1.8211911916732788,8.424427032470703,5.127874374389648,-0.011144462041556835,0.2287764698266983,-0.03770562261343002,20.304851531982422,-12.342041015625,-23.573488235473633,0.17021286487579346,-0.11749076843261719,-0.19102764129638672,1.6509783267974854,8.54191780090332,5.318902015686035
2_20251106_213705,1762436193779,2,0.7137027978897095,0.44559717178344727,0.2031630128622055,0.5007956624031067,0.6010046601295471,3.043332099914551,2.5386412143707275,1.8211911916732788,8.424427032470703,5.127874374389648,-0.009311867877840996,0.1316489726305008,0.011774418875575066,20.42934799194336,-12.272529602050781,-23.44561767578125,0.17021286487579346,-0.11749076843261719,-0.19102764129638672,1.6509783267974854,8.54191780090332,5.318902015686035
2_20251106_213705,1762436193799,2,0.7134454846382141,0.4453088939189911,0.20350925624370575,0.5012778639793396,0.6013686656951904,3.0413384437561035,2.5420022010803223,1.9169552326202393,8.40287971496582,5.066824436187744,-0.009311867877840996,0.1316489726305008,0.011774418875575066,20.42934799194336,-12.272529602050781,-23.44561767578125,0.21278154850006104,-0.11123085021972656,-0.2016620635986328,1.7041736841201782,8.514110565185547,5.268486499786377
