session_id,timestamp,label,quaternion_w,quaternion_x,quaternion_y,quaternion_z,position_x,position_y,position_z,accelerometer_x,accelerometer_y,accelerometer_z,gyroscope_x,gyroscope_y,gyroscope_z,magnetometer_x,magnetometer_y,magnetometer_z,linear_acceleration_x,linear_acceleration_y,linear_acceleration_z,gravity_x,gravity_y,gravity_z
0_20251106_211643,1762434966641,0,0.3505239486694336,0.41613665223121643,0.6545316576957703,0.5249300003051758,0.3085574507713318,3.4686641693115234,0.3246743381023407,-0.43165576457977295,9.5819730758667,-2.0879390239715576,0.09872719645500183,-0.01321758609265089,-0.08405879884958267,27.667917251586914,-16.185874938964844,16.36147117614746,-0.24645668268203735,-0.21625041961669922,-0.15838181972503662,-0.1851990818977356,9.798223495483398,-1.929557204246521
0_20251106_211643,1762434966660,0,0.3506944477558136,0.41574761271476746,0.6555778384208679,0.523817777633667,0.3010188043117523,3.4650378227233887,0.321676641702652,-0.2700541019439697,9.651402473449707,-1.9957664012908936,0.09933806955814362,-0.04803687706589699,-0.0828370749950409,27.700056076049805,-16.0345458984375,16.460233688354492,-0.04358166456222534,-0.08132457733154297,-0.02092289924621582,-0.22647243738174438,9.73272705078125,-1.9748435020446777
0_20251106_211643,1762434966678,0,0.3509616553783417,0.4156968295574188,0.6564333438873291,0.5226062536239624,0.2975650429725647,3.4632015228271484,0.32070526480674744,-0.2951921224594116,9.668160438537598,-1.8365588188171387,0.10361410677433014,-0.043149955570697784,-0.11765637248754501,27.745580673217773,-15.869194030761719,16.492170333862305,-0.05497574806213379,-0.05165386199951172,0.11062777042388916,-0.24021637439727783,9.71981430053711,-1.9471865892410278
0_20251106_211643,1762434966696,0,0.3513393998146057,0.41536128520965576,0.6572874188423157,0.5215447545051575,0.2975650429725647,3.4632015228271484,0.32070526480674744,-0.2951921224594116,9.668160438537598,-1.8365588188171387,0.10422497987747192,-0.0022220206446945667,-0.15736258029937744,27.745580673217773,-15.869194030761719,16.492170333862305,-0.05497574806213379,-0.05165386199951172,0.11062777042388916,-0.24021637439727783,9.71981430053711,-1.9471865892410278
0_20251106_211643,1762434966719,0,0.3516819179058075,0.41435545682907104,0.6583557724952698,0.5207658410072327,0.2886699438095093,3.458150625228882,0.31856876611709595,-0.4555967152118683,9.507756233215332,-2.023298501968384,0.12194006145000458,0.00938440952450037,-0.1591951847076416,27.779016494750977,-15.704498291015625,16.510099411010742,-0.1458875834941864,-0.1567850112915039,-0.06690669059753418,-0.3097091317176819,9.664541244506836,-1.9563918113708496
0_20251106_211643,1762434966734,0,0.3519580066204071,0.41332924365997314,0.6596376299858093,0.5197717547416687,0.28506457805633545,3.4557437896728516,0.317282497882843,-0.5322079658508301,9.38924789428711,-2.2291908264160156,0.15065069496631622,-0.01810450293123722,-0.1286519467830658,27.800168991088867,-15.540733337402344,16.541051864624023,-0.1779990792274475,-0.22023487091064453,-0.21823930740356445,-0.35420888662338257,9.609482765197754,-2.010951519012451
0_20251106_211643,1762434966754,0,0.35214316844940186,0.412836492061615,0.6609217524528503,0.5184049010276794,0.28506457805633545,3.4557437896728516,0.317282497882843,-0.5322079658508301,9.38924789428711,-2.2291908264160156,0.15370501577854156,-0.04437168687582016,-0.07978274673223495,27.83521270751953,-15.350654602050781,16.5324764251709,-0.1779990792274475,-0.22023487091064453,-0.21823930740356445,-0.35420888662338257,9.609482765197754,-2.010951519012451
0_20251106_211643,1762434966773,0,0.35225218534469604,0.4129655063152313,0.6620751619338989,0.5167537331581116,0.27916181087493896,3.451791524887085,0.3137892782688141,-0.5932574272155762,9.446706771850586,-2.473388910293579,0.11644227802753448,-0.055367253720760345,-0.0412982702255249,27.89493751525879,-15.146965026855469,16.57921028137207,-0.19123882055282593,-0.1302204132080078,-0.3699500560760498,-0.40201860666275024,9.576927185058594,-2.1034388542175293
0_20251106_211643,1762434966792,0,0.3524467349052429,0.4135431945323944,0.6629263758659363,0.5150649547576904,0.26971882581710815,3.4449551105499268,0.30527958273887634,-0.4256705045700073,9.473041534423828,-2.633793354034424,0.08284471929073334,-0.049258600920438766,-0.03274616599082947,27.925554275512695,-15.032493591308594,16.59608268737793,-0.004028618335723877,-0.06208229064941406,-0.3537914752960205,-0.42164188623428345,9.535123825073242,-2.2800018787384033
0_20251106_211643,1762434966811,0,0.3524768054485321,0.41407743096351624,0.6636223196983337,0.5137172341346741,0.2652195692062378,3.4413585662841797,0.29930779337882996,-0.3801826536655426,9.475436210632324,-2.7403311729431152,0.08284471929073334,-0.049258600920438766,-0.03274616599082947,28.019723892211914,-14.864097595214844,16.643495559692383,0.03316739201545715,-0.04774951934814453,-0.36826348304748535,-0.41335004568099976,9.523185729980469,-2.37206768989563
0_20251106_211643,1762434966830,0,0.35269972681999207,0.41459986567497253,0.6641740798950195,0.5124282240867615,0.2609410285949707,3.437833786010742,0.2926866412162781,-0.414897084236145,9.483816146850586,-2.7175869941711426,-0.00511980801820755,-0.06880627572536469,-0.08039361983537674,28.0886173248291,-14.710113525390625,16.71669578552246,-0.001237630844116211,-0.03149604797363281,-0.2764153480529785,-0.4136594533920288,9.515312194824219,-2.441171646118164
0_20251106_211643,1762434966849,0,0.3532704710960388,0.41498929262161255,0.6645210385322571,0.511268675327301,0.2609410285949707,3.437833786010742,0.2926866412162781,-0.414897084236145,9.483816146850586,-2.7175869941711426,-0.05337812379002571,-0.062086764723062515,-0.10604993253946304,28.13204002380371,-14.570816040039062,16.84271812438965,-0.001237630844116211,-0.03149604797363281,-0.2764153480529785,-0.4136594533920288,9.515312194824219,-2.441171646118164
0_20251106_211643,1762434966870,0,0.35413166880607605,0.4149622917175293,0.6647534370422363,0.5103919506072998,0.2564484477043152,3.4339630603790283,0.28541380167007446,-0.41370001435279846,9.464662551879883,-2.536832332611084,-0.05337812379002571,-0.062086764723062515,-0.10604993253946304,28.184717178344727,-14.492698669433594,16.886812210083008,-3.24249267578125e-05,-0.04051971435546875,-0.07652854919433594,-0.41366758942604065,9.505182266235352,-2.460303783416748
0_20251106_211643,1762434966889,0,0.3550407290458679,0.4143652319908142,0.6649429798126221,0.5099984407424927,0.24923957884311676,3.427030324935913,0.2733500003814697,-0.3837738037109375,9.378475189208984,-2.456630229949951,-0.1053016185760498,-0.06391935795545578,-0.13476058840751648,28.238704681396484,-14.389602661132812,16.9449520111084,0.02123883366584778,-0.09105205535888672,0.007713794708251953,-0.4050126373767853,9.469527244567871,-2.464344024658203
0_20251106_211643,1762434966907,0,0.3562679886817932,0.413837194442749,0.6648734211921692,0.509661853313446,0.24923957884311676,3.427030324935913,0.2733500003814697,-0.3837738037109375,9.378475189208984,-2.456630229949951,-0.10163642466068268,-0.10729074478149414,-0.13659319281578064,28.325725555419922,-14.346908569335938,17.00324058532715,0.02123883366584778,-0.09105205535888672,0.007713794708251953,-0.4050126373767853,9.469527244567871,-2.464344024658203
0_20251106_211643,1762434966925,0,0.3577069640159607,0.4135144054889679,0.6646740436553955,0.5091757774353027,0.24222347140312195,3.4186596870422363,0.2629689872264862,-0.5872721672058105,9.141459465026855,-2.4039599895477295,-0.09491690993309021,-0.14149917662143707,-0.1292628049850464,28.422706604003906,-14.35284423828125,16.979867935180664,-0.14001250267028809,-0.22681808471679688,0.037688255310058594,-0.44725966453552246,9.368277549743652,-2.441648244857788
0_20251106_211643,1762434966945,0,0.35934653878211975,0.41336554288864136,0.6643749475479126,0.5085321664810181,0.2376457303762436,3.4132747650146484,0.2578805088996887,-0.7225387096405029,9.098365783691406,-2.431492328643799,-0.10835593938827515,-0.15921425819396973,-0.11215858906507492,28.54838752746582,-14.281715393066406,16.94554328918457,-0.22022324800491333,-0.2159290313720703,0.008124828338623047,-0.5023154616355896,9.314294815063477,-2.439617156982422
0_20251106_211643,1762434966964,0,0.3611838221549988,0.4132828712463379,0.6639806628227234,0.5078121423721313,0.2376457303762436,3.4132747650146484,0.2578805088996887,-0.7225387096405029,9.098365783691406,-2.431492328643799,-0.13523398339748383,-0.1457752287387848,-0.08650226145982742,28.62481689453125,-14.226051330566406,16.881959915161133,-0.22022324800491333,-0.2159290313720703,0.008124828338623047,-0.5023154616355896,9.314294815063477,-2.439617156982422
0_20251106_211643,1762434966983,0,0.3630155026912689,0.41314616799354553,0.663497805595398,0.5072481036186218,0.2275095283985138,3.4023098945617676,0.24851375818252563,-0.8542141318321228,9.148641586303711,-2.5571823120117188,-0.19143354892730713,-0.12378409504890442,-0.05962421000003815,28.675155639648438,-14.2091064453125,16.762540817260742,-0.2346000075340271,-0.0914621353149414,-0.0825197696685791,-0.6196141242980957,9.240103721618652,-2.4746625423431396
0_20251106_211643,1762434967001,0,0.36479026079177856,0.4129111170768738,0.6628273129463196,0.5070428252220154,0.22173050045967102,3.3969626426696777,0.24385376274585724,-0.839849591255188,9.237222671508789,-2.508103370666504,-0.19143354892730713,-0.12378409504890442,-0.05962421000003815,28.776142120361328,-14.163192749023438,16.578027725219727,-0.17618834972381592,-0.0023050308227539062,-0.026752710342407227,-0.6636612415313721,9.239527702331543,-2.4813506603240967
0_20251106_211643,1762434967020,0,0.36661219596862793,0.412545382976532,0.6619033813476562,0.5072333812713623,0.22173050045967102,3.3969626426696777,0.24385376274585724,-0.839849591255188,9.237222671508789,-2.508103370666504,-0.30444350838661194,-0.09140826761722565,-0.028470110148191452,28.854066848754883,-14.093887329101562,16.406579971313477,-0.17618834972381592,-0.0023050308227539062,-0.026752710342407227,-0.6636612415313721,9.239527702331543,-2.4813506603240967
0_20251106_211643,1762434967040,0,0.3684947192668915,0.4120238721370697,0.6606618762016296,0.5079112648963928,0.20967012643814087,3.3888869285583496,0.23765042424201965,-0.7668296098709106,9.623869895935059,-1.8209969997406006,-0.3276563882827759,-0.09751691669225693,-0.033357031643390656,28.96382713317871,-14.098220825195312,16.30259895324707,-0.05970728397369385,0.27413368225097656,0.4982798099517822,-0.7071223258972168,9.349736213684082,-2.319276809692383
0_20251106_211643,1762434967060,0,0.37057051062583923,0.41128990054130554,0.6591201424598694,0.5089977979660034,0.2036534994840622,3.3868837356567383,0.2377372831106186,-0.7716178297996521,9.78786563873291,-1.6174988746643066,-0.30261093378067017,-0.06330849230289459,-0.03763308376073837,29.062389373779297,-14.101997375488281,16.062963485717773,-0.05159640312194824,0.35050296783447266,0.5614223480224609,-0.7200214266777039,9.437362670898438,-2.1789212226867676
0_20251106_211643,1762434967081,0,0.37232813239097595,0.4098622798919678,0.6576310396194458,0.5107896327972412,0.19828227162361145,3.3861000537872314,0.23935599625110626,-0.69859778881073,9.810609817504883,-1.6174988746643066,-0.2635155916213989,-0.04009563475847244,-0.03580049052834511,29.09902000427246,-14.122703552246094,15.861162185668945,0.017138898372650146,0.2985982894897461,0.44913792610168457,-0.7157366871833801,9.512011528015137,-2.066636800765991
0_20251106_211643,1762434967100,0,0.3739112615585327,0.40841037034988403,0.6562143564224243,0.512614905834198,0.19277215003967285,3.386683225631714,0.242717444896698,-0.6770508289337158,9.931511878967285,-1.5708138942718506,-0.2610721290111542,-0.05414552241563797,-0.020528871566057205,29.082578659057617,-14.222068786621094,15.669332504272461,0.030948638916015625,0.3356008529663086,0.3966583013534546,-0.7079994678497314,9.595911026000977,-1.9674721956253052
0_20251106_211643,1762434967118,0,0.3753775358200073,0.4072561264038086,0.6546876430511475,0.5144106149673462,0.188755065202713,3.3881263732910156,0.2465813010931015,-0.6076220273971558,10.048822402954102,-1.3852710723876953,-0.24518965184688568,-0.09201913326978683,-0.02847011387348175,29.082578659057617,-14.222068786621094,15.669332504272461,0.08030194044113159,0.36232948303222656,0.4657609462738037,-0.6879239678382874,9.686492919921875,-1.851032018661499
0_20251106_211643,1762434967136,0,0.37702593207359314,0.4063258469104767,0.653093695640564,0.5159645080566406,0.18460509181022644,3.3909449577331543,0.25230324268341064,-0.6459276080131531,10.155359268188477,-1.2607779502868652,-0.20914863049983978,-0.11523199081420898,-0.059013351798057556,29.043569564819336,-14.297370910644531,15.422983169555664,0.03359705209732056,0.3750934600830078,0.47220325469970703,-0.6795246601104736,9.780265808105469,-1.7329812049865723
0_20251106_211643,1762434967155,0,0.3787901699542999,0.4053727984428406,0.6515607237815857,0.5173582434654236,0.18035739660263062,3.394970417022705,0.25942543148994446,-0.7907705903053284,10.27147388458252,-1.1183290481567383,-0.20487256348133087,-0.11278852820396423,-0.10543907433748245,29.088973999023438,-14.368324279785156,15.301713943481445,-0.08899670839309692,0.39296627044677734,0.4917217493057251,-0.7017738819122314,9.878507614135742,-1.6100507974624634
0_20251106_211643,1762434967174,0,0.38073375821113586,0.4039577841758728,0.6502308249473572,0.5187097191810608,0.17555244266986847,3.399738073348999,0.2680036723613739,-0.9822984933853149,10.222394943237305,-0.9495452046394348,-0.19021181762218475,-0.08224529772996902,-0.1549191176891327,29.10909080505371,-14.465301513671875,15.111356735229492,-0.2244197130203247,0.27511024475097656,0.5284044146537781,-0.7578787803649902,9.947284698486328,-1.477949619293213
0_20251106_211643,1762434967193,0,0.382743775844574,0.4025752544403076,0.6495472192764282,0.519161581993103,0.17555244266986847,3.399738073348999,0.2680036723613739,-0.9822984933853149,10.222394943237305,-0.9495452046394348,-0.1511164754629135,-0.0321543924510479,-0.18301889300346375,29.153888702392578,-14.548675537109375,14.976308822631836,-0.2244197130203247,0.27511024475097656,0.5284044146537781,-0.7578787803649902,9.947284698486328,-1.477949619293213
0_20251106_211643,1762434967212,0,0.3844663202762604,0.40087419748306274,0.6493422389030457,0.519461452960968,0.16234172880649567,3.4090168476104736,0.28851577639579773,-1.531744122505188,9.832157135009766,-0.9028602838516235,-0.1511164754629135,-0.0321543924510479,-0.18301889300346375,29.18779945373535,-14.619476318359375,14.75993537902832,-0.5437303781509399,-0.11179542541503906,0.3634604215621948,-0.988013744354248,9.943952560424805,-1.2663207054138184
0_20251106_211643,1762434967232,0,0.38566693663597107,0.3989883065223694,0.6495658159255981,0.519743800163269,0.15241724252700806,3.412412643432617,0.3002573549747467,-1.831006407737732,9.641825675964355,-0.8896927237510681,-0.08758653700351715,0.08879682421684265,-0.13292798399925232,29.23632049560547,-14.639793395996094,14.599172592163086,-0.6743941307067871,-0.2417011260986328,0.3013024926185608,-1.1566122770309448,9.883526802062988,-1.190995216369629
0_20251106_211643,1762434967251,0,0.3860207796096802,0.39691242575645447,0.6501258015632629,0.5203700065612793,0.14124229550361633,3.4142823219299316,0.3119336664676666,-1.965075969696045,9.447903633117676,-0.7975199222564697,-0.0539889857172966,0.13705512881278992,-0.0412982702255249,26.975032806396484,-13.380012512207031,15.111555099487305,-0.6467709541320801,-0.3484983444213867,0.31478023529052734,-1.3183050155639648,9.796401977539062,-1.112300157546997
0_20251106_211643,1762434967270,0,0.38561102747917175,0.39534205198287964,0.6506515145301819,0.5212115049362183,0.1285855919122696,3.4150400161743164,0.32375842332839966,-2.0620369911193848,9.42516040802002,-0.8454018831253052,-0.0008437549695372581,0.1999742090702057,0.0564400851726532,27.028305053710938,-13.30108642578125,15.074552536010742,-0.5949856042861938,-0.2969932556152344,0.21351861953735352,-1.467051386833191,9.722153663635254,-1.0589205026626587
0_20251106_211643,1762434967289,0,0.3840430676937103,0.39409488439559937,0.6513897180557251,0.5223902463912964,0.1285855919122696,3.4150400161743164,0.32375842332839966,-2.0620369911193848,9.42516040802002,-0.8454018831253052,-0.0008437549695372581,0.1999742090702057,0.0564400851726532,27.114917755126953,-13.270545959472656,15.092031478881836,-0.5949856042861938,-0.2969932556152344,0.21351861953735352,-1.467051386833191,9.722153663635254,-1.0589205026626587
0_20251106_211643,1762434967309,0,0.38144272565841675,0.3930898606777191,0.6523543000221252,0.5238469839096069,0.0997033566236496,3.413105010986328,0.34674233198165894,-2.228426933288574,9.140262603759766,-0.9878507256507874,0.07917952537536621,0.3801792860031128,0.2115997076034546,27.130924224853516,-13.206565856933594,15.053293228149414,-0.501261830329895,-0.4053525924682617,0.03169459104537964,-1.7271651029586792,9.545615196228027,-1.019545316696167
0_20251106_211643,1762434967327,0,0.3777059316635132,0.39217737317085266,0.6535800695419312,0.5257073640823364,0.08408212661743164,3.4100213050842285,0.3569943904876709,-2.260747194290161,8.990631103515625,-1.1686052083969116,0.10422497987747192,0.4889132082462311,0.30200767517089844,27.14089584350586,-13.243576049804688,15.066507339477539,-0.42686569690704346,-0.4439868927001953,-0.1192479133605957,-1.8338814973831177,9.43461799621582,-1.049357295036316
0_20251106_211643,1762434967345,0,0.37276801466941833,0.39137423038482666,0.6549815535545349,0.5280808210372925,0.08408212661743164,3.4100213050842285,0.3569943904876709,-2.260747194290161,8.990631103515625,-1.1686052083969116,0.10850103199481964,0.5249542593955994,0.4021894931793213,27.01160430908203,-13.366020202636719,15.207906723022461,-0.42686569690704346,-0.4439868927001953,-0.1192479133605957,-1.8338814973831177,9.43461799621582,-1.049357295036316
0_20251106_211643,1762434967364,0,0.3671499788761139,0.39111772179603577,0.6561112403869629,0.5307974219322205,0.06746162474155426,3.4054713249206543,0.3673679232597351,-2.1625890731811523,8.952325820922852,-1.0093976259231567,0.15431587398052216,0.5487779378890991,0.4877105951309204,26.79711151123047,-13.493881225585938,15.332357406616211,-0.2629660367965698,-0.385833740234375,0.031967759132385254,-1.8996230363845825,9.338159561157227,-1.041365385055542
0_20251106_211643,1762434967384,0,0.36067813634872437,0.391279399394989,0.6572591662406921,0.5336872935295105,0.03850175440311432,3.394641160964966,0.3872021734714508,-1.8369916677474976,8.788330078125,-0.7328792214393616,0.15431587398052216,0.5487779378890991,0.4877105951309204,26.591007232666016,-13.660911560058594,15.686281204223633,0.07092010974884033,-0.38311004638671875,0.20317703485488892,-1.907911777496338,9.171440124511719,-0.9360562562942505
0_20251106_211643,1762434967403,0,0.3532552123069763,0.39197593927383423,0.6586889624595642,0.5363715887069702,0.02557450905442238,3.387481689453125,0.3964008688926697,-1.647857904434204,8.663837432861328,-1.137481927871704,0.2789323031902313,0.6367424726486206,0.6618070006370544,26.35950469970703,-13.86572265625,15.889753341674805,0.20804309844970703,-0.4060821533203125,-0.16114050149917603,-1.8559010028839111,9.06991958618164,-0.9763414263725281
0_20251106_211643,1762434967422,0,0.34480416774749756,0.39309370517730713,0.6600186824798584,0.5394096374511719,0.01483982615172863,3.3796021938323975,0.4038797616958618,-1.2923341989517212,8.677003860473633,-1.4355473518371582,0.23617176711559296,0.6501815319061279,0.8090254068374634,26.034053802490234,-14.215431213378906,16.20853614807129,0.45085346698760986,-0.3143329620361328,-0.367364764213562,-1.743187665939331,8.991336822509766,-1.0681825876235962
0_20251106_211643,1762434967441,0,0.3356940448284149,0.3950601816177368,0.660538375377655,0.543070912361145,0.007343603763729334,3.3709981441497803,0.4099176824092865,-0.7584502100944519,8.583634376525879,-1.4570941925048828,0.1824156641960144,0.6917203664779663,0.9776240587234497,25.645771026611328,-14.594902038574219,16.591920852661133,0.7877900004386902,-0.32616138458251953,-0.3111293315887451,-1.546240210533142,8.909795761108398,-1.1459648609161377
0_20251106_211643,1762434967461,0,0.3255026340484619,0.3976440727710724,0.6602628231048584,0.5477044582366943,0.004465709440410137,3.36264705657959,0.4142310321331024,-0.02705305814743042,8.993024826049805,-1.713262677192688,0.1824156641960144,0.6917203664779663,0.9776240587234497,25.230098724365234,-15.026458740234375,17.00029945373535,1.2153496742248535,0.06658363342285156,-0.4538382291793823,-1.2424027919769287,8.926441192626953,-1.2594244480133057
0_20251106_211643,1762434967481,0,0.3143835961818695,0.40085452795028687,0.6590966582298279,0.5532361268997192,0.007879078388214111,3.355687379837036,0.41702911257743835,0.7797582149505615,9.24679946899414,-1.6869275569915771,0.09628373384475708,0.6642314195632935,1.1902050971984863,24.677474975585938,-15.505500793457031,17.510622024536133,1.61772882938385,0.25628662109375,-0.34200239181518555,-0.8379706144332886,8.99051284790039,-1.3449251651763916
0_20251106_211643,1762434967500,0,0.30336669087409973,0.40473708510398865,0.657200038433075,0.558788537979126,0.01711897924542427,3.3508944511413574,0.41783440113067627,1.4070121049880981,9.532894134521484,-1.971825361251831,0.15248329937458038,0.584818959236145,1.1327837705612183,24.008834838867188,-16.104705810546875,18.0141544342041,1.7959861755371094,0.43390464782714844,-0.5015201568603516,-0.38897407054901123,9.098989486694336,-1.4703052043914795
0_20251106_211643,1762434967520,0,0.2927725911140442,0.40882664918899536,0.6554481387138367,0.5635004639625549,0.033205147832632065,3.347740888595581,0.41608157753944397,1.8630878925323486,9.638235092163086,-2.3117873668670654,0.21662408113479614,0.4974652826786041,0.972126305103302,24.008834838867188,-16.104705810546875,18.0141544342041,1.801649570465088,0.431396484375,-0.6731858253479004,0.061438292264938354,9.206838607788086,-1.638601541519165
0_20251106_211643,1762434967538,0,0.28314435482025146,0.4125001132488251,0.6543803215026855,0.566973865032196,0.05203483626246452,3.3458681106567383,0.4121854305267334,2.122847557067871,9.541274070739746,-2.612246513366699,0.20196332037448883,0.4614242613315582,0.7809256315231323,22.668312072753906,-17.377113342285156,18.884477615356445,1.64912748336792,0.2675485610961914,-0.7789160013198853,0.47372013330459595,9.273725509643555,-1.833330512046814
0_20251106_211643,1762434967556,0,0.27490636706352234,0.41535764932632446,0.653713047504425,0.5697049498558044,0.07365372031927109,3.3444559574127197,0.4055579900741577,1.9887781143188477,9.422765731811523,-3.021637439727783,0.08712077140808105,0.4724198579788208,0.5530731081962585,22.668312072753906,-17.377113342285156,18.884477615356445,1.2120463848114014,0.119232177734375,-0.9506454467773438,0.7767317295074463,9.303533554077148,-2.0709919929504395
0_20251106_211643,1762434967575,0,0.2681567668914795,0.4163699150085449,0.6533890962600708,0.5725476145744324,0.07365372031927109,3.3444559574127197,0.4055579900741577,1.9887781143188477,9.422765731811523,-3.021637439727783,-0.15294906497001648,0.5115152597427368,0.3759223222732544,21.911251068115234,-18.032508850097656,19.424070358276367,1.2120463848114014,0.119232177734375,-0.9506454467773438,0.7767317295074463,9.303533554077148,-2.0709919929504395
0_20251106_211643,1762434967596,0,0.2630546987056732,0.41542285680770874,0.6526198387145996,0.5764663219451904,0.12331128120422363,3.340535879135132,0.38891348242759705,1.6464219093322754,8.993024826049805,-2.3081960678100586,-0.32948896288871765,0.6605662107467651,0.28979039192199707,21.15277099609375,-18.724632263183594,19.868257522583008,0.5395557880401611,-0.23473262786865234,-0.09856581687927246,1.1068661212921143,9.227757453918457,-2.209630250930786
0_20251106_211643,1762434967617,0,0.2582044303417206,0.4125387370586395,0.6515872478485107,0.5818731188774109,0.15519800782203674,3.336707353591919,0.378929078578949,1.8690731525421143,8.936763763427734,-2.330940008163452,-0.4131774604320526,0.7583045959472656,0.31483587622642517,20.42166519165039,-19.37628936767578,20.19257164001465,0.6097656488418579,-0.23279476165771484,-0.09704780578613281,1.2593075037002563,9.16955852508545,-2.2338922023773193
0_20251106_211643,1762434967633,0,0.25298574566841125,0.40903088450431824,0.6501518487930298,0.5882130265235901,0.17805588245391846,3.3339083194732666,0.3720603585243225,2.1767148971557617,9.031331062316895,-2.3728368282318115,-0.4516619145870209,0.6746160984039307,0.38264185190200806,19.68109130859375,-19.97864532470703,20.530969619750977,0.7339258193969727,-0.11058235168457031,-0.11115574836730957,1.442789077758789,9.141913414001465,-2.261681079864502
0_20251106_211643,1762434967652,0,0.24836060404777527,0.40672123432159424,0.6477379202842712,0.5944160223007202,0.17805588245391846,3.3339083194732666,0.3720603585243225,2.1767148971557617,9.031331062316895,-2.3728368282318115,-0.41684260964393616,0.4742524325847626,0.4156285524368286,18.991676330566406,-20.539749145507812,20.831571578979492,0.7339258193969727,-0.11058235168457031,-0.11115574836730957,1.442789077758789,9.141913414001465,-2.261681079864502
0_20251106_211643,1762434967670,0,0.24425861239433289,0.4054854214191437,0.6451026201248169,0.5998015403747559,0.2080857753753662,3.3305721282958984,0.36391517519950867,2.392183780670166,9.13786792755127,-2.257920026779175,-0.36919519305229187,0.2628932595252991,0.3905830979347229,18.418460845947266,-20.992027282714844,21.017053604125977,0.7595157623291016,-0.0032367706298828125,0.0030088424682617188,1.6326680183410645,9.141104698181152,-2.2609288692474365
0_20251106_211643,1762434967690,0,0.2413562387228012,0.4053790271282196,0.6423190236091614,0.6040209531784058,0.26317447423934937,3.325489044189453,0.3539656400680542,2.3083901405334473,9.218070030212402,-1.3888623714447021,-0.36919519305229187,0.2628932595252991,0.3905830979347229,17.798717498779297,-21.409683227539062,21.18784523010254,0.42097043991088867,0.05059814453125,0.6377980709075928,1.8874197006225586,9.167471885681152,-2.026660442352295
0_20251106_211643,1762434967709,0,0.23911723494529724,0.4053218364715576,0.6395208835601807,0.6079064011573792,0.2928881347179413,3.322927236557007,0.3528575897216797,2.126438617706299,9.155824661254883,-1.0584766864776611,-0.39668408036231995,0.2506759762763977,0.2659666836261749,17.21422004699707,-21.849937438964844,21.346067428588867,0.1912151575088501,-0.009317398071289062,0.7745469808578491,1.9352234601974487,9.165142059326172,-1.8330236673355103
0_20251106_211643,1762434967729,0,0.23714964091777802,0.4043017625808716,0.636939525604248,0.6120524406433105,0.2928881347179413,3.322927236557007,0.3528575897216797,2.126438617706299,9.155824661254883,-1.0584766864776611,-0.4205078184604645,0.3606316149234772,0.1951063573360443,16.701812744140625,-22.321609497070312,21.357759475708008,0.1912151575088501,-0.009317398071289062,0.7745469808578491,1.9352234601974487,9.165142059326172,-1.8330236673355103
0_20251106_211643,1762434967747,0,0.2348967343568802,0.40192505717277527,0.6348149180412292,0.616676390171051,0.34523242712020874,3.3167014122009277,0.35660454630851746,1.8834377527236938,8.8038911819458,-1.2057137489318848,-0.4205078184604645,0.3606316149234772,0.1951063573360443,16.230388641357422,-22.715286254882812,21.345476150512695,-0.04214465618133545,-0.2624197006225586,0.37581372261047363,1.9255824089050293,9.06631088256836,-1.5815274715423584
0_20251106_211643,1762434967767,0,0.2324548065662384,0.39914220571517944,0.6328615546226501,0.6213988065719604,0.34523242712020874,3.3167014122009277,0.35660454630851746,1.8834377527236938,8.8038911819458,-1.2057137489318848,-0.4339468479156494,0.3807901442050934,0.20671279728412628,15.73187255859375,-23.16064453125,21.317636489868164,-0.04214465618133545,-0.2624197006225586,0.37581372261047363,1.9255824089050293,9.06631088256836,-1.5815274715423584
0_20251106_211643,1762434967786,0,0.23013228178024292,0.39675119519233704,0.6306310296058655,0.6260448098182678,0.39423152804374695,3.3086724281311035,0.3662075996398926,2.1013007164001465,8.92599105834961,-0.6155683398246765,-0.4339468479156494,0.3807901442050934,0.20671279728412628,15.244527816772461,-23.629783630371094,21.23569679260254,0.13410234451293945,-0.0831003189086914,0.6982724070549011,1.967198371887207,9.0090913772583,-1.3138407468795776
0_20251106_211643,1762434967807,0,0.22804301977157593,0.39467427134513855,0.6280789971351624,0.6306705474853516,0.39423152804374695,3.3086724281311035,0.3662075996398926,2.1013007164001465,8.92599105834961,-0.6155683398246765,-0.4547162353992462,0.34169480204582214,0.22320613265037537,14.760807037353516,-24.03600311279297,21.14156150817871,0.13410234451293945,-0.0831003189086914,0.6982724070549011,1.967198371887207,9.0090913772583,-1.3138407468795776
0_20251106_211643,1762434967824,0,0.22585268318653107,0.3920857906341553,0.625403642654419,0.6357118487358093,0.43965524435043335,3.30440092086792,0.38453274965286255,2.533435583114624,9.53409194946289,-0.12717224657535553,-0.4449423849582672,0.4156094491481781,0.0924810990691185,14.304277420043945,-24.390403747558594,21.049463272094727,0.3968667984008789,0.36453819274902344,0.786473274230957,2.136568784713745,9.169553756713867,-0.9136455059051514
0_20251106_211643,1762434967843,0,0.22393536567687988,0.3886208236217499,0.6234722137451172,0.6403976678848267,0.43965524435043335,3.30440092086792,0.38453274965286255,2.533435583114624,9.53409194946289,-0.12717224657535553,-0.4449423849582672,0.4156094491481781,0.0924810990691185,13.88320541381836,-24.755523681640625,21.012636184692383,0.3968667984008789,0.36453819274902344,0.786473274230957,2.136568784713745,9.169553756713867,-0.9136455059051514
0_20251106_211643,1762434967861,0,0.22235485911369324,0.384111613035202,0.6225560903549194,0.6445467472076416,0.46628937125205994,3.3039467334747314,0.39826351404190063,2.4185190200805664,9.502967834472656,-0.29595619440078735,-0.36919519305229187,0.48036110401153564,-0.15797343850135803,13.4887056350708,-25.092857360839844,20.86918830871582,0.22556018829345703,0.26673126220703125,0.4941514730453491,2.1929588317871094,9.236236572265625,-0.7901076674461365
0_20251106_211643,1762434967880,0,0.2212737649679184,0.3789479732513428,0.6220980286598206,0.6484060883522034,0.5046074390411377,3.3031628131866455,0.41822925209999084,1.7972501516342163,9.00020694732666,-1.0405209064483643,-0.3985166847705841,0.45409390330314636,-0.18729496002197266,13.063497543334961,-25.320236206054688,20.794225692749023,-0.31320178508758545,-0.20411205291748047,-0.21044480800628662,2.1104519367218018,9.20431900024414,-0.8300760984420776
0_20251106_211643,1762434967900,0,0.22062408924102783,0.37372303009033203,0.6215724349021912,0.6521531939506531,0.5219680070877075,3.30064058303833,0.42736172676086426,1.3256126642227173,8.619545936584473,-1.185364007949829,-0.3985166847705841,0.45409390330314636,-0.18729496002197266,12.628811836242676,-25.509925842285156,20.63846778869629,-0.6278713941574097,-0.4678182601928711,-0.2842303514480591,1.953484058380127,9.087364196777344,-0.90113365650177
0_20251106_211643,1762434967919,0,0.21995118260383606,0.3693132996559143,0.6207367181777954,0.6556791067123413,0.5353582501411438,3.296259641647339,0.4348765015602112,1.1233114004135132,8.320283889770508,-1.1662111282348633,-0.39118632674217224,0.3221471309661865,0.034448955208063126,12.233107566833496,-25.647544860839844,20.5393009185791,-0.6641381978988647,-0.6136636734008789,-0.21206200122833252,1.787449598312378,8.933947563171387,-0.9541491270065308
0_20251106_211643,1762434967939,0,0.21871785819530487,0.3661772310733795,0.6193093061447144,0.6591909527778625,0.5353582501411438,3.296259641647339,0.4348765015602112,1.1233114004135132,8.320283889770508,-1.1662111282348633,-0.45777055621147156,0.2812192142009735,0.22503873705863953,11.889362335205078,-25.731224060058594,20.38908576965332,-0.6641381978988647,-0.6136636734008789,-0.21206200122833252,1.787449598312378,8.933947563171387,-0.9541491270065308
0_20251106_211643,1762434967959,0,0.21675004065036774,0.36424145102500916,0.6167301535606384,0.6633185744285583,0.5580763220787048,3.28145170211792,0.44903773069381714,1.5925548076629639,8.23409652709961,-0.7340762615203857,-0.5811651945114136,0.26472583413124084,0.3905830979347229,11.889362335205078,-25.731224060058594,20.38908576965332,-0.0770421028137207,-0.4402437210083008,0.20443391799926758,1.6695969104766846,8.67434024810791,-0.9385101795196533
0_20251106_211643,1762434967977,0,0.21428491175174713,0.36321163177490234,0.6126932501792908,0.6684057712554932,0.5580763220787048,3.28145170211792,0.44903773069381714,1.5925548076629639,8.23409652709961,-0.7340762615203857,-0.743044376373291,0.3325318396091461,0.5176429748535156,11.483165740966797,-25.855735778808594,20.15452766418457,-0.0770421028137207,-0.4402437210083008,0.20443391799926758,1.6695969104766846,8.67434024810791,-0.9385101795196533
0_20251106_211643,1762434967996,0,0.21108737587928772,0.3621094226837158,0.6072440147399902,0.6749619245529175,0.5814071297645569,3.2658941745758057,0.4679529368877411,2.720175266265869,8.473505973815918,0.17089304327964783,-0.835895836353302,0.43943315744400024,0.5665121674537659,11.098522186279297,-26.028884887695312,19.919897079467773,0.7669849395751953,-0.1193399429321289,0.7613475322723389,1.9531903266906738,8.592845916748047,-0.5904545187950134
0_20251106_211643,1762434968015,0,0.20716167986392975,0.36037322878837585,0.6010999083518982,0.6825643181800842,0.5968431234359741,3.2580833435058594,0.48008430004119873,3.0948517322540283,8.50582504272461,0.11343468725681305,-0.835895836353302,0.43943315744400024,0.5665121674537659,10.591609001159668,-26.222129821777344,19.63954734802246,0.9133291244506836,-0.06961631774902344,0.5631113648414612,2.1815226078033447,8.575441360473633,-0.4496766924858093
0_20251106_211643,1762434968034,0,0.20299068093299866,0.3581099510192871,0.594596266746521,0.6906571388244629,0.6146929860115051,3.2505640983581543,0.4931901693344116,3.3426408767700195,8.539342880249023,0.12660223245620728,-0.9892228841781616,0.513347864151001,0.5426884293556213,10.108560562133789,-26.42607879638672,19.332883834838867,0.9288945198059082,-0.028878211975097656,0.46102315187454224,2.4137463569641113,8.568221092224121,-0.33442091941833496
0_20251106_211643,1762434968054,0,0.19917424023151398,0.35556334257125854,0.5874335765838623,0.6991609930992126,0.6364292502403259,3.2437868118286133,0.5087456107139587,3.6921794414520264,8.812270164489746,0.4713524580001831,-0.9892228841781616,0.513347864151001,0.5426884293556213,9.52550220489502,-26.686203002929688,18.98069190979004,1.0227463245391846,0.19523906707763672,0.6446186900138855,2.669433116912842,8.61703109741211,-0.1732662469148636
0_20251106_211643,1762434968073,0,0.19604331254959106,0.3525180518627167,0.5793587565422058,0.7082664966583252,0.6593383550643921,3.2385079860687256,0.5254561305046082,3.869342803955078,8.922399520874023,0.8005410432815552,-1.2244057655334473,0.5005196928977966,0.3795875310897827,8.890569686889648,-27.011749267578125,18.57115364074707,0.9599277973175049,0.2442951202392578,0.779045820236206,2.9094150066375732,8.678104400634766,0.021495193243026733
0_20251106_211643,1762434968091,0,0.1947622150182724,0.34925904870033264,0.5705850720405579,0.7172994613647461,0.6820579171180725,3.233689546585083,0.5427057147026062,3.762805461883545,8.65066909790039,0.9190489053726196,-1.2244057655334473,0.5005196928977966,0.3795875310897827,8.181692123413086,-27.37798309326172,17.982168197631836,0.6827123165130615,-0.021947860717773438,0.7180429697036743,3.0800931453704834,8.672616958618164,0.20100592076778412
0_20251106_211643,1762434968111,0,0.19382695853710175,0.3444226384162903,0.5626736283302307,0.7260871529579163,0.7061750292778015,3.2285215854644775,0.5618582963943481,3.5664892196655273,8.550116539001465,0.8771522045135498,-1.2824379205703735,0.48097196221351624,0.1444045901298523,7.543927192687988,-27.76537322998047,17.476694107055664,0.3891167640686035,-0.09800052642822266,0.5409170389175415,3.177372455596924,8.648117065429688,0.3362351655960083
0_20251106_211643,1762434968129,0,0.19366608560085297,0.33926844596862793,0.5543838143348694,0.7348802089691162,0.7298287749290466,3.223264455795288,0.5830184817314148,3.447981357574463,8.521388053894043,1.4170215129852295,-1.3691807985305786,0.29954513907432556,0.24397554993629456,6.931127548217773,-28.150367736816406,16.891103744506836,0.21648716926574707,-0.10138320922851562,0.8646290898323059,3.231494188308716,8.622771263122559,0.5523924231529236
0_20251106_211643,1762434968148,0,0.19401805102825165,0.3357013761997223,0.5447887778282166,0.7435501217842102,0.7533437013626099,3.2186224460601807,0.6083008646965027,3.6119771003723145,8.751220703125,2.4404988288879395,-1.2922117710113525,0.05397753417491913,0.45533475279808044,6.320416450500488,-28.520912170410156,16.116548538208008,0.3043863773345947,0.10275936126708984,1.5104851722717285,3.3075907230377197,8.64846134185791,0.9300136566162109
0_20251106_211643,1762434968168,0,0.19383138418197632,0.3349642753601074,0.5345033407211304,0.7513551115989685,0.7793123722076416,3.2153263092041016,0.6397217512130737,4.114737510681152,9.09118366241455,2.949244737625122,-1.0857394933700562,-0.13172534108161926,0.6196573376655579,5.795614242553711,-28.87347412109375,15.359209060668945,0.6457173824310303,0.35417747497558594,1.615384817123413,3.469020128250122,8.737006187438965,1.333859920501709
0_20251106_211643,1762434968187,0,0.19275294244289398,0.33665937185287476,0.5246220827102661,0.7578116059303284,0.803851306438446,3.2140228748321533,0.6707057952880859,4.417591094970703,9.352140426635742,3.0067031383514404,-0.9421862959861755,-0.25084397196769714,0.6282094717025757,5.286113262176514,-29.17461395263672,14.562868118286133,0.7588567733764648,0.4921073913574219,1.3382744789123535,3.6587343215942383,8.86003303527832,1.668428659439087
0_20251106_211643,1762434968206,0,0.19167190790176392,0.33949777483940125,0.5154093503952026,0.7631227374076843,0.8317838907241821,3.2139973640441895,0.7074722647666931,4.326615333557129,9.304258346557617,3.0043091773986816,-0.9159191250801086,-0.26672646403312683,0.5005387663841248,4.861111164093018,-29.482879638671875,13.783212661743164,0.5343048572540283,0.3553800582885742,1.0687044858932495,3.7923104763031006,8.948878288269043,1.9356046915054321
0_20251106_211643,1762434968225,0,0.19151221215724945,0.34190937876701355,0.5067219734191895,0.7678892016410828,0.8317838907241821,3.2139973640441895,0.7074722647666931,4.326615333557129,9.304258346557617,3.0043091773986816,-1.0814634561538696,-0.13600139319896698,0.34721168875694275,4.512538909912109,-29.73548126220703,12.939973831176758,0.5343048572540283,0.3553800582885742,1.0687044858932495,3.7923104763031006,8.948878288269043,1.9356046915054321
0_20251106_211643,1762434968244,0,0.19232526421546936,0.34225162863731384,0.4975757598876953,0.7734941244125366,0.8846290707588196,3.2187893390655518,0.783920407295227,4.3637237548828125,9.712451934814453,3.8877313137054443,-1.323976755142212,0.032597266137599945,0.18227820098400116,4.212018966674805,-29.98584747314453,12.193307876586914,0.3883047103881836,0.5189485549926758,1.3487639427185059,3.975419044494629,9.193503379821777,2.5389673709869385
0_20251106_211643,1762434968263,0,0.1942145675420761,0.3399718701839447,0.4875085949897766,0.7804070711135864,0.8846290707588196,3.2187893390655518,0.783920407295227,4.3637237548828125,9.712451934814453,3.8877313137054443,-1.323976755142212,0.032597266137599945,0.18227820098400116,2.3013992309570312,-30.182785034179688,11.448474884033203,0.3883047103881836,0.5189485549926758,1.3487639427185059,3.975419044494629,9.193503379821777,2.5389673709869385
0_20251106_211643,1762434968282,0,0.19714286923408508,0.3360911011695862,0.4773060977458954,0.7876270413398743,0.9345691204071045,3.2284529209136963,0.8713149428367615,3.869342803955078,9.519726753234863,4.609552383422852,-1.3331397771835327,0.058253586292266846,-0.07550669461488724,2.0753064155578613,-30.403411865234375,10.71879768371582,-0.12362337112426758,0.1723928451538086,1.3791851997375488,3.9929661750793457,9.347333908081055,3.2303671836853027
0_20251106_211643,1762434968302,0,0.20077215135097504,0.3322676122188568,0.46784406900405884,0.793984055519104,0.9559306502342224,3.2328779697418213,0.9177116751670837,3.4407989978790283,9.227646827697754,4.582019805908203,-1.1920299530029297,0.0008323030779138207,-0.04618518799543381,1.939832091331482,-30.541648864746094,9.845458984375,-0.44173359870910645,-0.0957498550415039,1.081322193145752,3.8825325965881348,9.323396682739258,3.500697612762451
0_20251106_211643,1762434968320,0,0.20381300151348114,0.3290807604789734,0.45924440026283264,0.7995377779006958,0.9559306502342224,3.2328779697418213,0.9177116751670837,3.4407989978790283,9.227646827697754,4.582019805908203,-1.0863503217697144,-0.026656610891222954,0.04361192509531975,1.8659929037094116,-30.663360595703125,8.974834442138672,-0.44173359870910645,-0.0957498550415039,1.081322193145752,3.8825325965881348,9.323396682739258,3.500697612762451
0_20251106_211643,1762434968340,0,0.20624998211860657,0.3268010914325714,0.4509923756122589,0.80452960729599,0.9918854832649231,3.238990068435669,1.0100767612457275,3.4826958179473877,9.060060501098633,4.44675350189209,-1.0759656429290771,-0.07063886523246765,0.10347666591405869,1.7811799049377441,-30.761016845703125,8.131280899047852,-0.2363598346710205,-0.1656627655029297,0.6334388256072998,3.719055652618408,9.225723266601562,3.81331467628479
0_20251106_211643,1762434968360,0,0.20839154720306396,0.32518526911735535,0.442552387714386,0.8093051910400391,1.0094794034957886,3.2413487434387207,1.0619816780090332,3.61796236038208,9.088788986206055,4.8740997314453125,-1.1480478048324585,-0.059032440185546875,0.07843121141195297,1.7470147609710693,-30.8297119140625,7.222635269165039,-0.08087444305419922,-0.10954761505126953,0.848628044128418,3.6988368034362793,9.198336601257324,4.0254716873168945
0_20251106_211643,1762434968379,0,0.21080785989761353,0.32320156693458557,0.4336306154727936,0.8142881989479065,1.0094794034957886,3.2413487434387207,1.0619816780090332,3.61796236038208,9.088788986206055,4.8740997314453125,-1.1669844388961792,-0.01199585571885109,-0.00586811825633049,1.7835547924041748,-30.931716918945312,6.356689453125,-0.08087444305419922,-0.10954761505126953,0.848628044128418,3.6988368034362793,9.198336601257324,4.0254716873168945
0_20251106_211643,1762434968398,0,0.21371613442897797,0.3204456865787506,0.42482081055641174,0.8192479610443115,1.038528561592102,3.2414488792419434,1.1593620777130127,3.574868679046631,8.55370807647705,5.564797401428223,-1.1028436422348022,-0.029100066050887108,-0.02236146479845047,1.7835547924041748,-30.931716918945312,6.356689453125,-0.0919804573059082,-0.44435596466064453,1.0341997146606445,3.666849136352539,8.998064041137695,4.530597686767578
0_20251106_211643,1762434968417,0,0.21667136251926422,0.3178977966308594,0.4163777828216553,0.8237863779067993,1.038528561592102,3.2414488792419434,1.1593620777130127,3.574868679046631,8.55370807647705,5.564797401428223,-0.9806707501411438,-0.08957567811012268,0.05827267840504646,1.837425708770752,-30.933143615722656,5.56092643737793,-0.0919804573059082,-0.44435596466064453,1.0341997146606445,3.666849136352539,8.998064041137695,4.530597686767578
0_20251106_211643,1762434968436,0,0.21870529651641846,0.3162784278392792,0.40850722789764404,0.8278030157089233,1.0640708208084106,3.237154960632324,1.2599906921386719,3.5988094806671143,8.453155517578125,5.595920562744141,-0.9806707501411438,-0.08957567811012268,0.05827267840504646,1.9110440015792847,-31.008865356445312,4.818626403808594,-0.047759056091308594,-0.3847494125366211,0.6461830139160156,3.646568536758423,8.837904930114746,4.949737548828125
0_20251106_211643,1762434968454,0,0.21973203122615814,0.31611868739128113,0.401409387588501,0.8310579657554626,1.075351357460022,3.2335848808288574,1.3060777187347412,3.7221055030822754,8.394500732421875,5.38643741607666,-0.8126829862594604,-0.17570760846138,0.16822832822799683,1.953519582748413,-31.010009765625,3.914243698120117,0.06042957305908203,-0.3547229766845703,0.34935998916625977,3.6616759300231934,8.749223709106445,5.0370774269104
0_20251106_211643,1762434968473,0,0.2197899967432022,0.31749075651168823,0.3946416676044464,0.8337565064430237,1.0877059698104858,3.229166269302368,1.3532644510269165,4.041717529296875,8.44357967376709,5.3912248611450195,-0.6764601469039917,-0.29604795575141907,0.36675935983657837,1.8932033777236938,-31.082717895507812,3.2479114532470703,0.3040332794189453,-0.24451541900634766,0.28331756591796875,3.7376842498779297,8.688095092773438,5.107907295227051
0_20251106_211643,1762434968492,0,0.2193727344274521,0.3194441497325897,0.3877626955509186,0.8363439440727234,1.1013542413711548,3.224977493286133,1.3995063304901123,4.43435001373291,8.691368103027344,5.623452663421631,-0.7173880338668823,-0.258174329996109,0.33621612191200256,1.7853550910949707,-31.133758544921875,2.607177734375,0.5573327541351318,0.0026187896728515625,0.41243600845336914,3.8770172595977783,8.688749313354492,5.211016654968262
0_20251106_211643,1762434968512,0,0.2198324352502823,0.3212553858757019,0.38045477867126465,0.8388819098472595,1.1175155639648438,3.220989465713501,1.4472020864486694,4.703685760498047,8.754812240600586,5.6892900466918945,-0.7173880338668823,-0.258174329996109,0.33621612191200256,1.734010100364685,-31.256439208984375,1.994344711303711,0.6613349914550781,0.052849769592285156,0.38261890411376953,4.042350769042969,8.7019624710083,5.306671142578125
0_20251106_211643,1762434968530,0,0.22042958438396454,0.32169803977012634,0.37359750270843506,0.8416329622268677,1.132855772972107,3.21693754196167,1.4882580041885376,4.660592079162598,8.441184997558594,5.418757438659668,-0.7497639060020447,-0.16837722063064575,0.0820964053273201,1.6507315635681152,-31.305618286132812,1.3275585174560547,0.49459314346313477,-0.20862197875976562,0.08966922760009766,4.165998935699463,8.64980697631836,5.32908821105957
0_20251106_211643,1762434968550,0,0.22198563814163208,0.3215850293636322,0.3672071099281311,0.8440760374069214,1.150315284729004,3.2111384868621826,1.5313397645950317,4.5827836990356445,8.149105072021484,5.245184898376465,-0.7497639060020447,-0.16837722063064575,0.0820964053273201,1.580146312713623,-31.341720581054688,0.6885585784912109,0.33342790603637695,-0.4005613327026367,-0.0671229362487793,4.249355792999268,8.549666404724121,5.312307834625244
0_20251106_211643,1762434968570,0,0.22424109280109406,0.3219665586948395,0.3608739674091339,0.846063494682312,1.1679081916809082,3.2043206691741943,1.5721542835235596,4.580389976501465,8.119178771972656,5.275111198425293,-0.7375465631484985,-0.2374049425125122,0.03383808955550194,1.5081381797790527,-31.41455078125,-0.04584693908691406,0.26482725143432617,-0.3443899154663086,-0.02975749969482422,4.315562725067139,8.463568687438965,5.304868698120117
0_20251106_211643,1762434968589,0,0.22692659497261047,0.3231797516345978,0.35410699248313904,0.8477425575256348,1.184683084487915,3.197511672973633,1.6098405122756958,4.642636299133301,8.224519729614258,5.615073204040527,-0.7546508312225342,-0.33269986510276794,0.04422278702259064,1.439469814300537,-31.413253784179688,-0.6570224761962891,0.2616586685180664,-0.1912393569946289,0.24816370010375977,4.380977630615234,8.415759086608887,5.366909503936768
0_20251106_211643,1762434968607,0,0.23020990192890167,0.3243029713630676,0.3469957709312439,0.8493673801422119,1.2002067565917969,3.1907801628112793,1.644145131111145,4.554055213928223,8.170652389526367,5.524097442626953,-0.8572760820388794,-0.3100978434085846,-0.11276944726705551,1.3938624858856201,-31.435348510742188,-1.281259536743164,0.13846206665039062,-0.19608497619628906,0.12575054168701172,4.415593147277832,8.366737365722656,5.398346900939941
0_20251106_211643,1762434968626,0,0.2343549281358719,0.32451319694519043,0.33991697430610657,0.8510143160820007,1.2160089015960693,3.1834163665771484,1.6793991327285767,4.501384735107422,8.143119812011719,5.7096405029296875,-0.8572760820388794,-0.3100978434085846,-0.11276944726705551,1.4606502056121826,-31.40019989013672,-1.8865108489990234,0.0686330795288086,-0.17889404296875,0.24903488159179688,4.432751655578613,8.322013854980469,5.460605621337891
0_20251106_211643,1762434968647,0,0.23972411453723907,0.3241160809993744,0.3323877155780792,0.8526426553726196,1.231094241142273,3.1758577823638916,1.714821696281433,4.4594879150390625,8.116785049438477,6.164519309997559,-1.019766092300415,-0.3107087314128876,-0.2978614568710327,1.5517970323562622,-31.375076293945312,-2.585660934448242,0.021389007568359375,-0.1641836166381836,0.5631308555603027,4.438098907470703,8.28096866607666,5.601388454437256
0_20251106_211643,1762434968664,0,0.24600374698638916,0.3233742117881775,0.32448503375053406,0.8541783690452576,1.2453690767288208,3.1680328845977783,1.7510395050048828,4.417591094970703,8.046158790588379,6.536801338195801,-0.9843359589576721,-0.33269986510276794,-0.3485632538795471,1.6476671695709229,-31.27393341064453,-3.3508071899414062,-0.01640605926513672,-0.18784809112548828,0.7483301162719727,4.43399715423584,8.234006881713867,5.788471221923828
0_20251106_211643,1762434968683,0,0.2526272237300873,0.3226526379585266,0.3169165253639221,0.8553587794303894,1.2584975957870483,3.1594467163085938,1.7872467041015625,4.276339530944824,7.813931465148926,6.444628715515137,-0.8798781037330627,-0.35835614800453186,-0.3675000071525574,1.8251177072525024,-31.23028564453125,-4.0868072509765625,-0.12612628936767578,-0.3360605239868164,0.5249261856079102,4.4024658203125,8.149991989135742,5.919702529907227
0_20251106_211643,1762434968703,0,0.25913339853286743,0.322261244058609,0.31014034152030945,0.8560435175895691,1.2708606719970703,3.149322032928467,1.8250095844268799,4.150649070739746,7.64394998550415,6.431461334228516,-0.8798781037330627,-0.35835614800453186,-0.3675000071525574,2.03085994720459,-31.121726989746094,-4.87457275390625,-0.20145320892333984,-0.4048333168029785,0.4094071388244629,4.352102279663086,8.048783302307129,6.022054195404053
0_20251106_211643,1762434968721,0,0.265510231256485,0.3224398195743561,0.30344638228416443,0.8564211130142212,1.2810617685317993,3.139568328857422,1.8590891361236572,4.202122688293457,7.603250503540039,6.749876022338867,-0.8389501571655273,-0.40539273619651794,-0.3406219780445099,2.2495059967041016,-30.988204956054688,-5.566705703735352,-0.11998367309570312,-0.3564262390136719,0.5822572708129883,4.32210636138916,7.959676742553711,6.167618751525879
0_20251106_211643,1762434968741,0,0.27194643020629883,0.3228221833705902,0.29645052552223206,0.8567076921463013,1.2912719249725342,3.1276907920837402,1.897399663925171,4.138678550720215,7.439254283905029,6.936615943908691,-0.8236784934997559,-0.4108905494213104,-0.34306544065475464,2.4204952716827393,-30.856369018554688,-6.409479141235352,-0.1467423439025879,-0.4163379669189453,0.6151981353759766,4.285420894622803,7.855592250823975,6.321417808532715
0_20251106_211643,1762434968761,0,0.2783595323562622,0.32302147150039673,0.28977546095848083,0.856856644153595,1.2993897199630737,3.116286277770996,1.931784987449646,4.036929130554199,7.348278522491455,6.983301162719727,-0.7803071737289429,-0.40050581097602844,-0.36383485794067383,2.613853931427002,-30.748870849609375,-7.17070198059082,-0.1987934112548828,-0.405850887298584,0.5295066833496094,4.235722541809082,7.754129409790039,6.453794479370117
0_20251106_211643,1762434968779,0,0.28477126359939575,0.32314252853393555,0.283497154712677,0.8568043112754822,1.2993897199630737,3.116286277770996,1.931784987449646,4.036929130554199,7.348278522491455,6.983301162719727,-0.7607594728469849,-0.3974514901638031,-0.36383485794067383,2.8234171867370605,-30.577117919921875,-7.9976959228515625,-0.1987934112548828,-0.405850887298584,0.5295066833496094,4.235722541809082,7.754129409790039,6.453794479370117
0_20251106_211643,1762434968800,0,0.2910914421081543,0.32324835658073425,0.2773779034614563,0.8566433191299438,1.3143349885940552,3.0885331630706787,2.0063867568969727,4.042914867401123,7.178297996520996,6.724738121032715,-0.7125011682510376,-0.4267730116844177,-0.3699434995651245,3.084049701690674,-30.352638244628906,-8.754091262817383,-0.11899185180664062,-0.38653564453125,0.1379709243774414,4.161906719207764,7.564833641052246,6.586767196655273
0_20251106_211643,1762434968819,0,0.29756349325180054,0.32375970482826233,0.27150991559028625,0.8561062812805176,1.3204810619354248,3.074643135070801,2.03950834274292,4.08840274810791,7.183086395263672,6.646929740905762,-0.7082251310348511,-0.4793073832988739,-0.4108714461326599,3.3578696250915527,-30.114402770996094,-9.550281524658203,-0.05880308151245117,-0.30539798736572266,0.048130035400390625,4.147205829620361,7.4884843826293945,6.598799705505371
0_20251106_211643,1762434968837,0,0.3045421242713928,0.3246461749076843,0.26562097668647766,0.8551633954048157,1.3260829448699951,3.0608036518096924,2.071821928024292,4.060870170593262,7.253711700439453,6.907886981964111,-0.7748093605041504,-0.5135157704353333,-0.4945598840713501,3.3578696250915527,-30.114402770996094,-9.550281524658203,-0.06906843185424805,-0.18781805038452148,0.2472696304321289,4.12993860244751,7.441529750823975,6.660617351531982
0_20251106_211643,1762434968855,0,0.31262293457984924,0.3254503905773163,0.25928518176078796,0.8538853526115417,1.3310134410858154,3.0478296279907227,2.102609634399414,4.084811210632324,7.230968475341797,7.353189468383789,-0.8383392691612244,-0.46586835384368896,-0.5880221724510193,3.579829454421997,-29.929977416992188,-10.308939933776855,-0.0361018180847168,-0.16844892501831055,0.5540575981140137,4.120913028717041,7.399417400360107,6.799131870269775
0_20251106_211643,1762434968875,0,0.32145968079566956,0.3253619968891144,0.2528652250766754,0.8525622487068176,1.3310134410858154,3.0478296279907227,2.102609634399414,4.084811210632324,7.230968475341797,7.353189468383789,-0.8426153659820557,-0.38951027393341064,-0.6882039904594421,3.8170053958892822,-29.682640075683594,-10.998207092285156,-0.0361018180847168,-0.16844892501831055,0.5540575981140137,4.120913028717041,7.399417400360107,6.799131870269775
0_20251106_211643,1762434968894,0,0.33102962374687195,0.32435235381126404,0.24684186279773712,0.8510487675666809,1.3407032489776611,3.019925355911255,2.170170545578003,4.026156425476074,7.21540641784668,7.513593673706055,-0.8242893815040588,-0.3834016025066376,-0.778611958026886,4.068976402282715,-29.396163940429688,-11.753772735595703,-0.07500886917114258,-0.11010551452636719,0.46376705169677734,4.101165294647217,7.325511932373047,7.049826622009277
0_20251106_211643,1762434968913,0,0.3412206470966339,0.3231031894683838,0.24121801555156708,0.8491093516349792,1.3407032489776611,3.019925355911255,2.170170545578003,4.026156425476074,7.21540641784668,7.513593673706055,-0.8096286058425903,-0.39989498257637024,-0.8403093218803406,4.349140167236328,-29.04491424560547,-12.547586441040039,-0.07500886917114258,-0.11010551452636719,0.46376705169677734,4.101165294647217,7.325511932373047,7.049826622009277
0_20251106_211643,1762434968933,0,0.35146886110305786,0.32173672318458557,0.23599134385585785,0.8469139337539673,1.3476959466934204,2.9931957721710205,2.237990140914917,3.8178696632385254,7.071760177612305,7.7063188552856445,-0.7772527933120728,-0.4029493033885956,-0.9130021929740906,4.680669784545898,-28.640525817871094,-13.311351776123047,-0.20525026321411133,-0.1863422393798828,0.4138345718383789,4.023119926452637,7.2581024169921875,7.292484283447266
0_20251106_211643,1762434968950,0,0.3625304698944092,0.3203747868537903,0.23106032609939575,0.8441224694252014,1.349311113357544,2.982085943222046,2.26652455329895,3.61796236038208,7.2369537353515625,7.544717311859131,-0.7772527933120728,-0.4029493033885956,-0.9130021929740906,5.137287139892578,-28.165817260742188,-14.028342247009277,-0.3241262435913086,-0.016918659210205078,0.20178651809692383,3.9420886039733887,7.253872394561768,7.342930793762207
0_20251106_211643,1762434968970,0,0.37407827377319336,0.31864842772483826,0.22624391317367554,0.8410364389419556,1.349311113357544,2.982085943222046,2.26652455329895,3.61796236038208,7.2369537353515625,7.544717311859131,-0.8780454993247986,-0.3162064850330353,-1.073048710823059,5.543540954589844,-27.731277465820312,-14.815668106079102,-0.3241262435913086,-0.016918659210205078,0.20178651809692383,3.9420886039733887,7.253872394561768,7.342930793762207
0_20251106_211643,1762434968990,0,0.3867383599281311,0.31587159633636475,0.22118791937828064,0.8376959562301636,1.3500019311904907,2.959301233291626,2.332286834716797,3.620356559753418,7.412919998168945,7.911014556884766,-0.9507383704185486,-0.18975749611854553,-1.1817827224731445,6.038633346557617,-27.216781616210938,-15.503363609313965,-0.20322728157043457,0.09815120697021484,0.40111303329467773,3.8235838413238525,7.3147687911987305,7.509901523590088
0_20251106_211643,1762434969009,0,0.40014633536338806,0.31154727935791016,0.2163320928812027,0.8342791199684143,1.3500019311904907,2.959301233291626,2.332286834716797,3.620356559753418,7.412919998168945,7.911014556884766,-0.9397428035736084,-0.12806016206741333,-1.2239322662353516,6.575119972229004,-26.612136840820312,-16.174222946166992,-0.20322728157043457,0.09815120697021484,0.40111303329467773,3.8235838413238525,7.3147687911987305,7.509901523590088
0_20251106_211643,1762434969028,0,0.413697749376297,0.30664435029029846,0.21183356642723083,0.8306322693824768,1.347682237625122,2.9399049282073975,2.3969383239746094,3.4396018981933594,7.167524337768555,8.759721755981445,-0.7118902802467346,-0.2838306725025177,-1.1573481559753418,7.167102813720703,-25.879150390625,-16.79993438720703,-0.26700830459594727,-0.12162494659423828,0.8787937164306641,3.7066102027893066,7.289149284362793,7.880928039550781
0_20251106_211643,1762434969047,0,0.42640066146850586,0.30394694209098816,0.20820701122283936,0.826104462146759,1.345048189163208,2.930283308029175,2.4305830001831055,3.2971529960632324,7.11844539642334,8.739372253417969,-0.29833486676216125,-0.5251221656799316,-1.0687726736068726,7.821922302246094,-24.77167510986328,-18.491424560546875,-0.32756567001342773,-0.13656282424926758,0.6867551803588867,3.62471866607666,7.255008220672607,8.052617073059082
0_20251106_211643,1762434969066,0,0.4377877712249756,0.3049149215221405,0.20644022524356842,0.8202140927314758,1.3406388759613037,2.9199109077453613,2.463270425796509,2.929658889770508,6.806015491485596,8.316814422607422,0.02114737778902054,-0.7028838396072388,-0.9783647656440735,8.49428653717041,-24.109413146972656,-19.020671844482422,-0.5560479164123535,-0.359194278717041,0.21135807037353516,3.4857068061828613,7.165209770202637,8.105456352233887
0_20251106_211643,1762434969086,0,0.44800829887390137,0.30875954031944275,0.20605961978435516,0.8133237957954407,1.3342281579971313,2.908963203430176,2.4940361976623535,2.675884246826172,6.766512870788574,8.00079345703125,0.0852881669998169,-0.6833361387252808,-0.8653547763824463,9.11710262298584,-23.46302032470703,-19.53862762451172,-0.6478579044342041,-0.3189573287963867,-0.08372974395751953,3.323742151260376,7.085470199584961,8.08452320098877
0_20251106_211643,1762434969104,0,0.45697495341300964,0.3128461539745331,0.20594371855258942,0.8067765235900879,1.3267894983291626,2.8982865810394287,2.5211448669433594,2.645958423614502,6.750950813293457,7.8487677574157715,0.025423429906368256,-0.5715479254722595,-0.7847205996513367,9.60375690460205,-22.863037109375,-20.06277084350586,-0.542227029800415,-0.26761579513549805,-0.18860387802124023,3.188185453414917,7.018566608428955,8.037371635437012
0_20251106_211643,1762434969123,0,0.464654803276062,0.31577935814857483,0.20585143566131592,0.8012518286705017,1.3175657987594604,2.8858065605163574,2.5484256744384766,2.736934185028076,6.6204729080200195,7.598584175109863,0.015649592503905296,-0.46220317482948303,-0.7010322213172913,10.139676094055176,-22.235977172851562,-20.46277618408203,-0.36100101470947266,-0.31847476959228516,-0.3510298728942871,3.097935199737549,6.938947677612305,7.94961404800415
0_20251106_211643,1762434969142,0,0.47229501605033875,0.31820011138916016,0.20556552708148956,0.7958824634552002,1.3090096712112427,2.8741064071655273,2.5721163749694824,3.0134525299072266,6.779680252075195,7.6105546951293945,0.015649592503905296,-0.46220317482948303,-0.7010322213172913,10.560480117797852,-21.71624755859375,-20.89634132385254,-0.06758618354797363,-0.12741422653198242,-0.27124738693237305,3.0810387134552,6.907094478607178,7.881802082061768
0_20251106_211643,1762434969162,0,0.4792652130126953,0.320278137922287,0.20486001670360565,0.7910494208335876,1.3012851476669312,2.8626012802124023,2.596590995788574,3.354611396789551,6.971208572387695,8.139650344848633,-0.025278344750404358,-0.41516658663749695,-0.6130676865577698,10.979083061218262,-21.22271728515625,-21.22230339050293,0.218858003616333,0.05129098892211914,0.20627880096435547,3.1357533931732178,6.919917583465576,7.933371543884277
0_20251106_211643,1762434969180,0,0.48633211851119995,0.3222980797290802,0.2036122977733612,0.786223292350769,1.2948246002197266,2.8526105880737305,2.6183431148529053,3.194206714630127,6.857488632202148,8.268932342529297,0.03031034767627716,-0.4029493033885956,-0.661325991153717,11.293234825134277,-20.872589111328125,-21.663223266601562,0.04676246643066406,-0.049942970275878906,0.2684488296508789,3.147444248199463,6.907431602478027,8.000483512878418
0_20251106_211643,1762434969200,0,0.493324339389801,0.32446324825286865,0.2034076303243637,0.7810121774673462,1.286797285079956,2.840988874435425,2.6409080028533936,2.7501015663146973,6.553438186645508,7.870314598083496,0.03031034767627716,-0.4029493033885956,-0.661325991153717,11.558866500854492,-20.50214385986328,-21.943382263183594,-0.3178741931915283,-0.28319454193115234,-0.10413503646850586,3.0679757595062256,6.83663272857666,7.974449634552002
0_20251106_211643,1762434969219,0,0.4999970495700836,0.3263075351715088,0.2042512148618698,0.7757627367973328,1.2782732248306274,2.829782247543335,2.6596996784210205,2.6016674041748047,6.574984550476074,7.401071071624756,0.08773162961006165,-0.16776636242866516,-0.5855787396430969,11.835768699645996,-20.15534210205078,-22.291160583496094,-0.373046875,-0.2093186378479004,-0.45870304107666016,2.9747142791748047,6.784303188323975,7.859774112701416
0_20251106_211643,1762434969239,0,0.5060134530067444,0.32709309458732605,0.20522277057170868,0.7712613940238953,1.2693063020706177,2.8186142444610596,2.676375389099121,2.657928943634033,6.594138145446777,7.430997371673584,0.04619283229112625,-0.14821869134902954,-0.5538137555122375,12.100893020629883,-19.79718017578125,-22.598615646362305,-0.25342822074890137,-0.1521320343017578,-0.3430213928222656,2.9113571643829346,6.746270179748535,7.77401876449585
0_20251106_211643,1762434969257,0,0.5119255185127258,0.32765719294548035,0.205890953540802,0.7669302225112915,1.259809970855713,2.808129072189331,2.6915323734283447,2.5549824237823486,6.791650772094727,7.524367332458496,0.04619283229112625,-0.14821869134902954,-0.5538137555122375,12.100893020629883,-19.79718017578125,-22.598615646362305,-0.28509974479675293,0.036304473876953125,-0.1997208595275879,2.8400821685791016,6.755346298217773,7.724088191986084
0_20251106_211643,1762434969276,0,0.5179728269577026,0.32856982946395874,0.20645011961460114,0.7623151540756226,1.259809970855713,2.808129072189331,2.6915323734283447,2.5549824237823486,6.791650772094727,7.524367332458496,0.05718839541077614,-0.19342267513275146,-0.5721396803855896,12.373690605163574,-19.502357482910156,-22.77173614501953,-0.28509974479675293,0.036304473876953125,-0.1997208595275879,2.8400821685791016,6.755346298217773,7.724088191986084
0_20251106_211643,1762434969295,0,0.5240101218223572,0.33050301671028137,0.20702290534973145,0.7571806907653809,1.2392140626907349,2.790635824203491,2.7222366333007812,2.4280953407287598,7.21420955657959,8.187532424926758,0.23067398369312286,-0.3516366481781006,-0.5605332851409912,12.597843170166016,-19.21057891845703,-22.960336685180664,-0.26980066299438477,0.3386812210083008,0.3260993957519531,2.6978960037231445,6.875528335571289,7.861433029174805
0_20251106_211643,1762434969314,0,0.5296297669410706,0.3333228826522827,0.20801198482513428,0.7517440915107727,1.2284833192825317,2.7846267223358154,2.738001823425293,2.4137306213378906,7.42488956451416,8.246188163757324,0.2703801691532135,-0.350414901971817,-0.5770266056060791,12.821191787719727,-18.931488037109375,-23.135683059692383,-0.22733235359191895,0.43948888778686523,0.3078041076660156,2.6410629749298096,6.985400676727295,7.938384056091309
0_20251106_211643,1762434969334,0,0.5352433919906616,0.3362855613231659,0.20931845903396606,0.7460645437240601,1.2171201705932617,2.779611349105835,2.753783941268921,2.2150204181671143,7.238150119781494,8.231823921203613,0.31924936175346375,-0.30582180619239807,-0.6295610070228577,13.0712251663208,-18.612869262695312,-23.33629035949707,-0.3408341407775879,0.20219945907592773,0.23475170135498047,2.555854558944702,7.035950660705566,7.997072219848633
0_20251106_211643,1762434969353,0,0.5409806966781616,0.339078426361084,0.2113322913646698,0.7400705218315125,1.2171201705932617,2.779611349105835,2.753783941268921,2.2150204181671143,7.238150119781494,8.231823921203613,0.31924936175346375,-0.30582180619239807,-0.6295610070228577,13.33154010772705,-18.319244384765625,-23.46935272216797,-0.3408341407775879,0.20219945907592773,0.23475170135498047,2.555854558944702,7.035950660705566,7.997072219848633
0_20251106_211643,1762434969371,0,0.5446679592132568,0.34082022309303284,0.2147432118654251,0.7355703711509705,1.201790690422058,2.774833917617798,2.770664691925049,1.786476731300354,7.2369537353515625,7.86672306060791,0.32474714517593384,-0.14638608694076538,-0.5922982096672058,13.56246280670166,-18.10363006591797,-23.496850967407227,-0.6155022382736206,0.16080236434936523,-0.1042795181274414,2.4019789695739746,7.076151371002197,7.971002578735352
0_20251106_211643,1762434969391,0,0.5499255657196045,0.3425615429878235,0.21743439137935638,0.7300381660461426,1.17323899269104,2.769209384918213,2.794847011566162,1.3914505243301392,7.2944111824035645,7.986428737640381,0.3522360622882843,-0.11034507304430008,-0.5287683606147766,13.754304885864258,-17.940223693847656,-23.567424774169922,-0.6656996011734009,0.13892030715942383,0.04147529602050781,2.05715012550354,7.155490875244141,7.944953441619873
0_20251106_211643,1762434969410,0,0.5543845891952515,0.3442486524581909,0.22039151191711426,0.7249676585197449,1.15522038936615,2.7672433853149414,2.807549476623535,1.4560911655426025,7.414116859436035,7.890664100646973,0.44875267148017883,-0.10057124495506287,-0.4359169006347656,14.006879806518555,-17.773109436035156,-23.60851287841797,-0.4808471202850342,0.20690059661865234,-0.04343128204345703,1.9369382858276367,7.207216262817383,7.93409538269043
0_20251106_211643,1762434969430,0,0.5578445792198181,0.34652408957481384,0.2237192690372467,0.7201945185661316,1.1372013092041016,2.7661356925964355,2.819077253341675,1.6404366493225098,7.457210540771484,7.756594657897949,0.5764234066009521,-0.1353905349969864,-0.336345911026001,14.273050308227539,-17.580093383789062,-23.648584365844727,-0.23720133304595947,0.1999950408935547,-0.1420001983642578,1.8776379823684692,7.25721549987793,7.898594856262207
0_20251106_211643,1762434969449,0,0.5602505803108215,0.34996387362480164,0.22736433148384094,0.7155068516731262,1.1209583282470703,2.766183853149414,2.8288254737854004,1.8846348524093628,7.639162063598633,7.659633636474609,0.657057523727417,-0.15799252688884735,-0.25021401047706604,14.546880722045898,-17.46202850341797,-23.649198532104492,0.005597472190856934,0.3055572509765625,-0.19116878509521484,1.8790373802185059,7.33360481262207,7.850802421569824
0_20251106_211643,1762434969467,0,0.56186443567276,0.3542380928993225,0.23105135560035706,0.7109423279762268,1.106942892074585,2.767380475997925,2.8370425701141357,2.12404465675354,7.801959991455078,7.624919414520264,0.657057523727417,-0.15799252688884735,-0.25021401047706604,14.794744491577148,-17.35932159423828,-23.52941131591797,0.19600582122802734,0.37468433380126953,-0.18070650100708008,1.9280388355255127,7.427275657653809,7.805625915527344
0_20251106_211643,1762434969487,0,0.5630849599838257,0.35889995098114014,0.23499421775341034,0.7063312530517578,1.0928757190704346,2.7702267169952393,2.844249963760376,2.1671383380889893,7.948000431060791,7.323263168334961,0.7621263265609741,-0.134168803691864,-0.27525946497917175,15.015713691711426,-17.308029174804688,-23.452211380004883,0.19127964973449707,0.4165797233581543,-0.38589000701904297,1.9758586883544922,7.531420707702637,7.709153175354004
0_20251106_211643,1762434969505,0,0.5642218589782715,0.3635692298412323,0.23951897025108337,0.7014996409416199,1.0928757190704346,2.7702267169952393,2.844249963760376,2.1671383380889893,7.948000431060791,7.323263168334961,0.7578502297401428,-0.10362556576728821,-0.3186308741569519,15.254229545593262,-17.357223510742188,-23.213945388793945,0.19127964973449707,0.4165797233581543,-0.38589000701904297,1.9758586883544922,7.531420707702637,7.709153175354004
0_20251106_211643,1762434969524,0,0.565642237663269,0.3679940104484558,0.24424438178539276,0.6964007019996643,1.0679794549942017,2.778108835220337,2.851707935333252,1.677545189857483,7.916877269744873,6.989285945892334,0.7144788503646851,-0.0785801112651825,-0.2935854196548462,15.408135414123535,-17.411033630371094,-23.073726654052734,-0.2359297275543213,0.2403721809387207,-0.4702916145324707,1.9134749174118042,7.676505088806152,7.459577560424805
0_20251106_211643,1762434969543,0,0.5668956637382507,0.3720525801181793,0.24875372648239136,0.6916124820709229,1.055116057395935,2.7830886840820312,2.8535120487213135,1.6679688692092896,7.9875030517578125,7.104202747344971,0.7254743576049805,-0.05353465676307678,-0.24471622705459595,15.62590217590332,-17.398895263671875,-22.8486385345459,-0.1964048147201538,0.24879837036132812,-0.2843003273010254,1.8643736839294434,7.738704681396484,7.388503074645996
0_20251106_211643,1762434969562,0,0.5676746964454651,0.376057505607605,0.2533009946346283,0.6871424317359924,1.0427772998809814,2.7885022163391113,2.854120969772339,1.8211911916732788,7.9875030517578125,6.985694885253906,0.7926695346832275,0.006330085452646017,-0.2105078101158142,15.82776165008545,-17.450607299804688,-22.59832763671875,-0.03454601764678955,0.19903850555419922,-0.3222465515136719,1.8557372093200684,7.788464546203613,7.307941436767578
0_20251106_211643,1762434969581,0,0.5678440928459167,0.38010093569755554,0.25840792059898376,0.6828628778457642,1.031666874885559,2.7944767475128174,2.852698564529419,2.078557014465332,8.091647148132324,6.57869815826416,0.8879644274711609,0.016103921458125114,-0.18729496002197266,15.914011001586914,-17.610328674316406,-22.313993453979492,0.17825579643249512,0.24254608154296875,-0.5833945274353027,1.900301218032837,7.8491010665893555,7.162092685699463
0_20251106_211643,1762434969601,0,0.5673658847808838,0.3846510052680969,0.2640586793422699,0.6785370707511902,1.021684169769287,2.8020074367523193,2.848996877670288,2.2712817192077637,8.360982894897461,6.412308216094971,0.9227837324142456,-0.055978115648031235,-0.19401445984840393,16.047298431396484,-17.792388916015625,-21.9876766204834,0.2967844009399414,0.40950536727905273,-0.599827766418457,1.9744973182678223,7.951477527618408,7.012135982513428
0_20251106_211643,1762434969620,0,0.5668674111366272,0.3899105191230774,0.2695215344429016,0.6737872958183289,1.0131540298461914,2.80961537361145,2.8438100814819336,2.1491827964782715,8.247262954711914,6.339288234710693,0.9747071862220764,-0.09629519283771515,-0.2526574730873108,16.182191848754883,-17.949066162109375,-21.6878662109375,0.13974833488464355,0.23662853240966797,-0.5382781028747559,2.009434461593628,8.010634422302246,6.877566337585449
0_20251106_211643,1762434969640,0,0.5665012001991272,0.3955684304237366,0.2752944529056549,0.6684421896934509,1.0131540298461914,2.80961537361145,2.8438100814819336,2.1491827964782715,8.247262954711914,6.339288234710693,0.9747072458267212,-0.0370413139462471,-0.2844224274158478,16.289203643798828,-18.15850067138672,-21.29547691345215,0.13974833488464355,0.23662853240966797,-0.5382781028747559,2.009434461593628,8.010634422302246,6.877566337585449
0_20251106_211643,1762434969659,0,0.5661098957061768,0.4007103443145752,0.2814514935016632,0.6631258130073547,1.0041241645812988,2.8180317878723145,2.8356130123138428,1.9875811338424683,8.13833236694336,6.056784629821777,0.9747072458267212,-0.0370413139462471,-0.2844224274158478,16.42058563232422,-18.366348266601562,-20.9021053314209,-0.017482638359069824,0.1021585464477539,-0.6566257476806641,2.005063772201538,8.036173820495605,6.713410377502441
0_20251106_211643,1762434969679,0,0.5655901432037354,0.4048989713191986,0.2876494824886322,0.6583482027053833,0.9878098964691162,2.832425594329834,2.8124163150787354,1.7685209512710571,8.116785049438477,5.288278579711914,0.9075120687484741,0.05153407156467438,-0.28014639019966125,16.42058563232422,-18.366348266601562,-20.9021053314209,-0.17130625247955322,0.06231689453125,-0.9557533264160156,1.9398272037506104,8.054468154907227,6.24403190612793
0_20251106_211643,1762434969697,0,0.5652480721473694,0.4084210991859436,0.2934344708919525,0.6538983583450317,0.9796649813652039,2.8391568660736084,2.7990505695343018,1.642830729484558,8.188608169555664,5.552826881408691,0.7218092083930969,0.09246201068162918,-0.28625500202178955,16.587526321411133,-18.58477783203125,-20.46697998046875,-0.23759710788726807,0.10731220245361328,-0.5529637336730957,1.8804278373718262,8.08129596710205,6.105790615081787
0_20251106_211643,1762434969716,0,0.5652173757553101,0.41136571764945984,0.29872578382492065,0.6496695280075073,0.9704481959342957,2.8461978435516357,2.7839860916137695,1.4979878664016724,8.187410354614258,5.500156879425049,0.7248635292053223,0.16576577723026276,-0.272816002368927,16.7012939453125,-18.881996154785156,-20.00836753845215,-0.30595195293426514,0.08489131927490234,-0.48450708389282227,1.8039398193359375,8.102519035339355,5.984663963317871
0_20251106_211643,1762434969735,0,0.5647951364517212,0.41380900144577026,0.30437132716178894,0.6458534598350525,0.9605572819709778,2.8531131744384766,2.7668774127960205,1.3902534246444702,8.185016632080078,4.965075969696045,0.7071484327316284,0.2708345055580139,-0.23372066020965576,16.81898307800293,-19.115890502929688,-19.60249900817871,-0.330949068069458,0.06599807739257812,-0.8156704902648926,1.7212024927139282,8.1190185546875,5.7807464599609375
0_20251106_211643,1762434969754,0,0.5639194250106812,0.41562357544898987,0.31026291847229004,0.642642080783844,0.9498653411865234,2.8596994876861572,2.747154712677002,1.2490015029907227,8.125164031982422,4.516181945800781,0.5721473693847656,0.3288666307926178,-0.18362976610660553,17.059053421020508,-19.31793975830078,-19.069551467895508,-0.3777608871459961,0.004916191101074219,-1.0116515159606934,1.6267623901367188,8.120247840881348,5.527833461761475
0_20251106_211643,1762434969772,0,0.5629059076309204,0.41649919748306274,0.31555965542793274,0.6403807401657104,0.9388467073440552,2.865760087966919,2.7271902561187744,1.0598677396774292,8.174243927001953,4.628705024719238,0.4084356129169464,0.2989342510700226,-0.11765637248754501,17.23063087463379,-19.448875427246094,-18.592029571533203,-0.45351576805114746,0.043196678161621094,-0.7193031311035156,1.5133835077285767,8.131047248840332,5.348008155822754
0_20251106_211643,1762434969793,0,0.5611032843589783,0.4163758158683777,0.32017841935157776,0.6397500038146973,0.9248014092445374,2.8731436729431152,2.704714298248291,0.9664978981018066,8.329859733581543,5.243988037109375,0.37544891238212585,0.2201327383518219,-0.026026654988527298,17.400501251220703,-19.605323791503906,-18.074485778808594,-0.4375084638595581,0.15904998779296875,-0.08321619033813477,1.4040063619613647,8.170809745788574,5.32720422744751
0_20251106_211643,1762434969813,0,0.5603265762329102,0.41738659143447876,0.323030024766922,0.6383370161056519,0.9112295508384705,2.880686044692993,2.684187889099121,1.119720220565796,8.454353332519531,5.26433801651001,0.37544891238212585,0.2201327383518219,-0.026026654988527298,17.608327865600586,-19.745887756347656,-17.64982032775879,-0.22742891311645508,0.2268352508544922,-0.05029296875,1.347149133682251,8.227518081665039,5.31463098526001
0_20251106_211643,1762434969830,0,0.5582642555236816,0.41952380537986755,0.3264302611351013,0.6370118260383606,0.9000599384307861,2.8876585960388184,2.6667399406433105,1.2513957023620605,8.629121780395508,4.917193412780762,0.7065376043319702,0.11872918903827667,0.118137426674366,17.724714279174805,-19.780197143554688,-17.186155319213867,-0.07660269737243652,0.32128334045410156,-0.3179497718811035,1.327998399734497,8.307838439941406,5.235143184661865
0_20251106_211643,1762434969849,0,0.5554766058921814,0.4231905937194824,0.3301524817943573,0.6351022124290466,0.8880559802055359,2.8964359760284424,2.6467409133911133,1.2753366231918335,8.808679580688477,4.69813346862793,0.7065376043319702,0.11872918903827667,0.118137426674366,17.7998046875,-19.904518127441406,-16.75284194946289,-0.0421295166015625,0.40067291259765625,-0.4296078681945801,1.317466139793396,8.40800666809082,5.12774133682251
0_20251106_211643,1762434969869,0,0.552493691444397,0.4278794527053833,0.333869069814682,0.6326146721839905,0.8765062093734741,2.9069480895996094,2.624940872192383,1.4668644666671753,8.978660583496094,4.535335063934326,0.8207693099975586,0.03687331825494766,0.09920061379671097,17.921228408813477,-20.063743591308594,-16.277809143066406,0.11951863765716553,0.45652294158935547,-0.4739251136779785,1.3473458290100098,8.522137641906738,5.009260177612305
0_20251106_211643,1762434969889,0,0.5494704842567444,0.4326242506504059,0.33792224526405334,0.6298626661300659,0.8765062093734741,2.9069480895996094,2.624940872192383,1.4668644666671753,8.978660583496094,4.535335063934326,0.8494799137115479,0.10773362964391708,0.025896847248077393,18.01555824279785,-20.27465057373047,-15.818328857421875,0.11951863765716553,0.45652294158935547,-0.4739251136779785,1.3473458290100098,8.522137641906738,5.009260177612305
0_20251106_211643,1762434969908,0,0.5464093089103699,0.4368426203727722,0.3428157866001129,0.6269630789756775,0.8596805334091187,2.931091785430908,2.580293893814087,1.8594967126846313,9.359322547912598,3.9942688941955566,0.8299322724342346,0.16271145641803741,-0.08894572407007217,18.023881912231445,-20.50366973876953,-15.362545013427734,0.33888518810272217,0.5603132247924805,-0.696901798248291,1.5206115245819092,8.799009323120117,4.691170692443848
0_20251106_211643,1762434969926,0,0.5439353585243225,0.4403610825538635,0.3482361137866974,0.6236569881439209,0.8530904054641724,2.9445650577545166,2.5566155910491943,1.7457770109176636,9.311440467834473,3.990677833557129,0.7981672883033752,0.15171588957309723,-0.15552997589111328,18.008649826049805,-20.709976196289062,-14.826118469238281,0.18013238906860352,0.4099454879760742,-0.560394287109375,1.56564462184906,8.901494979858398,4.551072120666504
0_20251106_211643,1762434969945,0,0.5417970418930054,0.44349759817123413,0.3537840247154236,0.6201634407043457,0.8481746912002563,2.957974672317505,2.533884048461914,1.9780045747756958,9.422765731811523,3.973918914794922,0.8201584219932556,0.11384227871894836,-0.1591951847076416,18.10599708557129,-20.870384216308594,-14.392614364624023,0.3298879861831665,0.41701602935791016,-0.46172237396240234,1.6481165885925293,9.005749702453613,4.435641288757324
0_20251106_211643,1762434969965,0,0.5396165251731873,0.4468671679496765,0.3592965304851532,0.6164655089378357,0.8446474075317383,2.9739792346954346,2.5082786083221436,2.1946706771850586,9.614294052124023,3.9056873321533203,0.8549777269363403,0.07169260829687119,-0.2056208997964859,18.103445053100586,-21.075218200683594,-13.923277854919434,0.43724334239959717,0.4868354797363281,-0.4239630699157715,1.7574273347854614,9.127458572387695,4.329650402069092
0_20251106_211643,1762434969983,0,0.5377247929573059,0.4505559802055359,0.3648497462272644,0.612156867980957,0.8425453901290894,2.990356683731079,2.484013080596924,2.1515769958496094,9.832157135009766,3.908081293106079,0.8549777269363403,0.07169260829687119,-0.2056208997964859,18.109159469604492,-21.34258270263672,-13.400705337524414,0.3153197765350342,0.5637588500976562,-0.33725523948669434,1.8362572193145752,9.26839828491211,4.245336532592773
0_20251106_211643,1762434970002,0,0.5366361141204834,0.45334649085998535,0.3706931471824646,0.6075238585472107,0.8406484127044678,3.0069990158081055,2.460045337677002,1.8726643323898315,9.663372993469238,3.911672353744507,0.7627371549606323,0.16759836673736572,-0.48173174262046814,18.245996475219727,-21.438629150390625,-12.883313179016113,0.029125690460205078,0.3159799575805664,-0.26693129539489746,1.8435386419296265,9.347393035888672,4.178603649139404
0_20251106_211643,1762434970021,0,0.5361377000808716,0.4549274742603302,0.3773905336856842,0.6026389598846436,0.8375664949417114,3.022891044616699,2.435335159301758,1.3770859241485596,9.377277374267578,3.471158266067505,0.7627371549606323,0.16759836673736572,-0.48173174262046814,18.401350021362305,-21.432479858398438,-12.45793342590332,-0.37316226959228516,0.02390766143798828,-0.5659563541412354,1.7502481937408447,9.35336971282959,4.03711462020874
0_20251106_211643,1762434970040,0,0.5357180833816528,0.4561883509159088,0.38479188084602356,0.5973554849624634,0.8375664949417114,3.022891044616699,2.435335159301758,1.3770859241485596,9.377277374267578,3.471158266067505,0.8158823847770691,0.19569814205169678,-0.5275465846061707,18.554615020751953,-21.440780639648438,-11.843589782714844,-0.37316226959228516,0.02390766143798828,-0.5659563541412354,1.7502481937408447,9.35336971282959,4.03711462020874
0_20251106_211643,1762434970059,0,0.5352281928062439,0.45769065618515015,0.3920353353023529,0.591910719871521,0.8322511911392212,3.0382845401763916,2.4075143337249756,1.015576958656311,9.189340591430664,3.013885498046875,0.7993890047073364,0.1639331877231598,-0.457297146320343,18.834056854248047,-21.377273559570312,-11.331151962280273,-0.587736964225769,-0.1312236785888672,-0.8185832500457764,1.60331392288208,9.320564270019531,3.8324687480926514
0_20251106_211643,1762434970079,0,0.5343085527420044,0.45942091941833496,0.3988802134990692,0.5868061184883118,0.8245342969894409,3.052079916000366,2.3785669803619385,0.7258909940719604,9.048089981079102,3.0043091773986816,0.7706784009933472,0.16148972511291504,-0.3589479327201843,18.834056854248047,-21.377273559570312,-11.331151962280273,-0.7019383907318115,-0.21797943115234375,-0.6625275611877441,1.427829384803772,9.266069412231445,3.666836738586426
0_20251106_211643,1762434970101,0,0.5329126715660095,0.4612870216369629,0.4051350951194763,0.5823091268539429,0.8148819804191589,3.063676118850708,2.350762128829956,0.4481755495071411,8.954719543457031,3.0545849800109863,0.6521706581115723,0.20852631330490112,-0.18912754952907562,19.36384391784668,-21.327865600585938,-10.24125862121582,-0.7837231159210205,-0.24907970428466797,-0.48980140686035156,1.2318986654281616,9.2037992477417,3.544386386871338
0_20251106_211643,1762434970117,0,0.5307945013046265,0.4627862870693207,0.41030457615852356,0.5794274806976318,0.7910838723182678,3.083686590194702,2.29939341545105,0.6432945728302002,9.391641616821289,3.817105770111084,0.5904732942581177,0.24151301383972168,-0.015031089074909687,19.36384391784668,-21.327865600585938,-10.24125862121582,-0.3226957321166992,0.18744564056396484,0.25842976570129395,0.9659903049468994,9.204195976257324,3.55867600440979
0_20251106_211643,1762434970136,0,0.5278758406639099,0.46439284086227417,0.4144914150238037,0.5778262615203857,0.7802466750144958,3.094118118286133,2.277754306793213,1.0897940397262573,9.686117172241211,3.9643425941467285,0.759071946144104,0.2518976926803589,0.0014622583985328674,19.61832046508789,-21.266754150390625,-9.648703575134277,0.09904295206069946,0.38553714752197266,0.32453346252441406,0.9907510876655579,9.300580024719238,3.6398091316223145
0_20251106_211643,1762434970155,0,0.523975670337677,0.46673330664634705,0.41953298449516296,0.5758485794067383,0.7688755989074707,3.1061301231384277,2.253061056137085,1.0131828784942627,9.62985610961914,3.030644178390503,0.9795941114425659,0.27327796816825867,-0.11582376807928085,19.886293411254883,-21.17987060546875,-9.041614532470703,0.017945408821105957,0.26342105865478516,-0.4873321056365967,0.9952374696731567,9.366435050964355,3.5179762840270996
0_20251106_211643,1762434970175,0,0.5194083452224731,0.46945175528526306,0.42643532156944275,0.5726979374885559,0.7576968669891357,3.116774082183838,2.2269554138183594,0.6612503528594971,9.294681549072266,2.1256747245788574,0.9795941114425659,0.27327796816825867,-0.11582376807928085,20.114282608032227,-21.15802001953125,-8.45083236694336,-0.2671896815299988,-0.057402610778808594,-1.1138412952423096,0.9284400343894958,9.352084159851074,3.239516019821167
0_20251106_211643,1762434970194,0,0.5151231288909912,0.47193998098373413,0.4339027404785156,0.5689017176628113,0.7449417114257812,3.1269524097442627,2.1960227489471436,0.4098699688911438,9.198917388916016,1.6516430377960205,0.8751362562179565,0.36796197295188904,-0.21356213092803955,20.314289093017578,-21.189064025878906,-7.7539567947387695,-0.4148560166358948,-0.12253379821777344,-1.2702982425689697,0.8247259855270386,9.321451187133789,2.9219412803649902
0_20251106_211643,1762434970212,0,0.5111811757087708,0.4734867811203003,0.44109657406806946,0.5656305551528931,0.7333210706710815,3.1358866691589355,2.166105270385742,0.5343630909919739,9.415582656860352,1.5127854347229004,0.739524245262146,0.44920697808265686,-0.20928609371185303,20.489713668823242,-21.23358154296875,-7.125907897949219,-0.2322903275489807,0.07530498504638672,-1.1273245811462402,0.7666534185409546,9.340277671813965,2.6401100158691406
0_20251106_211643,1762434970232,0,0.5070837736129761,0.4736650884151459,0.44826075434684753,0.5635332465171814,0.7333210706710815,3.1358866691589355,2.166105270385742,0.5343630909919739,9.415582656860352,1.5127854347229004,0.686379075050354,0.46936550736427307,-0.25449007749557495,20.560510635375977,-21.18560028076172,-6.419063568115234,-0.2322903275489807,0.07530498504638672,-1.1273245811462402,0.7666534185409546,9.340277671813965,2.6401100158691406
0_20251106_211643,1762434970251,0,0.5037133097648621,0.473593533039093,0.455064982175827,0.5611576437950134,0.720260739326477,3.146747350692749,2.129276752471924,0.7127234935760498,9.626264572143555,1.5451056957244873,0.7364699840545654,0.4168311655521393,-0.3247395157814026,20.665130615234375,-21.196937561035156,-5.820197105407715,-0.04314392805099487,0.2287893295288086,-0.8760035037994385,0.7558674216270447,9.397475242614746,2.421109199523926
0_20251106_211643,1762434970271,0,0.5005473494529724,0.4736258089542389,0.4622259736061096,0.5581021904945374,0.6973589658737183,3.165606737136841,2.062410831451416,0.2626328766345978,9.346155166625977,1.4481446743011475,0.861086368560791,0.26411500573158264,-0.34611976146698,20.831499099731445,-21.18000030517578,-5.1372528076171875,-0.3800235092639923,-0.07938575744628906,-0.6359126567840576,0.6426563858985901,9.425540924072266,2.084057331085205
0_20251106_211643,1762434970290,0,0.49760571122169495,0.47495004534721375,0.4693359434604645,0.5536558628082275,0.6827406883239746,3.1737301349639893,2.025520086288452,-0.19224588572978973,9.044498443603516,1.2865431308746338,0.9472182989120483,0.15660279989242554,-0.2563226819038391,21.001502990722656,-21.088531494140625,-4.3716278076171875,-0.6679218411445618,-0.30483436584472656,-0.6380113363265991,0.47567594051361084,9.349332809448242,1.924554467201233
0_20251106_211643,1762434970309,0,0.49423107504844666,0.47751450538635254,0.4760186970233917,0.5487456321716309,0.6673834323883057,3.1800806522369385,1.9894871711730957,-0.3131478428840637,8.991827964782715,0.9262312054634094,0.9429422616958618,0.17004182934761047,-0.13170626759529114,21.23252296447754,-21.00457000732422,-3.711944580078125,-0.6310590505599976,-0.28600406646728516,-0.7986586689949036,0.31791120767593384,9.27783203125,1.724889874458313
0_20251106_211643,1762434970329,0,0.49006393551826477,0.4803696870803833,0.48227253556251526,0.544514000415802,0.6501477956771851,3.1855218410491943,1.950160264968872,-0.2999803125858307,8.978660583496094,0.6413334608078003,0.8665841817855835,0.2506759464740753,-0.060235075652599335,21.427505493164062,-20.899085998535156,-2.931558609008789,-0.49431324005126953,-0.23933696746826172,-0.8668451309204102,0.19433291256427765,9.217997550964355,1.5081785917282104
0_20251106_211643,1762434970345,0,0.48548194766044617,0.48278263211250305,0.4881539046764374,0.5412337183952332,0.6501477956771851,3.1855218410491943,1.950160264968872,-0.2999803125858307,8.978660583496094,0.6413334608078003,0.7999998927116394,0.34230566024780273,-0.021139733493328094,21.561952590942383,-20.797035217285156,-2.2076892852783203,-0.49431324005126953,-0.23933696746826172,-0.8668451309204102,0.19433291256427765,9.217997550964355,1.5081785917282104
0_20251106_211643,1762434970365,0,0.4804407060146332,0.48451051115989685,0.49398937821388245,0.5388884544372559,0.6195934414863586,3.1928224563598633,1.878422737121582,0.12616926431655884,8.967885971069336,0.5802839398384094,0.8171041011810303,0.39361831545829773,-0.008311578072607517,21.71209716796875,-20.643020629882812,-1.5768871307373047,0.006747104227542877,-0.15719890594482422,-0.5980662703514099,0.11942216008901596,9.12508487701416,1.1783502101898193
0_20251106_211643,1762434970385,0,0.4749961495399475,0.48610225319862366,0.5000065565109253,0.5367277264595032,0.6040802001953125,3.195582389831543,1.8365631103515625,0.18123352527618408,8.88409423828125,-0.1283693015575409,0.8171041011810303,0.39361831545829773,-0.008311578072607517,21.853796005249023,-20.628074645996094,-0.8543758392333984,0.04944908618927002,-0.1927928924560547,-1.0453755855560303,0.13178443908691406,9.076887130737305,0.9170063138008118
0_20251106_211643,1762434970403,0,0.4691503942012787,0.4879973530769348,0.5063067674636841,0.5342376828193665,0.5910177230834961,3.1973700523376465,1.7968666553497314,0.21355386078357697,8.84459114074707,-0.6694356203079224,0.870249330997467,0.3392513394355774,0.0460553839802742,21.97294044494629,-20.57745361328125,-0.09150505065917969,0.06541553139686584,-0.1858367919921875,-1.2691535949707031,0.14813832938671112,9.030427932739258,0.5997179746627808
0_20251106_211643,1762434970422,0,0.46314820647239685,0.4902804493904114,0.5121408104896545,0.5318182110786438,0.5786699056625366,3.19879412651062,1.753239631652832,0.42184045910835266,8.896063804626465,-0.7927317023277283,0.8250453472137451,0.24884337186813354,0.13096557557582855,22.10828971862793,-20.46257781982422,0.6055946350097656,0.2189617156982422,-0.10749149322509766,-1.113959789276123,0.20287874341011047,9.003555297851562,0.3212280571460724
0_20251106_211643,1762434970441,0,0.45735055208206177,0.49331241846084595,0.5168993473052979,0.5294227004051208,0.5786699056625366,3.19879412651062,1.753239631652832,0.42184045910835266,8.896063804626465,-0.7927317023277283,0.8250453472137451,0.24884337186813354,0.13096557557582855,22.20113182067871,-20.462562561035156,1.2447834014892578,0.2189617156982422,-0.10749149322509766,-1.113959789276123,0.20287874341011047,9.003555297851562,0.3212280571460724
0_20251106_211643,1762434970460,0,0.4517159163951874,0.49644675850868225,0.5208994150161743,0.5274060368537903,0.5604045391082764,3.2022626399993896,1.6631447076797485,0.9952270984649658,9.273134231567383,-0.9196189045906067,0.6656096577644348,0.2616715133190155,0.16700658202171326,22.132749557495117,-20.51148223876953,1.9714183807373047,0.5484730005264282,0.20892047882080078,-0.8081235885620117,0.4467540979385376,9.064213752746582,-0.11149530112743378
0_20251106_211643,1762434970480,0,0.4463258683681488,0.4988940954208374,0.5246007442474365,0.5260151624679565,0.5604045391082764,3.2022626399993896,1.6631447076797485,0.9952270984649658,9.273134231567383,-0.9196189045906067,0.5244998931884766,0.3074863851070404,0.06865737587213516,22.078048706054688,-20.545974731445312,2.590677261352539,0.5484730005264282,0.20892047882080078,-0.8081235885620117,0.4467540979385376,9.064213752746582,-0.11149530112743378
0_20251106_211643,1762434970500,0,0.4416975975036621,0.4998947083950043,0.5283256769180298,0.5252432823181152,0.5545332431793213,3.206529140472412,1.6133064031600952,1.1771786212921143,9.69569206237793,-0.8286431431770325,0.5244998931884766,0.3074863851070404,0.06865737587213516,22.09878921508789,-20.526145935058594,3.281515121459961,0.5843396186828613,0.505183219909668,-0.5737183094024658,0.5928390026092529,9.190508842468262,-0.25492486357688904
0_20251106_211643,1762434970519,0,0.4381119906902313,0.4991648197174072,0.5326676964759827,0.5245545506477356,0.5473319888114929,3.216818332672119,1.5274004936218262,0.6839942932128906,9.480224609375,-0.7268940210342407,0.4347027838230133,0.43943315744400024,-0.2624313235282898,22.072294235229492,-20.48424530029297,3.9574031829833984,-0.002566516399383545,0.15668869018554688,-0.3434302806854248,0.6865608096122742,9.323535919189453,-0.3834637403488159
0_20251106_211643,1762434970538,0,0.4348161816596985,0.4972263276576996,0.5380629301071167,0.5236307382583618,0.5425406694412231,3.2212300300598145,1.4854096174240112,0.15489844977855682,9.103153228759766,-1.0082006454467773,0.4560830295085907,0.41316595673561096,-0.2984723150730133,22.121017456054688,-20.411521911621094,4.542148590087891,-0.42532986402511597,-0.17630577087402344,-0.4997895359992981,0.580228328704834,9.279458999633789,-0.5084111094474792
0_20251106_211643,1762434970556,0,0.4317951202392578,0.4953351318836212,0.5436137318611145,0.5221878886222839,0.5362231731414795,3.2244982719421387,1.4465699195861816,-0.23414260149002075,8.994221687316895,-0.933983564376831,0.3943857252597809,0.3887313902378082,-0.19157099723815918,22.121017456054688,-20.411521911621094,4.542148590087891,-0.6514967679977417,-0.22818946838378906,-0.3404579758644104,0.41735416650772095,9.222411155700684,-0.5935255885124207
0_20251106_211643,1762434970576,0,0.42858749628067017,0.4937116503715515,0.5484058856964111,0.5213564038276672,0.5362231731414795,3.2244982719421387,1.4465699195861816,-0.23414260149002075,8.994221687316895,-0.933983564376831,0.35101431608200073,0.3911748230457306,-0.011976768262684345,22.161375045776367,-20.276405334472656,5.0871734619140625,-0.6514967679977417,-0.22818946838378906,-0.3404579758644104,0.41735416650772095,9.222411155700684,-0.5935255885124207
0_20251106_211643,1762434970595,0,0.424742728471756,0.4927676320075989,0.5521484017372131,0.5214458703994751,0.5191181898117065,3.2299108505249023,1.3682368993759155,0.08666663616895676,9.26954460144043,-0.4994545578956604,0.35101431608200073,0.3911748230457306,-0.011976768262684345,22.14080238342285,-20.14525604248047,5.62974739074707,-0.16184279322624207,0.07421684265136719,0.0885515809059143,0.24850942194461823,9.195327758789062,-0.5880061388015747
0_20251106_211643,1762434970613,0,0.420062780380249,0.4927646815776825,0.5552963018417358,0.5218967795372009,0.5117816925048828,3.232739210128784,1.3349270820617676,0.33684995770454407,9.358125686645508,-0.6095831990242004,0.39072051644325256,0.37712496519088745,0.13585248589515686,22.165660858154297,-20.06183624267578,6.240808486938477,0.0706724226474762,0.13023853302001953,-0.017261624336242676,0.26617753505706787,9.227887153625488,-0.5923215746879578
0_20251106_211643,1762434970634,0,0.41482287645339966,0.493656188249588,0.5585780143737793,0.5217434167861938,0.5038449168205261,3.2356765270233154,1.2989718914031982,0.20278042554855347,9.212085723876953,-0.8537812232971191,0.6301795244216919,0.19203296303749084,0.18105646967887878,22.503150939941406,-20.20111083984375,6.816659927368164,-0.050717681646347046,-0.012640953063964844,-0.2091677188873291,0.2534981071949005,9.224726676940918,-0.64461350440979
0_20251106_211643,1762434970653,0,0.4099339246749878,0.49599123001098633,0.5616366863250732,0.520106852054596,0.49572136998176575,3.2378318309783936,1.2634398937225342,0.06152859330177307,9.015769004821777,-1.0967822074890137,0.6301795244216919,0.19203296303749084,0.18105646967887878,22.541702270507812,-20.091644287109375,7.41522216796875,-0.1535756140947342,-0.16716575622558594,-0.3617349863052368,0.21510420739650726,9.182934761047363,-0.7350472211837769
0_20251106_211643,1762434970671,0,0.40450677275657654,0.4986784756183624,0.5650333762168884,0.5181035995483398,0.4886127710342407,3.2387824058532715,1.231541395187378,0.1489132046699524,8.820650100708008,-1.3517537117004395,0.7059267163276672,0.1382768601179123,0.21037797629833221,22.531906127929688,-19.984817504882812,7.957757949829102,-0.05295279622077942,-0.2898273468017578,-0.49336516857147217,0.2018660008907318,9.110477447509766,-0.8583885431289673
0_20251106_211643,1762434970690,0,0.3983154296875,0.501836359500885,0.5684189200401306,0.5161443948745728,0.4820682406425476,3.2387173175811768,1.197251558303833,0.4146581292152405,8.739250183105469,-1.6977009773254395,0.757850170135498,0.15110501646995544,0.28917956352233887,22.555850982666016,-19.92583465576172,8.500709533691406,0.17023369669914246,-0.2969818115234375,-0.6714498996734619,0.24442443251609802,9.036231994628906,-1.0262510776519775
0_20251106_211643,1762434970710,0,0.391396701335907,0.5051595568656921,0.5712722539901733,0.5150441527366638,0.4820682406425476,3.2387173175811768,1.197251558303833,0.4146581292152405,8.739250183105469,-1.6977009773254395,0.5782560110092163,0.28977128863334656,0.49687355756759644,22.430233001708984,-19.93889617919922,9.009422302246094,0.17023369669914246,-0.2969818115234375,-0.6714498996734619,0.24442443251609802,9.036231994628906,-1.0262510776519775
0_20251106_211643,1762434970729,0,0.38428419828414917,0.5082209706306458,0.5731494426727295,0.5153026580810547,0.4768120050430298,3.2381255626678467,1.155777096748352,0.7725759148597717,8.894866943359375,-2.0472395420074463,0.4188202917575836,0.3337535560131073,0.520697295665741,22.27752685546875,-20.003646850585938,9.502582550048828,0.42252117395401,-0.11309242248535156,-0.8167908191680908,0.3500547409057617,9.007959365844727,-1.2304487228393555
0_20251106_211643,1762434970748,0,0.37745213508605957,0.5105818510055542,0.574310302734375,0.5167240500450134,0.4752435088157654,3.2390170097351074,1.0872995853424072,1.5374904870986938,9.434736251831055,-1.9514755010604858,0.348570853471756,0.35696640610694885,0.4168502688407898,22.105396270751953,-20.18341827392578,10.114524841308594,0.8187580108642578,0.31201744079589844,-0.4407721757888794,0.718732476234436,9.122718811035156,-1.5107033252716064
0_20251106_211643,1762434970767,0,0.3713407516479492,0.5120552182197571,0.5756063461303711,0.5182498097419739,0.4752435088157654,3.2390170097351074,1.0872995853424072,1.5374904870986938,9.434736251831055,-1.9514755010604858,0.36567506194114685,0.400337815284729,0.23420171439647675,21.875751495361328,-20.316123962402344,10.643972396850586,0.8187580108642578,0.31201744079589844,-0.4407721757888794,0.718732476234436,9.122718811035156,-1.5107033252716064
0_20251106_211643,1762434970785,0,0.36566486954689026,0.5122286081314087,0.5780702829360962,0.5193706154823303,0.4829375743865967,3.242373466491699,1.0181936025619507,1.5303082466125488,9.172582626342773,-2.1669442653656006,0.3332992494106293,0.4919675290584564,0.09675715863704681,21.64236831665039,-20.52349090576172,11.104255676269531,0.49738287925720215,-0.004477500915527344,-0.440104603767395,1.0329253673553467,9.1770601272583,-1.7268396615982056
0_20251106_211643,1762434970805,0,0.3602774739265442,0.5110562443733215,0.5813533067703247,0.520624577999115,0.4887252748012543,3.244049072265625,0.9832948446273804,1.525519847869873,9.210887908935547,-2.2603142261505127,0.20013073086738586,0.5451127290725708,0.10653098672628403,21.35299301147461,-20.646934509277344,11.563934326171875,0.3940756320953369,0.027062416076660156,-0.4267796277999878,1.1314442157745361,9.183825492858887,-1.833534598350525
0_20251106_211643,1762434970824,0,0.3552745580673218,0.5092859864234924,0.5840388536453247,0.5227871537208557,0.4965588450431824,3.246436357498169,0.9469858407974243,1.8044325113296509,9.417978286743164,-2.2974226474761963,0.12438352406024933,0.502352237701416,0.19754981994628906,21.136829376220703,-20.765480041503906,12.013038635253906,0.5383906364440918,0.18732166290283203,-0.3711104393005371,1.266041874885559,9.230656623840332,-1.9263122081756592
0_20251106_211643,1762434970843,0,0.3503250777721405,0.5078633427619934,0.5858391523361206,0.5254899263381958,0.5057002305984497,3.249994993209839,0.9132053256034851,2.0210983753204346,9.742378234863281,-2.2950284481048584,0.18546998500823975,0.38689878582954407,0.2732970714569092,20.846240997314453,-20.91376495361328,12.44515609741211,0.6040452718734741,0.4093770980834961,-0.29497289657592773,1.4170531034469604,9.333001136779785,-2.0000555515289307
0_20251106_211643,1762434970862,0,0.34533393383026123,0.5076799988746643,0.5871267318725586,0.527529776096344,0.5160014629364014,3.254686117172241,0.8817935585975647,2.2593111991882324,9.93749713897705,-2.409945249557495,0.2599954903125763,0.2879387140274048,0.3087272047996521,20.582237243652344,-21.022659301757812,12.865528106689453,0.6738064289093018,0.4835968017578125,-0.3279116153717041,1.5855047702789307,9.453900337219238,-2.082033634185791
0_20251106_211643,1762434970881,0,0.3403751254081726,0.5084606409072876,0.5882234573364258,0.528777539730072,0.5298767685890198,3.2610461711883545,0.8475124835968018,2.5729384422302246,9.917146682739258,-2.4518420696258545,0.2599954903125763,0.2879387140274048,0.3087272047996521,20.26557159423828,-21.19805145263672,13.336685180664062,0.7899469137191772,0.37059688568115234,-0.29584670066833496,1.7829915285110474,9.546549797058105,-2.1559953689575195
0_20251106_211643,1762434970901,0,0.335466206073761,0.5095361471176147,0.5895142555236816,0.5294415354728699,0.546154797077179,3.2685933113098145,0.8137367963790894,2.80157470703125,10.041640281677246,-2.553591251373291,0.3113081157207489,0.22746311128139496,0.2934556007385254,19.9783935546875,-21.295303344726562,13.688762664794922,0.8148665428161621,0.3960723876953125,-0.31807661056518555,1.986708164215088,9.645567893981934,-2.2355146408081055
0_20251106_211643,1762434970919,0,0.33115774393081665,0.510313868522644,0.5908322930335999,0.5299354195594788,0.546154797077179,3.2685933113098145,0.8137367963790894,2.80157470703125,10.041640281677246,-2.553591251373291,0.2245653122663498,0.2091371715068817,0.09125937521457672,19.7530517578125,-21.375755310058594,14.016521453857422,0.8148665428161621,0.3960723876953125,-0.31807661056518555,1.986708164215088,9.645567893981934,-2.2355146408081055
0_20251106_211643,1762434970940,0,0.32773521542549133,0.5101197361946106,0.5925297737121582,0.5303545594215393,0.5805703401565552,3.2833926677703857,0.7514128684997559,2.5753321647644043,9.754348754882812,-2.743922233581543,0.1677549034357071,0.2463999092578888,-0.04557432234287262,19.541709899902344,-21.41814422607422,14.386112213134766,0.33783912658691406,0.048743247985839844,-0.35851526260375977,2.2374930381774902,9.705605506896973,-2.385406970977783
0_20251106_211643,1762434970960,0,0.3250666558742523,0.5087823867797852,0.5947096943855286,0.5308412909507751,0.599455714225769,3.29044771194458,0.7172564268112183,2.441262722015381,9.528105735778809,-2.8803858757019043,0.0999489277601242,0.2518976926803589,-0.10971512645483017,19.339923858642578,-21.52130889892578,14.633228302001953,0.16301584243774414,-0.1419992446899414,-0.3959832191467285,2.2782468795776367,9.67010498046875,-2.484402656555176
0_20251106_211643,1762434970978,0,0.3230375349521637,0.5068385004997253,0.5969104766845703,0.5314690470695496,0.6148549914360046,3.2954301834106445,0.6883798241615295,2.2868432998657227,9.360519409179688,-2.91629695892334,0.05596666410565376,0.18592432141304016,-0.12987366318702698,19.117286682128906,-21.56328582763672,14.880680084228516,0.00687718391418457,-0.24766826629638672,-0.34551548957824707,2.279966115951538,9.608187675476074,-2.5707814693450928
0_20251106_211643,1762434970996,0,0.3217516541481018,0.5050457119941711,0.5987504124641418,0.5318859219551086,0.6283159255981445,3.2994327545166016,0.6619593501091003,2.1180593967437744,9.395234107971191,-2.80377459526062,0.03092120960354805,0.08268817514181137,-0.13048453629016876,19.117286682128906,-21.56328582763672,14.880680084228516,-0.12952542304992676,-0.1703624725341797,-0.18639445304870605,2.247584819793701,9.565596580505371,-2.617380142211914
0_20251106_211643,1762434971015,0,0.3211686611175537,0.5036627054214478,0.6001846194267273,0.5319332480430603,0.6423008441925049,3.3030717372894287,0.6329411268234253,1.8989993333816528,9.291090965270996,-2.4494481086730957,0.0015997039154171944,0.01793651469051838,-0.14086923003196716,18.979949951171875,-21.599700927734375,15.13156509399414,-0.27886855602264404,-0.2196044921875,0.13434576988220215,2.177867889404297,9.510695457458496,-2.583793878555298
0_20251106_211643,1762434971034,0,0.32120174169540405,0.5024434328079224,0.6013062596321106,0.5317996144294739,0.6531998515129089,3.3057456016540527,0.6090950965881348,1.7481712102890015,9.332986831665039,-2.192082405090332,0.0015997039154171944,0.01793651469051838,-0.14086923003196716,18.881980895996094,-21.595115661621094,15.29010009765625,-0.3437572717666626,-0.1421670913696289,0.3133692741394043,2.091928482055664,9.475153923034668,-2.5054516792297363
0_20251106_211643,1762434971053,0,0.3214018642902374,0.5010464191436768,0.6022064089775085,0.531978189945221,0.6633245348930359,3.308361291885376,0.5854191184043884,1.6380425691604614,9.407204627990723,-2.0137219429016113,-0.0387173667550087,0.013660462573170662,-0.13170626759529114,18.874446868896484,-21.496803283691406,15.426883697509766,-0.36310875415802,-0.05435943603515625,0.3933837413787842,2.0011513233184814,9.461564064025879,-2.4071056842803955
0_20251106_211643,1762434971073,0,0.3216198980808258,0.4995381236076355,0.6031196713447571,0.5322301387786865,0.6706743240356445,3.3105826377868652,0.564625084400177,1.3495537042617798,9.410795211791992,-2.1980676651000977,0.008319215849041939,0.04664715379476547,-0.17813198268413544,18.87747573852539,-21.4346923828125,15.495784759521484,-0.5212780237197876,-0.040615081787109375,0.16723036766052246,1.8708317279815674,9.451410293579102,-2.36529803276062
0_20251106_211643,1762434971092,0,0.3221805989742279,0.49829626083374023,0.6041164398193359,0.5319246649742126,0.6755794882774353,3.312098741531372,0.5445676445960999,1.1137349605560303,9.23482894897461,-2.475783109664917,-0.017337102442979813,0.08024471998214722,-0.18668408691883087,18.918983459472656,-21.332794189453125,15.593982696533203,-0.6056773662567139,-0.1732645034790039,-0.08838796615600586,1.7194123268127441,9.408093452453613,-2.387395143508911
0_20251106_211643,1762434971113,0,0.32228001952171326,0.4962238669395447,0.6055984497070312,0.5321165323257446,0.6755794882774353,3.312098741531372,0.5445676445960999,1.1137349605560303,9.23482894897461,-2.475783109664917,-0.0796453058719635,0.03809504956007004,-0.09566523879766464,18.995227813720703,-21.265785217285156,15.65230941772461,-0.6056773662567139,-0.1732645034790039,-0.08838796615600586,1.7194123268127441,9.408093452453613,-2.387395143508911
0_20251106_211643,1762434971130,0,0.32242879271507263,0.4946798086166382,0.6062796115875244,0.5326880216598511,0.6779768466949463,3.3129098415374756,0.5211029052734375,0.9126306772232056,9.17617416381836,-2.4865565299987793,-0.09797124564647675,0.006330085452646017,0.027729444205760956,19.099468231201172,-21.134262084960938,15.699420928955078,-0.6454253196716309,-0.18553543090820312,-0.07932901382446289,1.5580559968948364,9.361709594726562,-2.4072275161743164
0_20251106_211643,1762434971149,0,0.3222673833370209,0.49395960569381714,0.6061897873878479,0.5335556268692017,0.6786624789237976,3.3139259815216064,0.4910047948360443,1.378282904624939,9.534090995788574,-1.8365588188171387,-0.08208875358104706,0.02037997357547283,0.10530926287174225,19.150127410888672,-21.09368133544922,15.729206085205078,-0.05683028697967529,0.1570568084716797,0.39050960540771484,1.4351131916046143,9.377034187316895,-2.2270684242248535
0_20251106_211643,1762434971169,0,0.3215474784374237,0.49358075857162476,0.6058291792869568,0.5347487926483154,0.6793973445892334,3.3154730796813965,0.47738921642303467,1.6093133687973022,9.666963577270508,-1.900002360343933,-0.0387173667550087,0.010606138966977596,0.09614629298448563,19.165950775146484,-21.018356323242188,15.8123779296875,0.13936007022857666,0.23194313049316406,0.2616528272628784,1.4699532985687256,9.435020446777344,-2.1616551876068115
0_20251106_211643,1762434971187,0,0.32066741585731506,0.49331504106521606,0.6056720614433289,0.5356996059417725,0.6807898283004761,3.318176746368408,0.4649358093738556,1.72303307056427,9.88482666015625,-1.9861900806427002,-0.03138699010014534,-0.05475638806819916,0.0613270029425621,19.267074584960938,-20.937469482421875,15.898983001708984,0.20246374607086182,0.3598451614379883,0.14037203788757324,1.5205693244934082,9.524981498718262,-2.1265621185302734
0_20251106_211643,1762434971206,0,0.32022473216056824,0.49318042397499084,0.6055426597595215,0.5362343788146973,0.6822806596755981,3.3216865062713623,0.4541076421737671,1.5817813873291016,9.86806869506836,-1.7611446380615234,-0.016726236790418625,-0.09934951364994049,-0.017474547028541565,19.30282974243164,-20.947776794433594,15.913707733154297,0.04896962642669678,0.27447032928466797,0.29233407974243164,1.5328117609024048,9.593598365783691,-2.053478717803955
0_20251106_211643,1762434971225,0,0.32036301493644714,0.4928852617740631,0.6057121157646179,0.5362316966056824,0.6832532286643982,3.3254685401916504,0.4444817006587982,1.371100664138794,9.756742477416992,-1.8126177787780762,-0.009395861066877842,-0.014439314603805542,-0.07123064249753952,19.342418670654297,-20.883285522460938,15.984081268310547,-0.12936890125274658,0.13051509857177734,0.1926887035369873,1.5004695653915405,9.626227378845215,-2.0053064823150635
0_20251106_211643,1762434971244,0,0.3203137218952179,0.49185407161712646,0.6063986420631409,0.5364320874214172,0.6832532286643982,3.3254685401916504,0.4444817006587982,1.371100664138794,9.756742477416992,-1.8126177787780762,-0.06070849671959877,0.06130790710449219,-0.07550669461488724,19.308269500732422,-20.84759521484375,15.942852020263672,-0.12936890125274658,0.13051509857177734,0.1926887035369873,1.5004695653915405,9.626227378845215,-2.0053064823150635
0_20251106_211643,1762434971263,0,0.3201061189174652,0.49023619294166565,0.6071031093597412,0.5372396111488342,0.6837405562400818,3.3301217555999756,0.43396511673927307,1.3411743640899658,9.82976245880127,-2.127441644668579,-0.09858210384845734,0.08085557818412781,-0.09627609699964523,19.287521362304688,-20.78626251220703,15.929676055908203,-0.12743616104125977,0.1628274917602539,-0.09770822525024414,1.4686105251312256,9.666934967041016,-2.029733419418335
0_20251106_211643,1762434971282,0,0.3201240301132202,0.4884033501148224,0.6077301502227783,0.5381885170936584,0.6837539672851562,3.3345253467559814,0.4247070550918579,1.3208246231079102,9.814201354980469,-2.1094858646392822,-0.11018852889537811,0.09062941372394562,-0.10238474607467651,19.264659881591797,-20.762603759765625,15.915706634521484,-0.11822879314422607,0.1178131103515625,-0.06380200386047363,1.4390534162521362,9.696388244628906,-2.0456838607788086
0_20251106_211643,1762434971301,0,0.3201588988304138,0.4864380955696106,0.6083607077598572,0.5392341613769531,0.6826452016830444,3.3429009914398193,0.4076378345489502,1.3651152849197388,9.762727737426758,-2.1657471656799316,-0.11018852889537811,0.09062941372394562,-0.10238474607467651,19.27643585205078,-20.773963928222656,15.875385284423828,-0.025677800178527832,0.036136627197265625,-0.0776066780090332,1.3907930850982666,9.726591110229492,-2.0881404876708984
0_20251106_211643,1762434971321,0,0.3200581669807434,0.48517686128616333,0.6087433099746704,0.539997935295105,0.6826452016830444,3.3429009914398193,0.4076378345489502,1.3651152849197388,9.762727737426758,-2.1657471656799316,0.00831921398639679,-0.09140826761722565,0.027118578553199768,19.304122924804688,-20.721473693847656,15.80984115600586,-0.025677800178527832,0.036136627197265625,-0.0776066780090332,1.3907930850982666,9.726591110229492,-2.0881404876708984
0_20251106_211643,1762434971339,0,0.31999167799949646,0.48536619544029236,0.6087566614151001,0.5398521423339844,0.6847273111343384,3.3532025814056396,0.39382266998291016,2.0378570556640625,10.252321243286133,-1.3924534320831299,0.11766400933265686,-0.1818162500858307,-0.00037033483386039734,19.267959594726562,-20.72332000732422,15.75430679321289,0.4652588367462158,0.39009571075439453,0.5222339630126953,1.5725982189178467,9.862225532531738,-1.9146873950958252
0_20251106_211643,1762434971358,0,0.3199906051158905,0.48611676692962646,0.6091756820678711,0.5387035012245178,0.6847273111343384,3.3532025814056396,0.39382266998291016,2.0378570556640625,10.252321243286133,-1.3924534320831299,0.11766400933265686,-0.1818162500858307,-0.00037033483386039734,19.307125091552734,-20.682594299316406,15.688987731933594,0.4652588367462158,0.39009571075439453,0.5222339630126953,1.5725982189178467,9.862225532531738,-1.9146873950958252
0_20251106_211643,1762434971378,0,0.31986555457115173,0.4860394597053528,0.6108594536781311,0.536937952041626,0.690106987953186,3.3657143115997314,0.3838721215724945,1.5769929885864258,9.912359237670898,-2.2303879261016846,0.22028927505016327,-0.134168803691864,-0.13537144660949707,19.38275146484375,-20.639617919921875,15.638656616210938,-0.05100667476654053,-0.004687309265136719,-0.3066225051879883,1.6279996633529663,9.917046546936035,-1.9237654209136963
0_20251106_211643,1762434971398,0,0.3201114535331726,0.4848380982875824,0.6131667494773865,0.5352450013160706,0.6911828517913818,3.3706839084625244,0.3768288791179657,1.173587441444397,9.604717254638672,-2.5093002319335938,0.04924715310335159,-0.0010002910858020186,-0.3192417025566101,19.433921813964844,-20.586753845214844,15.69573974609375,-0.3635298013687134,-0.2498636245727539,-0.4684278964996338,1.5371172428131104,9.854580879211426,-2.04087233543396
0_20251106_211643,1762434971417,0,0.32108232378959656,0.4827108085155487,0.6152014136314392,0.5342505574226379,0.6901646256446838,3.373859405517578,0.36876022815704346,0.812078595161438,9.377277374267578,-2.664916753768921,-0.06009763106703758,0.03137553855776787,-0.3045809864997864,19.433921813964844,-20.586753845214844,15.69573974609375,-0.5800309181213379,-0.38184261322021484,-0.4992353916168213,1.3921095132827759,9.759119987487793,-2.1656813621520996
0_20251106_211643,1762434971436,0,0.3222504258155823,0.480095773935318,0.6168249249458313,0.5340316295623779,0.6869261264801025,3.375490188598633,0.36005374789237976,0.5642893314361572,9.253981590270996,-2.5452117919921875,-0.1468404233455658,0.019769109785556793,-0.20989695191383362,19.523056030273438,-20.506385803222656,15.75482177734375,-0.662256121635437,-0.4041109085083008,-0.30362439155578613,1.2265454530715942,9.658092498779297,-2.2415874004364014
0_20251106_211643,1762434971455,0,0.32343223690986633,0.47782060503959656,0.6175782680511475,0.5344867706298828,0.6820785403251648,3.375917673110962,0.3519151210784912,0.5810480117797852,9.24919319152832,-2.193279266357422,-0.1932661384344101,-0.003443750087171793,-0.0822262093424797,19.601009368896484,-20.413856506347656,15.773128509521484,-0.5163979530334473,-0.3271198272705078,0.03864645957946777,1.0974459648132324,9.576313018798828,-2.2319257259368896
0_20251106_211643,1762434971473,0,0.3243902921676636,0.47628721594810486,0.6174120903015137,0.5354658961296082,0.6770896315574646,3.376089334487915,0.3454754650592804,0.8432018756866455,9.489801406860352,-1.8724702596664429,-0.1932661384344101,-0.003443750087171793,-0.0822262093424797,19.656208038330078,-20.285919189453125,15.858829498291016,-0.20339524745941162,-0.06920909881591797,0.28756439685821533,1.0465971231460571,9.55901050567627,-2.160034656524658
0_20251106_211643,1762434971493,0,0.32487207651138306,0.47539931535720825,0.6168035268783569,0.5366628766059875,0.6770896315574646,3.376089334487915,0.3454754650592804,0.8432018756866455,9.489801406860352,-1.8724702596664429,-0.10652334988117218,-0.05536724999547005,0.027118578553199768,19.708168029785156,-20.231971740722656,15.807781219482422,-0.20339524745941162,-0.06920909881591797,0.28756439685821533,1.0465971231460571,9.55901050567627,-2.160034656524658
0_20251106_211643,1762434971511,0,0.32556861639022827,0.4754316806793213,0.6159881949424744,0.5371483564376831,0.6676031947135925,3.3761556148529053,0.3358481824398041,1.1747844219207764,9.552047729492188,-1.8664851188659668,-0.04971293359994888,-0.08041270077228546,-0.00586811825633049,19.797687530517578,-20.162681579589844,15.717918395996094,0.10215020179748535,0.0018634796142578125,0.1662290096282959,1.072634220123291,9.55018424987793,-2.0327141284942627
0_20251106_211643,1762434971531,0,0.32590562105178833,0.4751317799091339,0.6158499121665955,0.5373678207397461,0.6631178855895996,3.376152992248535,0.3318696618080139,1.0550795793533325,9.537681579589844,-1.8976083993911743,-0.026500072330236435,-0.11828631162643433,-0.04862865060567856,19.86486053466797,-20.04582977294922,15.736263275146484,-0.014043688774108887,-0.01000213623046875,0.10808455944061279,1.0691232681274414,9.547683715820312,-2.005692958831787
0_20251106_211643,1762434971551,0,0.32659274339675903,0.4749308228492737,0.6158663034439087,0.5371094942092896,0.6631178855895996,3.376152992248535,0.3318696618080139,1.0550795793533325,9.537681579589844,-1.8976083993911743,-0.0436042845249176,-0.08774308115243912,-0.07367410510778427,19.917327880859375,-19.979598999023438,15.712512969970703,-0.014043688774108887,-0.01000213623046875,0.10808455944061279,1.0691232681274414,9.547683715820312,-2.005692958831787
0_20251106_211643,1762434971570,0,0.32722923159599304,0.474103182554245,0.6160484552383423,0.5372443199157715,0.6578506827354431,3.3755366802215576,0.3277001678943634,0.9114336371421814,9.380868911743164,-2.0089337825775146,-0.10835593938827515,-0.062086764723062515,-0.04252000153064728,19.995563507080078,-19.898277282714844,15.595394134521484,-0.12615174055099487,-0.1334514617919922,-0.0025925636291503906,1.0375853776931763,9.514320373535156,-2.0063412189483643
0_20251106_211643,1762434971589,0,0.3279225528240204,0.47336748242378235,0.6158514618873596,0.5376960635185242,0.6483771204948425,3.3746509552001953,0.32061871886253357,0.8563693761825562,9.616687774658203,-2.114274024963379,-0.14500783383846283,-0.052312929183244705,-0.006478982977569103,20.084869384765625,-19.84087371826172,15.437686920166016,-0.10621035099029541,0.08945655822753906,-0.06792783737182617,0.9625797271728516,9.527231216430664,-2.0463461875915527
0_20251106_211643,1762434971608,0,0.3287302851676941,0.4726542532444,0.615530788898468,0.5381972193717957,0.6434043645858765,3.374986171722412,0.31667155027389526,0.898266077041626,9.755544662475586,-2.1849000453948975,-0.14500783383846283,-0.052312929183244705,-0.006478982977569103,20.15887451171875,-19.83489227294922,15.318981170654297,-0.05145096778869629,0.18265056610107422,-0.11084318161010742,0.9497170448303223,9.572894096374512,-2.07405686378479
0_20251106_211643,1762434971626,0,0.3294956088066101,0.4721538722515106,0.6151602864265442,0.5385918617248535,0.6388936042785645,3.3758232593536377,0.3130466043949127,0.9353746175765991,9.790260314941406,-2.1035008430480957,-0.12729275226593018,-0.06330849230289459,-0.0028137946501374245,20.242740631103516,-19.877670288085938,15.132129669189453,-0.01147395372390747,0.17389297485351562,-0.023555278778076172,0.9468485713005066,9.61636734008789,-2.0799455642700195
