session_id,timestamp,label,quaternion_w,quaternion_x,quaternion_y,quaternion_z,position_x,position_y,position_z,accelerometer_x,accelerometer_y,accelerometer_z,gyroscope_x,gyroscope_y,gyroscope_z,magnetometer_x,magnetometer_y,magnetometer_z,linear_acceleration_x,linear_acceleration_y,linear_acceleration_z,gravity_x,gravity_y,gravity_z
7_20251106_165533,1762419296519,7,0.19105440378189087,0.2605047821998596,0.7679556608200073,0.5530638098716736,2.28965163230896,4.283937454223633,2.4313886165618896,-0.035432398319244385,8.54054069519043,-2.115471124649048,-0.30497419834136963,-0.10826431959867477,-0.10167460888624191,20.175949096679688,-13.950550079345703,31.591726303100586,-0.31090185046195984,1.0088534355163574,0.17492461204528809,0.27546945214271545,7.531687259674072,-2.290395736694336
7_20251106_165533,1762419296539,7,0.19323314726352692,0.2598438858985901,0.7663194537162781,0.5548843145370483,2.2743630409240723,4.276830673217773,2.4008243083953857,-0.0031120628118515015,8.757206916809082,-1.925140380859375,-0.22128574550151825,-0.08810578286647797,-0.14015910029411316,20.350051879882812,-13.899871826171875,31.410158157348633,-0.22286522388458252,0.9804153442382812,0.2922043800354004,0.21975316107273102,7.776791572570801,-2.2173447608947754
7_20251106_165533,1762419296559,7,0.1952662169933319,0.2589503824710846,0.7652121186256409,0.5561171174049377,2.2589614391326904,4.27370023727417,2.3720543384552,-0.06894978880882263,8.967887878417969,-2.129835844039917,-0.08017599582672119,-0.08566232025623322,-0.17803272604942322,20.534423828125,-13.885801315307617,31.20125389099121,-0.2309623658657074,0.9528770446777344,0.0700070858001709,0.16201257705688477,8.015010833740234,-2.199842929840088
7_20251106_165533,1762419296577,7,0.19716092944145203,0.25806310772895813,0.7649012804031372,0.5562885999679565,2.245032548904419,4.2734761238098145,2.3468472957611084,-0.14675800502300262,9.010980606079102,-2.447053909301758,0.00717766210436821,-0.086273193359375,-0.2000238448381424,20.73199462890625,-13.84636116027832,31.047433853149414,-0.24701645970344543,0.7967758178710938,-0.1977686882019043,0.10025846213102341,8.214204788208008,-2.2492852210998535
7_20251106_165533,1762419296596,7,0.19895993173122406,0.25718891620635986,0.7651228904724121,0.555747926235199,2.2299046516418457,4.275431156158447,2.3201868534088135,-0.32272425293922424,9.008586883544922,-2.7534985542297363,0.0743727758526802,-0.08505146205425262,-0.17986531555652618,20.942668914794922,-13.781686782836914,30.96221351623535,-0.3383861780166626,0.6355056762695312,-0.40337061882019043,0.015661925077438354,8.37308120727539,-2.350127935409546
7_20251106_165533,1762419296616,7,0.2004718780517578,0.25659799575805664,0.7656888961791992,0.5546972155570984,2.2132568359375,4.279125213623047,2.2919251918792725,-0.48432591557502747,8.94514274597168,-2.8767945766448975,0.13545924425125122,-0.05328649282455444,-0.0919007807970047,21.06521987915039,-13.77280044555664,30.87250328063965,-0.3999902606010437,0.45764923095703125,-0.42133331298828125,-0.08433564007282257,8.487493515014648,-2.455461263656616
7_20251106_165533,1762419296636,7,0.20116566121578217,0.25661683082580566,0.7664568424224854,0.5533751845359802,2.196287155151367,4.284032821655273,2.2623512744903564,-0.46397608518600464,8.947537422180176,-3.352023124694824,0.13545924425125122,-0.05328649282455444,-0.0919007807970047,21.153133392333984,-13.72889518737793,30.809144973754883,-0.3037123680114746,0.36803531646728516,-0.7172493934631348,-0.16026371717453003,8.57950210571289,-2.6347737312316895
7_20251106_165533,1762419296654,7,0.20084473490715027,0.25732800364494324,0.7672452330589294,0.5520673990249634,2.181101083755493,4.289108753204346,2.2345595359802246,-0.43524691462516785,8.936763763427734,-3.652482509613037,0.17455458641052246,-0.04045833274722099,0.11518236249685287,21.153133392333984,-13.72889518737793,30.809144973754883,-0.21998655796051025,0.2858095169067383,-0.8141670227050781,-0.2152603566646576,8.650954246520996,-2.838315486907959
7_20251106_165533,1762419296673,7,0.20025357604026794,0.2588803768157959,0.7678079605102539,0.550772488117218,2.1653645038604736,4.295577526092529,2.203786849975586,-0.40053248405456543,9.153429985046387,-3.8966805934906006,0.10919206589460373,-0.10276653617620468,0.18726438283920288,21.213146209716797,-13.74936294555664,30.743486404418945,-0.14821770787239075,0.4019804000854492,-0.8466918468475342,-0.2523147761821747,8.751449584960938,-3.0499887466430664
7_20251106_165533,1762419296692,7,0.19987532496452332,0.2611673176288605,0.7677642703056335,0.549890398979187,2.1500277519226074,4.303367614746094,2.1727914810180664,-0.39335015416145325,9.350942611694336,-3.6919851303100586,0.02367101050913334,-0.15469002723693848,0.23430097103118896,21.21746063232422,-13.68549919128418,30.636674880981445,-0.11282828450202942,0.47959423065185547,-0.5135970115661621,-0.28052186965942383,8.87134838104248,-3.1783881187438965
7_20251106_165533,1762419296711,7,0.19984006881713867,0.26392918825149536,0.7670652866363525,0.5495599508285522,2.1353814601898193,4.3125996589660645,2.1424062252044678,-0.30835968255996704,9.53887939453125,-3.5208070278167725,-0.033139411360025406,-0.11559469252824783,0.24896171689033508,21.194793701171875,-13.661569595336914,30.595674514770508,-0.022270262241363525,0.5340251922607422,-0.27393507957458496,-0.2860894203186035,9.004854202270508,-3.2468719482421875
7_20251106_165533,1762419296731,7,0.19957749545574188,0.266427218914032,0.766079306602478,0.5498252511024475,2.1211187839508057,4.323840618133545,2.1117050647735596,-0.15992553532123566,9.665767669677734,-3.3508260250091553,-0.056963130831718445,-0.07222329825162888,0.21902935206890106,21.136089324951172,-13.616121292114258,30.67537498474121,0.1009310930967331,0.5287303924560547,-0.08316302299499512,-0.26085662841796875,9.13703727722168,-3.26766300201416
7_20251106_165533,1762419296749,7,0.19910863041877747,0.2682749032974243,0.7651439309120178,0.5503990650177002,2.110351800918579,4.334113121032715,2.0870518684387207,0.08068138360977173,9.681327819824219,-3.2047860622406006,-0.07162388414144516,-0.04778870940208435,0.17321449518203735,21.041011810302734,-13.584400177001953,30.63169288635254,0.2732304334640503,0.43543243408203125,0.050301551818847656,-0.19254903495311737,9.245895385742188,-3.2550876140594482
7_20251106_165533,1762419296768,7,0.19877395033836365,0.269700288772583,0.7642386555671692,0.5510807633399963,2.0992724895477295,4.347438335418701,2.0599570274353027,0.12138106673955917,9.852506637573242,-3.104233980178833,-0.05451967567205429,-0.1223142072558403,0.12556704878807068,20.94341278076172,-13.602502822875977,30.54640769958496,0.25114408135414124,0.4852886199951172,0.12068295478820801,-0.12976302206516266,9.367218017578125,-3.224916934967041
7_20251106_165533,1762419296787,7,0.19913186132907867,0.2711928188800812,0.7633848190307617,0.5514023900032043,2.0992724895477295,4.347438335418701,2.0599570274353027,0.12138106673955917,9.852506637573242,-3.104233980178833,0.03283397853374481,-0.2053918093442917,0.05898280069231987,20.81832504272461,-13.672826766967773,30.499635696411133,0.25114408135414124,0.4852886199951172,0.12068295478820801,-0.12976302206516266,9.367218017578125,-3.224916934967041
7_20251106_165533,1762419296807,7,0.20028941333293915,0.2728944420814514,0.7629459500312805,0.5507506132125854,2.0889065265655518,4.361347198486328,2.0354061126708984,-0.07732914388179779,9.778289794921875,-2.8337008953094482,0.10980293899774551,-0.1681290566921234,-0.00210366677492857,20.788299560546875,-13.78648567199707,30.40166664123535,0.041947104036808014,0.328857421875,0.3129727840423584,-0.1192762479186058,9.449432373046875,-3.1466736793518066
7_20251106_165533,1762419296826,7,0.20127956569194794,0.27396711707115173,0.7631481289863586,0.5495757460594177,2.068603754043579,4.388134002685547,1.9937576055526733,-0.5106610059738159,9.731605529785156,-3.0994458198547363,0.11224638670682907,-0.07466675341129303,-0.05036197975277901,20.773380279541016,-13.848987579345703,30.29172706604004,-0.2797900140285492,0.17656898498535156,-0.008845806121826172,-0.23087099194526672,9.555036544799805,-3.09060001373291
7_20251106_165533,1762419296845,7,0.20193316042423248,0.274245023727417,0.7636524438858032,0.5484957695007324,2.058065414428711,4.400964736938477,1.973838210105896,-0.48193180561065674,9.611899375915527,-3.3292791843414307,0.07009672373533249,-0.02152152732014656,-0.07235310226678848,20.794017791748047,-13.922067642211914,30.223543167114258,-0.20084863901138306,0.045490264892578125,-0.19094324111938477,-0.2810831665992737,9.56640911102295,-3.138335943222046
7_20251106_165533,1762419296865,7,0.20242004096508026,0.27396273612976074,0.7641441226005554,0.5477721095085144,2.0475094318389893,4.412996292114258,1.9538326263427734,-0.4795377254486084,9.508953094482422,-3.5327773094177246,0.051159925758838654,-0.08932751417160034,-0.07174224406480789,20.854442596435547,-13.930383682250977,30.198698043823242,-0.15876364707946777,-0.04596424102783203,-0.3155531883239746,-0.3207740783691406,9.554917335510254,-3.21722412109375
7_20251106_165533,1762419296883,7,0.20344790816307068,0.27405813336372375,0.7644209861755371,0.5469567179679871,2.0366287231445312,4.4241719245910645,1.9343984127044678,-0.6315630078315735,9.462268829345703,-3.373569965362549,0.048105597496032715,-0.21272218227386475,-0.06502272933721542,20.944652557373047,-13.860151290893555,30.014223098754883,-0.24863111972808838,-0.07411861419677734,-0.1250767707824707,-0.3829318881034851,9.53638744354248,-3.248493194580078
7_20251106_165533,1762419296902,7,0.20532917976379395,0.2748561501502991,0.7644495368003845,0.54581218957901,2.0257108211517334,4.434168338775635,1.917433738708496,-0.839849591255188,9.511347770690918,-3.0348048210144043,0.03772089630365372,-0.20172661542892456,-0.07724002748727798,21.095706939697266,-13.774469375610352,29.940595626831055,-0.3655341565608978,-0.02003192901611328,0.17095088958740234,-0.47431543469429016,9.531379699707031,-3.2057557106018066
7_20251106_165533,1762419296923,7,0.20722712576389313,0.2754250764846802,0.7644734382629395,0.5447735786437988,2.0127148628234863,4.444626331329346,1.9000135660171509,-0.9583575129508972,9.500574111938477,-3.0455784797668457,0.004734203219413757,-0.07649935781955719,-0.0973985567688942,21.18332290649414,-13.730968475341797,29.917787551879883,-0.3872336745262146,-0.024644851684570312,0.1281416416168213,-0.5711238384246826,9.525218963623047,-3.173720121383667
7_20251106_165533,1762419296940,7,0.2084336280822754,0.2750500738620758,0.7646005153656006,0.5443243384361267,2.000117540359497,4.454141616821289,1.884866714477539,-0.8877315521240234,9.553243637084961,-2.964179039001465,-0.07834339886903763,0.011465167626738548,-0.09067904949188232,21.310909271240234,-13.634048461914062,29.816408157348633,-0.2532861828804016,0.02241992950439453,0.167633056640625,-0.6344453692436218,9.530823707580566,-3.13181209564209
7_20251106_165533,1762419296959,7,0.20916716754436493,0.274046391248703,0.7644754648208618,0.5447245836257935,1.988253116607666,4.463400363922119,1.8715611696243286,-0.5968486070632935,9.610702514648438,-2.7367398738861084,-0.14370593428611755,0.010854302905499935,-0.04975111782550812,21.402145385742188,-13.527627944946289,29.781404495239258,0.030077457427978516,0.0639028549194336,0.3160579204559326,-0.626926064491272,9.546799659729004,-3.052797794342041
7_20251106_165533,1762419296978,7,0.20989811420440674,0.2732865512371063,0.7638640999794006,0.5456820726394653,1.9775373935699463,4.472450256347656,1.8605926036834717,-0.42447346448898315,9.639431953430176,-2.443462610244751,-0.09666933864355087,-0.05511908605694771,-0.022262204438447952,21.475753784179688,-13.522188186645508,29.716764450073242,0.16196209192276,0.07410621643066406,0.48746824264526367,-0.5864355564117432,9.565325736999512,-2.9309308528900146
7_20251106_165533,1762419296997,7,0.21081949770450592,0.2732197046279907,0.7632403373718262,0.5462328791618347,1.9676605463027954,4.481001377105713,1.8518810272216797,-0.4759465754032135,9.548456192016602,-2.3081960678100586,0.03283397853374481,-0.08444058895111084,-0.04608592763543129,21.574146270751953,-13.503007888793945,29.693918228149414,0.08839121460914612,-0.013495445251464844,0.498187780380249,-0.5643377900123596,9.561951637268066,-2.8063838481903076
7_20251106_165533,1762419297018,7,0.21171899139881134,0.27339354157447815,0.7632496356964111,0.5457847714424133,1.9575793743133545,4.488674640655518,1.8440762758255005,-0.6315629482269287,9.273134231567383,-2.508103370666504,0.11835504323244095,-0.012358557432889938,-0.09923115372657776,21.626399993896484,-13.448657989501953,29.602319717407227,-0.05378013849258423,-0.23105430603027344,0.23862457275390625,-0.5777828097343445,9.504188537597656,-2.74672794342041
7_20251106_165533,1762419297036,7,0.21214084327220917,0.2729378342628479,0.7639840841293335,0.5448206663131714,1.9479329586029053,4.494502544403076,1.8364883661270142,-0.777603030204773,9.104351043701172,-2.945026397705078,0.09636390954256058,0.12203168869018555,-0.13954824209213257,21.698810577392578,-13.456449508666992,29.604997634887695,-0.15985620021820068,-0.3198699951171875,-0.15863871574401855,-0.6177468299865723,9.42422103881836,-2.7863876819610596
7_20251106_165533,1762419297055,7,0.21185517311096191,0.27143460512161255,0.7650225758552551,0.5442252159118652,1.9382251501083374,4.499118804931641,1.8278560638427734,-0.8159085512161255,9.088788986206055,-3.3053383827209473,0.018784092739224434,0.18983766436576843,-0.15237639844417572,21.760135650634766,-13.45193862915039,29.55338478088379,-0.1585294008255005,-0.26834583282470703,-0.4151604175567627,-0.657379150390625,9.357134819030762,-2.8901779651641846
7_20251106_165533,1762419297076,7,0.2113451361656189,0.26934927701950073,0.7658880352973938,0.5442423224449158,1.9277855157852173,4.503323554992676,1.8173285722732544,-0.7309180498123169,9.165399551391602,-3.3268849849700928,-0.036804601550102234,0.15440750122070312,-0.10778326541185379,21.824996948242188,-13.373029708862305,29.597970962524414,-0.058831095695495605,-0.15338802337646484,-0.3493657112121582,-0.6720869541168213,9.318787574768066,-2.9775192737579346
7_20251106_165533,1762419297095,7,0.21137918531894684,0.2672674059867859,0.7666746973991394,0.5441478490829468,1.918765902519226,4.506881237030029,1.8076399564743042,-0.6890213489532471,9.298273086547852,-3.210771322250366,-0.02519816905260086,0.05361483246088028,-0.01493182685226202,21.824996948242188,-13.373029708862305,29.597970962524414,-0.01354748010635376,-0.016411781311035156,-0.1866016387939453,-0.6754738688468933,9.314684867858887,-3.024169683456421
7_20251106_165533,1762419297112,7,0.21148715913295746,0.2664699852466583,0.7670530676841736,0.5439636707305908,1.918765902519226,4.506881237030029,1.8076399564743042,-0.6890213489532471,9.298273086547852,-3.210771322250366,0.03405570983886719,-0.01846720464527607,0.09991074353456497,21.862667083740234,-13.345937728881836,29.640520095825195,-0.01354748010635376,-0.016411781311035156,-0.1866016387939453,-0.6754738688468933,9.314684867858887,-3.024169683456421
7_20251106_165533,1762419297131,7,0.21139079332351685,0.2669796049594879,0.7671417593955994,0.543626070022583,1.903277039527893,4.515183925628662,1.7910457849502563,-0.5573458671569824,9.840536117553711,-2.930661678314209,0.0694858655333519,0.021849868819117546,0.18421006202697754,21.802146911621094,-13.337757110595703,29.67888069152832,0.09092414379119873,0.3897895812988281,0.06693172454833984,-0.6482700109481812,9.450746536254883,-2.997593402862549
7_20251106_165533,1762419297150,7,0.21041329205036163,0.26763615012168884,0.7670833468437195,0.5437649488449097,1.8971220254898071,4.52164363861084,1.7828783988952637,-0.189851775765419,10.105083465576172,-3.0623373985290527,0.0694858655333519,0.021849868819117546,0.18421006202697754,21.770931243896484,-13.240087509155273,29.72007179260254,0.3667346239089966,0.5234699249267578,-0.051795005798339844,-0.5565863847732544,9.581613540649414,-3.010542392730713
7_20251106_165533,1762419297169,7,0.208372101187706,0.2681843042373657,0.7666731476783752,0.5448582768440247,1.8938179016113281,4.529968738555908,1.7751939296722412,0.3703673481941223,10.3792085647583,-2.9833321571350098,-0.030085086822509766,0.16173788905143738,0.3601391315460205,21.736698150634766,-13.192916870117188,29.7872371673584,0.7415629625320435,0.6380758285522461,0.02176809310913086,-0.37119564414024353,9.741132736206055,-3.0051002502441406
7_20251106_165533,1762419297188,7,0.20545922219753265,0.2697577178478241,0.7656381130218506,0.5466402173042297,1.894588828086853,4.540826797485352,1.7683639526367188,1.0538824796676636,10.816131591796875,-2.833700656890869,0.0022907452657818794,0.13241638243198395,0.46093177795410156,21.673763275146484,-13.222810745239258,29.865354537963867,1.1400625705718994,0.8599987030029297,0.13711953163146973,-0.08618003129959106,9.956132888793945,-2.970820188522339
7_20251106_165533,1762419297208,7,0.20173142850399017,0.2727961540222168,0.764104962348938,0.5486623048782349,1.894588828086853,4.540826797485352,1.7683639526367188,1.0538824796676636,10.816131591796875,-2.833700656890869,0.0022907452657818794,0.13241638243198395,0.46093177795410156,21.598037719726562,-13.265922546386719,29.929201126098633,1.1400625705718994,0.8599987030029297,0.13711953163146973,-0.08618003129959106,9.956132888793945,-2.970820188522339
7_20251106_165533,1762419297228,7,0.19809716939926147,0.2767404019832611,0.7632514238357544,0.5491989850997925,1.9026819467544556,4.557229042053223,1.7617297172546387,1.8834377527236938,11.16806411743164,-2.7319517135620117,0.2441931664943695,0.03834321349859238,0.5672222375869751,21.44678497314453,-13.351875305175781,30.029863357543945,1.5756943225860596,0.9695453643798828,0.19109487533569336,0.30774348974227905,10.198518753051758,-2.923046588897705
7_20251106_165533,1762419297246,7,0.19409029185771942,0.2815389633178711,0.7627853751182556,0.5488380193710327,1.9338812828063965,4.590939521789551,1.7495522499084473,3.6706326007843018,11.619351387023926,-3.527989387512207,0.3199404180049896,-0.014191148802638054,0.5427876710891724,21.292503356933594,-13.49993896484375,30.06162452697754,2.292447566986084,0.9401693344116211,-0.45707106590270996,1.3781850337982178,10.679182052612305,-3.070918321609497
7_20251106_165533,1762419297265,7,0.19029082357883453,0.28677284717559814,0.7626019716262817,0.547712504863739,1.9338812828063965,4.590939521789551,1.7495522499084473,3.6706326007843018,11.619351387023926,-3.527989387512207,0.3614791929721832,-0.15041397511959076,0.44138413667678833,21.112239837646484,-13.67497444152832,30.11890983581543,2.292447566986084,0.9401693344116211,-0.45707106590270996,1.3781850337982178,10.679182052612305,-3.070918321609497
7_20251106_165533,1762419297285,7,0.18778298795223236,0.29223647713661194,0.7625992894172668,0.5456901788711548,1.9983911514282227,4.634866714477539,1.7293578386306763,5.116668224334717,11.71272087097168,-4.060676574707031,0.3987419605255127,-0.37643393874168396,0.2581247091293335,21.00872802734375,-13.770709991455078,30.261816024780273,2.4885847568511963,0.6712322235107422,-0.6658134460449219,2.6280834674835205,11.041488647460938,-3.3948631286621094
7_20251106_165533,1762419297303,7,0.1876823902130127,0.2978292405605316,0.762803852558136,0.5424051284790039,1.9983911514282227,4.634866714477539,1.7293578386306763,5.116668224334717,11.71272087097168,-4.060676574707031,0.4091266691684723,-0.5548064112663269,0.008891900070011616,20.929279327392578,-13.876876831054688,30.35137367248535,2.4885847568511963,0.6712322235107422,-0.6658134460449219,2.6280834674835205,11.041488647460938,-3.3948631286621094
7_20251106_165533,1762419297322,7,0.18997594714164734,0.3025709092617035,0.763411819934845,0.5381099581718445,2.0799782276153564,4.679906368255615,1.7041876316070557,5.018509864807129,11.70553970336914,-4.122922897338867,0.3431532680988312,-0.630553662776947,-0.28371232748031616,20.84267807006836,-13.895803451538086,30.428773880004883,1.4888858795166016,0.4067974090576172,-0.4483375549316406,3.5296239852905273,11.298742294311523,-3.6745853424072266
7_20251106_165533,1762419297342,7,0.1944938600063324,0.30552399158477783,0.7643229961395264,0.5335143208503723,2.1266322135925293,4.703826904296875,1.689833164215088,4.619892597198486,11.530769348144531,-4.004415512084961,0.2539670169353485,-0.6165037751197815,-0.5225604176521301,20.931800842285156,-13.82705307006836,30.392976760864258,0.8722147941589355,0.1856212615966797,-0.26386404037475586,3.747677803039551,11.345148086547852,-3.740551471710205
7_20251106_165533,1762419297360,7,0.20031173527240753,0.3063293397426605,0.7655082941055298,0.529183030128479,2.164764404296875,4.723095893859863,1.678280234336853,3.9567270278930664,11.323680877685547,-3.7231082916259766,0.24236059188842773,-0.6629294753074646,-0.6685571074485779,21.086589813232422,-13.666702270507812,30.388513565063477,0.16723942756652832,-0.01717376708984375,0.013954639434814453,3.789487600326538,11.34085464477539,-3.737062931060791
7_20251106_165533,1762419297381,7,0.2073478400707245,0.3063349425792694,0.7668829560279846,0.5244581699371338,2.2072737216949463,4.744499206542969,1.6662216186523438,3.1211867332458496,10.980127334594727,-3.289776563644409,0.34498587250709534,-0.7508940100669861,-0.7272000908851624,21.30945587158203,-13.37667465209961,30.37562370300293,-0.5346407890319824,-0.28858184814453125,0.35782933235168457,3.655827522277832,11.268709182739258,-3.6476058959960938
7_20251106_165533,1762419297399,7,0.21499291062355042,0.30628639459609985,0.7687667012214661,0.5186178684234619,2.2072737216949463,4.744499206542969,1.6662216186523438,3.1211867332458496,10.980127334594727,-3.289776563644409,0.5129736065864563,-0.8449671864509583,-0.6905482411384583,21.60885238647461,-13.030843734741211,30.285634994506836,-0.5346407890319824,-0.28858184814453125,0.35782933235168457,3.655827522277832,11.268709182739258,-3.6476058959960938
7_20251106_165533,1762419297417,7,0.22266097366809845,0.3070039451122284,0.77115797996521,0.5113570690155029,2.267134666442871,4.772322654724121,1.6492992639541626,1.9636399745941162,9.984182357788086,-3.2718207836151123,0.6443095207214355,-1.0245612859725952,-0.5738730430603027,22.06464385986328,-12.499277114868164,30.1646785736084,-1.1657402515411377,-0.8897066116333008,0.2382042407989502,3.129380226135254,10.873888969421387,-3.5100250244140625
7_20251106_165533,1762419297437,7,0.23071785271167755,0.3095850348472595,0.7734169960021973,0.5027450323104858,2.2900960445404053,4.781192302703857,1.642407774925232,1.5015789270401,9.718437194824219,-3.1305689811706543,0.731663167476654,-1.1907166242599487,-0.4407045245170593,22.61166000366211,-11.872903823852539,29.913843154907227,-1.3022412061691284,-0.9243612289428711,0.30356502532958984,2.8038201332092285,10.64279842376709,-3.434134006500244
7_20251106_165533,1762419297456,7,0.23913106322288513,0.31404563784599304,0.7752293348312378,0.49316442012786865,2.2900960445404053,4.781192302703857,1.642407774925232,1.5015789270401,9.718437194824219,-3.1305689811706543,0.8312341570854187,-1.292120099067688,-0.3283054232597351,23.192825317382812,-11.282222747802734,29.704233169555664,-1.3022412061691284,-0.9243612289428711,0.30356502532958984,2.8038201332092285,10.64279842376709,-3.434134006500244
7_20251106_165533,1762419297476,7,0.24743345379829407,0.31983813643455505,0.7768219113349915,0.4827297031879425,2.307512044906616,4.786275386810303,1.6368799209594727,1.166405200958252,9.519726753234863,-3.0324110984802246,0.9405788779258728,-1.356260895729065,-0.2708841562271118,23.875991821289062,-10.621053695678711,29.36470603942871,-1.309931993484497,-0.8984575271606445,0.3213784694671631,2.476337194442749,10.418184280395508,-3.3537895679473877
7_20251106_165533,1762419297496,7,0.2555655241012573,0.32643643021583557,0.7784332036972046,0.47134625911712646,2.324172258377075,4.785606861114502,1.6292577981948853,0.67082679271698,8.920005798339844,-3.2706236839294434,1.017547845840454,-1.4155148267745972,-0.2666080892086029,24.524517059326172,-9.92486572265625,29.051530838012695,-1.1957474946975708,-1.0195493698120117,0.02583765983581543,1.8665742874145508,9.939555168151855,-3.296461343765259
7_20251106_165533,1762419297517,7,0.26384004950523376,0.33343183994293213,0.7800357341766357,0.4590815603733063,2.325563430786133,4.779829502105713,1.624768853187561,0.25664764642715454,8.722492218017578,-3.5339746475219727,1.0230457782745361,-1.476601243019104,-0.30081653594970703,25.285709381103516,-9.194259643554688,28.527036666870117,-1.2879412174224854,-0.9736509323120117,-0.19001054763793945,1.5445889234542847,9.69614315032959,-3.343964099884033
7_20251106_165533,1762419297533,7,0.27264082431793213,0.3403642475605011,0.7814204692840576,0.446319580078125,2.322352409362793,4.771554946899414,1.6206103563308716,-0.24252192676067352,8.341830253601074,-3.4741220474243164,0.9735656380653381,-1.5205835103988647,-0.3753420114517212,25.285709381103516,-9.194259643554688,28.527036666870117,-1.4296886920928955,-1.0834503173828125,-0.1041262149810791,1.1871668100357056,9.425280570983887,-3.3699958324432373
7_20251106_165533,1762419297552,7,0.28225696086883545,0.3467910885810852,0.7824758887290955,0.43335720896720886,2.3132786750793457,4.759082794189453,1.6165913343429565,-0.9463869333267212,7.90371036529541,-3.3149147033691406,0.9051488041877747,-1.524248719215393,-0.4620847702026367,26.120426177978516,-8.446735382080078,28.046297073364258,-1.7068430185317993,-1.2172565460205078,0.044064998626708984,0.7604560852050781,9.120966911315918,-3.3589797019958496
7_20251106_165533,1762419297571,7,0.29237350821495056,0.3520897626876831,0.7833814024925232,0.420552134513855,2.2985925674438477,4.743660926818848,1.6139110326766968,-1.887267827987671,7.416510581970215,-2.978543758392334,0.8104646801948547,-1.4258995056152344,-0.558601438999176,26.99148941040039,-7.708709716796875,27.49918556213379,-2.1181790828704834,-1.3635644912719727,0.3043489456176758,0.23091134428977966,8.780075073242188,-3.2828927040100098
7_20251106_165533,1762419297590,7,0.30247679352760315,0.3558179438114166,0.7843165397644043,0.40834906697273254,2.2985925674438477,4.743660926818848,1.6139110326766968,-1.887267827987671,7.416510581970215,-2.978543758392334,0.7023416757583618,-1.2359205484390259,-0.6575614809989929,27.975738525390625,-6.912364959716797,26.86292839050293,-2.1181790828704834,-1.3635644912719727,0.3043489456176758,0.23091134428977966,8.780075073242188,-3.2828927040100098
7_20251106_165533,1762419297608,7,0.31203579902648926,0.35761889815330505,0.7855148315429688,0.3971256613731384,2.243479013442993,4.6964430809021,1.6091790199279785,-4.004848003387451,6.01117467880249,-3.341249704360962,0.7023416757583618,-1.2359205484390259,-0.6575614809989929,28.860370635986328,-6.171657562255859,26.127077102661133,-2.893603801727295,-1.8981218338012695,-0.06435394287109375,-1.1112443208694458,7.90929651260376,-3.276895761489868
7_20251106_165533,1762419297628,7,0.3211447298526764,0.3581954836845398,0.7867176532745361,0.3868299424648285,2.202714443206787,4.6648173332214355,1.6062471866607666,-4.998398780822754,5.437788009643555,-3.512427806854248,0.47326746582984924,-1.0025702714920044,-0.5848686099052429,29.796775817871094,-5.365663528442383,25.46209144592285,-3.1097235679626465,-1.9772071838378906,-0.18842554092407227,-1.8886752128601074,7.414995193481445,-3.324002265930176
7_20251106_165533,1762419297647,7,0.32952672243118286,0.35847634077072144,0.7874698042869568,0.37788644433021545,2.150716781616211,4.626041412353516,1.6023532152175903,-5.583756446838379,5.063111305236816,-3.640511989593506,0.39568760991096497,-1.0086787939071655,-0.33013802766799927,30.709712982177734,-4.548429489135742,24.76935386657715,-2.9560651779174805,-1.881507396697998,-0.2532076835632324,-2.6276912689208984,6.9446187019348145,-3.3873043060302734
7_20251106_165533,1762419297668,7,0.33734944462776184,0.36023497581481934,0.787050724029541,0.3701043725013733,2.150716781616211,4.626041412353516,1.6023532152175903,-5.583756446838379,5.063111305236816,-3.640511989593506,0.45127633213996887,-1.1503995656967163,-0.022262204438447952,31.659095764160156,-3.7405624389648438,23.996728897094727,-2.9560651779174805,-1.881507396697998,-0.2532076835632324,-2.6276912689208984,6.9446187019348145,-3.3873043060302734
7_20251106_165533,1762419297687,7,0.3449956476688385,0.3649265170097351,0.7852357625961304,0.36223113536834717,2.0256664752960205,4.538206100463867,1.5934008359909058,-5.94406795501709,5.189998626708984,-3.529186487197876,0.5367973446846008,-1.2518030405044556,0.27156370878219604,32.50444793701172,-3.0523319244384766,23.244836807250977,-2.126694679260254,-1.107060432434082,-0.07854700088500977,-3.817373275756836,6.297059059143066,-3.450639486312866
7_20251106_165533,1762419297705,7,0.35212618112564087,0.3724553883075714,0.7821871042251587,0.35421380400657654,1.9656034708023071,4.497982978820801,1.589144229888916,-5.735781669616699,5.492852210998535,-3.6189651489257812,0.5367973446846008,-1.2518030405044556,0.27156370878219604,33.3673210144043,-2.487813949584961,22.464250564575195,-1.5347270965576172,-0.6433653831481934,-0.1346604824066162,-4.201054573059082,6.1362175941467285,-3.484304666519165
7_20251106_165533,1762419297725,7,0.35851746797561646,0.38184958696365356,0.7780299186706543,0.34687983989715576,1.9019150733947754,4.456806182861328,1.584384799003601,-5.461657524108887,5.829223155975342,-3.6632561683654785,0.46227189898490906,-1.2096532583236694,0.6191458106040955,34.217193603515625,-1.9483966827392578,21.60154914855957,-1.0084824562072754,-0.24559545516967773,-0.14316105842590332,-4.453175067901611,6.0748186111450195,-3.520095109939575
7_20251106_165533,1762419297743,7,0.364259272813797,0.3914394676685333,0.7733104825019836,0.3407069742679596,1.9019150733947754,4.456806182861328,1.584384799003601,-5.461657524108887,5.829223155975342,-3.6632561683654785,0.3272707760334015,-1.0612132549285889,0.5678331255912781,34.890419006347656,-1.7456550598144531,20.712095260620117,-1.0084824562072754,-0.24559545516967773,-0.14316105842590332,-4.453175067901611,6.0748186111450195,-3.520095109939575
7_20251106_165533,1762419297762,7,0.3692186772823334,0.39909788966178894,0.7690041065216064,0.3362009525299072,1.8320393562316895,4.413393020629883,1.5796738862991333,-5.34913444519043,6.021947860717773,-3.434619426727295,0.2185368537902832,-0.8303064107894897,0.44443845748901367,28.829320907592773,1.184967041015625,20.13247299194336,-0.7167673110961914,-0.0422968864440918,0.06838035583496094,-4.632367134094238,6.064244747161865,-3.502999782562256
7_20251106_165533,1762419297781,7,0.3733474910259247,0.40486663579940796,0.7654261589050293,0.3328925371170044,1.7696452140808105,4.376093864440918,1.5762754678726196,-5.483203887939453,6.069829940795898,-3.265835762023926,0.16539162397384644,-0.6048973202705383,0.3674694895744324,29.445131301879883,1.221963882446289,19.1700439453125,-0.6806693077087402,0.004467964172363281,0.18973112106323242,-4.802534580230713,6.065361976623535,-3.455566883087158
7_20251106_165533,1762419297800,7,0.3763073980808258,0.4091356694698334,0.7627140283584595,0.3305572271347046,1.6551501750946045,4.310115814208984,1.5700303316116333,-5.411380767822266,6.072224140167236,-3.7602169513702393,0.12996147572994232,-0.49494171142578125,0.3760215938091278,30.08512306213379,1.0473346710205078,18.258663177490234,-0.36629533767700195,0.020671367645263672,-0.2574141025543213,-5.045085430145264,6.051552772521973,-3.502802848815918
7_20251106_165533,1762419297819,7,0.3785773813724518,0.4130197763442993,0.7602216005325317,0.32887229323387146,1.5979987382888794,4.279263019561768,1.565885066986084,-5.30723762512207,6.525905609130859,-3.7554287910461426,0.09575305134057999,-0.4979960322380066,0.405953973531723,30.583723068237305,0.7379932403564453,17.37979507446289,-0.20972156524658203,0.3794822692871094,-0.2021007537841797,-5.097516059875488,6.14642333984375,-3.553328037261963
7_20251106_165533,1762419297838,7,0.38089457154273987,0.4172045886516571,0.7574021220207214,0.32741662859916687,1.546099066734314,4.253332138061523,1.5617656707763672,-5.285690784454346,6.892202854156494,-3.7111377716064453,0.08659007400274277,-0.43874216079711914,0.40351051092147827,31.02726173400879,0.33568763732910156,16.68634796142578,-0.15053987503051758,0.5966238975524902,-0.12624764442443848,-5.135150909423828,6.295578956604004,-3.584890127182007
7_20251106_165533,1762419297857,7,0.38284891843795776,0.4212443232536316,0.754672110080719,0.32626673579216003,1.546099066734314,4.253332138061523,1.5617656707763672,-5.285690784454346,6.892202854156494,-3.7111377716064453,0.08659007400274277,-0.43874216079711914,0.40351051092147827,31.315793991088867,-0.025907516479492188,15.906482696533203,-0.15053987503051758,0.5966238975524902,-0.12624764442443848,-5.135150909423828,6.295578956604004,-3.584890127182007
7_20251106_165533,1762419297877,7,0.3838907480239868,0.4251096248626709,0.7523707151412964,0.32534292340278625,1.4399827718734741,4.2067389488220215,1.5502634048461914,-4.8020830154418945,7.2489237785339355,-4.066661834716797,0.1256854236125946,-0.3428363800048828,0.4138951897621155,31.52579689025879,-0.4692268371582031,15.284286499023438,0.2683238983154297,0.6434664726257324,-0.3378291130065918,-5.070406913757324,6.605457305908203,-3.728832721710205
7_20251106_165533,1762419297895,7,0.38429269194602966,0.42908212542533875,0.7502632141113281,0.3245193362236023,1.398075819015503,4.190435886383057,1.5434049367904663,-4.342416286468506,7.4224958419799805,-4.3431806564331055,0.12873974442481995,-0.20844614505767822,0.4389406442642212,31.71164894104004,-0.8906383514404297,14.823833465576172,0.5823922157287598,0.6536307334899902,-0.49147820472717285,-4.924808502197266,6.76886510848999,-3.8517024517059326
7_20251106_165533,1762419297916,7,0.3842011094093323,0.4328734278678894,0.7482665777206421,0.32420238852500916,1.3566300868988037,4.1760077476501465,1.5342564582824707,-4.007242202758789,7.683452606201172,-4.479643821716309,0.08109229058027267,-0.17179425060749054,0.3668586313724518,31.78874397277832,-1.2947578430175781,14.427074432373047,0.7340531349182129,0.7316703796386719,-0.5023531913757324,-4.741295337677002,6.9517822265625,-3.977290630340576
7_20251106_165533,1762419297935,7,0.38421201705932617,0.43604278564453125,0.7464685440063477,0.3240872919559479,1.3193135261535645,4.165045738220215,1.5244895219802856,-4.064700126647949,7.854630470275879,-4.331209659576416,0.0035124728456139565,-0.09726874530315399,0.22147279977798462,31.97601890563965,-1.679443359375,14.062026977539062,0.5412759780883789,0.7222785949707031,-0.28313541412353516,-4.605976104736328,7.132351875305176,-4.048074245452881
7_20251106_165533,1762419297954,7,0.3843916058540344,0.43768519163131714,0.7452942132949829,0.3243628740310669,1.2885019779205322,4.157065391540527,1.515886664390564,-4.161661624908447,7.697817325592041,-4.150455474853516,-0.026419898495078087,0.051782239228487015,0.09929987788200378,32.02191162109375,-1.9742813110351562,13.801334381103516,0.3554515838623047,0.45237207412719727,-0.08190488815307617,-4.517113208770752,7.245445251464844,-4.0685505867004395
7_20251106_165533,1762419297973,7,0.384073406457901,0.4379231631755829,0.7450293898582458,0.32502633333206177,1.2585866451263428,4.149795055389404,1.5063554048538208,-4.159267425537109,7.512274265289307,-4.398244857788086,0.019394956529140472,0.1861724853515625,0.07425443083047867,32.02191162109375,-1.9742813110351562,13.801334381103516,0.28627681732177734,0.21346330642700195,-0.26375532150268555,-4.445544242858887,7.298810958862305,-4.1344895362854
7_20251106_165533,1762419297991,7,0.38269609212875366,0.4376406967639923,0.7455412745475769,0.32585659623146057,1.2313990592956543,4.143224239349365,1.4960942268371582,-3.996469020843506,7.421298980712891,-4.574211120605469,0.06215548515319824,0.1867833435535431,0.14389298856258392,32.042945861816406,-2.259767532348633,13.70212173461914,0.35926008224487305,0.09799051284790039,-0.3517770767211914,-4.355729103088379,7.32330846786499,-4.222434043884277
7_20251106_165533,1762419298010,7,0.3808923065662384,0.43803727626800537,0.745918869972229,0.3265721797943115,1.207105040550232,4.1373820304870605,1.4853218793869019,-3.7965614795684814,7.469181060791016,-4.595757961273193,0.06826413422822952,0.14341194927692413,0.21841847896575928,32.00818634033203,-2.4610557556152344,13.575271606445312,0.44733405113220215,0.1166982650756836,-0.2986588478088379,-4.243895530700684,7.352482795715332,-4.2970991134643555
7_20251106_165533,1762419298029,7,0.37909266352653503,0.4391440749168396,0.7458586096763611,0.32731667160987854,1.1857324838638306,4.131932258605957,1.4742852449417114,-3.6217923164367676,7.388978958129883,-4.5897722244262695,0.041386090219020844,0.13913589715957642,0.23369009792804718,32.05570983886719,-2.7072830200195312,13.477832794189453,0.4976825714111328,0.029197216033935547,-0.23413848876953125,-4.1194748878479,7.359781742095947,-4.355633735656738
7_20251106_165533,1762419298049,7,0.37740662693977356,0.44039592146873474,0.7455606460571289,0.3282605707645416,1.1661204099655151,4.126487731933594,1.4625877141952515,-3.5403928756713867,7.361446380615234,-4.573014259338379,-0.024587303400039673,0.19838976860046387,0.2226945459842682,32.055206298828125,-2.932516098022461,13.47357177734375,0.46326541900634766,0.0013318061828613281,-0.1739044189453125,-4.003658294677734,7.360114574432373,-4.399109840393066
7_20251106_165533,1762419298069,7,0.3755605220794678,0.4410974383354187,0.7453457117080688,0.32991981506347656,1.1493885517120361,4.12119197845459,1.4505897760391235,-3.378791332244873,7.319549560546875,-4.690324783325195,-0.10644317418336868,0.28757601976394653,0.2178076207637787,32.00273895263672,-2.998748779296875,13.497322082519531,0.4998936653137207,-0.032451629638671875,-0.2329721450805664,-3.8786849975585938,7.352001190185547,-4.457352638244629
7_20251106_165533,1762419298087,7,0.373445063829422,0.4412170350551605,0.7451899647712708,0.3325030207633972,1.136820673942566,4.11653995513916,1.4395514726638794,-3.172898769378662,7.301593780517578,-4.774118423461914,-0.10644317418336868,0.28757601976394653,0.2178076207637787,31.935380935668945,-3.1042556762695312,13.600887298583984,0.5646288394927979,-0.04032564163208008,-0.25341272354125977,-3.73752760887146,7.341919422149658,-4.520705699920654
7_20251106_165533,1762419298106,7,0.3709281086921692,0.44110679626464844,0.745128333568573,0.3355903625488281,1.126394271850586,4.111790657043457,1.427856206893921,-2.9442622661590576,7.31117057800293,-4.748980522155762,-0.14370591938495636,0.38409262895584106,0.2379661500453949,31.79068946838379,-3.278257369995117,13.794803619384766,0.6346123218536377,-0.024599075317382812,-0.18262004852294922,-3.5788745880126953,7.3357696533203125,-4.5663604736328125
7_20251106_165533,1762419298125,7,0.368124395608902,0.4409324824810028,0.7451187968254089,0.3389114737510681,1.1188544034957886,4.106991291046143,1.4167734384536743,-2.716822862625122,7.2309675216674805,-4.556254863739014,-0.14309504628181458,0.39508819580078125,0.23002490401268005,31.668664932250977,-3.4761886596679688,14.02972412109375,0.6896414756774902,-0.08384132385253906,0.008084297180175781,-3.4064643383026123,7.3148088455200195,-4.5643391609191895
7_20251106_165533,1762419298145,7,0.3652498424053192,0.4407110810279846,0.7451402544975281,0.34224602580070496,1.1139932870864868,4.101675033569336,1.4059919118881226,-2.5252950191497803,7.144780158996582,-4.465279579162598,-0.1571449488401413,0.39386647939682007,0.17932313680648804,31.49981117248535,-3.639894485473633,14.290508270263672,0.7049355506896973,-0.13602304458618164,0.07924747467041016,-3.2302305698394775,7.280803203582764,-4.544527053833008
7_20251106_165533,1762419298163,7,0.362571120262146,0.440030574798584,0.7453240156173706,0.3455537259578705,1.111242651939392,4.096951007843018,1.3974875211715698,-2.659364700317383,7.208224296569824,-4.254598617553711,-0.21517708897590637,0.4121924042701721,0.10174334049224854,31.367006301879883,-3.813505172729492,14.525466918945312,0.4566926956176758,-0.05806303024291992,0.23194265365600586,-3.1160573959350586,7.266287326812744,-4.486541271209717
7_20251106_165533,1762419298183,7,0.36020711064338684,0.4384746849536896,0.7457231879234314,0.3491242229938507,1.108912467956543,4.092082500457764,1.3893285989761353,-2.9275035858154297,7.305185317993164,-4.217489719390869,-0.21517708897590637,0.4121924042701721,0.10174334049224854,31.184656143188477,-4.002985000610352,14.771713256835938,0.15084314346313477,0.031118392944335938,0.2152414321899414,-3.0783467292785645,7.274066925048828,-4.4327311515808105
7_20251106_165533,1762419298202,7,0.3574209213256836,0.43606188893318176,0.7465044260025024,0.35331499576568604,1.1074532270431519,4.087225914001465,1.3819974660873413,-2.843710422515869,7.1052775382995605,-4.420989036560059,-0.2707657814025879,0.6467644572257996,0.10785198956727982,31.004220962524414,-4.155063629150391,15.045783996582031,0.18770909309387207,-0.13503122329711914,0.009393692016601562,-3.031419515609741,7.24030876159668,-4.43038272857666
7_20251106_165533,1762419298221,7,0.35373151302337646,0.4335595667362213,0.7473954558372498,0.3581901788711548,1.1075540781021118,4.081840991973877,1.3746776580810547,-2.4893836975097656,6.959238052368164,-4.559845924377441,-0.28909170627593994,0.6266059279441833,0.22025108337402344,30.76881217956543,-4.411584854125977,15.396881103515625,0.43362855911254883,-0.22485685348510742,-0.10357046127319336,-2.9230122566223145,7.1840949058532715,-4.456275463104248
7_20251106_165533,1762419298241,7,0.3498111069202423,0.43183910846710205,0.7477063536643982,0.3634313642978668,1.1075540781021118,4.081840991973877,1.3746776580810547,-2.4893836975097656,6.959238052368164,-4.559845924377441,-0.33551743626594543,0.531921923160553,0.32226550579071045,30.569154739379883,-4.678415298461914,15.762699127197266,0.43362855911254883,-0.22485685348510742,-0.10357046127319336,-2.9230122566223145,7.1840949058532715,-4.456275463104248
7_20251106_165533,1762419298258,7,0.34631678462028503,0.4310486912727356,0.747097909450531,0.3689260482788086,1.1129934787750244,4.072439670562744,1.3614932298660278,-2.088372230529785,7.444042682647705,-4.398244380950928,-0.3794997036457062,0.47144627571105957,0.36258256435394287,30.29054069519043,-4.837791442871094,16.127460479736328,0.5598344802856445,0.21271657943725586,0.04786539077758789,-2.6482067108154297,7.231326103210449,-4.446109771728516
7_20251106_165533,1762419298277,7,0.3432399332523346,0.4305606186389923,0.7459399700164795,0.37466979026794434,1.118190884590149,4.06968355178833,1.3555768728256226,-2.0177459716796875,7.726546764373779,-4.353953838348389,-0.40759947896003723,0.4757223427295685,0.3540304899215698,30.03297233581543,-5.058095932006836,16.46485137939453,0.5043685436248779,0.396176815032959,0.07372474670410156,-2.5221145153045654,7.33036994934082,-4.42767858505249
7_20251106_165533,1762419298296,7,0.34022101759910583,0.4298102855682373,0.7447213530540466,0.38066112995147705,1.118190884590149,4.06968355178833,1.3555768728256226,-2.0177459716796875,7.726546764373779,-4.353953838348389,-0.4454731047153473,0.5752933025360107,0.3491435647010803,29.73381233215332,-5.368816375732422,16.81243896484375,0.5043685436248779,0.396176815032959,0.07372474670410156,-2.5221145153045654,7.33036994934082,-4.42767858505249
7_20251106_165533,1762419298316,7,0.33666351437568665,0.4285219609737396,0.7436509132385254,0.387311190366745,1.13357412815094,4.067868709564209,1.3465570211410522,-1.6957398653030396,7.791187286376953,-4.0259623527526855,-0.512668251991272,0.6699773073196411,0.3442566394805908,29.33555793762207,-5.711275100708008,17.18260955810547,0.5623971223831177,0.3027763366699219,0.28525257110595703,-2.2581369876861572,7.488410949707031,-4.311214923858643
7_20251106_165533,1762419298336,7,0.3326750099658966,0.42653441429138184,0.7426370978355408,0.39482381939888,1.13357412815094,4.067868709564209,1.3465570211410522,-1.6957398653030396,7.791187286376953,-4.0259623527526855,-0.5810850858688354,0.687692403793335,0.34181317687034607,28.950204849243164,-6.028768539428711,17.64841079711914,0.5623971223831177,0.3027763366699219,0.28525257110595703,-2.2581369876861572,7.488410949707031,-4.311214923858643
7_20251106_165533,1762419298356,7,0.3287980258464813,0.42419445514678955,0.7413694262504578,0.4028923511505127,1.1580904722213745,4.07094144821167,1.3424946069717407,-1.1642498970031738,8.222126007080078,-3.8045077323913574,-0.5810850858688354,0.687692403793335,0.34181317687034607,28.610368728637695,-6.405466079711914,18.07430648803711,0.7253694534301758,0.5396766662597656,0.3520641326904297,-1.8896193504333496,7.6824493408203125,-4.156571865081787
7_20251106_165533,1762419298374,7,0.3259062170982361,0.4221447706222534,0.7394641637802124,0.41081830859184265,1.1713768243789673,4.074889659881592,1.3434733152389526,-1.124747395515442,8.40287971496582,-3.310126304626465,-0.5865828990936279,0.5044329762458801,0.3295958936214447,28.2579402923584,-6.795110702514648,18.45889663696289,0.6118975877761841,0.5763444900512695,0.6771564483642578,-1.736644983291626,7.826535224914551,-3.9872827529907227
7_20251106_165533,1762419298392,7,0.32329222559928894,0.42038023471832275,0.737496554851532,0.41816434264183044,1.1857560873031616,4.079649925231934,1.346769094467163,-1.0229982137680054,8.236490249633789,-3.026425838470459,-0.5865828990936279,0.5044329762458801,0.3295958936214447,28.2579402923584,-6.795110702514648,18.45889663696289,0.5709173679351807,0.32796430587768555,0.7686855792999268,-1.593915581703186,7.9085259437561035,-3.7951114177703857
7_20251106_165533,1762419298411,7,0.32001787424087524,0.41848817467689514,0.7362622022628784,0.42470476031303406,1.1857560873031616,4.079649925231934,1.346769094467163,-1.0229982137680054,8.236490249633789,-3.026425838470459,-0.4546360671520233,0.5416957139968872,0.2947766184806824,27.79783821105957,-7.165981292724609,18.758502960205078,0.5709173679351807,0.32796430587768555,0.7686855792999268,-1.593915581703186,7.9085259437561035,-3.7951114177703857
7_20251106_165533,1762419298432,7,0.31575384736061096,0.416324645280838,0.7357383966445923,0.43088552355766296,1.2205322980880737,4.091801166534424,1.3557642698287964,-0.9846925735473633,8.218534469604492,-3.934986114501953,-0.34468039870262146,0.677307665348053,0.2990526556968689,27.407724380493164,-7.594331741333008,19.00566864013672,0.38971126079559326,0.20606613159179688,-0.1847090721130371,-1.3744038343429565,8.012468338012695,-3.750277042388916
7_20251106_165533,1762419298450,7,0.31104519963264465,0.4142763316631317,0.7352522611618042,0.4370698928833008,1.2205322980880737,4.091801166534424,1.3557642698287964,-0.9846925735473633,8.218534469604492,-3.934986114501953,-0.40576687455177307,0.6363797783851624,0.3662477731704712,26.91933250427246,-8.030115127563477,19.357040405273438,0.38971126079559326,0.20606613159179688,-0.1847090721130371,-1.3744038343429565,8.012468338012695,-3.750277042388916
7_20251106_165533,1762419298469,7,0.30646899342536926,0.41262829303741455,0.734187126159668,0.4436032772064209,1.2381036281585693,4.09775447845459,1.3581185340881348,-0.7847853302955627,8.106012344360352,-4.213898658752441,-0.5199986100196838,0.5545238852500916,0.45604485273361206,26.457921981811523,-8.42596435546875,19.64260482788086,0.4716947674751282,0.07483577728271484,-0.3708972930908203,-1.256480097770691,8.031176567077637,-3.843001365661621
7_20251106_165533,1762419298488,7,0.30248570442199707,0.4116894602775574,0.7320033311843872,0.4507608115673065,1.2767553329467773,4.109305381774902,1.363981008529663,-0.09169372916221619,8.254446029663086,-3.337658405303955,-0.6134609580039978,0.5435283184051514,0.5049140453338623,26.04475975036621,-8.819311141967773,19.997711181640625,0.794685959815979,0.16913127899169922,0.38853931427001953,-0.8863797187805176,8.085314750671387,-3.7261977195739746
7_20251106_165533,1762419298508,7,0.29888489842414856,0.4111461639404297,0.7289131283760071,0.45859822630882263,1.2982690334320068,4.117064952850342,1.3694496154785156,-0.19463998079299927,8.817058563232422,-2.9749526977539062,-0.643393337726593,0.5270349979400635,0.43527549505233765,25.56773567199707,-9.278606414794922,20.267948150634766,0.5533917546272278,0.5853948593139648,0.6009960174560547,-0.748031735420227,8.231663703918457,-3.575948715209961
7_20251106_165533,1762419298527,7,0.2955370545387268,0.40966588258743286,0.726033627986908,0.4665907323360443,1.2982690334320068,4.117064952850342,1.3694496154785156,-0.19463998079299927,8.817058563232422,-2.9749526977539062,-0.615293562412262,0.6412666440010071,0.3247089684009552,24.993520736694336,-9.743850708007812,20.49371337890625,0.5533917546272278,0.5853948593139648,0.6009960174560547,-0.748031735420227,8.231663703918457,-3.575948715209961
7_20251106_165533,1762419298546,7,0.2918221652507782,0.4068923592567444,0.7239357829093933,0.4745475649833679,1.3444362878799438,4.1370744705200195,1.3844597339630127,0.03279940038919449,8.663835525512695,-3.2395005226135254,-0.5731438994407654,0.7084618210792542,0.30271783471107483,24.4578800201416,-10.16917610168457,20.73525619506836,0.5326747298240662,0.23100566864013672,0.16572117805480957,-0.49987533688545227,8.432829856872559,-3.405221700668335
7_20251106_165533,1762419298566,7,0.2875533103942871,0.40373462438583374,0.7222470641136169,0.48235946893692017,1.3444362878799438,4.1370744705200195,1.3844597339630127,0.03279940038919449,8.663835525512695,-3.2395005226135254,-0.5731438994407654,0.7084618210792542,0.30271783471107483,23.99494743347168,-10.601888656616211,20.93893051147461,0.5326747298240662,0.23100566864013672,0.16572117805480957,-0.49987533688545227,8.432829856872559,-3.405221700668335
7_20251106_165533,1762419298583,7,0.28318503499031067,0.4017011821269989,0.7199933528900146,0.4899509847164154,1.3917546272277832,4.156802654266357,1.3979771137237549,0.5942155718803406,8.994221687316895,-3.2490768432617188,-0.5609265565872192,0.6357688903808594,0.40534311532974243,23.519025802612305,-11.048088073730469,21.155364990234375,0.7580596208572388,0.4265165328979492,0.13000249862670898,-0.1638440489768982,8.567705154418945,-3.3790793418884277
7_20251106_165533,1762419298603,7,0.2793552279472351,0.40134137868881226,0.7166029214859009,0.4973590075969696,1.4183681011199951,4.168867111206055,1.4059289693832397,0.9269952774047852,9.311440467834473,-2.8899621963500977,-0.5865828990936279,0.34927335381507874,0.5806612372398376,23.056882858276367,-11.479721069335938,21.25090789794922,0.8726714849472046,0.5949888229370117,0.3912937641143799,0.054323792457580566,8.716451644897461,-3.2812559604644775
7_20251106_165533,1762419298622,7,0.27618494629859924,0.40190204977989197,0.7125959992408752,0.5043843388557434,1.4183681011199951,4.168867111206055,1.4059289693832397,0.9269952774047852,9.311440467834473,-2.8899621963500977,-0.5242746472358704,0.32300615310668945,0.5287377834320068,22.5804386138916,-11.949821472167969,21.345169067382812,0.8726714849472046,0.5949888229370117,0.3912937641143799,0.054323792457580566,8.716451644897461,-3.2812559604644775
7_20251106_165533,1762419298642,7,0.27313053607940674,0.4023098647594452,0.7089487910270691,0.5108209848403931,1.4780645370483398,4.199314117431641,1.4260505437850952,1.165208101272583,9.796245574951172,-2.618231773376465,-0.4864010214805603,0.38042744994163513,0.43099939823150635,22.104082107543945,-12.431400299072266,21.331035614013672,0.7138389348983765,0.7274589538574219,0.43621039390563965,0.45136919617652893,9.06878662109375,-3.0544421672821045
7_20251106_165533,1762419298660,7,0.26996660232543945,0.4018157422542572,0.7059610486030579,0.5169923901557922,1.4780645370483398,4.199314117431641,1.4260505437850952,1.165208101272583,9.796245574951172,-2.618231773376465,-0.4864010214805603,0.38042744994163513,0.43099939823150635,21.61665153503418,-12.889062881469727,21.35749053955078,0.7138389348983765,0.7274589538574219,0.43621039390563965,0.45136919617652893,9.06878662109375,-3.0544421672821045
7_20251106_165533,1762419298680,7,0.26658234000205994,0.4001299738883972,0.7034780383110046,0.5234009623527527,1.5372533798217773,4.234665870666504,1.4465913772583008,0.9808624982833862,9.754348754882812,-2.868415355682373,-0.5438223481178284,0.5374196767807007,0.30149608850479126,21.238290786743164,-13.351999282836914,21.374576568603516,0.3298739194869995,0.4115629196166992,0.11924862861633301,0.6509885787963867,9.342785835266113,-2.987663984298706
7_20251106_165533,1762419298698,7,0.263216495513916,0.39778608083724976,0.7010718584060669,0.5300769209861755,1.5663111209869385,4.252504825592041,1.4565469026565552,1.08620285987854,9.650205612182617,-2.886370897293091,-0.5664243698120117,0.5203154683113098,0.34242403507232666,20.77341651916504,-13.84533977508545,21.360671997070312,0.3481714129447937,0.24593544006347656,0.08103442192077637,0.7380314469337463,9.40427017211914,-2.967405319213867
7_20251106_165533,1762419298717,7,0.2598884701728821,0.3957926332950592,0.6982957720756531,0.5368325114250183,1.595380187034607,4.269768714904785,1.4667984247207642,1.2717454433441162,9.519726753234863,-2.678084373474121,-0.5267181396484375,0.41158154606819153,0.44688189029693604,20.236143112182617,-14.319275856018066,21.43896484375,0.4269711971282959,0.09236526489257812,0.23145675659179688,0.8447742462158203,9.427361488342285,-2.909541130065918
7_20251106_165533,1762419298736,7,0.1852313131093979,0.30331119894981384,0.7397371530532837,0.5713847875595093,1.595380187034607,4.269768714904785,1.4667984247207642,1.2717454433441162,9.519726753234863,-2.678084373474121,-0.46929681301116943,0.32789307832717896,0.5702765583992004,14.638572692871094,-14.825871467590332,22.46221923828125,0.4269711971282959,0.09236526489257812,0.23145675659179688,0.8447742462158203,9.427361488342285,-2.909541130065918
7_20251106_165533,1762419298756,7,0.18092836439609528,0.3045894503593445,0.7361317873001099,0.5767150521278381,1.657119631767273,4.304141998291016,1.4891897439956665,1.769718050956726,9.774698257446289,-2.5332412719726562,-0.4809032380580902,0.24481548368930817,0.5855482220649719,14.188404083251953,-15.268594741821289,22.49040985107422,0.6229915618896484,0.25983524322509766,0.2456202507019043,1.1467264890670776,9.514863014221191,-2.7788615226745605
7_20251106_165533,1762419298775,7,0.17728105187416077,0.3066323697566986,0.7321268320083618,0.581840455532074,1.6876459121704102,4.321469783782959,1.5019781589508057,1.7589446306228638,10.030866622924805,-1.9430961608886719,-0.4809032380580902,0.24481548368930817,0.5855482220649719,13.738224029541016,-15.722930908203125,22.423721313476562,0.4897744655609131,0.41280364990234375,0.6686122417449951,1.2691701650619507,9.618062973022461,-2.611708402633667
7_20251106_165533,1762419298794,7,0.17480909824371338,0.3075433373451233,0.7282212376594543,0.5869861245155334,1.7174510955810547,4.338624000549316,1.516237497329712,1.5626283884048462,9.870462417602539,-1.8425440788269043,-0.5694786906242371,0.3663775622844696,0.18970784544944763,13.288860321044922,-16.15296173095703,22.43865966796875,0.23476660251617432,0.2019195556640625,0.6153314113616943,1.3278617858886719,9.668542861938477,-2.4578754901885986
7_20251106_165533,1762419298813,7,0.1727563887834549,0.3058689534664154,0.724965512752533,0.5924731492996216,1.745927333831787,4.3544793128967285,1.5304967164993286,1.386662244796753,9.507757186889648,-2.1980676651000977,-0.6018545031547546,0.48732876777648926,0.06692405045032501,12.852783203125,-16.569103240966797,22.400283813476562,0.047040343284606934,-0.12862873077392578,0.20784616470336914,1.339621901512146,9.636385917663574,-2.405913829803467
7_20251106_165533,1762419298832,7,0.1705390363931656,0.30239298939704895,0.7221430540084839,0.5983179211616516,1.7731646299362183,4.368899822235107,1.5449284315109253,1.4070119857788086,9.402416229248047,-2.083150863647461,-0.6751582622528076,0.46106159687042236,0.10235420614480972,12.852783203125,-16.569103240966797,22.400283813476562,0.05391204357147217,-0.18717575073242188,0.2582104206085205,1.3530999422073364,9.589591979980469,-2.3413612842559814
7_20251106_165533,1762419298851,7,0.1685435175895691,0.2992411255836487,0.7187824249267578,0.6044829487800598,1.7731646299362183,4.368899822235107,1.5449284315109253,1.4070119857788086,9.402416229248047,-2.083150863647461,-0.6751582622528076,0.46106159687042236,0.10235420614480972,12.38357162475586,-16.92497444152832,22.375274658203125,0.05391204357147217,-0.18717575073242188,0.2582104206085205,1.3530999422073364,9.589591979980469,-2.3413612842559814
7_20251106_165533,1762419298871,7,0.16703060269355774,0.29693201184272766,0.7147477269172668,0.6107928156852722,1.825123906135559,4.397745132446289,1.5779722929000854,1.588963508605957,9.974605560302734,-1.2871131896972656,-0.6598866581916809,0.27535873651504517,0.1658841073513031,12.06270980834961,-17.233644485473633,22.35694122314453,0.1639765501022339,0.2726478576660156,0.7291126251220703,1.4249869585037231,9.701957702636719,-2.016225814819336
7_20251106_165533,1762419298889,7,0.16584429144859314,0.2952116131782532,0.7108836770057678,0.6164333820343018,1.825123906135559,4.397745132446289,1.5779722929000854,1.588963508605957,9.974605560302734,-1.2871131896972656,-0.5004509687423706,0.23015473783016205,0.1554994285106659,11.764076232910156,-17.60162353515625,22.149044036865234,0.1639765501022339,0.2726478576660156,0.7291126251220703,1.4249869585037231,9.701957702636719,-2.016225814819336
7_20251106_165533,1762419298909,7,0.16461658477783203,0.2939620614051819,0.7078272700309753,0.6208608746528625,1.8522591590881348,4.413445949554443,1.5993598699569702,1.5231258869171143,9.847718238830566,-1.0608707666397095,-0.368504136800766,0.2832999527454376,0.15611028671264648,11.420238494873047,-17.89838218688965,22.035381317138672,0.07851111888885498,0.1166086196899414,0.7642841339111328,1.4446147680282593,9.731109619140625,-1.8251549005508423
7_20251106_165533,1762419298928,7,0.16277346014976501,0.29269644618034363,0.7055549025535583,0.624520480632782,1.8767648935317993,4.427438259124756,1.6203970909118652,1.4297559261322021,9.660978317260742,-1.2703545093536377,-0.36544981598854065,0.33400171995162964,0.18359920382499695,11.138740539550781,-18.166053771972656,21.924697875976562,-0.011887073516845703,-0.05610466003417969,0.44384026527404785,1.4416429996490479,9.717082977294922,-1.7141947746276855
7_20251106_165533,1762419298946,7,0.16022631525993347,0.2911023497581482,0.7034285068511963,0.6283114552497864,1.9160780906677246,4.450664520263672,1.655920147895813,1.3878592252731323,9.92672348022461,-1.5133554935455322,-0.47418370842933655,0.38531434535980225,0.21414242684841156,10.907112121582031,-18.39422607421875,21.95193099975586,-0.029250383377075195,0.16462230682373047,0.12700486183166504,1.4171096086502075,9.762101173400879,-1.6403603553771973
7_20251106_165533,1762419298966,7,0.15751487016677856,0.28929829597473145,0.7006484270095825,0.6329197287559509,1.9375206232070923,4.464236736297607,1.6754511594772339,1.6607866287231445,10.107478141784668,-1.4499118328094482,-0.6061305403709412,0.39508819580078125,0.26240074634552,10.663383483886719,-18.63467025756836,21.870281219482422,0.19494152069091797,0.27630138397216797,0.1523587703704834,1.4658451080322266,9.8311767578125,-1.6022706031799316
7_20251106_165533,1762419298986,7,0.15474483370780945,0.28748032450675964,0.6969665288925171,0.6384721994400024,1.9375206232070923,4.464236736297607,1.6754511594772339,1.6607866287231445,10.107478141784668,-1.4499118328094482,-0.6488910913467407,0.2906303405761719,0.31615686416625977,10.432548522949219,-18.861764907836914,21.789382934570312,0.19494152069091797,0.27630138397216797,0.1523587703704834,1.4658451080322266,9.8311767578125,-1.6022706031799316
7_20251106_165533,1762419299004,7,0.15242958068847656,0.28663039207458496,0.6926705837249756,0.6440618634223938,1.97993803024292,4.49228572845459,1.7162344455718994,2.249734878540039,10.513278007507324,-0.5245926380157471,-0.541378915309906,0.23565252125263214,0.3405914306640625,10.165958404541016,-19.078548431396484,21.693763732910156,0.543825626373291,0.46987056732177734,0.7469807863235474,1.705909252166748,10.043407440185547,-1.2715734243392944
7_20251106_165533,1762419299023,7,0.14999961853027344,0.28642338514328003,0.6887690424919128,0.6488905549049377,2.002092123031616,4.507378101348877,1.7389501333236694,2.317966938018799,10.543203353881836,-0.301941454410553,-0.3630063533782959,0.19533544778823853,0.3082156181335449,9.834205627441406,-19.374649047851562,21.59410858154297,0.48964619636535645,0.39983654022216797,0.7757056355476379,1.8283207416534424,10.143366813659668,-1.077647089958191
7_20251106_165533,1762419299042,7,0.14746233820915222,0.2864418029785156,0.6859495639801025,0.6524409055709839,2.024193048477173,4.522924423217773,1.7623069286346436,2.2126264572143555,10.583904266357422,-0.43002575635910034,-0.22739440202713013,0.25642192363739014,0.23430097103118896,9.56582260131836,-19.605472564697266,21.64690399169922,0.30744457244873047,0.3524303436279297,0.5180971026420593,1.905181884765625,10.231473922729492,-0.9481228590011597
7_20251106_165533,1762419299061,7,0.14456358551979065,0.28571876883506775,0.6842444539070129,0.6551913022994995,2.045579195022583,4.538702964782715,1.7854114770889282,2.047433614730835,10.599465370178223,-0.6143713593482971,-0.23105958104133606,0.34316468238830566,0.13106483221054077,9.29934310913086,-19.810508728027344,21.632644653320312,0.11380147933959961,0.29439258575439453,0.267001211643219,1.9336321353912354,10.305072784423828,-0.8813725709915161
7_20251106_165533,1762419299081,7,0.14175932109355927,0.28375083208084106,0.6829469203948975,0.658007025718689,2.066951036453247,4.554812431335449,1.808883786201477,1.928925633430481,10.413923263549805,-0.7604113817214966,-0.23105958104133606,0.34316468238830566,0.13106483221054077,9.017349243164062,-20.078855514526367,21.589542388916016,-0.0037652254104614258,0.08708000183105469,0.09676897525787354,1.9326908588409424,10.32684326171875,-0.8571803569793701
7_20251106_165533,1762419299100,7,0.13932813704013824,0.2806750237941742,0.6812711358070374,0.6615729928016663,2.066951036453247,4.554812431335449,1.808883786201477,1.928925633430481,10.413923263549805,-0.7604113817214966,-0.4668533504009247,0.36271238327026367,0.046765509992837906,8.677742004394531,-20.300270080566406,21.477462768554688,-0.0037652254104614258,0.08708000183105469,0.09676897525787354,1.9326908588409424,10.32684326171875,-0.8571803569793701
7_20251106_165533,1762419299118,7,0.13767187297344208,0.2777981162071228,0.6787659525871277,0.6656962633132935,2.087979793548584,4.57029914855957,1.8334481716156006,1.8463292121887207,10.152965545654297,-0.51381915807724,-0.5059487223625183,0.3193409740924835,0.11579322814941406,8.422237396240234,-20.52935791015625,21.436134338378906,-0.06908929347991943,-0.13910198211669922,0.2746889591217041,1.9154185056686401,10.292067527770996,-0.7885081171989441
7_20251106_165533,1762419299138,7,0.13585291802883148,0.27545201778411865,0.6757813096046448,0.6700670123100281,2.1207590103149414,4.592513561248779,1.875587821006775,1.903787612915039,9.848915100097656,-0.301941454410553,-0.4662424623966217,0.3107888698577881,0.18848611414432526,8.141666412353516,-20.760976791381836,21.48843765258789,0.012092113494873047,-0.3092823028564453,0.31465864181518555,1.891695499420166,10.158197402954102,-0.6166000962257385
7_20251106_165533,1762419299156,7,0.13354241847991943,0.2736734449863434,0.6728095412254333,0.6742377877235413,2.1207590103149414,4.592513561248779,1.875587821006775,1.903787612915039,9.848915100097656,-0.301941454410553,-0.4662424623966217,0.3107888698577881,0.18848611414432526,7.861886978149414,-20.99151611328125,21.432613372802734,0.012092113494873047,-0.3092823028564453,0.31465864181518555,1.891695499420166,10.158197402954102,-0.6166000962257385
7_20251106_165533,1762419299177,7,0.13099266588687897,0.2724756598472595,0.6697640419006348,0.6782433390617371,2.152866840362549,4.610483169555664,1.9210723638534546,2.043842315673828,9.951862335205078,0.19483405351638794,-0.50228351354599,0.28085649013519287,0.2544595003128052,7.559850692749023,-21.18597412109375,21.376598358154297,0.10982322692871094,-0.10945510864257812,0.5788830518722534,1.9340190887451172,10.061317443847656,-0.3840489983558655
7_20251106_165533,1762419299195,7,0.12847256660461426,0.271253764629364,0.6663146615028381,0.6825987100601196,2.1686179637908936,4.618109226226807,1.9442919492721558,2.1994588375091553,9.88003921508789,0.0655527114868164,-0.5542070269584656,0.35538196563720703,0.2520160377025604,7.276943206787109,-21.478759765625,21.26538848876953,0.21235179901123047,-0.14502239227294922,0.3596813678741455,1.9871070384979248,10.02506160736084,-0.2941286563873291
7_20251106_165533,1762419299215,7,0.1255245804786682,0.26934295892715454,0.6625940799713135,0.6875078678131104,2.185680627822876,4.6262407302856445,1.9681682586669922,2.4185187816619873,10.191272735595703,-0.07809321582317352,-0.5542070269584656,0.35538196563720703,0.2520160377025604,6.944389343261719,-21.787551879882812,21.178985595703125,0.34512925148010254,0.13296890258789062,0.17282836139202118,2.0733895301818848,10.058303833007812,-0.2509215772151947
7_20251106_165533,1762419299234,7,0.12275882810354233,0.2677120566368103,0.6585820317268372,0.6924812197685242,2.2019641399383545,4.63411808013916,1.9903123378753662,2.3957748413085938,10.254714965820312,-0.03380238264799118,-0.5493201613426208,0.3315582573413849,0.2275814563035965,6.601354598999023,-22.071617126464844,21.05207061767578,0.25790834426879883,0.15712928771972656,0.17369535565376282,2.137866497039795,10.097585678100586,-0.2074977457523346
7_20251106_165533,1762419299253,7,0.12009649723768234,0.2659265697002411,0.6549092531204224,0.6971038579940796,2.2180426120758057,4.641796112060547,2.0113463401794434,2.359863519668579,10.168527603149414,-0.20857159793376923,-0.5126681923866272,0.36454495787620544,0.21597501635551453,6.601354598999023,-22.071617126464844,21.05207061767578,0.1775977611541748,0.05675315856933594,-0.0008590668439865112,2.1822657585144043,10.111774444580078,-0.20771253108978271
7_20251106_165533,1762419299271,7,0.11728622019290924,0.26394325494766235,0.6515083312988281,0.7015089392662048,2.2180426120758057,4.641796112060547,2.0113463401794434,2.359863519668579,10.168527603149414,-0.20857159793376923,-0.5670352578163147,0.33278000354766846,0.2837810218334198,6.332239151000977,-22.338224411010742,20.914844512939453,0.1775977611541748,0.05675315856933594,-0.0008590668439865112,2.1822657585144043,10.111774444580078,-0.20771253108978271
7_20251106_165533,1762419299289,7,0.11437392234802246,0.26255717873573303,0.6475529074668884,0.706156849861145,2.2342379093170166,4.649144172668457,2.0319106578826904,2.517874240875244,10.13141918182373,0.004503190517425537,-0.6323977112770081,0.2839108109474182,0.36869120597839355,5.951520919799805,-22.66099739074707,20.65050506591797,0.26848673820495605,0.015715599060058594,0.16977258026599884,2.249387502670288,10.115703582763672,-0.1652693897485733
7_20251106_165533,1762419299309,7,0.11134561151266098,0.26196882128715515,0.642831563949585,0.7111554741859436,2.2673003673553467,4.663940906524658,2.0722289085388184,3.1379456520080566,10.497715950012207,0.7035800218582153,-0.5951350331306458,0.25031325221061707,0.38823890686035156,5.668277740478516,-22.989028930664062,20.295211791992188,0.6198153495788574,0.2699613571166992,0.6175440549850464,2.518130302429199,10.227754592895508,0.08603593707084656
7_20251106_165533,1762419299328,7,0.10838136076927185,0.26187896728515625,0.6381604671478271,0.7158380746841431,2.287703514099121,4.673409938812256,2.096301555633545,3.2971529960632324,10.691637992858887,0.8460289239883423,-0.5267181396484375,0.1806747019290924,0.33814799785614014,5.331876754760742,-23.384235382080078,20.05828094482422,0.623218297958374,0.3711061477661133,0.6079944372177124,2.6739346981048584,10.320531845092773,0.23803451657295227
7_20251106_165533,1762419299347,7,0.10626475512981415,0.2622910439968109,0.6338189840316772,0.719850480556488,2.287703514099121,4.673409938812256,2.096301555633545,3.2971529960632324,10.691637992858887,0.8460289239883423,-0.522442102432251,0.1556292474269867,0.2593464255332947,5.046630859375,-23.738189697265625,19.783554077148438,0.623218297958374,0.3711061477661133,0.6079944372177124,2.6739346981048584,10.320531845092773,0.23803451657295227
7_20251106_165533,1762419299366,7,0.1044326201081276,0.26206234097480774,0.6297906637191772,0.7237271070480347,2.309779405593872,4.684082984924316,2.122957706451416,3.1882214546203613,10.686849594116211,1.0267833471298218,-0.5206094980239868,0.24725894629955292,0.170160174369812,4.741031646728516,-24.0302734375,19.441585540771484,0.41142940521240234,0.29305362701416016,0.6309990882873535,2.776792049407959,10.39379596710205,0.39578425884246826
7_20251106_165533,1762419299385,7,0.10264725983142853,0.260602205991745,0.6260789632797241,0.7277191281318665,2.328305721282959,4.693601608276367,2.146320343017578,3.0002846717834473,10.729944229125977,1.0686800479888916,-0.541378915309906,0.3248387575149536,0.1408386528491974,4.4355316162109375,-24.322219848632812,19.086101531982422,0.17879414558410645,0.2689189910888672,0.5383166074752808,2.821490526199341,10.46102523803711,0.5303634405136108
7_20251106_165533,1762419299405,7,0.10073846578598022,0.2584187984466553,0.6223586201667786,0.7319434881210327,2.3648691177368164,4.714032173156738,2.1945598125457764,2.8889594078063965,10.707199096679688,0.9848865866661072,-0.5609265565872192,0.305291086435318,0.18848611414432526,4.115531921386719,-24.652904510498047,18.756366729736328,0.04892587661743164,0.15889263153076172,0.3200070858001709,2.840033531188965,10.548306465148926,0.6648795008659363
7_20251106_165533,1762419299424,7,0.0985729843378067,0.25654447078704834,0.6184529066085815,0.7361958026885986,2.3648691177368164,4.714032173156738,2.1945598125457764,2.8889594078063965,10.707199096679688,0.9848865866661072,-0.49434226751327515,0.2387068271636963,0.2642333507537842,3.8142662048339844,-25.082456588745117,18.42550277709961,0.04892587661743164,0.15889263153076172,0.3200070858001709,2.840033531188965,10.548306465148926,0.6648795008659363
7_20251106_165533,1762419299443,7,0.09613187611103058,0.25566020607948303,0.6147235631942749,0.7399401664733887,2.3997459411621094,4.733296871185303,2.243800640106201,3.177448272705078,10.531233787536621,1.3044987916946411,-0.49434226751327515,0.2387068271636963,0.2642333507537842,3.578876495361328,-25.408523559570312,18.193817138671875,0.24371695518493652,-0.023758888244628906,0.41759204864501953,2.9337313175201416,10.55499267578125,0.8869067430496216
7_20251106_165533,1762419299462,7,0.09325677156448364,0.2557789385318756,0.6116554141044617,0.7428041100502014,2.4176034927368164,4.742650985717773,2.2681539058685303,3.4192521572113037,10.733534812927246,1.2147200107574463,-0.3061959445476532,0.1446336805820465,0.3705238103866577,3.2829666137695312,-25.726409912109375,18.00048828125,0.3884165287017822,0.14283370971679688,0.2622506022453308,3.0308356285095215,10.59070110321045,0.9524694085121155
7_20251106_165533,1762419299481,7,0.09017913788557053,0.25641581416130066,0.6088158488273621,0.745293140411377,2.4364023208618164,4.752313613891602,2.292495012283325,3.699361801147461,10.873590469360352,1.391883373260498,-0.33490657806396484,0.13119465112686157,0.3308176100254059,3.1005516052246094,-25.973957061767578,17.77234649658203,0.5348210334777832,0.22631168365478516,0.35153114795684814,3.1645407676696777,10.647278785705566,1.04035222530365
7_20251106_165533,1762419299500,7,0.08754010498523712,0.25694939494132996,0.6058595180511475,0.7478288412094116,2.4561259746551514,4.762179851531982,2.317394733428955,3.8442046642303467,10.897531509399414,1.6875545978546143,-0.3275761902332306,0.10065141320228577,0.20925551652908325,2.8686866760253906,-26.237239837646484,17.541976928710938,0.5437309741973877,0.20020198822021484,0.5177619457244873,3.300473690032959,10.6973295211792,1.169792652130127
7_20251106_165533,1762419299519,7,0.08597588539123535,0.25709113478660583,0.6031647324562073,0.7501364350318909,2.4759578704833984,4.771563529968262,2.3427984714508057,3.699361801147461,10.701215744018555,1.8072595596313477,-0.2506072521209717,0.10370573401451111,0.05898280441761017,2.6389503479003906,-26.451236724853516,17.40727996826172,0.3191103935241699,0.003108978271484375,0.5099735260009766,3.380251407623291,10.69810676574707,1.297286033630371
7_20251106_165533,1762419299539,7,0.08519089221954346,0.25635069608688354,0.6013637185096741,0.7519232034683228,2.495617151260376,4.7803850173950195,2.3690900802612305,3.323488235473633,10.513277053833008,1.5893964767456055,-0.202959805727005,0.13241638243198395,-0.05647062882781029,2.457365036010742,-26.662866592407227,17.355640411376953,-0.0454106330871582,-0.14786434173583984,0.2336883544921875,3.368898868560791,10.661141395568848,1.355708122253418
7_20251106_165533,1762419299558,7,0.08492911607027054,0.25473010540008545,0.600206732749939,0.7534264922142029,2.495617151260376,4.7803850173950195,2.3690900802612305,3.323488235473633,10.513277053833008,1.5893964767456055,-0.2139553725719452,0.1354707032442093,-0.09739856421947479,2.3020687103271484,-26.83550453186035,17.332809448242188,-0.0454106330871582,-0.14786434173583984,0.2336883544921875,3.368898868560791,10.661141395568848,1.355708122253418
7_20251106_165533,1762419299577,7,0.08486687391996384,0.2526950240135193,0.5991764068603516,0.7549374103546143,2.514051914215088,4.788303852081299,2.3958024978637695,3.0182406902313232,10.398361206054688,1.5008149147033691,-0.2139553725719452,0.1354707032442093,-0.09739856421947479,2.1025543212890625,-26.93557357788086,17.26905059814453,-0.28052663803100586,-0.21022415161132812,0.11608552932739258,3.298767328262329,10.608585357666016,1.3847293853759766
7_20251106_165533,1762419299597,7,0.08459367603063583,0.250950425863266,0.5983437299728394,0.7562093734741211,2.539994955062866,4.798111915588379,2.4392037391662598,2.7632689476013184,10.161344528198242,1.4397653341293335,-0.12293652445077896,0.11347956955432892,0.011335357092320919,1.9625587463378906,-27.056785583496094,17.20721435546875,-0.3526785373687744,-0.29561901092529297,0.016261816024780273,3.1159474849700928,10.456963539123535,1.4235035181045532
7_20251106_165533,1762419299616,7,0.08367153257131577,0.24967527389526367,0.5977295637130737,0.7572190761566162,2.539994955062866,4.798111915588379,2.4392037391662598,2.7632689476013184,10.161344528198242,1.4397653341293335,-0.12293652445077896,0.11347956955432892,0.011335357092320919,1.8237762451171875,-27.153152465820312,17.17293930053711,-0.3526785373687744,-0.29561901092529297,0.016261816024780273,3.1159474849700928,10.456963539123535,1.4235035181045532
7_20251106_165533,1762419299636,7,0.08252353221178055,0.2492428719997406,0.5969969630241394,0.7580649256706238,2.5622451305389404,4.8040547370910645,2.4834461212158203,2.897338628768921,10.111068725585938,1.800077199935913,-0.07712166756391525,0.042008399963378906,0.11701495200395584,1.6952762603759766,-27.274513244628906,17.206207275390625,-0.13263154029846191,-0.22328853607177734,0.2781635522842407,3.029970169067383,10.334357261657715,1.5219136476516724
7_20251106_165533,1762419299655,7,0.08115245401859283,0.2491472065448761,0.5963966250419617,0.7587167024612427,2.572080135345459,4.805598735809326,2.5057642459869385,2.8757917881011963,10.047626495361328,1.8048653602600098,-0.04474584013223648,0.08537979423999786,0.098078154027462,1.570089340209961,-27.344972610473633,17.172950744628906,-0.12334275245666504,-0.2293844223022461,0.22636127471923828,2.9991345405578613,10.277010917663574,1.5785040855407715
7_20251106_165533,1762419299673,7,0.07959580421447754,0.2486466020345688,0.5960671901702881,0.7593044638633728,2.580235481262207,4.806041240692139,2.5252208709716797,2.896141529083252,9.920738220214844,1.7306482791900635,-0.04474584013223648,0.08537979423999786,0.098078154027462,1.4196281433105469,-27.429845809936523,17.165481567382812,-0.08239459991455078,-0.2850189208984375,0.12171530723571777,2.9785361289978027,10.205757141113281,1.6089329719543457
7_20251106_165533,1762419299693,7,0.07790545374155045,0.2477547526359558,0.59581059217453,0.7599723935127258,2.5882201194763184,4.805437088012695,2.5452330112457275,2.908112049102783,9.823777198791504,1.7916978597640991,-0.029474223032593727,0.12386426329612732,0.09441296011209488,1.4196281433105469,-27.429845809936523,17.165481567382812,-0.056339263916015625,-0.3055839538574219,0.14621186256408691,2.964451313018799,10.129361152648926,1.6454859972000122
7_20251106_165533,1762419299710,7,0.07604684680700302,0.24692349135875702,0.5956574082374573,0.7605510950088501,2.5953500270843506,4.803799152374268,2.563082218170166,2.941629409790039,9.684919357299805,1.579820156097412,-0.029474223032593727,0.12386426329612732,0.09441296011209488,1.3811531066894531,-27.46963119506836,17.136184692382812,-0.018257617950439453,-0.35555362701416016,-0.05253267288208008,2.9598870277404785,10.040472984313965,1.6323528289794922
7_20251106_165533,1762419299730,7,0.0740569606423378,0.24615183472633362,0.5958097577095032,0.7608781456947327,2.6030426025390625,4.800861835479736,2.5813632011413574,3.0146496295928955,9.643022537231445,1.4481446743011475,0.012064581736922264,0.09332104027271271,0.0986890122294426,1.267446517944336,-27.551851272583008,17.103153228759766,0.043810129165649414,-0.3179597854614258,-0.14736652374267578,2.970839500427246,9.960982322692871,1.5955111980438232
7_20251106_165533,1762419299749,7,0.072298064827919,0.2456749826669693,0.5959149599075317,0.76111900806427,2.610177516937256,4.7975029945373535,2.598278522491455,3.040984630584717,9.702875137329102,1.7474069595336914,-0.02825249172747135,0.028569379821419716,0.08708258718252182,1.1278610229492188,-27.660911560058594,17.082130432128906,0.05611610412597656,-0.20648574829101562,0.12151658535003662,2.9848685264587402,9.909360885620117,1.6258903741836548
7_20251106_165533,1762419299768,7,0.07106700539588928,0.2455909550189972,0.5957292914390564,0.7614073157310486,2.610177516937256,4.7975029945373535,2.598278522491455,3.040984630584717,9.702875137329102,1.7474069595336914,-0.004428768530488014,0.02673678658902645,0.03821340575814247,1.0307807922363281,-27.655113220214844,17.1190185546875,0.05611610412597656,-0.20648574829101562,0.12151658535003662,2.9848685264587402,9.909360885620117,1.6258903741836548
7_20251106_165533,1762419299787,7,0.07064739614725113,0.2456270456314087,0.595619797706604,0.7615203857421875,2.622807025909424,4.78915548324585,2.630458116531372,2.799180746078491,9.566411972045898,1.604958176612854,-0.0007635802030563354,0.07682769000530243,-0.006379719823598862,0.9661293029785156,-27.722139358520508,17.14228057861328,-0.14393019676208496,-0.23480892181396484,-0.04327499866485596,2.943110942840576,9.801220893859863,1.64823317527771
7_20251106_165533,1762419299807,7,0.06979788839817047,0.24466301500797272,0.5958228707313538,0.7617502212524414,2.622807025909424,4.78915548324585,2.630458116531372,2.799180746078491,9.566411972045898,1.604958176612854,-0.06612610816955566,0.11714476346969604,-0.003325396217405796,0.8202915191650391,-27.731130599975586,17.08232879638672,-0.14393019676208496,-0.23480892181396484,-0.04327499866485596,2.943110942840576,9.801220893859863,1.64823317527771
7_20251106_165533,1762419299827,7,0.06889872997999191,0.2433978021144867,0.5955976247787476,0.7624132633209229,2.6282951831817627,4.783439636230469,2.646451711654663,2.7345399856567383,9.496983528137207,1.5391204357147217,-0.06612610816955566,0.11714476346969604,-0.003325396217405796,0.74658203125,-27.736705780029297,17.160484313964844,-0.1668567657470703,-0.24339008331298828,-0.08729028701782227,2.9013967514038086,9.740373611450195,1.626410722732544
7_20251106_165533,1762419299846,7,0.0678120106458664,0.24254724383354187,0.5949905514717102,0.7632552981376648,2.6367738246917725,4.772401809692383,2.673044204711914,2.8362889289855957,9.53648567199707,1.7976832389831543,-0.07040215283632278,0.015741219744086266,0.09074777364730835,0.6952285766601562,-27.778226852416992,17.225311279296875,-0.04090309143066406,-0.12378406524658203,0.13508760929107666,2.8771920204162598,9.660269737243652,1.6625956296920776
7_20251106_165533,1762419299865,7,0.06671051681041718,0.2424827218055725,0.5944744944572449,0.7637748122215271,2.640613317489624,4.766435146331787,2.6874752044677734,2.770451545715332,9.57957935333252,1.9664671421051025,-0.03252854570746422,-0.00441731559112668,0.10724111646413803,0.6056842803955078,-27.870742797851562,17.125415802001953,-0.08539247512817383,-0.06455230712890625,0.243097186088562,2.855844020843506,9.644131660461426,1.7233699560165405
7_20251106_165533,1762419299883,7,0.06550183147192001,0.2426529973745346,0.5941660404205322,0.7640652656555176,2.6438214778900146,4.761145114898682,2.700512409210205,2.8255157470703125,9.567608833312988,2.007166862487793,-0.01847865805029869,0.04078667238354683,0.12068014591932297,0.5428237915039062,-27.923730850219727,17.000259399414062,-0.024262666702270508,-0.06121826171875,0.22703754901885986,2.849778413772583,9.628827095031738,1.780129313468933
7_20251106_165533,1762419299901,7,0.06406476348638535,0.2426602691411972,0.5938912034034729,0.7643983960151672,2.6471219062805176,4.755780220031738,2.713109016418457,2.9524030685424805,9.490997314453125,1.8659149408340454,0.02733619697391987,0.08171461522579193,0.13656261563301086,0.5297355651855469,-27.93735122680664,17.026538848876953,0.08209967613220215,-0.11026382446289062,0.06862843036651611,2.8703033924102783,9.601261138916016,1.7972865104675293
7_20251106_165533,1762419299921,7,0.06217363104224205,0.24249424040317535,0.5939270257949829,0.7645794153213501,2.6511754989624023,4.749607563018799,2.725682497024536,3.0577430725097656,9.433539390563965,1.5594704151153564,0.08597920835018158,0.07743856310844421,0.15916460752487183,0.4294281005859375,-27.993934631347656,17.021560668945312,0.14995169639587402,-0.13417720794677734,-0.1902529001235962,2.9077913761138916,9.567716598510742,1.7497233152389526
7_20251106_165533,1762419299942,7,0.059930432587862015,0.242508664727211,0.5943654179573059,0.7644132375717163,2.6555705070495605,4.743931293487549,2.7362453937530518,3.176251173019409,9.529302597045898,1.4637062549591064,0.07620538026094437,0.05605829134583473,0.16344065964221954,0.2714042663574219,-28.003719329833984,16.96112060546875,0.2147676944732666,-0.030731201171875,-0.22881364822387695,2.9614834785461426,9.560033798217773,1.6925199031829834
7_20251106_165533,1762419299958,7,0.057798996567726135,0.24274657666683197,0.5947476625442505,0.7642045617103577,2.660311222076416,4.738970756530762,2.745238780975342,3.2803945541381836,9.620279312133789,1.4840562343597412,0.021838413551449776,0.04811704903841019,0.11334977298974991,0.20957183837890625,-28.020517349243164,16.985435485839844,0.2551288604736328,0.04819679260253906,-0.16677093505859375,3.025265693664551,9.57208251953125,1.650827169418335
7_20251106_165533,1762419299979,7,0.056331321597099304,0.24312995374202728,0.595067024230957,0.763943612575531,2.665923595428467,4.733990669250488,2.754683256149292,3.225330114364624,9.656190872192383,1.6348843574523926,-0.020311251282691956,0.05605829134583473,0.03882427141070366,0.12487602233886719,-28.013656616210938,16.99578094482422,0.16005158424377441,0.06728649139404297,-0.012754321098327637,3.0652785301208496,9.58890438079834,1.6476386785507202
7_20251106_165533,1762419299998,7,0.05549096688628197,0.24315586686134338,0.595191240310669,0.763900101184845,2.671323299407959,4.729223728179932,2.7639079093933105,3.0876693725585938,9.57718563079834,1.730648398399353,-0.03802632540464401,0.08293633908033371,-0.009434043429791927,0.039165496826171875,-28.031368255615234,16.951534271240234,0.017912626266479492,-0.009374618530273438,0.06640779972076416,3.0697567462921143,9.586560249328613,1.6642405986785889
7_20251106_165533,1762419300017,7,0.05476078763604164,0.24239380657672882,0.5952401757240295,0.7641568183898926,2.675910472869873,4.7248215675354,2.7717461585998535,3.0577430725097656,9.453888893127441,1.6444607973098755,-0.024587303400039673,0.07743855565786362,0.00767016876488924,-0.05850791931152344,-28.026378631591797,17.069522857666016,-0.009611129760742188,-0.10613727569580078,-0.015823841094970703,3.067354202270508,9.560026168823242,1.6602846384048462
7_20251106_165533,1762419300036,7,0.053897563368082047,0.24149350821971893,0.5953063368797302,0.7644516229629517,2.6810216903686523,4.720004558563232,2.7800955772399902,3.1559011936187744,9.504164695739746,1.6851603984832764,-0.002596174366772175,0.03834321349859238,0.0626479908823967,-0.14389610290527344,-28.02046012878418,17.174484252929688,0.07083749771118164,-0.044689178466796875,0.01990056037902832,3.0850636959075928,9.548853874206543,1.665259838104248
7_20251106_165533,1762419300055,7,0.05284092575311661,0.24126556515693665,0.5954471230506897,0.7644877433776855,2.6810216903686523,4.720004558563232,2.7800955772399902,3.1559011936187744,9.504164695739746,1.6851603984832764,0.012064579874277115,0.01757381483912468,0.06875663995742798,-0.20684242248535156,-28.061967849731445,17.15772247314453,0.07083749771118164,-0.044689178466796875,0.01990056037902832,3.0850636959075928,9.548853874206543,1.665259838104248
7_20251106_165533,1762419300075,7,0.05183923989534378,0.2413591742515564,0.5955751538276672,0.7644270062446594,2.6866824626922607,4.715351104736328,2.7885148525238037,3.2528624534606934,9.59394359588623,1.692342758178711,0.01389717310667038,-0.00624990975484252,0.023552652448415756,-0.20684242248535156,-28.061967849731445,17.15772247314453,0.13423895835876465,0.03607177734375,0.021666288375854492,3.1186234951019287,9.55787181854248,1.6706764698028564
7_20251106_165533,1762419300094,7,0.051358725875616074,0.2415371835231781,0.5957509875297546,0.7642661929130554,2.696510076522827,4.707714557647705,2.802320957183838,3.116398572921753,9.492195129394531,1.6636135578155518,0.005955931730568409,-0.008082503452897072,-0.025927390903234482,-0.1869964599609375,-28.136125564575195,17.197669982910156,-0.021725893020629883,-0.05678081512451172,-0.008159279823303223,3.138124465942383,9.548975944519043,1.671772837638855
7_20251106_165533,1762419300112,7,0.05123044550418854,0.24140384793281555,0.5959964990615845,0.7641255259513855,2.7004919052124023,4.703968524932861,2.808598279953003,2.972752809524536,9.458677291870117,1.7031161785125732,-0.01603519916534424,0.026125920936465263,-0.07357483357191086,-0.1869964599609375,-28.136125564575195,17.197669982910156,-0.13229751586914062,-0.07223892211914062,0.02507460117340088,3.1050503253936768,9.530916213989258,1.6780415773391724
7_20251106_165533,1762419300131,7,0.05142349749803543,0.24067111313343048,0.5962374210357666,0.7641557455062866,2.7036619186401367,4.699728012084961,2.8145711421966553,2.805166006088257,9.354534149169922,1.5606673955917358,-0.039858922362327576,0.05911261588335037,-0.08762472122907639,-0.21489334106445312,-28.20050048828125,17.195369720458984,-0.23990750312805176,-0.14110565185546875,-0.09389936923980713,3.0450735092163086,9.49563980102539,1.654566764831543
7_20251106_165533,1762419300151,7,0.05145950987935066,0.2392665296792984,0.5964274406433105,0.7644460797309875,2.7056901454925537,4.694997310638428,2.8200600147247314,2.6866579055786133,9.239617347717285,1.5870025157928467,-0.05146534740924835,0.0475061871111393,-0.04669678956270218,-0.19193077087402344,-28.22402572631836,17.195823669433594,-0.28673243522644043,-0.2048177719116211,-0.05405139923095703,2.9733903408050537,9.444435119628906,1.6410539150238037
7_20251106_165533,1762419300169,7,0.05132457986474037,0.23803840577602386,0.5966554284095764,0.7646605968475342,2.706850051879883,4.689730644226074,2.8251588344573975,2.693840503692627,9.163005828857422,1.5989729166030884,-0.05207622051239014,0.029791109263896942,0.02966129779815674,-0.17903900146484375,-28.210674285888672,17.196578979492188,-0.22363996505737305,-0.2251434326171875,-0.033664822578430176,2.91748046875,9.38814926147461,1.6326377391815186
7_20251106_165533,1762419300188,7,0.05071393400430679,0.23718295991420746,0.5967085957527161,0.7649255990982056,2.7076470851898193,4.684454441070557,2.8304555416107178,2.806363105773926,9.2886962890625,1.7976831197738647,-0.05085448920726776,0.02062813751399517,0.11273889988660812,-0.1813640594482422,-28.260229110717773,17.127941131591797,-0.08889389038085938,-0.07956218719482422,0.13203632831573486,2.895256996154785,9.368258476257324,1.6656467914581299
7_20251106_165533,1762419300207,7,0.04992667958140373,0.23719482123851776,0.5964230895042419,0.7651963233947754,2.7088468074798584,4.679916858673096,2.8362340927124023,3.056546211242676,9.541274070739746,1.9377379417419434,-0.046578437089920044,0.007799978833645582,0.15122336149215698,-0.1684722900390625,-28.246877670288086,17.12869644165039,0.12903118133544922,0.1384124755859375,0.21767282485961914,2.9275150299072266,9.402861595153809,1.7200651168823242
7_20251106_165533,1762419300226,7,0.048524677753448486,0.23722536861896515,0.5959699153900146,0.7656300067901611,2.7107181549072266,4.676314353942871,2.8424456119537354,3.194206714630127,9.660978317260742,1.9832258224487305,-0.02519816905260086,-0.009915097616612911,0.13778434693813324,-0.15366363525390625,-28.196125030517578,17.157276153564453,0.21335315704345703,0.20649337768554688,0.21052861213684082,2.98085355758667,9.454484939575195,1.7726972103118896
7_20251106_165533,1762419300246,7,0.04722242057323456,0.23752111196517944,0.5955110788345337,0.7659767270088196,2.7133071422576904,4.673343181610107,2.8488714694976807,3.2169508934020996,9.662176132202148,1.8431711196899414,0.005345067009329796,0.0047456552274525166,0.0834173932671547,-0.1647491455078125,-28.183822631835938,17.102985382080078,0.18887782096862793,0.1661529541015625,0.056379079818725586,3.0280730724334717,9.496023178100586,1.7867920398712158
7_20251106_165533,1762419300266,7,0.04618731886148453,0.23758555948734283,0.5953192114830017,0.7661689519882202,2.7162973880767822,4.670971393585205,2.8550126552581787,3.2025861740112305,9.644219398498535,1.7988801002502441,0.005345067009329796,0.0047456552274525166,0.0834173932671547,-0.23776626586914062,-28.188453674316406,17.086524963378906,0.13961052894592285,0.11855697631835938,0.009670376777648926,3.0629756450653076,9.525662422180176,1.7892097234725952
7_20251106_165533,1762419300285,7,0.04560288041830063,0.2373490035533905,0.5952744483947754,0.7663120627403259,2.7188854217529297,4.669173240661621,2.86026668548584,3.0756990909576416,9.619081497192383,1.7905007600784302,-0.012370009906589985,0.021849868819117546,0.024163514375686646,-0.2635478973388672,-28.21515655517578,17.08501434326172,0.010178804397583008,0.07473564147949219,0.0010329484939575195,3.0655202865600586,9.54434585571289,1.7894678115844727
7_20251106_165533,1762419300303,7,0.04539837688207626,0.23662248253822327,0.5951966047286987,0.7666093111038208,2.7212491035461426,4.667292594909668,2.86572527885437,2.9811320304870605,9.516135215759277,1.8587325811386108,-0.060628317296504974,0.0627778023481369,-0.07357483357191086,-0.30384063720703125,-28.292207717895508,17.01437759399414,-0.06751060485839844,-0.022568702697753906,0.0554119348526001,3.048642635345459,9.538703918457031,1.8033206462860107
7_20251106_165533,1762419300323,7,0.04540396109223366,0.2353430688381195,0.5951848030090332,0.767011821269989,2.7233238220214844,4.665248870849609,2.8715014457702637,2.9535999298095703,9.48501205444336,1.9078116416931152,-0.060628317296504974,0.0627778023481369,-0.07357483357191086,-0.29175376892089844,-28.291547775268555,17.028385162353516,-0.0760340690612793,-0.0429534912109375,0.08359289169311523,3.0296339988708496,9.527965545654297,1.82421875
7_20251106_165533,1762419300342,7,0.04543907567858696,0.2339671105146408,0.5950499773025513,0.7675351500511169,2.724944829940796,4.663237571716309,2.8770389556884766,2.9380383491516113,9.467056274414062,1.94252610206604,-0.0386371910572052,0.00535651994869113,-0.05219457298517227,-0.3278045654296875,-28.28164291381836,17.054210662841797,-0.07327651977539062,-0.04872703552246094,0.09464585781097412,3.011314868927002,9.515783309936523,1.847880244255066
7_20251106_165533,1762419300361,7,0.04552789404988289,0.23306304216384888,0.5950238704681396,0.7678251266479492,2.7262508869171143,4.661245346069336,2.8824312686920166,2.92606782913208,9.486209869384766,1.895841121673584,0.0102319847792387,-0.02457584999501705,-0.025927390903234482,-0.3398914337158203,-28.282302856445312,17.040203094482422,-0.06819772720336914,-0.02365875244140625,0.03836870193481445,2.994265556335449,9.509868621826172,1.8574724197387695
7_20251106_165533,1762419300380,7,0.04542504996061325,0.23248036205768585,0.5952566266059875,0.7678274512290955,2.727262020111084,4.6594061851501465,2.887439250946045,2.910506248474121,9.529303550720215,1.8156388998031616,0.0102319847792387,-0.02457584999501705,-0.025927390903234482,-0.3417091369628906,-28.319570541381836,16.998863220214844,-0.06700754165649414,0.015547752380371094,-0.03346693515777588,2.9775137901306152,9.513755798339844,1.8491058349609375
7_20251106_165533,1762419300399,7,0.045314110815525055,0.23196162283420563,0.5956199765205383,0.7677091360092163,2.72770357131958,4.65777063369751,2.8918652534484863,2.78840708732605,9.554441452026367,1.7282543182373047,0.02306014485657215,-0.023354122415184975,-0.022262200713157654,-0.30626487731933594,-28.341896057128906,16.959259033203125,-0.15128540992736816,0.03254890441894531,-0.09668111801147461,2.939692497253418,9.521892547607422,1.8249354362487793
7_20251106_165533,1762419300417,7,0.04531973600387573,0.23105566203594208,0.595949113368988,0.7677266001701355,2.72770357131958,4.65777063369751,2.8918652534484863,2.78840708732605,9.554441452026367,1.7282543182373047,-0.03313940763473511,0.06888645142316818,-0.054027169942855835,-0.25963592529296875,-28.37639045715332,16.960430145263672,-0.15128540992736816,0.03254890441894531,-0.09668111801147461,2.939692497253418,9.521892547607422,1.8249354362487793
7_20251106_165533,1762419300437,7,0.04521593078970909,0.2296416014432907,0.5962596535682678,0.7679157853126526,2.7272183895111084,4.654066562652588,2.8990187644958496,2.8530478477478027,9.428750991821289,1.7282543182373047,-0.04780016839504242,0.05361483246088028,0.011335357092320919,-0.24866104125976562,-28.400440216064453,16.933361053466797,-0.03380990028381348,-0.06056785583496094,-0.051342010498046875,2.886857748031616,9.48931884765625,1.7795963287353516
7_20251106_165533,1762419300456,7,0.0447559729218483,0.22868575155735016,0.5963829159736633,0.7681322693824768,2.727534294128418,4.652580738067627,2.902575969696045,3.104428291320801,9.609504699707031,1.9006292819976807,-0.01847865805029869,-0.002584721427410841,0.07486528903245926,-0.23647499084472656,-28.399646759033203,16.933853149414062,0.1740565299987793,0.09614849090576172,0.09682631492614746,2.9303717613220215,9.51335620880127,1.8038029670715332
7_20251106_165533,1762419300475,7,0.044003233313560486,0.22867389023303986,0.5964150428771973,0.7681543231010437,2.728646993637085,4.651705741882324,2.9063260555267334,3.226527214050293,9.708860397338867,1.9389349222183228,0.02611446939408779,-0.027630172669887543,0.05837193503975868,-0.2644824981689453,-28.47576904296875,16.850189208984375,0.236924409866333,0.1564035415649414,0.10810554027557373,2.98960280418396,9.552456855773926,1.830829381942749
7_20251106_165533,1762419300495,7,0.04338892921805382,0.22903789579868317,0.5965147614479065,0.7680033445358276,2.7302470207214355,4.651364326477051,2.910339117050171,3.149916172027588,9.72801399230957,1.9173879623413086,0.012064581736922264,-0.001973856706172228,-0.014320963062345982,-0.2753582000732422,-28.451583862304688,16.86374282836914,0.1282505989074707,0.14044570922851562,0.06924688816070557,3.021665573120117,9.587568283081055,1.848141074180603
7_20251106_165533,1762419300517,7,0.04322490096092224,0.2289869785308838,0.5965860486030579,0.7679724097251892,2.7302470207214355,4.651364326477051,2.910339117050171,3.149916172027588,9.72801399230957,1.9173879623413086,-0.04046978801488876,0.03834321349859238,-0.0766291543841362,-0.35149192810058594,-28.506847381591797,16.886775970458984,0.1282505989074707,0.14044570922851562,0.06924688816070557,3.021665573120117,9.587568283081055,1.848141074180603
7_20251106_165533,1762419300533,7,0.04329480603337288,0.22806106507778168,0.5965445041656494,0.7682762145996094,2.732846736907959,4.6514668464660645,2.9178712368011475,2.8901562690734863,9.5975341796875,1.9066145420074463,-0.045967571437358856,0.04933878034353256,-0.0967876985669136,-0.35149192810058594,-28.506847381591797,16.886775970458984,-0.1050424575805664,-0.009902000427246094,0.03818917274475098,2.9951987266540527,9.607436180114746,1.8684253692626953
7_20251106_165533,1762419300552,7,0.043407704681158066,0.22671061754226685,0.5966159105300903,0.7686140537261963,2.732846736907959,4.6514668464660645,2.9178712368011475,2.8901562690734863,9.5975341796875,1.9066145420074463,-0.01908952184021473,0.042008399963378906,-0.06990964710712433,-0.35037803649902344,-28.48213768005371,16.927852630615234,-0.1050424575805664,-0.009902000427246094,0.03818917274475098,2.9951987266540527,9.607436180114746,1.8684253692626953
7_20251106_165533,1762419300571,7,0.04342330992221832,0.2255018949508667,0.5968170762062073,0.7688125371932983,2.733595848083496,4.651191711425781,2.925464630126953,2.812347888946533,9.508953094482422,1.9497084617614746,-0.01908952184021473,0.042008399963378906,-0.06990964710712433,-0.36154937744140625,-28.458356857299805,16.981956481933594,-0.12104654312133789,-0.07586097717285156,0.04933977127075195,2.933394432067871,9.584814071655273,1.9003686904907227
7_20251106_165533,1762419300590,7,0.04310174286365509,0.22465522587299347,0.5971288084983826,0.7688364386558533,2.7333967685699463,4.6508002281188965,2.928962230682373,2.796786308288574,9.52331829071045,1.9389349222183228,0.04749473184347153,0.009632573463022709,0.03210475668311119,-0.4084758758544922,-28.424266815185547,17.02133560180664,-0.10928654670715332,-0.04919719696044922,0.030852913856506348,2.9060728549957275,9.572515487670898,1.9080820083618164
7_20251106_165533,1762419300613,7,0.042328957468271255,0.22411856055259705,0.5975549817085266,0.768704891204834,2.733022451400757,4.650188446044922,2.9331135749816895,2.878185749053955,9.546061515808105,1.8443679809570312,0.04749473184347153,0.009632573463022709,0.03210475668311119,-0.41713714599609375,-28.362276077270508,17.02216339111328,-0.02230978012084961,-0.021162986755371094,-0.050971269607543945,2.9004955291748047,9.567224502563477,1.8953392505645752
7_20251106_165533,1762419300629,7,0.041310325264930725,0.22359873354434967,0.5978407859802246,0.7686893939971924,2.7329561710357666,4.649724960327148,2.93570876121521,2.988314390182495,9.528106689453125,1.877885341644287,0.019394954666495323,0.02368246205151081,0.07181096822023392,-0.4179401397705078,-28.374967575073242,17.035415649414062,0.07025504112243652,-0.03129386901855469,-0.01396322250366211,2.9180593490600586,9.55940055847168,1.8918485641479492
7_20251106_165533,1762419300648,7,0.040608879178762436,0.22360748052597046,0.597969651222229,0.7686240077018738,2.733340263366699,4.649224281311035,2.938946485519409,3.085275411605835,9.567608833312988,2.004772663116455,0.04321867972612381,0.005967384669929743,0.06814577430486679,-0.36647605895996094,-28.321697235107422,17.05194854736328,0.133772611618042,0.0065670013427734375,0.0903393030166626,2.951502799987793,9.561041831970215,1.9144333600997925
7_20251106_165533,1762419300666,7,0.039732810109853745,0.22372452914714813,0.5982255935668945,0.7684365510940552,2.733340263366699,4.649224281311035,2.938946485519409,3.085275411605835,9.567608833312988,2.004772663116455,0.07192932069301605,0.0010804670164361596,0.04126772657036781,-0.3442192077636719,-28.35778045654297,17.052139282226562,0.133772611618042,0.0065670013427734375,0.0903393030166626,2.951502799987793,9.561041831970215,1.9144333600997925
7_20251106_165533,1762419300686,7,0.039064593613147736,0.22385646402835846,0.5985325574874878,0.7681933641433716,2.7352118492126465,4.648324489593506,2.944793939590454,3.034999370574951,9.513741493225098,1.768953800201416,0.08292488008737564,0.010243438184261322,-0.006379719823598862,-0.3331336975097656,-28.37008285522461,17.106430053710938,0.03715801239013672,-0.04233837127685547,-0.12260234355926514,2.9978413581848145,9.556079864501953,1.8915561437606812
7_20251106_165533,1762419300706,7,0.038585685193538666,0.22369594871997833,0.5990722179412842,0.7678435444831848,2.7361040115356445,4.647465229034424,2.9465785026550293,2.9703586101531982,9.44191837310791,1.613337516784668,0.03955349326133728,0.03712148219347,-0.034479495137929916,-0.3594093322753906,-28.397459030151367,17.172500610351562,-0.02198624610900879,-0.09132957458496094,-0.22257494926452637,2.992344856262207,9.533247947692871,1.8359124660491943
7_20251106_165533,1762419300724,7,0.038210827857255936,0.22306789457798004,0.5996143817901611,0.7676218152046204,2.7361040115356445,4.647465229034424,2.9465785026550293,2.9703586101531982,9.44191837310791,1.613337516784668,-0.027030764147639275,0.038954079151153564,-0.018597014248371124,-0.3963756561279297,-28.41199493408203,17.13021469116211,-0.02198624610900879,-0.09132957458496094,-0.22257494926452637,2.992344856262207,9.533247947692871,1.8359124660491943
7_20251106_165533,1762419300743,7,0.03799181431531906,0.22259828448295593,0.599786639213562,0.7676344513893127,2.7382652759552,4.645728588104248,2.9491472244262695,3.14871883392334,9.52331829071045,1.9185850620269775,-0.017867792397737503,-0.007471640128642321,-0.019207879900932312,-0.3854026794433594,-28.436044692993164,17.103145599365234,0.11674213409423828,0.00015735626220703125,0.08968377113342285,3.0319766998291016,9.523160934448242,1.8289012908935547
7_20251106_165533,1762419300762,7,0.03807131201028824,0.22259840369224548,0.5998715162277222,0.7675641179084778,2.73958420753479,4.6448974609375,2.9507946968078613,3.099639892578125,9.502967834472656,1.9724524021148682,0.03588830679655075,-0.03373882547020912,-0.04669679328799248,-0.3630332946777344,-28.460378646850586,17.184696197509766,0.05413055419921875,-0.01615428924560547,0.11484086513519287,3.0455093383789062,9.519122123718262,1.8576115369796753
7_20251106_165533,1762419300781,7,0.03830461949110031,0.22266611456871033,0.6000885963439941,0.7673631906509399,2.73958420753479,4.6448974609375,2.9507946968078613,3.099639892578125,9.502967834472656,1.9724524021148682,0.043829545378685,-0.02824103645980358,-0.08579213172197342,-0.383880615234375,-28.399181365966797,17.185035705566406,0.05413055419921875,-0.01615428924560547,0.11484086513519287,3.0455093383789062,9.519122123718262,1.8576115369796753
7_20251106_165533,1762419300799,7,0.03869491070508957,0.22231709957122803,0.6004169583320618,0.7671878933906555,2.740795135498047,4.643917083740234,2.95285701751709,2.958387851715088,9.514938354492188,1.8982352018356323,0.02672533504664898,-0.005639045033603907,-0.10595066845417023,-0.4675617218017578,-28.36774444580078,17.249977111816406,-0.06969738006591797,-0.0033473968505859375,0.032498955726623535,3.028085231781006,9.518285751342773,1.8657362461090088
7_20251106_165533,1762419300819,7,0.039147909730672836,0.22147411108016968,0.6008369326591492,0.7670799493789673,2.74053955078125,4.6417622566223145,2.9563348293304443,2.6675052642822266,9.40121841430664,1.9161909818649292,0.009010253474116325,0.03467802703380585,-0.07601829618215561,-0.4427814483642578,-28.35400390625,17.291770935058594,-0.24379491806030273,-0.07951927185058594,0.03190791606903076,2.9113001823425293,9.480737686157227,1.8842830657958984
7_20251106_165533,1762419300838,7,0.039091382175683975,0.22008496522903442,0.6011720895767212,0.7672200202941895,2.74053955078125,4.6417622566223145,2.9563348293304443,2.6675052642822266,9.40121841430664,1.9161909818649292,0.015118902549147606,0.035288888961076736,-0.011266636662185192,-0.3676490783691406,-28.31170082092285,17.30902099609375,-0.24379491806030273,-0.07951927185058594,0.03190791606903076,2.9113001823425293,9.480737686157227,1.8842830657958984
7_20251106_165533,1762419300858,7,0.038613490760326385,0.2189963161945343,0.6014341115951538,0.7673503756523132,2.738541841506958,4.638693332672119,2.9606971740722656,2.8710036277770996,9.417978286743164,1.9712553024291992,0.04688386619091034,0.018795544281601906,0.03454821556806564,-0.3390483856201172,-28.234769821166992,17.31158447265625,-0.0072116851806640625,-0.034420013427734375,0.05125713348388672,2.8782153129577637,9.452398300170898,1.9199981689453125
7_20251106_165533,1762419300876,7,0.037780534476041794,0.21841007471084595,0.6016748547554016,0.7673702239990234,2.7378082275390625,4.63726806640625,2.9624388217926025,2.9308557510375977,9.427555084228516,1.8383828401565552,0.06643153727054596,0.0016913317376747727,0.033937349915504456,-0.33914756774902344,-28.234905242919922,17.32509994506836,0.04211235046386719,-0.01987457275390625,-0.06529223918914795,2.8887434005737305,9.447429656982422,1.9036750793457031
7_20251106_165533,1762419300896,7,0.03704429045319557,0.21819543838500977,0.6020113825798035,0.7672032117843628,2.737220048904419,4.6357831954956055,2.964056968688965,2.9500088691711426,9.453888893127441,1.8312005996704102,0.048105597496032715,-0.008082503452897072,0.02294178679585457,-0.3746910095214844,-28.21271324157715,17.378219604492188,0.049012184143066406,0.0051670074462890625,-0.057979583740234375,2.900996685028076,9.448721885681152,1.8891801834106445
7_20251106_165533,1762419300915,7,0.03659750521183014,0.21823807060718536,0.6023179292678833,0.7669718861579895,2.7368500232696533,4.6343817710876465,2.965489625930786,2.959585189819336,9.42635726928711,1.879082441329956,0.03894262760877609,0.007799978833645582,0.0003397921100258827,-0.3725757598876953,-28.17504119873047,17.379013061523438,0.04687070846557617,-0.017891883850097656,-0.008078217506408691,2.9127144813537598,9.444249153137207,1.8871606588363647
7_20251106_165533,1762419300935,7,0.03617176041007042,0.21799880266189575,0.6026312112808228,0.7668139934539795,2.7364840507507324,4.632863998413086,2.9662063121795654,2.914097309112549,9.406007766723633,1.6516430377960205,0.040775224566459656,0.025515055283904076,-0.021040473133325577,-0.38646697998046875,-28.20135498046875,17.41854476928711,0.00110626220703125,-0.030592918395996094,-0.1884140968322754,2.9129910469055176,9.436600685119629,1.840057134628296
7_20251106_165533,1762419300954,7,0.03582599759101868,0.21754731237888336,0.6029181480407715,0.766732931137085,2.7364840507507324,4.632863998413086,2.9662063121795654,2.914097309112549,9.406007766723633,1.6516430377960205,0.011453716084361076,0.04261926934123039,-0.04242074117064476,-0.38646697998046875,-28.20135498046875,17.41854476928711,0.00110626220703125,-0.030592918395996094,-0.1884140968322754,2.9129910469055176,9.436600685119629,1.840057134628296
7_20251106_165533,1762419300972,7,0.03566107526421547,0.21692949533462524,0.6033045053482056,0.7666117548942566,2.7355244159698486,4.6301116943359375,2.9656858444213867,2.8422741889953613,9.415584564208984,1.534332275390625,-0.04108065366744995,0.04689532145857811,-0.04914025217294693,-0.3755912780761719,-28.225540161132812,17.404991149902344,-0.051004648208618164,-0.013641357421875,-0.2104116678237915,2.8932788372039795,9.42922592163086,1.7447439432144165
7_20251106_165533,1762419300991,7,0.03566042333841324,0.21620596945285797,0.60336834192276,0.7667658925056458,2.7349958419799805,4.629009246826172,2.9653611183166504,2.8853678703308105,9.492195129394531,1.8383827209472656,-0.05451967567205429,0.002913061063736677,-0.025316528975963593,-0.44538116455078125,-28.167789459228516,17.430400848388672,-0.0063288211822509766,0.05037498474121094,0.07491099834442139,2.8916966915130615,9.44182014465332,1.7634717226028442
7_20251106_165533,1762419301010,7,0.035693954676389694,0.21586455404758453,0.6034209728240967,0.7668191194534302,2.734745979309082,4.628314971923828,2.965628147125244,2.993102550506592,9.596338272094727,1.9640729427337646,-0.00748309213668108,0.0004696022951975465,-0.01187750231474638,-0.4708671569824219,-28.194087982177734,17.388343811035156,0.08112478256225586,0.12361431121826172,0.16048097610473633,2.911977767944336,9.472723960876465,1.8035919666290283
7_20251106_165533,1762419301030,7,0.03554524481296539,0.2155434638261795,0.6034307479858398,0.7669086456298828,2.734846353530884,4.62795877456665,2.9658420085906982,3.02302885055542,9.572397232055664,1.7905008792877197,-0.00748309213668108,0.0004696022951975465,-0.01187750231474638,-0.4842643737792969,-28.2197265625,17.360294342041016,0.08884096145629883,0.07973861694335938,-0.010472893714904785,2.934187889099121,9.492658615112305,1.8009737730026245
7_20251106_165533,1762419301049,7,0.03529924899339676,0.21523725986480713,0.603671133518219,0.7668168544769287,2.7350854873657227,4.627895355224609,2.965789556503296,2.988314390182495,9.586761474609375,1.7114956378936768,0.04505127668380737,0.00535651994869113,-0.021040473133325577,-0.4483985900878906,-28.218286514282227,17.456378936767578,0.04330110549926758,0.07528209686279297,-0.07158255577087402,2.9450132846832275,9.511479377746582,1.7830781936645508
7_20251106_165533,1762419301068,7,0.03560584783554077,0.21526318788528442,0.6038036346435547,0.7666910290718079,2.7352046966552734,4.628041744232178,2.96601939201355,2.9057178497314453,9.586761474609375,1.8850677013397217,0.013286309316754341,-0.002584721427410841,-0.0405881442129612,-0.3509101867675781,-28.211933135986328,17.460304260253906,-0.03143644332885742,0.060225486755371094,0.08159160614013672,2.9371542930603027,9.526535987854004,1.803476095199585
7_20251106_165533,1762419301087,7,0.03607281669974327,0.2148125022649765,0.6036818623542786,0.7668914794921875,2.7349658012390137,4.628329277038574,2.966642379760742,2.8087568283081055,9.58077621459961,1.9509053230285645,-0.06856956332921982,0.054836563766002655,-0.11694624274969101,-0.3404426574707031,-28.248271942138672,17.40593719482422,-0.10271811485290527,0.043392181396484375,0.1179434061050415,2.9114749431610107,9.537384033203125,1.832961916923523
7_20251106_165533,1762419301107,7,0.03660861775279045,0.2136121392250061,0.6034098267555237,0.7674152851104736,2.734065294265747,4.628519535064697,2.9674746990203857,2.693840265274048,9.505362510681152,1.9018263816833496,-0.06856956332921982,0.054836563766002655,-0.11694624274969101,-0.31485748291015625,-28.221837997436523,17.434478759765625,-0.17410778999328613,-0.02561664581298828,0.05509161949157715,2.867948055267334,9.53097915649414,1.8467347621917725
7_20251106_165533,1762419301126,7,0.0370103158056736,0.21217554807662964,0.6033985614776611,0.7678033113479614,2.7325220108032227,4.6285552978515625,2.9683473110198975,2.6016674041748047,9.48142147064209,1.8910529613494873,0.009621119126677513,0.018184678629040718,-0.04975111410021782,-0.22481918334960938,-28.12864875793457,17.466793060302734,-0.21302461624145508,-0.039646148681640625,0.035454630851745605,2.8146920204162598,9.52106761932373,1.8555983304977417
7_20251106_165533,1762419301144,7,0.036928046494722366,0.2112148106098175,0.6036661267280579,0.7678618431091309,2.730717420578003,4.628572463989258,2.9689931869506836,2.645958185195923,9.514938354492188,1.7988801002502441,0.050549060106277466,-0.001973856706172228,0.03271562233567238,-0.12662506103515625,-28.109737396240234,17.47098159790039,-0.13498711585998535,-0.0049037933349609375,-0.04537463188171387,2.780945301055908,9.519842147827148,1.844254732131958
7_20251106_165533,1762419301163,7,0.03636031597852707,0.21078838407993317,0.604088544845581,0.7676738500595093,2.730717420578003,4.628572463989258,2.9689931869506836,2.645958185195923,9.514938354492188,1.7988801002502441,0.05543597787618637,-0.01358028594404459,0.07425443083047867,-0.15996932983398438,-28.061351776123047,17.416500091552734,-0.13498711585998535,-0.0049037933349609375,-0.04537463188171387,2.780945301055908,9.519842147827148,1.844254732131958
7_20251106_165533,1762419301181,7,0.03554663062095642,0.21078282594680786,0.6045473217964172,0.767352283000946,2.727400779724121,4.629326343536377,2.9695799350738525,2.880579948425293,9.645416259765625,1.8395798206329346,0.035888299345970154,0.005967384669929743,0.06936750560998917,-0.15987014770507812,-28.061216354370117,17.402984619140625,0.08157825469970703,0.0863046646118164,0.015203237533569336,2.799001693725586,9.559111595153809,1.8243765830993652
7_20251106_165533,1762419301202,7,0.0346897728741169,0.21080613136291504,0.6049242615699768,0.767087996006012,2.7263500690460205,4.630282402038574,2.969888687133789,2.960782051086426,9.681327819824219,1.816835880279541,0.025503603741526604,0.03345629572868347,0.03943513333797455,-0.18142318725585938,-28.012577056884766,17.403060913085938,0.1294243335723877,0.09777259826660156,-0.006032466888427734,2.831357717514038,9.583555221557617,1.8228683471679688
7_20251106_165533,1762419301221,7,0.033946920186281204,0.2106177657842636,0.6050941944122314,0.7670390009880066,2.725916862487793,4.6311821937561035,2.9701013565063477,3.002678871154785,9.611900329589844,1.8036682605743408,0.03711003065109253,0.009021708741784096,0.01866573467850685,-0.2522144317626953,-27.967788696289062,17.468753814697266,0.13705682754516602,0.022676467895507812,-0.015360116958618164,2.865622043609619,9.589223861694336,1.819028377532959
7_20251106_165533,1762419301240,7,0.03346908465027809,0.21062909066677094,0.6053706407546997,0.7668387293815613,2.7259373664855957,4.632187843322754,2.970346689224243,3.02302885055542,9.644220352172852,1.834791660308838,0.040775224566459656,-0.003195586148649454,0.010113626718521118,-0.29601097106933594,-27.87145233154297,17.563518524169922,0.12592554092407227,0.04399681091308594,0.012610673904418945,2.8971033096313477,9.600223541259766,1.822180986404419
7_20251106_165533,1762419301258,7,0.033083271235227585,0.21076670289039612,0.6056505441665649,0.7665966153144836,2.7263600826263428,4.633183479309082,2.9706013202667236,3.0613343715667725,9.63703727722168,1.8359887599945068,0.02977965958416462,-0.009304232895374298,-0.02287307009100914,-0.2953071594238281,-27.858896255493164,17.56378173828125,0.13138484954833984,0.029450416564941406,0.011046171188354492,2.9299495220184326,9.607586860656738,1.8249425888061523
7_20251106_165533,1762419301278,7,0.032955337315797806,0.21072977781295776,0.605881929397583,0.7664293646812439,2.7263600826263428,4.633183479309082,2.9706013202667236,3.0613343715667725,9.63703727722168,1.8359887599945068,0.013286307454109192,-0.01541288010776043,-0.06441186368465424,-0.2965202331542969,-27.883739471435547,17.53622055053711,0.13138484954833984,0.029450416564941406,0.011046171188354492,2.9299495220184326,9.607586860656738,1.8249425888061523
7_20251106_165533,1762419301297,7,0.03328179568052292,0.21064907312393188,0.6060152053833008,0.7663320899009705,2.7271347045898438,4.635402679443359,2.9718258380889893,2.8374862670898438,9.656190872192383,1.9532995223999023,-0.01542433351278305,0.004134790506213903,-0.09862028807401657,-0.35906982421875,-27.92470932006836,17.465396881103516,-0.07832908630371094,0.036086082458496094,0.09134173393249512,2.9158153533935547,9.620104789733887,1.8619577884674072
7_20251106_165533,1762419301316,7,0.033888258039951324,0.2100885659456253,0.6059747338294983,0.7664913535118103,2.726905345916748,4.636387825012207,2.9729995727539062,2.753692626953125,9.59274673461914,2.0323047637939453,-0.023976439610123634,0.03773234784603119,-0.11389190703630447,-0.2725563049316406,-27.894304275512695,17.49639129638672,-0.1296982765197754,-0.021886825561523438,0.1362776756286621,2.8833909034729004,9.614633560180664,1.8960270881652832
7_20251106_165533,1762419301336,7,0.03427661210298538,0.20883864164352417,0.6059701442718506,0.7668192386627197,2.726186990737915,4.6371283531188965,2.974522113800049,2.722569465637207,9.53409194946289,2.0107579231262207,-0.023976439610123634,0.03773234784603119,-0.11389190703630447,-0.2728538513183594,-27.89470863342285,17.536941528320312,-0.12865734100341797,-0.06443309783935547,0.09178459644317627,2.851226806640625,9.598525047302246,1.9189733266830444
7_20251106_165533,1762419301356,7,0.034505415707826614,0.2073879987001419,0.6061335206031799,0.7670735120773315,2.726186990737915,4.6371283531188965,2.974522113800049,2.722569465637207,9.53409194946289,2.0107579231262207,0.010842850431799889,0.05666915699839592,-0.11144844442605972,-0.18635177612304688,-27.875917434692383,17.47305679321289,-0.12865734100341797,-0.06443309783935547,0.09178459644317627,2.851226806640625,9.598525047302246,1.9189733266830444
7_20251106_165533,1762419301375,7,0.03453952819108963,0.20621006190776825,0.606537938117981,0.7670698761940002,2.7230465412139893,4.637479782104492,2.977898359298706,2.6076526641845703,9.53887939453125,1.973649263381958,0.050549060106277466,0.005967384669929743,-0.04608592763543129,-0.18635177612304688,-27.875917434692383,17.47305679321289,-0.15933513641357422,-0.023616790771484375,0.029821395874023438,2.7669878005981445,9.562496185302734,1.9438278675079346
7_20251106_165533,1762419301392,7,0.034576740115880966,0.20547832548618317,0.6068488955497742,0.7670186161994934,2.721160411834717,4.637580871582031,2.979466199874878,2.59448504447937,9.560426712036133,2.0179402828216553,0.051770783960819244,-0.001973856706172228,-0.02287306636571884,-0.1501026153564453,-27.88555335998535,17.42020034790039,-0.1380023956298828,-0.00165557861328125,0.05928993225097656,2.732487440109253,9.562082290649414,1.9586503505706787
7_20251106_165533,1762419301412,7,0.034377675503492355,0.20479515194892883,0.6072275042533875,0.7669106125831604,2.721160411834717,4.637580871582031,2.979466199874878,2.59448504447937,9.560426712036133,2.0179402828216553,0.07376191765069962,0.04139753431081772,-0.021040473133325577,-0.04395294189453125,-27.94118881225586,17.423294067382812,-0.1380023956298828,-0.00165557861328125,0.05928993225097656,2.732487440109253,9.562082290649414,1.9586503505706787
7_20251106_165533,1762419301432,7,0.03391261026263237,0.20380859076976776,0.60771644115448,0.7668067812919617,2.7165443897247314,4.637661933898926,2.982013463973999,2.710598945617676,9.615490913391113,1.8563385009765625,0.054214246571063995,0.04689531773328781,0.005226709879934788,0.032489776611328125,-27.87390899658203,17.45458984375,0.001505136489868164,0.049887657165527344,-0.06777787208557129,2.7090938091278076,9.565603256225586,1.9241163730621338
7_20251106_165533,1762419301449,7,0.03329344093799591,0.20308703184127808,0.6081427931785583,0.7666873931884766,2.714663505554199,4.638125419616699,2.9834039211273193,2.799180507659912,9.69090461730957,2.0430784225463867,0.04688386619091034,0.03162370249629021,0.01927659846842289,0.04438018798828125,-27.873517990112305,17.495628356933594,0.07206916809082031,0.10024166107177734,0.0951695442199707,2.727111339569092,9.590662956237793,1.947908878326416
7_20251106_165533,1762419301469,7,0.03273879364132881,0.2027587741613388,0.6084571480751038,0.7665486931800842,2.712914228439331,4.639017105102539,2.984938144683838,2.770451545715332,9.731605529785156,1.9951963424682617,0.04688386619091034,0.03162370249629021,0.01927659846842289,0.10663414001464844,-27.83295440673828,17.60700225830078,0.03467226028442383,0.11275386810302734,0.03782999515533447,2.735779285430908,9.618851661682129,1.9573663473129272
7_20251106_165533,1762419301488,7,0.03221483901143074,0.20216934382915497,0.6089327335357666,0.7663489580154419,2.7113125324249268,4.639638900756836,2.9857499599456787,2.7273573875427246,9.552047729492188,1.7486040592193604,0.11713331192731857,0.048727914690971375,-0.04608592763543129,0.1311187744140625,-27.819618225097656,17.689346313476562,-0.006737470626831055,-0.053442955017089844,-0.16700983047485352,2.7340948581695557,9.605490684509277,1.9156138896942139
