session_id,timestamp,label,quaternion_w,quaternion_x,quaternion_y,quaternion_z,position_x,position_y,position_z,accelerometer_x,accelerometer_y,accelerometer_z,gyroscope_x,gyroscope_y,gyroscope_z,magnetometer_x,magnetometer_y,magnetometer_z,linear_acceleration_x,linear_acceleration_y,linear_acceleration_z,gravity_x,gravity_y,gravity_z
5_20251106_215133,1762437056101,5,0.016620228067040443,-0.23043766617774963,-0.7569010853767395,-0.6113288998603821,0.596819281578064,3.1420252323150635,0.6177716255187988,3.7711846828460693,9.67773723602295,-2.1394121646881104,-0.06398044526576996,-0.06924150884151459,0.13371065258979797,6.361412525177002,-12.869010925292969,42.64714050292969,0.25901055335998535,0.2578401565551758,0.2092595100402832,3.512174129486084,9.419897079467773,-2.3486716747283936
5_20251106_215133,1762437056119,5,0.01687467284500599,-0.23181702196598053,-0.7561626434326172,-0.6117141246795654,0.6064490675926208,3.151547431945801,0.6110771298408508,3.9052541255950928,9.681328773498535,-2.159761905670166,-0.06398044526576996,-0.06924150884151459,0.13371065258979797,6.279825210571289,-13.03607177734375,42.5461540222168,0.31446385383605957,0.20914554595947266,0.15112781524658203,3.590790271759033,9.472183227539062,-2.310889720916748
5_20251106_215133,1762437056137,5,0.01683594100177288,-0.23329231142997742,-0.7557740211486816,-0.6116345524787903,0.6148579716682434,3.1596591472625732,0.605643093585968,3.8789191246032715,9.664569854736328,-2.3237576484680176,-0.010835213586688042,-0.10894771665334702,0.11294125765562057,6.279825210571289,-13.03607177734375,42.5461540222168,0.23050308227539062,0.15390872955322266,-0.010294198989868164,3.648416042327881,9.510661125183105,-2.3134634494781494
5_20251106_215133,1762437056157,5,0.016389643773436546,-0.23437151312828064,-0.7558503150939941,-0.6111396551132202,0.624752402305603,3.1692490577697754,0.5987139940261841,3.6562678813934326,9.531697273254395,-2.478177070617676,0.042920880019664764,-0.12605193257331848,0.04147007688879967,6.287558078765869,-13.134117126464844,42.3823356628418,0.006281614303588867,0.016828536987304688,-0.13177084922790527,3.6499862670898438,9.51486873626709,-2.3464062213897705
5_20251106_215133,1762437056175,5,0.01547736581414938,-0.23457156121730804,-0.7562258839607239,-0.6106218099594116,0.632055401802063,3.1766512393951416,0.5925792455673218,3.3438382148742676,9.349745750427246,-2.5464088916778564,0.0514729879796505,-0.10283907502889633,-0.06604210287332535,6.272144317626953,-13.197296142578125,42.3399772644043,-0.2449185848236084,-0.13209819793701172,-0.1600019931793213,3.588756799697876,9.481843948364258,-2.386406898498535
5_20251106_215133,1762437056195,5,0.014435817487537861,-0.23380602896213531,-0.7567269802093506,-0.6103201508522034,0.6381790041923523,3.183561086654663,0.5856136679649353,3.067319869995117,9.184553146362305,-2.5476059913635254,0.015431969426572323,-0.02159406617283821,-0.17355431616306305,6.255814552307129,-13.284912109375,42.22951126098633,-0.41714954376220703,-0.23783302307128906,-0.12895917892456055,3.484469413757324,9.422386169433594,-2.418646812438965
5_20251106_215133,1762437056213,5,0.013371177949011326,-0.2326766550540924,-0.7571951150894165,-0.6101953387260437,0.6418362855911255,3.1887712478637695,0.579464316368103,2.8434715270996094,9.13906478881836,-2.4973297119140625,0.028260130435228348,-0.04847211390733719,-0.17477604746818542,6.313615798950195,-13.343185424804688,42.176578521728516,-0.5127983093261719,-0.22665691375732422,-0.06294631958007812,3.3562698364257812,9.365721702575684,-2.4343833923339844
5_20251106_215133,1762437056232,5,0.012102396227419376,-0.23166483640670776,-0.7577592134475708,-0.6099064946174622,0.6434399485588074,3.193009614944458,0.5730135440826416,2.6040616035461426,9.006193161010742,-2.538029670715332,0.07040979713201523,-0.07473929971456528,-0.16378048062324524,6.436082363128662,-13.322822570800781,42.19526290893555,-0.6017665863037109,-0.28762245178222656,-0.0829169750213623,3.2058281898498535,9.293815612792969,-2.4551126956939697
5_20251106_215133,1762437056251,5,0.01075025089085102,-0.23087657988071442,-0.7585404515266418,-0.6092592477798462,0.6428296566009521,3.195951223373413,0.5661224722862244,2.4280951023101807,8.898458480834961,-2.7331485748291016,0.09056834131479263,-0.0637437254190445,-0.11246783286333084,6.545558929443359,-13.315940856933594,42.22671127319336,-0.6221866607666016,-0.3162851333618164,-0.2224287986755371,3.0502817630767822,9.214743614196777,-2.5107197761535645
5_20251106_215133,1762437056271,5,0.009827246889472008,-0.2303246259689331,-0.7593545317649841,-0.6084691286087036,0.6401022672653198,3.197927713394165,0.5579038262367249,2.3538780212402344,8.897261619567871,-2.947420597076416,0.08140536397695541,-0.042974334210157394,-0.036109741777181625,6.644865036010742,-13.272323608398438,42.271976470947266,-0.5571229457855225,-0.2539854049682617,-0.34936046600341797,2.911000967025757,9.151247024536133,-2.598060131072998
5_20251106_215133,1762437056290,5,0.00945604033768177,-0.2301935851573944,-0.7599812746047974,-0.60774165391922,0.6364439725875854,3.199326753616333,0.5493440628051758,2.4747800827026367,9.010981559753418,-3.0144553184509277,0.049029529094696045,-0.036254823207855225,0.05124391242861748,6.710531711578369,-13.18072509765625,42.30331039428711,-0.34897685050964355,-0.1122121810913086,-0.3331162929534912,2.8237569332122803,9.123193740844727,-2.6813390254974365
5_20251106_215133,1762437056310,5,0.009562982246279716,-0.23064680397510529,-0.7602624297142029,-0.6072162985801697,0.6327533721923828,3.2004268169403076,0.5401571393013,2.7453131675720215,9.039709091186523,-3.0659284591674805,0.014821105636656284,-0.05396990105509758,0.11355211585760117,6.764420509338379,-13.077766418457031,42.37496566772461,-0.06275510787963867,-0.0667877197265625,-0.30767154693603516,2.80806827545166,9.106496810913086,-2.7582569122314453
5_20251106_215133,1762437056329,5,0.009864804334938526,-0.23163729906082153,-0.7602182626724243,-0.6068896651268005,0.629403293132782,3.201571226119995,0.5308063626289368,2.9200825691223145,9.121109008789062,-2.8121538162231445,0.014821105636656284,-0.05396990105509758,0.11355211585760117,6.8382415771484375,-13.060440063476562,42.378173828125,0.08961129188537598,0.011689186096191406,-0.043117523193359375,2.8304712772369385,9.109419822692871,-2.769036293029785
5_20251106_215133,1762437056347,5,0.009814205579459667,-0.23310905694961548,-0.7598332762718201,-0.6068090200424194,0.6270720958709717,3.2026374340057373,0.523810625076294,3.0469698905944824,9.145050048828125,-2.363260507583618,-0.06520216912031174,-0.10772598534822464,0.1068326011300087,6.865334510803223,-13.008758544921875,42.39372634887695,0.17319869995117188,0.028504371643066406,0.32462048530578613,2.8737711906433105,9.116545677185059,-2.6878809928894043
5_20251106_215133,1762437056366,5,0.009538239799439907,-0.23446278274059296,-0.7592734694480896,-0.6069926023483276,0.6251767873764038,3.2034497261047363,0.5182871222496033,3.034999370574951,9.022951126098633,-2.144200325012207,-0.035880666226148605,-0.06191113963723183,0.028031054884195328,6.954964637756348,-12.927719116210938,42.38522720336914,0.1289825439453125,-0.0748758316040039,0.43494462966918945,2.9060168266296387,9.097826957702637,-2.5791449546813965
5_20251106_215133,1762437056385,5,0.009258207865059376,-0.2349328249692917,-0.7589980959892273,-0.6071595549583435,0.6232900023460388,3.2034149169921875,0.5143086314201355,2.8745946884155273,8.8038911819458,-2.116668224334717,-0.015111266635358334,0.01689041033387184,-0.0684855654835701,6.980239391326904,-12.913307189941406,42.359439849853516,-0.025137901306152344,-0.23514842987060547,0.3699815273284912,2.8997325897216797,9.039039611816406,-2.486649751663208
5_20251106_215133,1762437056404,5,0.008994391188025475,-0.23430411517620087,-0.7590063214302063,-0.607396125793457,0.6205320358276367,3.2017054557800293,0.5113897919654846,2.547800064086914,8.428018569946289,-2.172929525375366,-0.02732856199145317,0.08958331495523453,-0.15400664508342743,7.005514144897461,-12.898895263671875,42.33365249633789,-0.28154611587524414,-0.4888172149658203,0.2509760856628418,2.829346179962158,8.91683578491211,-2.423905611038208
5_20251106_215133,1762437056423,5,0.008734687231481075,-0.23261143267154694,-0.7591426372528076,-0.6078799962997437,0.6205320358276367,3.2017054557800293,0.5113897919654846,2.547800064086914,8.428018569946289,-2.172929525375366,-0.02732856199145317,0.08958331495523453,-0.15400664508342743,7.053355693817139,-12.908546447753906,42.36238479614258,-0.28154611587524414,-0.4888172149658203,0.2509760856628418,2.829346179962158,8.91683578491211,-2.423905611038208
5_20251106_215133,1762437056442,5,0.008355218917131424,-0.23034942150115967,-0.7592509984970093,-0.6086109280586243,0.615043580532074,3.196920156478882,0.5091421008110046,2.0558128356933594,8.024612426757812,-2.180111885070801,-0.06825649738311768,0.14150680601596832,-0.20287582278251648,7.1269659996032715,-12.903106689453125,42.29774475097656,-0.6188268661499023,-0.7137784957885742,0.19503498077392578,2.6746397018432617,8.738390922546387,-2.3751468658447266
5_20251106_215133,1762437056462,5,0.008010659366846085,-0.227935329079628,-0.7593213319778442,-0.6094361543655396,0.5979747176170349,3.180783271789551,0.5080094337463379,1.148449420928955,7.240544319152832,-1.9658401012420654,-0.05115228518843651,0.21114538609981537,-0.15767183899879456,7.138447284698486,-12.914871215820312,42.297969818115234,-1.0503087043762207,-1.0181875228881836,0.27440571784973145,2.198758125305176,8.258731842041016,-2.240245819091797
5_20251106_215133,1762437056480,5,0.00842498429119587,-0.22538824379444122,-0.7594010233879089,-0.6102780103683472,0.5979747176170349,3.180783271789551,0.5080094337463379,1.148449420928955,7.240544319152832,-1.9658401012420654,-0.055428337305784225,0.30949461460113525,-0.051992226392030716,7.151845455169678,-12.889228820800781,42.326019287109375,-1.0503087043762207,-1.0181875228881836,0.27440571784973145,2.198758125305176,8.258731842041016,-2.240245819091797
5_20251106_215133,1762437056499,5,0.010158197022974491,-0.22290998697280884,-0.7592611908912659,-0.6113349199295044,0.5678150057792664,3.149465322494507,0.5093391537666321,0.6971617937088013,6.213476181030273,-2.08434796333313,-0.06459130346775055,0.3809657692909241,0.10438914597034454,7.136135101318359,-12.952804565429688,42.3242073059082,-0.9857287406921387,-1.3955345153808594,0.08809137344360352,1.68289053440094,7.609010696411133,-2.1724393367767334
5_20251106_215133,1762437056519,5,0.013251163996756077,-0.22115793824195862,-0.7587480545043945,-0.6125478744506836,0.5678150057792664,3.149465322494507,0.5093391537666321,0.6971617937088013,6.213476181030273,-2.08434796333313,-0.07558687031269073,0.4402196407318115,0.32552215456962585,6.987689018249512,-13.000137329101562,42.33104705810547,-0.9857287406921387,-1.3955345153808594,0.08809137344360352,1.68289053440094,7.609010696411133,-2.1724393367767334
5_20251106_215133,1762437056538,5,0.018014851957559586,-0.22069184482097626,-0.7577093839645386,-0.6138787269592285,0.5289520621299744,3.0995075702667236,0.5131818652153015,0.898266077041626,5.3946943283081055,-1.8473321199417114,-0.08658242970705032,0.5410123467445374,0.6120177507400513,6.987689018249512,-13.000137329101562,42.33104705810547,-0.46481168270111084,-1.4615974426269531,0.21668756008148193,1.3630777597427368,6.856291770935059,-2.0640196800231934
5_20251106_215133,1762437056557,5,0.02518685907125473,-0.22169718146324158,-0.7559517621994019,-0.6154290437698364,0.5108304023742676,3.069489002227783,0.5151355266571045,1.4213767051696777,5.0164265632629395,-2.116668224334717,-0.08902589231729507,0.6356964111328125,0.9351652264595032,6.4653825759887695,-13.0203857421875,42.1750602722168,0.046639204025268555,-1.4718923568725586,-0.04211878776550293,1.3747375011444092,6.488318920135498,-2.074549436569214
5_20251106_215133,1762437056576,5,0.03495745360851288,-0.22451251745224,-0.7533986568450928,-0.617059588432312,0.5108304023742676,3.069489002227783,0.5151355266571045,1.4213767051696777,5.0164265632629395,-2.116668224334717,-0.1537775695323944,0.6149269342422485,1.2717516422271729,6.4653825759887695,-13.0203857421875,42.1750602722168,0.046639204025268555,-1.4718923568725586,-0.04211878776550293,1.3747375011444092,6.488318920135498,-2.074549436569214
5_20251106_215133,1762437056595,5,0.04647279530763626,-0.22999587655067444,-0.7496565580368042,-0.6188353300094604,0.486958771944046,3.0016684532165527,0.5128003358840942,3.2193448543548584,4.933830261230469,-2.9079179763793945,-0.34803253412246704,0.4371653199195862,1.5301473140716553,6.012272834777832,-13.099189758300781,42.07476043701172,1.3211301565170288,-0.9787845611572266,-0.5444645881652832,1.8982146978378296,5.912614822387695,-2.3634533882141113
5_20251106_215133,1762437056614,5,0.057871945202350616,-0.23865053057670593,-0.7441679835319519,-0.6212171912193298,0.48358163237571716,2.9663727283477783,0.510521411895752,3.889692544937134,5.084658622741699,-2.4686007499694824,-0.6113151907920837,0.37607884407043457,1.6627050638198853,5.517090797424316,-13.257476806640625,42.147117614746094,1.5931823253631592,-0.6623649597167969,-0.08411788940429688,2.2965102195739746,5.747023582458496,-2.3844828605651855
5_20251106_215133,1762437056633,5,0.06904195994138718,-0.24886929988861084,-0.7365940809249878,-0.6250811219215393,0.48610079288482666,2.9323184490203857,0.507925271987915,4.3840742111206055,5.556296348571777,-2.5416207313537598,-0.6113151907920837,0.37607884407043457,1.6627050638198853,4.784412860870361,-13.554939270019531,42.058837890625,1.6700513362884521,-0.15258216857910156,-0.12571024894714355,2.7140228748321533,5.708878517150879,-2.415910482406616
5_20251106_215133,1762437056652,5,0.08049272745847702,-0.2587724030017853,-0.726940393447876,-0.630963921546936,0.48610079288482666,2.9323184490203857,0.507925271987915,4.3840742111206055,5.556296348571777,-2.5416207313537598,-1.1372698545455933,0.4561021327972412,1.7030221223831177,3.9670257568359375,-13.857154846191406,41.88602828979492,1.6700513362884521,-0.15258216857910156,-0.12571024894714355,2.7140228748321533,5.708878517150879,-2.415910482406616
5_20251106_215133,1762437056671,5,0.0911644846200943,-0.2690694332122803,-0.7154626250267029,-0.6382820010185242,0.4947449564933777,2.8980188369750977,0.5050707459449768,4.728824138641357,5.628118991851807,-2.5009212493896484,-1.2716599702835083,0.41883939504623413,1.8563491106033325,3.087693691253662,-14.187911987304688,41.65617370605469,1.6118409633636475,-0.06460762023925781,-0.0680086612701416,3.11698317527771,5.6927266120910645,-2.432912588119507
5_20251106_215133,1762437056690,5,0.10219567269086838,-0.28056666254997253,-0.7025296092033386,-0.6459802985191345,0.509057343006134,2.8651716709136963,0.5041799545288086,5.490147590637207,5.003259181976318,-1.8186031579971313,-1.2661622762680054,0.44327396154403687,2.0982515811920166,2.024846076965332,-14.779319763183594,41.251976013183594,1.898531436920166,-0.5515742301940918,0.4914475679397583,3.591616153717041,5.55483341217041,-2.3100507259368896
5_20251106_215133,1762437056709,5,0.11493013054132462,-0.2935156524181366,-0.6884408593177795,-0.6532142162322998,0.5629248023033142,2.800920009613037,0.5041985511779785,8.773653030395508,5.106205463409424,-2.5571823120117188,-1.3009815216064453,0.4108981490135193,2.298004388809204,0.925328254699707,-15.384857177734375,40.76494598388672,3.627927780151367,-0.22813177108764648,-0.2734639644622803,5.145725250244141,5.33433723449707,-2.2837183475494385
5_20251106_215133,1762437056730,5,0.12859779596328735,-0.308080792427063,-0.6730939745903015,-0.6599192023277283,0.5629248023033142,2.800920009613037,0.5041985511779785,8.773653030395508,5.106205463409424,-2.5571823120117188,-1.3009815216064453,0.4108981490135193,2.298004388809204,-0.2268533706665039,-16.056900024414062,40.32870101928711,3.627927780151367,-0.22813177108764648,-0.2734639644622803,5.145725250244141,5.33433723449707,-2.2837183475494385
5_20251106_215133,1762437056748,5,0.1398269236087799,-0.32418331503868103,-0.6562874913215637,-0.6668136119842529,0.6743876934051514,2.749471664428711,0.5003698468208313,12.02962875366211,7.367431640625,-2.018510341644287,-1.8049449920654297,-0.11566723138093948,1.831303596496582,-1.3698921203613281,-16.80187225341797,39.72916793823242,4.608526229858398,1.4693422317504883,0.31548571586608887,7.421102523803711,5.898089408874512,-2.333996057510376
5_20251106_215133,1762437056767,5,0.14554893970489502,-0.3397959768772125,-0.6389867067337036,-0.6745741367340088,0.7412604689598083,2.7356908321380615,0.5041877031326294,12.261856079101562,8.24846076965332,-0.32707953453063965,-2.0621187686920166,-0.1914144605398178,1.1086506843566895,-2.628690719604492,-17.701438903808594,38.79766082763672,3.8726024627685547,1.8802971839904785,1.605533242225647,8.389253616333008,6.368163585662842,-1.9326127767562866
5_20251106_215133,1762437056786,5,0.14524492621421814,-0.3515789806842804,-0.6220095753669739,-0.6843976974487305,0.8212811946868896,2.728574514389038,0.5182840824127197,11.49215316772461,8.812271118164062,1.3787158727645874,-2.2820301055908203,0.05415315553545952,0.26382485032081604,-3.64517879486084,-18.61023712158203,37.87543487548828,2.4823198318481445,1.9552860260009766,2.6490631103515625,9.009833335876465,6.856985092163086,-1.2703471183776855
5_20251106_215133,1762437056805,5,0.13996261358261108,-0.3566949963569641,-0.6056150794029236,-0.6974306702613831,0.8969802260398865,2.727421283721924,0.5399818420410156,10.278345108032227,8.777555465698242,2.0011816024780273,-2.2820301055908203,0.05415315553545952,0.26382485032081604,-4.632776260375977,-19.666259765625,36.8433837890625,1.0148096084594727,1.5364561080932617,2.617223024368286,9.263535499572754,7.2410993576049805,-0.616041362285614
5_20251106_215133,1762437056823,5,0.13171027600765228,-0.3550838530063629,-0.590790331363678,-0.7124146819114685,0.9638205170631409,2.7294387817382812,0.5655712485313416,8.740137100219727,8.481884956359863,1.8455650806427002,-2.091440200805664,0.36691588163375854,-0.8809356093406677,-5.473041534423828,-20.69965362548828,35.7634162902832,-0.4187183380126953,0.9926285743713379,1.969285249710083,9.158855438232422,7.489256381988525,-0.12372010946273804
5_20251106_215133,1762437056844,5,0.12102328985929489,-0.35041967034339905,-0.5786035656929016,-0.7264828681945801,1.0313109159469604,2.7342233657836914,0.6004207730293274,7.192351818084717,8.24965763092041,1.8120477199554443,-2.091440200805664,0.36691588163375854,-0.8809356093406677,-5.924381256103516,-21.743820190429688,34.5496711730957,-1.5732026100158691,0.6083211898803711,1.548614263534546,8.765554428100586,7.641336441040039,0.26343345642089844
5_20251106_215133,1762437056862,5,0.10821295529603958,-0.34681475162506104,-0.5682595372200012,-0.7383025288581848,1.079068660736084,2.738968849182129,0.6336432099342346,5.842080116271973,7.986306190490723,2.231015205383301,-1.7884515523910522,-0.36490005254745483,-0.8839899301528931,-6.147710800170898,-22.835678100585938,33.34392547607422,-2.3387794494628906,0.27597618103027344,1.5740654468536377,8.180859565734863,7.710330009460449,0.6569497585296631
5_20251106_215133,1762437056882,5,0.09419272094964981,-0.34636735916137695,-0.5587732791900635,-0.7476161122322083,1.11748468875885,2.744885206222534,0.6735722422599792,4.727626800537109,8.132346153259277,3.0677525997161865,-1.7010979652404785,-0.6171871423721313,-0.6543048024177551,-6.163680076599121,-23.91376495361328,32.119483947753906,-2.7625861167907715,0.3376131057739258,1.9286422729492188,7.490212917327881,7.794733047485352,1.1391103267669678
5_20251106_215133,1762437056901,5,0.08068718761205673,-0.34850844740867615,-0.5492438673973083,-0.7552235722541809,1.1442197561264038,2.7525291442871094,0.719788134098053,3.932786464691162,8.532161712646484,4.158264636993408,-1.6937675476074219,-0.6446760892868042,-0.4179001748561859,-5.9983673095703125,-25.00518798828125,30.915386199951172,-2.8459410667419434,0.5899429321289062,2.415323495864868,6.7787275314331055,7.942218780517578,1.74294114112854
5_20251106_215133,1762437056920,5,0.06877408921718597,-0.3516179025173187,-0.5388837456703186,-0.7623904943466187,1.1602908372879028,2.763596773147583,0.7769274711608887,3.270817995071411,9.068439483642578,5.336161136627197,-1.6577266454696655,-0.5389964580535889,-0.2786230146884918,-5.5615234375,-26.004867553710938,29.83179473876953,-2.8063275814056396,0.9009761810302734,2.8745760917663574,6.077145576477051,8.167463302612305,2.46158504486084
5_20251106_215133,1762437056940,5,0.0585106797516346,-0.35423579812049866,-0.5280858278274536,-0.7695575952529907,1.1650766134262085,2.778156280517578,0.8430453538894653,2.629199504852295,9.498180389404297,6.354849815368652,-1.5062321424484253,-0.29770493507385254,-0.22059088945388794,-5.024074554443359,-26.94756317138672,28.712635040283203,-2.758357048034668,1.0645732879638672,3.114611864089966,5.387556552886963,8.43360710144043,3.2402379512786865
5_20251106_215133,1762437056959,5,0.05048118159174919,-0.35482707619667053,-0.5179700255393982,-0.7766958475112915,1.1603894233703613,2.7941744327545166,0.911954939365387,2.104891777038574,9.48261833190918,6.607427597045898,-1.5062321424484253,-0.29770493507385254,-0.22059088945388794,-4.405953407287598,-27.747634887695312,27.62635040283203,-2.626132011413574,0.8392086029052734,2.693751811981201,4.731023788452148,8.643409729003906,3.9136757850646973
5_20251106_215133,1762437056979,5,0.04540960490703583,-0.3529750406742096,-0.5097618103027344,-0.7832556962966919,1.1465579271316528,2.811648368835449,0.9875542521476746,1.72303307056427,9.122306823730469,6.114243030548096,-0.8287830948829651,0.29361212253570557,-0.05015962943434715,-3.8370580673217773,-28.539947509765625,26.700565338134766,-2.4063925743103027,0.38311767578125,1.760453701019287,4.129425525665283,8.739189147949219,4.353789329528809
5_20251106_215133,1762437056997,5,0.04381100460886955,-0.34923553466796875,-0.503703773021698,-0.7889218330383301,1.1282111406326294,2.8265798091888428,1.054825782775879,1.4812290668487549,8.735660552978516,5.423545837402344,-0.6198673844337463,0.4817584753036499,0.15936696529388428,-3.8370580673217773,-28.539947509765625,26.700565338134766,-2.1185572147369385,-0.0028228759765625,0.8558053970336914,3.5997862815856934,8.738483428955078,4.567740440368652
5_20251106_215133,1762437057016,5,0.04532010108232498,-0.34506797790527344,-0.4984544515609741,-0.7939882278442383,1.105352759361267,2.8406341075897217,1.1200659275054932,1.3950414657592773,8.685382843017578,5.108721733093262,-0.588102400302887,0.5898815393447876,0.43425610661506653,-3.438535690307617,-29.095321655273438,26.002479553222656,-1.7637958526611328,-0.04248046875,0.4327850341796875,3.15883731842041,8.727863311767578,4.675936698913574
5_20251106_215133,1762437057036,5,0.04950631409883499,-0.34145665168762207,-0.49254927039146423,-0.7989691495895386,1.0765866041183472,2.8537607192993164,1.1898531913757324,1.6332544088363647,8.165863990783691,4.979440212249756,-0.577106773853302,0.7083892822265625,0.7268603444099426,-3.207291603088379,-29.59930419921875,25.325878143310547,-1.2204662561416626,-0.4495992660522461,0.24280309677124023,2.8537206649780273,8.615463256835938,4.736637115478516
5_20251106_215133,1762437057054,5,0.05649224668741226,-0.33832046389579773,-0.4857419729232788,-0.8039916753768921,1.0488990545272827,2.862607002258301,1.2535252571105957,2.2245969772338867,7.5218505859375,4.987819671630859,-0.5502287745475769,0.8342273831367493,1.0035820007324219,-3.1327590942382812,-30.088088989257812,24.602882385253906,-0.5032989978790283,-0.8748903274536133,0.20094585418701172,2.727895975112915,8.396740913391113,4.786873817443848
5_20251106_215133,1762437057073,5,0.06630492210388184,-0.33555006980895996,-0.4780808687210083,-0.8089799284934998,1.0233564376831055,2.867497205734253,1.3139870166778564,3.005073070526123,7.11605167388916,4.777138710021973,-0.5514504313468933,0.9973282814025879,1.2460952997207642,-3.1876354217529297,-30.49811553955078,23.916889190673828,0.2217416763305664,-1.0245513916015625,-0.007788181304931641,2.7833313941955566,8.140603065490723,4.784926891326904
5_20251106_215133,1762437057092,5,0.07870018482208252,-0.3327760398387909,-0.4693058431148529,-0.8141366243362427,1.0025039911270142,2.8690690994262695,1.3700907230377197,4.027353286743164,7.02028751373291,4.298318862915039,-0.5441201329231262,1.1072839498519897,1.4415719509124756,-3.6010313034057617,-30.794784545898438,23.313697814941406,0.9952173233032227,-0.8962526321411133,-0.38928651809692383,3.0321359634399414,7.916540145874023,4.687605381011963
5_20251106_215133,1762437057111,5,0.09310302138328552,-0.3301556706428528,-0.45970243215560913,-0.8191475868225098,1.0025039911270142,2.8690690994262695,1.3700907230377197,4.027353286743164,7.02028751373291,4.298318862915039,-0.5111333727836609,1.1213338375091553,1.526482105255127,-4.238801956176758,-30.969223022460938,22.78519058227539,0.9952173233032227,-0.8962526321411133,-0.38928651809692383,3.0321359634399414,7.916540145874023,4.687605381011963
5_20251106_215133,1762437057130,5,0.1083817183971405,-0.32787519693374634,-0.4499931037425995,-0.8235638737678528,0.9816398620605469,2.8667945861816406,1.4689531326293945,5.930662155151367,7.33989953994751,4.140308856964111,-0.5215181112289429,1.0877362489700317,1.4605088233947754,-5.000744819641113,-31.189552307128906,22.278018951416016,1.983572006225586,-0.3468327522277832,-0.3169436454772949,3.9470901489257812,7.686732292175293,4.457252502441406
5_20251106_215133,1762437057149,5,0.12291494011878967,-0.3257063627243042,-0.44036251306533813,-0.82757967710495,0.9820667505264282,2.8644251823425293,1.5142971277236938,6.421452045440674,7.414116859436035,4.542516708374023,-0.5948218703269958,1.16103994846344,1.3120687007904053,-5.938133239746094,-31.295814514160156,21.725582122802734,1.979489803314209,-0.2180924415588379,0.06821155548095703,4.441962242126465,7.632209300994873,4.474305152893066
5_20251106_215133,1762437057168,5,0.1361769139766693,-0.3225001394748688,-0.4303394854068756,-0.832020103931427,0.9886980056762695,2.861621856689453,1.5591572523117065,6.711137771606445,7.430875301361084,5.124283313751221,-0.6662930846214294,1.3137561082839966,1.1477460861206055,-7.143824577331543,-31.431434631347656,21.09450912475586,1.815340518951416,-0.16106748580932617,0.5199828147888184,4.895797252655029,7.59194278717041,4.604300498962402
5_20251106_215133,1762437057188,5,0.14858224987983704,-0.31739509105682373,-0.41995126008987427,-0.8371527194976807,1.00108802318573,2.858325242996216,1.607519507408142,6.790143013000488,7.429677963256836,5.7563252449035645,-0.6662930846214294,1.3137561082839966,1.1477460861206055,-8.371576309204102,-31.53070068359375,20.436214447021484,1.5154767036437988,-0.12981224060058594,0.9216198921203613,5.2746663093566895,7.559490203857422,4.834705352783203
5_20251106_215133,1762437057207,5,0.16057290136814117,-0.3109903633594513,-0.4093976616859436,-0.8425526022911072,1.0165133476257324,2.854790449142456,1.6559873819351196,6.821266174316406,7.355461120605469,6.591865539550781,-0.6461345553398132,1.3901143074035645,1.013966679573059,-9.632164001464844,-31.569297790527344,19.750736236572266,1.2372798919677734,-0.1632232666015625,1.4057283401489258,5.583986282348633,7.518684387207031,5.1861371994018555
5_20251106_215133,1762437057226,5,0.17223356664180756,-0.30444106459617615,-0.3991822898387909,-0.8475285768508911,1.0335665941238403,2.8508002758026123,1.7047324180603027,6.871542453765869,7.190268516540527,7.267001628875732,-0.4983052909374237,1.3656797409057617,1.040233850479126,-10.941383361816406,-31.599327087402344,19.144657135009766,1.0300445556640625,-0.26273250579833984,1.66469144821167,5.841497898101807,7.453001022338867,5.6023101806640625
5_20251106_215133,1762437057245,5,0.18452584743499756,-0.2977310121059418,-0.38998502492904663,-0.8515973687171936,1.0335665941238403,2.8508002758026123,1.7047324180603027,6.871542453765869,7.190268516540527,7.267001628875732,-0.2667875289916992,1.3424668312072754,1.1544655561447144,-12.60627269744873,-30.724105834960938,17.780426025390625,1.0300445556640625,-0.26273250579833984,1.66469144821167,5.841497898101807,7.453001022338867,5.6023101806640625
5_20251106_215133,1762437057264,5,0.1982673555612564,-0.29110845923423767,-0.3822072744369507,-0.8543204665184021,1.0792080163955688,2.837407112121582,1.8133858442306519,7.5754075050354,6.626458168029785,6.6840386390686035,-0.2667875289916992,1.3424668312072754,1.1544655561447144,-13.849753379821777,-30.685623168945312,17.00240707397461,1.1843981742858887,-0.5657610893249512,0.6371464729309082,6.391009330749512,7.192219257354736,6.046892166137695
5_20251106_215133,1762437057284,5,0.2135024219751358,-0.28576210141181946,-0.3754590153694153,-0.8554456830024719,1.1067317724227905,2.8287365436553955,1.8647675514221191,8.201464653015137,6.57977294921875,6.5559539794921875,-0.09941059350967407,1.2270134687423706,1.3322272300720215,-15.072577476501465,-30.484046936035156,16.322925567626953,1.4483642578125,-0.489957332611084,0.40724945068359375,6.753100395202637,7.069730281829834,6.148704528808594
5_20251106_215133,1762437057302,5,0.2293068915605545,-0.2819708585739136,-0.3691098988056183,-0.8553763031959534,1.1382291316986084,2.8189778327941895,1.9146614074707031,8.703027725219727,6.515132904052734,6.542786598205566,0.0038255397230386734,0.9967174530029297,1.4617304801940918,-16.234272003173828,-30.278228759765625,15.61886215209961,1.5599417686462402,-0.4436779022216797,0.3152656555175781,7.143085956573486,6.958810806274414,6.227520942687988
5_20251106_215133,1762437057321,5,0.24476902186870575,-0.2789214551448822,-0.36318978667259216,-0.8546251654624939,1.1736401319503784,2.8076720237731934,1.9633787870407104,9.143543243408203,6.217067241668701,6.707979679107666,0.026427533477544785,0.9484591484069824,1.370100736618042,-17.36474609375,-29.945526123046875,14.945451736450195,1.6003656387329102,-0.5933947563171387,0.384366512298584,7.543177604675293,6.81046199798584,6.323613166809082
5_20251106_215133,1762437057341,5,0.2592581510543823,-0.2759305536746979,-0.3577432334423065,-0.8536201119422913,1.2147167921066284,2.793623447418213,2.0130717754364014,9.406892776489258,5.908228397369385,6.644536018371582,0.09728784114122391,0.9374635219573975,1.2283802032470703,-18.556331634521484,-29.605445861816406,14.391500473022461,1.4909725189208984,-0.7217869758605957,0.25673818588256836,7.915920257568359,6.6300153732299805,6.387797832489014
5_20251106_215133,1762437057360,5,0.27278804779052734,-0.2723555266857147,-0.35319289565086365,-0.8524458408355713,1.2562206983566284,2.7782022953033447,2.0581247806549072,9.53138542175293,5.6305131912231445,6.462584495544434,0.1901392638683319,0.9136397838592529,1.0756640434265137,-19.671886444091797,-29.210235595703125,13.82802963256836,1.2923717498779297,-0.7996015548706055,0.0598292350769043,8.239013671875,6.43011474609375,6.402755260467529
5_20251106_215133,1762437057379,5,0.28516146540641785,-0.2682638168334961,-0.349775105714798,-0.8511021137237549,1.2994414567947388,2.760688543319702,2.1002748012542725,9.621164321899414,5.386314868927002,6.165716171264648,0.22007164359092712,0.9063094854354858,0.9272239804267883,-20.746131896972656,-28.713401794433594,13.389789581298828,1.1057205200195312,-0.8350400924682617,-0.18963146209716797,8.515443801879883,6.221354961395264,6.355347633361816
5_20251106_215133,1762437057400,5,0.29627254605293274,-0.2637151777744293,-0.3469332754611969,-0.8498907089233398,1.2994414567947388,2.760688543319702,2.1002748012542725,9.621164321899414,5.386314868927002,6.165716171264648,0.21823903918266296,0.8525533676147461,0.757403552532196,-21.76971435546875,-28.175987243652344,12.981334686279297,1.1057205200195312,-0.8350400924682617,-0.18963146209716797,8.515443801879883,6.221354961395264,6.355347633361816
5_20251106_215133,1762437057419,5,0.3057844936847687,-0.259092777967453,-0.34463825821876526,-0.8488764762878418,1.391667366027832,2.7169132232666016,2.1775431632995605,9.160301208496094,4.88953971862793,5.728793144226074,0.2054108828306198,0.7926886081695557,0.5692571997642517,-21.76971435546875,-28.175987243652344,12.981334686279297,0.3533344268798828,-0.8998603820800781,-0.40616607666015625,8.806966781616211,5.789400100708008,6.1349592208862305
5_20251106_215133,1762437057436,5,0.3135930597782135,-0.2543732821941376,-0.34291133284568787,-0.8481541275978088,1.391667366027832,2.7169132232666016,2.1775431632995605,9.160301208496094,4.88953971862793,5.728793144226074,0.18464148044586182,0.8128471374511719,0.4140975773334503,-22.700931549072266,-27.708778381347656,12.696866989135742,0.3533344268798828,-0.8998603820800781,-0.40616607666015625,8.806966781616211,5.789400100708008,6.1349592208862305
5_20251106_215133,1762437057456,5,0.32006826996803284,-0.249045267701149,-0.3412443995475769,-0.8479887843132019,1.468360185623169,2.6662817001342773,2.235893487930298,8.446859359741211,4.00372314453125,5.2368059158325195,0.102785624563694,0.8104037046432495,0.38233259320259094,-23.57303237915039,-27.274864196777344,12.373510360717773,-0.27988243103027344,-1.197035789489746,-0.6403207778930664,8.726741790771484,5.200758934020996,5.877126693725586
5_20251106_215133,1762437057474,5,0.32606327533721924,-0.2438926249742508,-0.3388914167881012,-0.8481460809707642,1.5015546083450317,2.6385645866394043,2.260422706604004,8.347504615783691,3.9594321250915527,5.561206340789795,-0.026717696338891983,0.6210355758666992,0.4513603150844574,-24.31551742553711,-26.907821655273438,12.080997467041016,-0.3033895492553711,-0.9930615425109863,-0.25273656845092773,8.650894165039062,4.952493667602539,5.813942909240723
5_20251106_215133,1762437057494,5,0.3315957188606262,-0.2409537434577942,-0.335884690284729,-0.8480371832847595,1.5341041088104248,2.608384132385254,2.2865960597991943,8.382219314575195,4.082728385925293,6.388367652893066,-0.07436514645814896,0.41211986541748047,0.5209988951683044,-24.905010223388672,-26.61902618408203,11.860593795776367,-0.21494007110595703,-0.6958122253417969,0.45953941345214844,8.597159385681152,4.77854061126709,5.928828239440918
5_20251106_215133,1762437057513,5,0.33695635199546814,-0.2400001883506775,-0.3329595625400543,-0.8473477959632874,1.5341041088104248,2.608384132385254,2.2865960597991943,8.382219314575195,4.082728385925293,6.388367652893066,-0.05481747165322304,0.30521854758262634,0.5197771787643433,-25.369834899902344,-26.283676147460938,11.551273345947266,-0.21494007110595703,-0.6958122253417969,0.45953941345214844,8.597159385681152,4.77854061126709,5.928828239440918
5_20251106_215133,1762437057532,5,0.3418935239315033,-0.23978377878665924,-0.33042362332344055,-0.8464235067367554,1.5949960947036743,2.54723858833313,2.344918727874756,8.44925308227539,4.439448833465576,7.159267425537109,-0.04443277418613434,0.26856666803359985,0.4312017858028412,-25.801712036132812,-25.99724578857422,11.35049819946289,-0.09485149383544922,-0.1949930191040039,0.830958366394043,8.54410457611084,4.63444185256958,6.328309059143066
5_20251106_215133,1762437057551,5,0.34610459208488464,-0.23943676054477692,-0.32830268144607544,-0.8456352353096008,1.6216700077056885,2.5188562870025635,2.3751285076141357,8.348701477050781,4.426280975341797,7.275381088256836,-0.022441644221544266,0.31010547280311584,0.27420952916145325,-26.25908660888672,-25.748733520507812,11.012786865234375,-0.15632247924804688,-0.16652870178222656,0.757657527923584,8.505023956298828,4.592809677124023,6.517723560333252
5_20251106_215133,1762437057570,5,0.3492336869239807,-0.23813574016094208,-0.32658201456069946,-0.8453823924064636,1.6459934711456299,2.4912424087524414,2.4052135944366455,8.134429931640625,4.355655670166016,7.02280330657959,-0.010224348865449429,0.38035494089126587,0.11721730977296829,-26.55208969116211,-25.590362548828125,10.760929107666016,-0.2964754104614258,-0.18972301483154297,0.40406370162963867,8.43090534210205,4.545378684997559,6.618739604949951
5_20251106_215133,1762437057590,5,0.35140129923820496,-0.23569126427173615,-0.32508596777915955,-0.8457457423210144,1.6682802438735962,2.462538719177246,2.435981273651123,7.760950088500977,4.186871528625488,6.843245983123779,-0.010835213586688042,0.35103341937065125,0.01703549176454544,-26.84307861328125,-25.394454956054688,10.523378372192383,-0.5359640121459961,-0.2868056297302246,0.17960500717163086,8.296914100646973,4.473677158355713,6.663640975952148
5_20251106_215133,1762437057613,5,0.35265016555786133,-0.23318170011043549,-0.32392579317092896,-0.8463664650917053,1.6878856420516968,2.430638551712036,2.468710422515869,7.295298099517822,3.955841064453125,6.820502281188965,-0.010835213586688042,0.35103341937065125,0.01703549176454544,-27.1629638671875,-25.27588653564453,10.323812484741211,-0.801292896270752,-0.41426897048950195,0.1254887580871582,8.096590995788574,4.370110034942627,6.695013523101807
5_20251106_215133,1762437057628,5,0.3535212576389313,-0.23113414645195007,-0.3230929374694824,-0.8468829393386841,1.6991524696350098,2.407515287399292,2.491564989089966,6.92540979385376,3.813392162322998,6.819304943084717,0.008101590909063816,0.2190866321325302,0.03658316284418106,-27.467945098876953,-25.106430053710938,10.13930892944336,-0.9369449615478516,-0.4453740119934082,0.09943294525146484,7.862354755401611,4.258766174316406,6.719871997833252
5_20251106_215133,1762437057647,5,0.3546268939971924,-0.22959508001804352,-0.32243531942367554,-0.847089946269989,1.708656907081604,2.3816170692443848,2.5160765647888184,6.832039833068848,3.7774810791015625,6.754664421081543,0.011155917309224606,0.18671080470085144,0.11966076493263245,-27.652080535888672,-24.95360565185547,9.90511703491211,-0.8242521286010742,-0.3850278854370117,0.027833938598632812,7.656291961669922,4.162508964538574,6.72683048248291
5_20251106_215133,1762437057665,5,0.35633355379104614,-0.2285086065530777,-0.3217000961303711,-0.8469470143318176,1.7157684564590454,2.356221914291382,2.5392866134643555,6.877528190612793,3.8409242630004883,6.696009159088135,0.011155917309224606,0.18671080470085144,0.11966076493263245,-27.891796112060547,-24.917648315429688,9.734169006347656,-0.6230111122131348,-0.25726795196533203,-0.024657249450683594,7.500539302825928,4.09819221496582,6.720666408538818
5_20251106_215133,1762437057685,5,0.3584129214286804,-0.22810392081737518,-0.32091739773750305,-0.8464755415916443,1.7216466665267944,2.3271853923797607,2.565020799636841,6.902666091918945,3.8325448036193848,6.723541259765625,0.0038255397230386734,0.13417643308639526,0.19296452403068542,-28.031497955322266,-24.82550811767578,9.608749389648438,-0.4782986640930176,-0.21251773834228516,0.002300262451171875,7.380964756011963,4.04506254196167,6.721240997314453
5_20251106_215133,1762437057704,5,0.3604024052619934,-0.22831225395202637,-0.32038378715515137,-0.8457764983177185,1.725216031074524,2.3017497062683105,2.5874056816101074,6.840419292449951,3.8708505630493164,6.818107604980469,0.007490728981792927,0.06453786045312881,0.21067959070205688,-28.16122817993164,-24.77037811279297,9.496543884277344,-0.432436466217041,-0.13936948776245117,0.07749366760253906,7.272855758666992,4.010220050811768,6.74061393737793
5_20251106_215133,1762437057724,5,0.3619362413883209,-0.22865024209022522,-0.3200632929801941,-0.8451513051986694,1.727012276649475,2.2758612632751465,2.610128164291382,6.689591407775879,3.861274242401123,6.851625442504883,-0.005948295816779137,0.05048796907067299,0.08300888538360596,-28.241512298583984,-24.69951629638672,9.386564254760742,-0.466611385345459,-0.1191568374633789,0.08880901336669922,7.156202793121338,3.980431079864502,6.762816429138184
5_20251106_215133,1762437057742,5,0.3628665804862976,-0.22858186066150665,-0.3197527825832367,-0.8448883295059204,1.7269909381866455,2.254395008087158,2.6282825469970703,6.486092567443848,3.7248106002807617,6.67446231842041,-0.019387319684028625,0.09935715049505234,-0.011064286343753338,-28.305477142333984,-24.552650451660156,9.29217529296875,-0.5360879898071289,-0.2044963836669922,-0.07068300247192383,7.022180557250977,3.929306983947754,6.745145320892334
5_20251106_215133,1762437057760,5,0.3631387948989868,-0.22785916924476624,-0.31935492157936096,-0.8451170325279236,1.72474205493927,2.2306246757507324,2.646713972091675,6.210771560668945,3.5727853775024414,6.437446594238281,-0.06275871396064758,0.13478729128837585,-0.0990288034081459,-28.335803985595703,-24.453765869140625,9.21171760559082,-0.6491270065307617,-0.28521728515625,-0.24615907669067383,6.859898567199707,3.8580026626586914,6.683605670928955
5_20251106_215133,1762437057780,5,0.36281299591064453,-0.22669875621795654,-0.3186940550804138,-0.8458182215690613,1.72474205493927,2.2306246757507324,2.646713972091675,6.210771560668945,3.5727853775024414,6.437446594238281,-0.13545161485671997,0.15616755187511444,-0.16805653274059296,-28.416889190673828,-24.395599365234375,9.114990234375,-0.6491270065307617,-0.28521728515625,-0.24615907669067383,6.859898567199707,3.8580026626586914,6.683605670928955
5_20251106_215133,1762437057799,5,0.3617885410785675,-0.22542420029640198,-0.3175037205219269,-0.8470445275306702,1.7114589214324951,2.180474281311035,2.678799867630005,5.407551288604736,3.0712218284606934,6.293800354003906,-0.2258596122264862,0.19587378203868866,-0.1967671662569046,-28.466339111328125,-24.411331176757812,9.112764358520508,-1.0055384635925293,-0.5464420318603516,-0.25215673446655273,6.413089752197266,3.617663860321045,6.545957088470459
5_20251106_215133,1762437057819,5,0.3604956865310669,-0.22402913868427277,-0.31548017263412476,-0.8487202525138855,1.7114589214324951,2.180474281311035,2.678799867630005,5.407551288604736,3.0712218284606934,6.293800354003906,-0.3107697665691376,0.22091922163963318,-0.1656130701303482,-28.401390075683594,-24.343902587890625,9.048954010009766,-1.0055384635925293,-0.5464420318603516,-0.25215673446655273,6.413089752197266,3.617663860321045,6.545957088470459
5_20251106_215133,1762437057840,5,0.3592880368232727,-0.22279523313045502,-0.3125377297401428,-0.8506436347961426,1.6834194660186768,2.125030279159546,2.7063262462615967,4.87845516204834,2.7719593048095703,6.615806579589844,-0.3810192346572876,0.2355799823999405,-0.049548763781785965,-28.38772201538086,-24.341087341308594,8.846700668334961,-1.0028510093688965,-0.5420169830322266,0.09430932998657227,5.881306171417236,3.313976287841797,6.5214972496032715
5_20251106_215133,1762437057860,5,0.3589332401752472,-0.22198890149593353,-0.308665931224823,-0.8524160981178284,1.6667252779006958,2.097982883453369,2.7197108268737793,5.25073766708374,3.1621975898742676,6.687629699707031,-0.3810192346572876,0.2355799823999405,-0.049548763781785965,-28.38772201538086,-24.341087341308594,8.846700668334961,-0.5044550895690918,-0.12142276763916016,0.1329059600830078,5.755192756652832,3.2836203575134277,6.554723739624023
5_20251106_215133,1762437057876,5,0.36015355587005615,-0.2214956283569336,-0.3039208948612213,-0.8537336587905884,1.6667252779006958,2.097982883453369,2.7197108268737793,5.25073766708374,3.1621975898742676,6.687629699707031,-0.41950371861457825,0.27406445145606995,0.13859756290912628,-28.289257049560547,-24.345001220703125,8.620582580566406,-0.5044550895690918,-0.12142276763916016,0.1329059600830078,5.755192756652832,3.2836203575134277,6.554723739624023
5_20251106_215133,1762437057894,5,0.36262816190719604,-0.22157153487205505,-0.2986733615398407,-0.8545180559158325,1.6515483856201172,2.0740439891815186,2.733106851577759,5.979740619659424,3.861274242401123,6.7786054611206055,-0.4469926059246063,0.2777296304702759,0.3059745132923126,-28.24024200439453,-24.364646911621094,8.392240524291992,0.17963838577270508,0.46212291717529297,0.17910528182983398,5.800102233886719,3.39915132522583,6.5995001792907715
5_20251106_215133,1762437057915,5,0.3657885193824768,-0.22238577902317047,-0.2929867208003998,-0.8549281358718872,1.641701579093933,2.057934284210205,2.744906425476074,6.8966803550720215,4.865598678588867,7.046744346618652,-0.5312919020652771,0.24168862402439117,0.46357759833335876,-28.25286102294922,-24.40081787109375,8.161182403564453,0.8772625923156738,1.1731579303741455,0.35779571533203125,6.019417762756348,3.6924407482147217,6.688948631286621
5_20251106_215133,1762437057932,5,0.3692508935928345,-0.22349561750888824,-0.2872670292854309,-0.8550913333892822,1.6379261016845703,2.0449836254119873,2.7744016647338867,9.08368968963623,7.3434906005859375,8.011566162109375,-0.5276267528533936,0.24352121353149414,0.45807984471321106,-28.335594177246094,-24.402870178222656,7.806325912475586,2.1407876014709473,2.5456295013427734,0.9384088516235352,6.942902088165283,4.797861099243164,7.07315731048584
5_20251106_215133,1762437057953,5,0.37242740392684937,-0.22462181746959686,-0.2817917466163635,-0.8552404642105103,1.6505402326583862,2.05464768409729,2.796729564666748,10.212507247924805,8.453155517578125,8.514327049255371,-0.5276267528533936,0.24352121353149414,0.45807984471321106,-28.392658233642578,-24.389968872070312,7.371616363525391,2.6156845092773438,2.9242353439331055,1.1529359817504883,7.596822738647461,5.5289201736450195,7.361391067504883
5_20251106_215133,1762437057970,5,0.3753059208393097,-0.22528508305549622,-0.27725762128829956,-0.85528963804245,1.6505402326583862,2.05464768409729,2.796729564666748,10.212507247924805,8.453155517578125,8.514327049255371,-0.38407355546951294,0.09996801614761353,0.3243004381656647,-28.52103042602539,-24.356178283691406,6.880428314208984,2.6156845092773438,2.9242353439331055,1.1529359817504883,7.596822738647461,5.5289201736450195,7.361391067504883
5_20251106_215133,1762437057990,5,0.377305269241333,-0.2266625612974167,-0.27428945899009705,-0.8550029993057251,1.7008005380630493,2.102269172668457,2.8556227684020996,12.624561309814453,10.694031715393066,11.770301818847656,-0.22280526161193848,-0.12727366387844086,0.26382485032081604,-28.68514633178711,-24.30046844482422,6.469394683837891,3.4364776611328125,3.4839839935302734,3.1348514556884766,9.18808364868164,7.210047721862793,8.63545036315918
5_20251106_215133,1762437058009,5,0.3785021901130676,-0.22906945645809174,-0.27370643615722656,-0.8540187478065491,1.7445653676986694,2.143526554107666,2.9024300575256348,14.403377532958984,11.940160751342773,13.643684387207031,0.32697296142578125,-0.5451050996780396,0.007261653430759907,-28.925987243652344,-24.300827026367188,6.1624908447265625,4.172235488891602,3.784090042114258,4.006587028503418,10.231142044067383,8.156070709228516,9.637097358703613
5_20251106_215133,1762437058029,5,0.377754271030426,-0.2320905327796936,-0.2796882092952728,-0.8515927195549011,1.805431604385376,2.197983503341675,2.966078996658325,15.856595039367676,12.49798583984375,15.177103042602539,1.3385649919509888,-1.2219432592391968,-0.5290775299072266,-29.189075469970703,-24.253494262695312,5.950277328491211,4.500362396240234,3.473531723022461,4.432004928588867,11.356232643127441,9.024454116821289,10.745098114013672
5_20251106_215133,1762437058049,5,0.3730182647705078,-0.23542360961437225,-0.2973802387714386,-0.8467574119567871,1.8794101476669312,2.259312868118286,3.042431592941284,16.67058753967285,12.180768013000488,15.970746994018555,2.541968822479248,-1.8957270383834839,-1.2798303365707397,-29.383220672607422,-24.23028564453125,6.118934631347656,4.251483917236328,2.5250511169433594,4.180519104003906,12.419103622436523,9.655716896057129,11.790227890014648
5_20251106_215133,1762437058067,5,0.3627915382385254,-0.23762278258800507,-0.32824867963790894,-0.8391487002372742,1.9506752490997314,2.315432071685791,3.1153690814971924,15.673446655273438,11.151305198669434,14.899388313293457,2.541968822479248,-1.8957270383834839,-1.2798303365707397,-29.40329360961914,-24.31140899658203,6.616962432861328,2.6034746170043945,1.1964712142944336,2.48732852935791,13.069972038269043,9.954833984375,12.412059783935547
5_20251106_215133,1762437058086,5,0.3463364541530609,-0.2357829511165619,-0.3691513240337372,-0.8295690417289734,2.019435167312622,2.368407964706421,3.183774948120117,13.499605178833008,9.817791938781738,12.052804946899414,3.934129238128662,-1.9397093057632446,-2.919391393661499,-29.156024932861328,-24.34130096435547,7.518543243408203,0.3437070846557617,-0.1096334457397461,-0.28740406036376953,13.155898094177246,9.927425384521484,12.340209007263184
5_20251106_215133,1762437058105,5,0.32505062222480774,-0.22759579122066498,-0.41239920258522034,-0.8200421929359436,2.0854578018188477,2.419921636581421,3.248422622680664,10.998968124389648,8.478293418884277,9.853824615478516,3.934129238128662,-1.9397093057632446,-2.919391393661499,-28.705657958984375,-24.37482452392578,8.887752532958984,-1.7255439758300781,-1.1593055725097656,-1.9891080856323242,12.724512100219727,9.637598991394043,11.84293270111084
5_20251106_215133,1762437058123,5,0.30098509788513184,-0.2139333337545395,-0.45203927159309387,-0.811973512172699,2.1318838596343994,2.457512140274048,3.2961926460266113,8.653949737548828,7.016695976257324,8.795633316040039,3.282947540283203,-0.9757647514343262,-3.4484002590179443,-27.762832641601562,-24.43194580078125,10.870729446411133,-3.256450653076172,-2.0967226028442383,-2.4378395080566406,11.910400390625,9.113418579101562,11.23347282409668
5_20251106_215133,1762437058143,5,0.2768312394618988,-0.19725576043128967,-0.48615121841430664,-0.8050538301467896,2.1318838596343994,2.457512140274048,3.2961926460266113,8.653949737548828,7.016695976257324,8.795633316040039,3.095412254333496,-0.7198124527931213,-3.218104124069214,-26.570308685302734,-24.55042266845703,13.132747650146484,-3.256450653076172,-2.0967226028442383,-2.4378395080566406,11.910400390625,9.113418579101562,11.23347282409668
5_20251106_215133,1762437058162,5,0.2546602785587311,-0.17983999848365784,-0.5165697932243347,-0.7974718809127808,2.166616201400757,2.4882636070251465,3.3386406898498535,6.697970390319824,5.607769012451172,7.694348335266113,3.095412254333496,-0.7198124527931213,-3.218104124069214,-25.154388427734375,-24.567916870117188,15.527088165283203,-4.169943809509277,-2.8045196533203125,-2.8312997817993164,10.867914199829102,8.412288665771484,10.52564811706543
5_20251106_215133,1762437058182,5,0.23562490940093994,-0.16369611024856567,-0.544475257396698,-0.7881821990013123,2.174783945083618,2.5039708614349365,3.368328332901001,3.732879161834717,3.3034491539001465,4.853749752044678,3.0135562419891357,-0.624517560005188,-2.7917206287384033,-23.506301879882812,-24.53467559814453,18.134281158447266,-4.747033596038818,-3.4246039390563965,-3.777108669281006,8.479912757873535,6.728053092956543,8.630858421325684
5_20251106_215133,1762437058200,5,0.22000004351139069,-0.15094834566116333,-0.5686273574829102,-0.7781243324279785,2.174783945083618,2.5039708614349365,3.368328332901001,3.732879161834717,3.3034491539001465,4.853749752044678,2.427736759185791,-0.652617335319519,-1.6903314590454102,-21.66748809814453,-24.36273193359375,20.629825592041016,-4.747033596038818,-3.4246039390563965,-3.777108669281006,8.479912757873535,6.728053092956543,8.630858421325684
5_20251106_215133,1762437058220,5,0.20758715271949768,-0.1416696459054947,-0.5895269513130188,-0.7676556706428528,2.1570229530334473,2.4944753646850586,3.364989757537842,3.4048876762390137,2.574446201324463,4.506605625152588,2.4112436771392822,-0.7112603187561035,-1.32075834274292,-19.821029663085938,-24.064407348632812,23.04690933227539,-4.0600199699401855,-3.322885513305664,-3.2994022369384766,7.464907646179199,5.897331714630127,7.8060078620910645
5_20251106_215133,1762437058241,5,0.1973346769809723,-0.1349269300699234,-0.60945063829422,-0.755925714969635,2.0880353450775146,2.4447669982910156,3.3177356719970703,3.3258824348449707,2.1075968742370605,1.7749392986297607,2.4533934593200684,-0.8297680616378784,-1.1228381395339966,-18.055660247802734,-23.707916259765625,25.367267608642578,-2.665064811706543,-2.447072982788086,-4.143918991088867,5.990947246551514,4.5546698570251465,5.918858528137207
5_20251106_215133,1762437058259,5,0.1877392679452896,-0.1301162838935852,-0.6293356418609619,-0.7428057193756104,2.0475926399230957,2.413243055343628,3.277204751968384,3.018240451812744,1.799955129623413,0.2355337142944336,2.4533934593200684,-0.8297680616378784,-1.1228381395339966,-16.327091217041016,-23.17597198486328,27.405517578125,-2.3781657218933105,-2.2037718296051025,-4.54665994644165,5.396406173706055,4.003726959228516,4.782193660736084
5_20251106_215133,1762437058278,5,0.17802110314369202,-0.12705399096012115,-0.6474440693855286,-0.73005610704422,1.9989001750946045,2.374636173248291,3.221761703491211,2.4304893016815186,1.454007863998413,-0.611977219581604,1.6360560655593872,-0.8218268752098083,-0.8210708498954773,-16.327091217041016,-23.17597198486328,27.405517578125,-2.3727333545684814,-2.0397753715515137,-4.31533670425415,4.80322265625,3.4937832355499268,3.703359365463257
5_20251106_215133,1762437058297,5,0.16932302713394165,-0.12539376318454742,-0.661042332649231,-0.720159113407135,1.9455183744430542,2.333000421524048,3.156952381134033,2.20664119720459,1.6862354278564453,-0.7209087610244751,0.9225661158561707,-0.5304443836212158,-0.5651185512542725,-14.886393547058105,-22.397491455078125,29.166725158691406,-2.0772652626037598,-1.4460382461547852,-3.539414405822754,4.28390645980835,3.1322736740112305,2.8185057640075684
5_20251106_215133,1762437058316,5,0.1632826030254364,-0.12440504878759384,-0.6689413785934448,-0.7144085764884949,1.894476056098938,2.2938716411590576,3.0929622650146484,3.066122531890869,2.459529399871826,0.5192344188690186,0.35751619935035706,-0.37894994020462036,-0.32749220728874207,-13.675847053527832,-21.63220977783203,30.729385375976562,-0.9742269515991211,-0.5381956100463867,-1.8394169807434082,4.04034948348999,2.997725009918213,2.3586513996124268
5_20251106_215133,1762437058334,5,0.15912191569805145,-0.12470847368240356,-0.6724379658699036,-0.7120078802108765,1.894476056098938,2.2938716411590576,3.0929622650146484,3.066122531890869,2.459529399871826,0.5192344188690186,0.329416424036026,-0.2726594805717468,-0.2584644854068756,-12.586060523986816,-20.861778259277344,32.233341217041016,-0.9742269515991211,-0.5381956100463867,-1.8394169807434082,4.04034948348999,2.997725009918213,2.3586513996124268
5_20251106_215133,1762437058353,5,0.15616163611412048,-0.12486298382282257,-0.6752511262893677,-0.7099709510803223,1.7905110120773315,2.215892791748047,2.953115701675415,3.383340835571289,3.0185513496398926,-0.1211870014667511,0.4748022258281708,-0.3300807476043701,-0.2932837903499603,-11.632981300354004,-20.18488311767578,33.4191780090332,-0.45438575744628906,0.054698944091796875,-1.7234643697738647,3.837726593017578,2.9638524055480957,1.602277398109436
5_20251106_215133,1762437058372,5,0.1527717411518097,-0.12508800625801086,-0.6790949702262878,-0.7069963216781616,1.74082350730896,2.1821465492248535,2.8802356719970703,3.491075038909912,3.749948740005493,-0.39890241622924805,0.35324016213417053,-0.48829472064971924,-0.19798889756202698,-10.867342948913574,-19.61901092529297,34.460384368896484,-0.27732133865356445,0.6288769245147705,-1.600943922996521,3.7683963775634766,3.1210718154907227,1.202041506767273
5_20251106_215133,1762437058391,5,0.14880768954753876,-0.12711948156356812,-0.6823660731315613,-0.7043248414993286,1.694715142250061,2.1531989574432373,2.807612180709839,4.167407989501953,4.25510311126709,-0.03260534256696701,0.35324016213417053,-0.48829472064971924,-0.19798889756202698,-10.176058769226074,-19.105972290039062,35.281333923339844,0.31920933723449707,0.9072251319885254,-0.9877175092697144,3.848198652267456,3.3478779792785645,0.9551121592521667
5_20251106_215133,1762437058411,5,0.1438920497894287,-0.13191071152687073,-0.685028076171875,-0.7018768787384033,1.6515859365463257,2.1279773712158203,2.7309489250183105,4.828179359436035,4.5735182762146,-0.37376439571380615,0.30620357394218445,-0.9892038106918335,0.03291797265410423,-9.501511573791504,-18.692703247070312,35.95100021362305,0.7839846611022949,0.9805121421813965,-1.0631012916564941,4.04419469833374,3.593006134033203,0.689336895942688
5_20251106_215133,1762437058431,5,0.13822613656520844,-0.1388740986585617,-0.6882763504981995,-0.698486328125,1.6515859365463257,2.1279773712158203,2.7309489250183105,4.828179359436035,4.5735182762146,-0.37376439571380615,0.22984549403190613,-1.1602458953857422,0.15753436088562012,-8.98337459564209,-18.476783752441406,36.556758880615234,0.7839846611022949,0.9805121421813965,-1.0631012916564941,4.04419469833374,3.593006134033203,0.689336895942688
5_20251106_215133,1762437058449,5,0.13215166330337524,-0.14804084599018097,-0.6910057067871094,-0.6950762271881104,1.5938451290130615,2.1019036769866943,2.5820224285125732,7.5263285636901855,6.728207111358643,-1.375694751739502,-0.0309937484562397,-1.3337315320968628,0.16425389051437378,-8.517643928527832,-18.361801147460938,36.888118743896484,2.4733386039733887,2.1716256141662598,-1.3865482807159424,5.052989959716797,4.556581497192383,0.010853469371795654
5_20251106_215133,1762437058469,5,0.12469454854726791,-0.15881575644016266,-0.6921715140342712,-0.6929122805595398,1.581719160079956,2.101274251937866,2.5040552616119385,8.881388664245605,7.277653217315674,-1.0429151058197021,-0.29000040888786316,-1.5463124513626099,-0.055657412856817245,-7.931279182434082,-18.27533721923828,37.10194396972656,3.0627188682556152,2.1768574714660645,-0.8430148363113403,5.81866979598999,5.100795745849609,-0.19990023970603943
5_20251106_215133,1762437058488,5,0.11403656005859375,-0.17008991539478302,-0.6920588612556458,-0.6921846866607666,1.581719160079956,2.101274251937866,2.5040552616119385,8.881388664245605,7.277653217315674,-1.0429151058197021,-0.443938285112381,-1.7191871404647827,-0.42645230889320374,-7.2519636154174805,-18.269874572753906,37.26377868652344,3.0627188682556152,2.1768574714660645,-0.8430148363113403,5.81866979598999,5.100795745849609,-0.19990023970603943
5_20251106_215133,1762437058506,5,0.09958953410387039,-0.18046241998672485,-0.6913828253746033,-0.6924630403518677,1.5871731042861938,2.119316816329956,2.3658230304718018,9.215364456176758,7.920468807220459,-0.6107801795005798,-0.5667220950126648,-1.8938944339752197,-0.8528358340263367,-6.538402557373047,-18.299972534179688,37.45332717895508,2.132514476776123,1.8507494926452637,-0.22867965698242188,7.082849979400635,6.069719314575195,-0.38210052251815796
5_20251106_215133,1762437058525,5,0.08103690296411514,-0.18929806351661682,-0.6904736757278442,-0.6934301257133484,1.5968962907791138,2.1371281147003174,2.3016483783721924,8.448057174682617,8.372953414916992,0.22595733404159546,-0.7542576193809509,-1.962922215461731,-1.2474545240402222,-5.511653900146484,-18.39556884765625,37.478065490722656,1.092165470123291,1.8425874710083008,0.4864462912082672,7.355891704559326,6.530365943908691,-0.26048895716667175
5_20251106_215133,1762437058545,5,0.0590091198682785,-0.1960221379995346,-0.6887303590774536,-0.6955168843269348,1.5968962907791138,2.1371281147003174,2.3016483783721924,8.448057174682617,8.372953414916992,0.22595733404159546,-0.8782630562782288,-1.8273102045059204,-1.5858736038208008,-4.295284271240234,-18.590118408203125,37.37311553955078,1.092165470123291,1.8425874710083008,0.4864462912082672,7.355891704559326,6.530365943908691,-0.26048895716667175
5_20251106_215133,1762437058564,5,0.03527344390749931,-0.1994398683309555,-0.686244547367096,-0.6986042857170105,1.6117981672286987,2.1865532398223877,2.1884350776672363,5.900735855102539,8.347816467285156,0.8939108848571777,-0.8782630562782288,-1.8273102045059204,-1.5858736038208008,-2.9718751907348633,-18.839096069335938,37.14961242675781,-1.1630487442016602,1.1384611129760742,0.7460939884185791,7.063784599304199,7.209355354309082,0.14781689643859863
5_20251106_215133,1762437058582,5,0.010638599283993244,-0.20034947991371155,-0.6835604906082153,-0.7017776966094971,1.6117981672286987,2.1865532398223877,2.1884350776672363,5.900735855102539,8.347816467285156,0.8939108848571777,-0.8660457730293274,-1.8547991514205933,-1.8259434700012207,-1.4037437438964844,-19.059226989746094,36.895633697509766,-1.1630487442016602,1.1384611129760742,0.7460939884185791,7.063784599304199,7.209355354309082,0.14781689643859863
5_20251106_215133,1762437058602,5,0.014999051578342915,0.20164020359516144,0.6807999610900879,0.7040083408355713,1.609010100364685,2.213470697402954,2.140784740447998,4.324221611022949,8.206563949584961,0.8891226649284363,-0.8660457730293274,-1.8547991514205933,-1.8259434700012207,0.5116963386535645,-19.403770446777344,36.32831954956055,-2.191650390625,0.797767162322998,0.593044638633728,6.515872001647949,7.408796787261963,0.29607805609703064
5_20251106_215133,1762437058621,5,0.041096851229667664,0.20497581362724304,0.6779109835624695,0.7047926187515259,1.5940951108932495,2.2447807788848877,2.0945892333984375,2.9392354488372803,8.317890167236328,1.440962314605713,-0.6467453837394714,-2.286069631576538,-1.5168458223342896,2.1475844383239746,-18.88812255859375,35.03411865234375,-2.861309289932251,0.7272744178771973,0.9159073829650879,5.800544738769531,7.590615749359131,0.525054931640625
5_20251106_215133,1762437058641,5,0.06734012812376022,0.21048980951309204,0.6750279664993286,0.7039151787757874,1.538987636566162,2.3027939796447754,2.0325896739959717,0.8240490555763245,8.717703819274902,2.805598735809326,-0.5068573355674744,-2.3129477500915527,-1.446596384048462,4.265431880950928,-19.10546112060547,34.328346252441406,-3.3542680740356445,0.762514591217041,1.5591425895690918,4.178317070007324,7.955189228057861,1.2464561462402344
5_20251106_215133,1762437058659,5,0.09299131482839584,0.2162817120552063,0.6724146008491516,0.7017360329627991,1.4978493452072144,2.333265781402588,2.0119102001190186,-0.36102986335754395,9.251587867736816,3.2042160034179688,-0.4885314404964447,-2.104642868041992,-1.4685875177383423,6.435943603515625,-19.25629425048828,33.57179260253906,-3.6314775943756104,1.037118911743164,1.5662078857421875,3.2704477310180664,8.214468955993652,1.6380081176757812
5_20251106_215133,1762437058679,5,0.11740222573280334,0.22012671828269958,0.6696990728378296,0.6994741559028625,1.4398996829986572,2.3696823120117188,1.9961605072021484,-1.507803201675415,9.613097190856934,3.6375479698181152,-0.5074682235717773,-1.7698888778686523,-1.5516650676727295,8.638864517211914,-19.27862548828125,32.68370056152344,-3.822600841522217,1.1189031600952148,1.5996317863464355,2.3147976398468018,8.494194030761719,2.0379161834716797
5_20251106_215133,1762437058699,5,0.1402307003736496,0.22073222696781158,0.667064368724823,0.6975942850112915,1.3738282918930054,2.405397891998291,1.987080693244934,-2.70485258102417,9.532894134521484,3.909278392791748,-0.412173330783844,-1.401537537574768,-1.603588581085205,10.810258865356445,-19.215301513671875,31.782461166381836,-4.015720367431641,0.8309602737426758,1.4970898628234863,1.3108675479888916,8.701933860778809,2.4121885299682617
5_20251106_215133,1762437058716,5,0.16109803318977356,0.21855008602142334,0.6652748584747314,0.6954801082611084,1.3018139600753784,2.438742160797119,1.981755256652832,-3.7857882976531982,9.189340591430664,3.5681192874908447,-0.412173330783844,-1.401537537574768,-1.603588581085205,10.810258865356445,-19.215301513671875,31.782461166381836,-4.077324867248535,0.3899250030517578,0.9247446060180664,0.2915363907814026,8.799415588378906,2.6433746814727783
5_20251106_215133,1762437058736,5,0.17891184985637665,0.21512660384178162,0.6647807955741882,0.6926597952842712,1.2113769054412842,2.474440097808838,1.9766271114349365,-4.452544212341309,8.964296340942383,2.805598735809326,-0.04687623307108879,-0.9800407886505127,-1.161933422088623,12.940381050109863,-19.005821228027344,31.01759147644043,-3.795264482498169,0.13190460205078125,0.12977910041809082,-0.6572796702384949,8.832391738891602,2.6758196353912354
5_20251106_215133,1762437058756,5,0.19347824156284332,0.2129984349012375,0.6648529171943665,0.6893246173858643,1.1134437322616577,2.508699417114258,1.9714511632919312,-4.610555648803711,8.946340560913086,2.575765371322632,0.08262709528207779,-1.0777791738510132,-0.7312737703323364,14.929784774780273,-18.728775024414062,30.072710037231445,-3.162620782852173,0.09115886688232422,-0.08004355430603027,-1.447934865951538,8.855181694030762,2.655808925628662
5_20251106_215133,1762437058774,5,0.2055107206106186,0.21432913839817047,0.6647596955299377,0.685509204864502,1.0280288457870483,2.5369322299957275,1.9670063257217407,-4.3316426277160645,9.113927841186523,2.5350656509399414,0.2316780686378479,-1.1095441579818726,-0.34459641575813293,16.59796905517578,-18.288597106933594,29.49700355529785,-2.3069663047790527,0.20699691772460938,-0.09659457206726074,-2.0246763229370117,8.906930923461914,2.631660223007202
5_20251106_215133,1762437058793,5,0.21488894522190094,0.21858704090118408,0.6647266745567322,0.6813082098960876,0.927011251449585,2.5699310302734375,1.960868000984192,-3.851625680923462,9.38206672668457,2.2465767860412598,0.2316780686378479,-1.1095441579818726,-0.34459641575813293,18.092113494873047,-17.933799743652344,28.804716110229492,-1.461559534072876,0.3801088333129883,-0.30806684494018555,-2.390066146850586,9.001957893371582,2.5546436309814453
5_20251106_215133,1762437058812,5,0.22131794691085815,0.223269522190094,0.6649805307388306,0.677473247051239,0.8329659700393677,2.6005022525787354,1.9541840553283691,-3.4386439323425293,9.28989315032959,2.1376452445983887,0.27382776141166687,-0.6324588060379028,-0.03549887612462044,19.42806053161621,-17.565834045410156,28.268774032592773,-0.8388621807098389,0.2303485870361328,-0.3335988521575928,-2.5997817516326904,9.059544563293457,2.4712440967559814
5_20251106_215133,1762437058831,5,0.22546561062335968,0.22666610777378082,0.6654347777366638,0.674525260925293,0.8329659700393677,2.6005022525787354,1.9541840553283691,-3.4386439323425293,9.28989315032959,2.1376452445983887,0.27382776141166687,-0.6324588060379028,-0.03549887612462044,20.702781677246094,-17.202239990234375,27.77092933654785,-0.8388621807098389,0.2303485870361328,-0.3335988521575928,-2.5997817516326904,9.059544563293457,2.4712440967559814
5_20251106_215133,1762437058851,5,0.22723016142845154,0.22797951102256775,0.6663452386856079,0.6725889444351196,0.6499729752540588,2.6604716777801514,1.9326157569885254,-2.9143362045288086,9.359321594238281,0.8029351234436035,0.2164064645767212,-0.06191113591194153,0.0011530080810189247,21.60993194580078,-16.876785278320312,27.43381690979004,-0.16396689414978027,0.2113933563232422,-1.1992974281311035,-2.7503693103790283,9.147928237915039,2.002232551574707
5_20251106_215133,1762437058870,5,0.22775961458683014,0.22823630273342133,0.667514443397522,0.6711618304252625,0.5677457451820374,2.688138723373413,1.9159948825836182,-2.6007091999053955,9.263558387756348,0.22595733404159546,0.17608937621116638,0.04621191322803497,0.021922409534454346,22.320919036865234,-16.565658569335938,27.251054763793945,0.11972808837890625,0.09250450134277344,-1.4210200309753418,-2.7204372882843018,9.171053886413574,1.646977424621582
5_20251106_215133,1762437058889,5,0.22756628692150116,0.22802633047103882,0.6686980128288269,0.6701197624206543,0.5677457451820374,2.688138723373413,1.9159948825836182,-2.6007091999053955,9.263558387756348,0.22595733404159546,0.1748676598072052,-0.016096286475658417,0.06834813207387924,22.881546020507812,-16.339271545410156,27.04730796813965,0.11972808837890625,0.09250450134277344,-1.4210200309753418,-2.7204372882843018,9.171053886413574,1.646977424621582
5_20251106_215133,1762437058908,5,0.2274179309606552,0.22861671447753906,0.669700562953949,0.6689668297767639,0.417907178401947,2.7404792308807373,1.8686171770095825,-2.3194026947021484,9.392839431762695,-0.4575578570365906,0.13760490715503693,-0.12727366387844086,0.13859756290912628,23.316909790039062,-16.160247802734375,27.013574600219727,0.2620248794555664,0.16396808624267578,-1.3373262882232666,-2.581427574157715,9.22887134552002,0.8797684907913208
5_20251106_215133,1762437058926,5,0.2275838851928711,0.23041707277297974,0.6701560020446777,0.6678356528282166,0.35398808121681213,2.7644362449645996,1.8435566425323486,-2.0967512130737305,9.559229850769043,-0.036196477711200714,-0.008391751907765865,-0.013041961006820202,0.23389245569705963,23.58599090576172,-16.14142608642578,26.88920021057129,0.3877410888671875,0.26428699493408203,-0.7327719926834106,-2.484492301940918,9.294942855834961,0.6965755224227905
5_20251106_215133,1762437058946,5,0.22671499848365784,0.23175761103630066,0.6697111129760742,0.6681135296821594,0.2893196642398834,2.7903966903686523,1.8161861896514893,-1.5628674030303955,9.516136169433594,0.3947412967681885,-0.008391751907765865,-0.013041961006820202,0.23389245569705963,23.76999282836914,-16.10466766357422,26.924116134643555,0.737299919128418,0.1769542694091797,-0.2414674162864685,-2.3001673221588135,9.339181900024414,0.636208713054657
5_20251106_215133,1762437058965,5,0.22412852942943573,0.23230117559432983,0.6689720749855042,0.6695363521575928,0.23435865342617035,2.8137366771698,1.7907824516296387,-1.060106635093689,9.306652069091797,0.3803766965866089,-0.07558687031269073,0.18487820029258728,0.327965646982193,23.855506896972656,-16.08722686767578,26.995393753051758,0.9920486211776733,-0.02602386474609375,-0.20466560125350952,-2.0521552562713623,9.33267593383789,0.5850422978401184
5_20251106_215133,1762437058985,5,0.21990250051021576,0.23290932178497314,0.6687710881233215,0.6709257960319519,0.23435865342617035,2.8137366771698,1.7907824516296387,-1.060106635093689,9.306652069091797,0.3803766965866089,0.1486004739999771,0.2960555851459503,0.544822633266449,23.841018676757812,-16.114349365234375,27.11602210998535,0.9920486211776733,-0.02602386474609375,-0.20466560125350952,-2.0521552562713623,9.33267593383789,0.5850422978401184
5_20251106_215133,1762437059003,5,0.21459271013736725,0.23471932113170624,0.6690696477890015,0.6717161536216736,0.18134263157844543,2.838300943374634,1.7612320184707642,-0.6519128084182739,9.349745750427246,-0.2732122540473938,0.2463388442993164,0.17266090214252472,0.6291219592094421,23.627836227416992,-16.21723175048828,27.254514694213867,1.1201939582824707,0.013655662536621094,-0.6866036653518677,-1.7721067667007446,9.336090087890625,0.4133914113044739
5_20251106_215133,1762437059022,5,0.20931990444660187,0.23823517560958862,0.6695766448974609,0.6716369986534119,0.14170604944229126,2.8585195541381836,1.7338075637817383,-0.33708885312080383,9.423962593078613,-0.9519392251968384,0.24878230690956116,0.026053380221128464,0.6621086597442627,23.46257972717285,-16.34124755859375,27.313344955444336,1.1480143070220947,0.0702981948852539,-1.0922645330429077,-1.4851031303405762,9.35366439819336,0.14032529294490814
5_20251106_215133,1762437059041,5,0.20464645326137543,0.24292275309562683,0.6698083877563477,0.6711669564247131,0.10417981445789337,2.8807191848754883,1.700356364250183,-0.0665556937456131,9.635841369628906,-1.3409802913665771,0.1339397132396698,-0.046028658747673035,0.6541674137115479,23.246971130371094,-16.493820190429688,27.396718978881836,1.1348379850387573,0.22574138641357422,-1.185044527053833,-1.201393723487854,9.410099983215332,-0.15593580901622772
5_20251106_215133,1762437059061,5,0.2008131742477417,0.24794337153434753,0.6691580414772034,0.6711375713348389,0.0501040481030941,2.922184944152832,1.6360200643539429,0.34163814783096313,9.92313289642334,-0.9758802652359009,-0.0016722427681088448,-0.03136790543794632,0.6321762800216675,23.019474029541016,-16.64678192138672,27.439050674438477,1.0172271728515625,0.33581066131591797,-0.4805215299129486,-0.6755890846252441,9.587322235107422,-0.49535873532295227
5_20251106_215133,1762437059082,5,0.19728922843933105,0.25242674350738525,0.6676822900772095,0.6719806790351868,0.02746685780584812,2.9452364444732666,1.6012908220291138,0.5068309307098389,9.780683517456055,-0.5078339576721191,-0.14278200268745422,0.048655372112989426,0.6242350339889526,22.700641632080078,-16.90630340576172,27.529905319213867,0.9459360241889954,0.15468883514404297,-0.009980171918869019,-0.4391050934791565,9.625994682312012,-0.4978537857532501
5_20251106_215133,1762437059099,5,0.19365152716636658,0.25607261061668396,0.6653945446014404,0.6739258170127869,0.012498264200985432,2.9634695053100586,1.5753729343414307,0.6720237731933594,9.856098175048828,-0.13794568181037903,-0.27472877502441406,0.21236711740493774,0.6425610184669495,22.700641632080078,-16.90630340576172,27.529905319213867,0.8889031410217285,0.1840829849243164,0.28792649507522583,-0.21687933802604675,9.672015190124512,-0.42587217688560486
5_20251106_215133,1762437059120,5,0.18910233676433563,0.25842902064323425,0.6624441146850586,0.6772167682647705,-0.0012925369665026665,2.984469175338745,1.548583984375,0.7498319745063782,9.876447677612305,0.29059797525405884,-0.27472877502441406,0.21236711740493774,0.6425610184669495,22.30667495727539,-17.20812225341797,27.6035099029541,0.7733690738677979,0.1635456085205078,0.5731761455535889,-0.023537084460258484,9.712902069091797,-0.28257814049720764
5_20251106_215133,1762437059138,5,0.18386846780776978,0.25905847549438477,0.6592975854873657,0.6814746856689453,-0.0012925369665026665,2.984469175338745,1.548583984375,0.7498319745063782,9.876447677612305,0.29059797525405884,-0.41950371861457825,0.5703338384628296,0.48556873202323914,21.9378719329834,-17.507278442382812,27.569963455200195,0.7733690738677979,0.1635456085205078,0.5731761455535889,-0.023537084460258484,9.712902069091797,-0.28257814049720764
5_20251106_215133,1762437059155,5,0.1784280389547348,0.25775769352912903,0.656258761882782,0.6863299608230591,-0.011895152740180492,3.0058000087738037,1.5224790573120117,0.917418897151947,9.827369689941406,-0.09844306111335754,-0.5471743941307068,0.5715556144714355,0.3548436760902405,21.45859146118164,-17.826271057128906,27.545255661010742,0.7527648210525513,0.09157371520996094,0.14730806648731232,0.16465409100055695,9.735795974731445,-0.24575112760066986
5_20251106_215133,1762437059175,5,0.17408990859985352,0.25543323159217834,0.6527447700500488,0.6916435956954956,-0.02168905921280384,3.038623094558716,1.4835700988769531,1.3782827854156494,9.598731994628906,0.43424391746520996,-0.5471743941307068,0.5715556144714355,0.3548436760902405,21.037124633789062,-18.191925048828125,27.5624942779541,0.8247958421707153,-0.12008857727050781,0.5568170547485352,0.5534869432449341,9.718820571899414,-0.122573122382164
5_20251106_215133,1762437059195,5,0.17092284560203552,0.2530284821987152,0.648493766784668,0.697293221950531,-0.02225114032626152,3.055805206298828,1.4668354988098145,1.6344515085220337,9.719634056091309,0.850817084312439,-0.6662930846214294,0.4878671169281006,0.2876485586166382,20.528535842895508,-18.60041046142578,27.53495979309082,0.8647716641426086,0.0006513595581054688,0.7787121534347534,0.769679844379425,9.718982696533203,0.07210490852594376
5_20251106_215133,1762437059214,5,0.16798727214336395,0.25091782212257385,0.644608199596405,0.7023537158966064,-0.019676437601447105,3.07291316986084,1.4534913301467896,1.8930141925811768,10.302597045898438,0.7131564021110535,-0.5832154154777527,0.44327399134635925,0.26382482051849365,20.071102142333984,-18.96764373779297,27.469629287719727,0.8986675143241882,0.4668922424316406,0.5128412246704102,0.9943466782569885,9.835704803466797,0.2003152072429657
5_20251106_215133,1762437059232,5,0.1652626395225525,0.24935093522071838,0.6417776942253113,0.7061400413513184,-0.015081480145454407,3.0906214714050293,1.4423081874847412,1.919349193572998,10.774234771728516,0.5359930992126465,-0.3028285503387451,0.3320966064929962,0.1685299277305603,19.622135162353516,-19.397132873535156,27.43050193786621,0.7400020360946655,0.750823974609375,0.2685423195362091,1.1793471574783325,10.02341079711914,0.2674507796764374
5_20251106_215133,1762437059251,5,0.16277259588241577,0.2477468103170395,0.6397988796234131,0.7090726494789124,-0.008312119171023369,3.110090732574463,1.432579517364502,1.967231273651123,10.647347450256348,0.8089203834533691,-0.3028285503387451,0.3320966064929962,0.1685299277305603,19.214250564575195,-19.748497009277344,27.353879928588867,0.6303073167800903,0.4991483688354492,0.4331756830215454,1.3369239568710327,10.148199081420898,0.37574470043182373
5_20251106_215133,1762437059272,5,0.16076384484767914,0.24596276879310608,0.6379563212394714,0.7118068933486938,-0.008312119171023369,3.110090732574463,1.432579517364502,1.967231273651123,10.647347450256348,0.8089203834533691,-0.30160680413246155,0.3950156569480896,0.1068326011300087,18.830936431884766,-20.097999572753906,27.25120735168457,0.6303073167800903,0.4991483688354492,0.4331756830215454,1.3369239568710327,10.148199081420898,0.37574470043182373
5_20251106_215133,1762437059290,5,0.15853632986545563,0.24375689029693604,0.6361342668533325,0.7146901488304138,0.011717970483005047,3.1481590270996094,1.4216411113739014,2.341907501220703,10.056005477905273,1.5307410955429077,-0.30160680413246155,0.3950156569480896,0.1068326011300087,18.435138702392578,-20.448699951171875,27.1885929107666,0.6730678081512451,-0.10075759887695312,0.7866966724395752,1.668839693069458,10.156763076782227,0.7440444231033325
5_20251106_215133,1762437059309,5,0.1561560332775116,0.24172639846801758,0.6343065500259399,0.7175226807594299,0.024058520793914795,3.1654021739959717,1.4205764532089233,2.484356641769409,10.2738676071167,1.6719928979873657,-0.23380085825920105,0.31499236822128296,0.13554324209690094,18.056560516357422,-20.71057891845703,27.11480140686035,0.6524136066436768,0.09368324279785156,0.7423588037490845,1.8319430351257324,10.180184364318848,0.9296340942382812
5_20251106_215133,1762437059330,5,0.1540079116821289,0.24035704135894775,0.6326050758361816,0.7199450135231018,0.03943542763590813,3.1847481727600098,1.4224802255630493,2.5537853240966797,10.550386428833008,1.8312005996704102,-0.18187734484672546,0.2404668927192688,0.0860632061958313,17.73910903930664,-20.96820831298828,27.016427993774414,0.5774738788604736,0.2961616516113281,0.7212531566619873,1.976311445236206,10.25422477722168,1.1099474430084229
5_20251106_215133,1762437059347,5,0.15245752036571503,0.2392301708459854,0.6312587261199951,0.7218296527862549,0.05249255895614624,3.2003633975982666,1.4259675741195679,2.537026882171631,10.589889526367188,2.0311079025268555,-0.1293429732322693,0.230693057179451,-0.020227257162332535,17.485816955566406,-21.15949249267578,26.962373733520508,0.44857239723205566,0.26853179931640625,0.7369283437728882,2.088454484939575,10.321357727050781,1.2941795587539673
5_20251106_215133,1762437059366,5,0.1515466719865799,0.23757559061050415,0.6304906606674194,0.7232378125190735,0.05249255895614624,3.2003633975982666,1.4259675741195679,2.537026882171631,10.589889526367188,2.0311079025268555,-0.04931969195604324,0.28383827209472656,-0.13262638449668884,17.218929290771484,-21.376678466796875,26.90730094909668,0.44857239723205566,0.26853179931640625,0.7369283437728882,2.088454484939575,10.321357727050781,1.2941795587539673
5_20251106_215133,1762437059385,5,0.1509537547826767,0.23501384258270264,0.6305614113807678,0.7241365909576416,0.08093110471963882,3.233660936355591,1.437756896018982,2.0582070350646973,10.304990768432617,1.6791751384735107,0.022762347012758255,0.3546985983848572,-0.20043236017227173,17.003801345825195,-21.540191650390625,26.828214645385742,-0.0649421215057373,-0.039778709411621094,0.20004749298095703,2.1231491565704346,10.344769477844238,1.4791276454925537
5_20251106_215133,1762437059405,5,0.15025967359542847,0.23163650929927826,0.6313987374305725,0.724639356136322,0.09386344999074936,3.24883770942688,1.4430681467056274,1.8690731525421143,10.038049697875977,1.2278876304626465,0.06979893893003464,0.4060112237930298,-0.20837360620498657,16.82786750793457,-21.639747619628906,26.873567581176758,-0.2032608985900879,-0.2453765869140625,-0.20099210739135742,2.072334051132202,10.283426284790039,1.428879737854004
5_20251106_215133,1762437059423,5,0.14929860830307007,0.22796131670475006,0.6326828002929688,0.724883496761322,0.10420786589384079,3.2609059810638428,1.4459706544876099,1.7828856706619263,9.914752960205078,0.7634324431419373,0.09179006516933441,0.3791331648826599,-0.17172172665596008,16.619802474975586,-21.66607666015625,26.892000198364258,-0.2315586805343628,-0.2949380874633789,-0.5323578715324402,2.014444351196289,10.209691047668457,1.2957903146743774
5_20251106_215133,1762437059443,5,0.1481619030237198,0.22469548881053925,0.6340832710266113,0.724912703037262,0.11434661597013474,3.272307872772217,1.4470558166503906,1.7577475309371948,9.769909858703613,0.6449246406555176,0.08323795348405838,0.29483383893966675,-0.11307869106531143,16.48455810546875,-21.68804168701172,26.95392417907715,-0.20535743236541748,-0.3518247604370117,-0.5206925868988037,1.9631049633026123,10.121734619140625,1.1656172275543213
5_20251106_215133,1762437059461,5,0.1471358686685562,0.2223714292049408,0.6352530717849731,0.7248141169548035,0.12276306748390198,3.2809839248657227,1.4465305805206299,1.8606938123703003,9.686117172241211,0.575495719909668,0.08384882658720016,0.21664316952228546,-0.02144898846745491,16.457971572875977,-21.727439880371094,26.965665817260742,-0.08192896842956543,-0.3484945297241211,-0.4720972776412964,1.9426227807998657,10.034611701965332,1.0475929975509644
5_20251106_215133,1762437059480,5,0.14597894251346588,0.221181258559227,0.6361246109008789,0.7246478199958801,0.1315627098083496,3.288740873336792,1.4440189599990845,2.0737686157226562,9.69090461730957,0.3241153657436371,0.08384882658720016,0.21664316952228546,-0.02144898846745491,16.42183494567871,-21.7060546875,27.099885940551758,0.10491669178009033,-0.2749662399291992,-0.5787820816040039,1.968851923942566,9.96587085723877,0.9028974771499634
5_20251106_215133,1762437059501,5,0.14478915929794312,0.22112031280994415,0.6368405222892761,0.7242762446403503,0.1315627098083496,3.288740873336792,1.4440189599990845,2.0737686157226562,9.69090461730957,0.3241153657436371,0.10522908717393875,0.03765981271862984,0.06834813207387924,16.31378173828125,-21.67620849609375,27.163843154907227,0.10491669178009033,-0.2749662399291992,-0.5787820816040039,1.968851923942566,9.96587085723877,0.9028974771499634
5_20251106_215133,1762437059520,5,0.14397892355918884,0.22179929912090302,0.6374526023864746,0.723691463470459,0.14267681539058685,3.2969939708709717,1.4384859800338745,2.216217517852783,9.799836158752441,0.24511012434959412,0.10522908717393875,0.03765981271862984,0.06834813207387924,16.24420166015625,-21.60657501220703,27.257097244262695,0.197892427444458,-0.1328277587890625,-0.5262298583984375,2.018325090408325,9.932663917541504,0.771340012550354
5_20251106_215133,1762437059540,5,0.1437997668981552,0.22253476083278656,0.6380586624145508,0.7229668498039246,0.15980485081672668,3.3078160285949707,1.4258410930633545,1.9552607536315918,9.707664489746094,0.04999106377363205,0.07590758055448532,0.018723003566265106,-0.055657412856817245,16.122676849365234,-21.57927703857422,27.496278762817383,-0.07790064811706543,-0.14897918701171875,-0.48847728967666626,2.0331614017486572,9.856643676757812,0.5384683609008789
5_20251106_215133,1762437059558,5,0.14403638243675232,0.22260253131389618,0.638698399066925,0.7223336696624756,0.16650384664535522,3.3124735355377197,1.4174652099609375,1.6679688692092896,9.860885620117188,-0.24328602850437164,0.0032146768644452095,0.08286380022764206,-0.10635919123888016,16.028627395629883,-21.511367797851562,27.602067947387695,-0.2921539545059204,0.0033931732177734375,-0.6254035234451294,1.96012282371521,9.857492446899414,0.38211748003959656
5_20251106_215133,1762437059577,5,0.14433050155639648,0.2217167317867279,0.639098584651947,0.7221934795379639,0.1720816195011139,3.317379951477051,1.4072877168655396,1.5446728467941284,9.943482398986816,-0.266029953956604,-0.07375427335500717,0.09874629229307175,-0.12896119058132172,16.028627395629883,-21.511367797851562,27.602067947387695,-0.33236002922058105,0.06879234313964844,-0.5185179710388184,1.8770328760147095,9.874690055847168,0.25248798727989197
5_20251106_215133,1762437059597,5,0.1448996514081955,0.2204621583223343,0.6391026973724365,0.7224598526954651,0.17614467442035675,3.321920871734619,1.397517442703247,1.4884114265441895,9.925525665283203,0.00450318306684494,-0.11040615290403366,0.0346054844558239,-0.10880263894796371,16.066112518310547,-21.472930908203125,27.76652717590332,-0.31089723110198975,0.040668487548828125,-0.19838786125183105,1.7993086576461792,9.884857177734375,0.2028910368680954
5_20251106_215133,1762437059614,5,0.14585457742214203,0.21973960101604462,0.6387244462966919,0.7228222489356995,0.17614467442035675,3.321920871734619,1.397517442703247,1.4884114265441895,9.925525665283203,0.00450318306684494,-0.11162788420915604,-0.07718275487422943,-0.06176605448126793,16.08123016357422,-21.41016387939453,27.849435806274414,-0.31089723110198975,0.040668487548828125,-0.19838786125183105,1.7993086576461792,9.884857177734375,0.2028910368680954
5_20251106_215133,1762437059634,5,0.14719447493553162,0.2200593203306198,0.6380374431610107,0.7230600714683533,0.1823984831571579,3.331491470336914,1.3804126977920532,1.5997370481491089,9.990167617797852,0.8544082641601562,-0.12445604801177979,-0.17247764766216278,-0.009842556901276112,16.116899490356445,-21.40899658203125,27.97255516052246,-0.11814939975738525,0.07927322387695312,0.4989449977874756,1.7178864479064941,9.910894393920898,0.35546326637268066
5_20251106_215133,1762437059652,5,0.14880496263504028,0.22134090960025787,0.6369518637657166,0.7232963442802429,0.1848423033952713,3.3361165523529053,1.375988245010376,1.7038803100585938,10.077550888061523,1.1955673694610596,-0.08841503411531448,-0.22379030287265778,0.03780489042401314,16.144386291503906,-21.356773376464844,27.93404197692871,-0.011204957962036133,0.13332557678222656,0.6720832586288452,1.7150852680206299,9.944225311279297,0.5234841108322144
5_20251106_215133,1762437059672,5,0.15007081627845764,0.22306311130523682,0.635930597782135,0.7234043478965759,0.18751519918441772,3.3417060375213623,1.3739688396453857,1.7457771301269531,10.17690658569336,1.3954744338989258,-0.029772020876407623,-0.23906190693378448,0.03719402477145195,16.27743148803711,-21.361000061035156,27.97972297668457,0.024553418159484863,0.18614482879638672,0.6975922584533691,1.7212237119674683,9.990761756896973,0.6978821754455566
5_20251106_215133,1762437059691,5,0.15144628286361694,0.22508636116981506,0.6351849436759949,0.7231460809707642,0.18751519918441772,3.3417060375213623,1.3739688396453857,1.7457771301269531,10.17690658569336,1.3954744338989258,0.008101592771708965,-0.17919717729091644,0.0017638728022575378,16.373201370239258,-21.39177703857422,27.928789138793945,0.024553418159484863,0.18614482879638672,0.6975922584533691,1.7212237119674683,9.990761756896973,0.6978821754455566
5_20251106_215133,1762437059711,5,0.1526554971933365,0.22655418515205383,0.6348156929016113,0.7227575778961182,0.19037604331970215,3.3481059074401855,1.3741440773010254,1.779294490814209,10.236759185791016,1.3511837720870972,0.05513817444443703,-0.10344993323087692,-0.07703766971826553,16.5333251953125,-21.355934143066406,27.895143508911133,0.04645657539367676,0.19679832458496094,0.5226413011550903,1.7328379154205322,10.039960861206055,0.8285424709320068
5_20251106_215133,1762437059732,5,0.1538584977388382,0.2271144837141037,0.6350489258766174,0.7221214771270752,0.19540268182754517,3.3597495555877686,1.3753228187561035,1.6883187294006348,10.041640281677246,0.6580921411514282,0.08507055044174194,-0.07107410579919815,-0.16316962242126465,16.667261123657227,-21.35894775390625,27.819177627563477,-0.042473793029785156,-0.01769542694091797,-0.17746371030807495,1.73079252243042,10.059335708618164,0.8355558514595032
5_20251106_215133,1762437059749,5,0.15534983575344086,0.2269676774740219,0.6357701420783997,0.721213161945343,0.19688203930854797,3.364086627960205,1.3744949102401733,1.511155366897583,9.908768653869629,0.3660120964050293,0.08507055044174194,-0.07107410579919815,-0.16316962242126465,16.76542854309082,-21.363265991210938,27.633607864379883,-0.17570972442626953,-0.1204538345336914,-0.375635027885437,1.6868650913238525,10.02922248840332,0.7416471242904663
5_20251106_215133,1762437059768,5,0.1573987603187561,0.22656778991222382,0.636415958404541,0.7203245162963867,0.19688203930854797,3.364086627960205,1.3744949102401733,1.511155366897583,9.908768653869629,0.3660120964050293,-0.012056943029165268,-0.11383463442325592,-0.22120176255702972,16.88617706298828,-21.380035400390625,27.597436904907227,-0.17570972442626953,-0.1204538345336914,-0.375635027885437,1.6868650913238525,10.02922248840332,0.7416471242904663
5_20251106_215133,1762437059787,5,0.15985418856143951,0.2263154685497284,0.6366209387779236,0.7196816802024841,0.19702798128128052,3.371243476867676,1.3704304695129395,1.2430163621902466,9.755544662475586,0.4569878578186035,-0.012056943029165268,-0.11383463442325592,-0.22120176255702972,16.94881248474121,-21.350547790527344,27.55986976623535,-0.2982361316680908,-0.18262386322021484,-0.17758524417877197,1.5412524938583374,9.9381685256958,0.6345731019973755
5_20251106_215133,1762437059806,5,0.16219830513000488,0.2263532280921936,0.6366603374481201,0.7191102504730225,0.19566085934638977,3.3736727237701416,1.3677482604980469,1.1975284814834595,9.729209899902344,0.447411447763443,-0.02121991291642189,-0.13949096202850342,-0.1857716143131256,17.134719848632812,-21.288002014160156,27.527734756469727,-0.27497923374176025,-0.16716670989990234,-0.14972934126853943,1.4725077152252197,9.896376609802246,0.5971407890319824
5_20251106_215133,1762437059825,5,0.1645161360502243,0.22687701880931854,0.6366915106773376,0.718390703201294,0.19338105618953705,3.375659704208374,1.3649897575378418,1.1149320602416992,9.779486656188965,0.5204314589500427,-0.002893972210586071,-0.18408408761024475,-0.15278491377830505,17.322233200073242,-21.2000732421875,27.46909523010254,-0.2860605716705322,-0.09351158142089844,-0.0613674521446228,1.4009926319122314,9.872998237609863,0.5817989110946655
5_20251106_215133,1762437059845,5,0.16704949736595154,0.2278527468442917,0.6366077661514282,0.717570960521698,0.1899041086435318,3.3772642612457275,1.362273931503296,1.007197618484497,9.747166633605957,0.5958455801010132,-0.013278672471642494,-0.2427271008491516,-0.1350698471069336,17.47379493713379,-21.10210418701172,27.422761917114258,-0.3150360584259033,-0.10066509246826172,0.01123732328414917,1.3222336769104004,9.847831726074219,0.584608256816864
5_20251106_215133,1762437059863,5,0.1697128415107727,0.22891291975975037,0.6363973617553711,0.7167948484420776,0.1899041086435318,3.3772642612457275,1.362273931503296,1.007197618484497,9.747166633605957,0.5958455801010132,-0.013278672471642494,-0.2427271008491516,-0.1350698471069336,17.61245346069336,-21.029098510742188,27.280797958374023,-0.3150360584259033,-0.10066509246826172,0.01123732328414917,1.3222336769104004,9.847831726074219,0.584608256816864
5_20251106_215133,1762437059883,5,0.1722145825624466,0.22968880832195282,0.6360455751419067,0.7162619829177856,0.1807313859462738,3.3793609142303467,1.35837721824646,0.8455959558486938,9.768712997436523,0.701185941696167,-0.07131081819534302,-0.1663690060377121,-0.12651772797107697,17.82242202758789,-20.97698211669922,27.195314407348633,-0.31309235095977783,-0.047954559326171875,0.07709962129592896,1.1586883068084717,9.816667556762695,0.624086320400238
5_20251106_215133,1762437059901,5,0.17444109916687012,0.23007597029209137,0.6355427503585815,0.7160452604293823,0.1750394105911255,3.3802285194396973,1.3568187952041626,0.8539752960205078,9.798639297485352,0.6844272613525391,-0.08474984019994736,-0.13093885779380798,-0.11430042237043381,18.018510818481445,-20.93956756591797,27.244237899780273,-0.24377036094665527,-0.014422416687011719,0.04827272891998291,1.097745656967163,9.813061714172363,0.6361545324325562
5_20251106_215133,1762437059921,5,0.1764383316040039,0.23029708862304688,0.6349677443504333,0.7159949541091919,0.1750394105911255,3.3802285194396973,1.3568187952041626,0.8539752960205078,9.798639297485352,0.6844272613525391,-0.09085848182439804,-0.12055414915084839,-0.09658534079790115,18.192527770996094,-20.877410888671875,27.17106056213379,-0.24377036094665527,-0.014422416687011719,0.04827272891998291,1.097745656967163,9.813061714172363,0.6361545324325562
5_20251106_215133,1762437059940,5,0.17822697758674622,0.2305205911397934,0.6343420147895813,0.7160346508026123,0.16210873425006866,3.3820207118988037,1.3539894819259644,0.8324283957481384,9.878841400146484,0.7263239622116089,-0.1183473989367485,-0.1358257681131363,-0.055657412856817245,18.40379524230957,-20.811927795410156,27.004743576049805,-0.17210131883621216,0.05282402038574219,0.0736052393913269,1.0045297145843506,9.826017379760742,0.652718722820282
5_20251106_215133,1762437059959,5,0.17988801002502441,0.2310560792684555,0.6334222555160522,0.7162609100341797,0.15566986799240112,3.383089542388916,1.3533718585968018,0.881507396697998,9.889616012573242,0.8460288643836975,-0.1183473989367485,-0.1358257681131363,-0.055657412856817245,18.53580093383789,-20.86395263671875,26.806074142456055,-0.09841787815093994,0.05087852478027344,0.1546480655670166,0.979925274848938,9.838737487792969,0.6913807988166809
5_20251106_215133,1762437059980,5,0.181313619017601,0.23210479319095612,0.6323432922363281,0.7165156602859497,0.14913924038410187,3.384178400039673,1.3533045053482056,0.9497392177581787,9.845324516296387,0.8723639845848083,-0.0725325495004654,-0.1767537146806717,0.06834813207387924,18.620681762695312,-20.882156372070312,26.67381477355957,-0.024148881435394287,0.005269050598144531,0.144786536693573,0.973888099193573,9.840055465698242,0.7275774478912354
5_20251106_215133,1762437060000,5,0.18232187628746033,0.23377670347690582,0.6313397288322449,0.7166011929512024,0.1429772973060608,3.385298252105713,1.3534096479415894,1.0790205001831055,9.850112915039062,0.7789941430091858,-0.05420660600066185,-0.18836013972759247,0.13859756290912628,18.620681762695312,-20.882156372070312,26.67381477355957,0.08410590887069702,0.008046150207519531,0.041133344173431396,0.9949145913124084,9.842066764831543,0.7378607988357544
5_20251106_215133,1762437060015,5,0.1828480064868927,0.23596729338169098,0.6302815675735474,0.7166807055473328,0.13927344977855682,3.386192560195923,1.353363037109375,1.274139642715454,9.920738220214844,0.6688655614852905,-0.05420660600066185,-0.18836013972759247,0.13859756290912628,18.74051284790039,-20.923362731933594,26.56953239440918,0.22338008880615234,0.06293678283691406,-0.055196166038513184,1.0507595539093018,9.85780143737793,0.7240617275238037
5_20251106_215133,1762437060034,5,0.18318048119544983,0.2385288029909134,0.6290696859359741,0.7168125510215759,0.13927344977855682,3.386192560195923,1.353363037109375,1.274139642715454,9.920738220214844,0.6688655614852905,-0.08047378808259964,-0.21951423585414886,0.17524944245815277,18.87202262878418,-20.97606658935547,26.438444137573242,0.22338008880615234,0.06293678283691406,-0.055196166038513184,1.0507595539093018,9.85780143737793,0.7240617275238037
5_20251106_215133,1762437060054,5,0.18366162478923798,0.2415444254875183,0.6278849840164185,0.716718316078186,0.13254906237125397,3.3894944190979004,1.3532353639602661,1.3172334432601929,10.061990737915039,0.8101174831390381,-0.11590393632650375,-0.21951423585414886,0.15753436088562012,18.90694808959961,-21.022293090820312,26.276662826538086,0.1682450771331787,0.14542865753173828,0.07652682065963745,1.1489883661270142,9.9165620803833,0.7335906624794006
5_20251106_215133,1762437060073,5,0.18431700766086578,0.244395449757576,0.6264949440956116,0.7167999744415283,0.1303045153617859,3.3918373584747314,1.354162573814392,1.330400824546814,10.137404441833496,1.0447391271591187,-0.11590393632650375,-0.21951423585414886,0.15753436088562012,18.951534271240234,-21.11754608154297,26.07377052307129,0.14513003826141357,0.17667388916015625,0.24891877174377441,1.1852707862854004,9.96073055267334,0.7958203554153442
5_20251106_215133,1762437060092,5,0.1851733922958374,0.24676628410816193,0.625074028968811,0.7170074582099915,0.12837332487106323,3.394531488418579,1.3556311130523682,1.2585779428482056,10.13141918182373,1.0100245475769043,-0.06459131091833115,-0.19324706494808197,0.07445677369832993,19.00699806213379,-21.23699188232422,25.857324600219727,0.05864572525024414,0.1365509033203125,0.17136335372924805,1.1999322175979614,9.994868278503418,0.8386611938476562
5_20251106_215133,1762437060111,5,0.1859331727027893,0.24847443401813507,0.6240351796150208,0.7171257734298706,0.126469686627388,3.3973538875579834,1.3571614027023315,1.174784541130066,10.090719223022461,0.8879256844520569,-0.035880666226148605,-0.17736457288265228,0.045135267078876495,19.050189971923828,-21.345748901367188,25.748781204223633,-0.020118117332458496,0.07668113708496094,0.03941160440444946,1.1949026584625244,10.0140380859375,0.8485140800476074
5_20251106_215133,1762437060130,5,0.18699578940868378,0.2500303387641907,0.6233047246932983,0.7169439196586609,0.12443526089191437,3.4000353813171387,1.3586050271987915,1.1125379800796509,10.014108657836914,0.8448318839073181,-0.05909352749586105,-0.1602603644132614,0.0347505658864975,19.107879638671875,-21.415771484375,25.61448860168457,-0.06589174270629883,5.626678466796875e-05,-0.00294572114944458,1.1784297227859497,10.014052391052246,0.8477776050567627
5_20251106_215133,1762437060149,5,0.18812817335128784,0.2513117790222168,0.6226531267166138,0.716765820980072,0.12232177704572678,3.4024910926818848,1.3600668907165527,1.1125379800796509,9.9805908203125,0.8807433843612671,-0.07803032547235489,-0.1449887454509735,0.031696245074272156,19.165864944458008,-21.485389709472656,25.439645767211914,-0.05271339416503906,-0.026769638061523438,0.02637261152267456,1.16525137424469,10.007360458374023,0.8543707728385925
5_20251106_215133,1762437060169,5,0.18930090963840485,0.25240379571914673,0.621972918510437,0.7166638970375061,0.11985153704881668,3.4047999382019043,1.361812710762024,1.047897219657898,9.959043502807617,0.9477781057357788,-0.06825649738311768,-0.13338230550289154,0.02070067822933197,19.222244262695312,-21.58039093017578,25.29130744934082,-0.09388327598571777,-0.038654327392578125,0.07472586631774902,1.1417804956436157,9.997697830200195,0.8730522394180298
5_20251106_215133,1762437060188,5,0.19045302271842957,0.2533477544784546,0.6213678121566772,0.7165505290031433,0.11721677333116531,3.406574010848999,1.3634980916976929,0.9940301179885864,9.88482666015625,0.9130637049674988,-0.04443277418613434,-0.10283907502889633,0.01764635555446148,19.24478530883789,-21.627685546875,25.156068801879883,-0.11820030212402344,-0.09029674530029297,0.03200918436050415,1.1122304201126099,9.975123405456543,0.8810545206069946
5_20251106_215133,1762437060207,5,0.19139419496059418,0.2539392113685608,0.620966374874115,0.716438353061676,0.11444200575351715,3.407679796218872,1.364727258682251,1.0131827592849731,9.763924598693848,0.7454767227172852,-0.025495966896414757,-0.07473929226398468,0.02070067822933197,19.314659118652344,-21.696914672851562,25.02226448059082,-0.07923805713653564,-0.1689586639404297,-0.10846227407455444,1.0924208164215088,9.932883262634277,0.8539389967918396
5_20251106_215133,1762437060226,5,0.19211633503437042,0.2543369233608246,0.6207963824272156,0.7162513136863708,0.11444200575351715,3.407679796218872,1.364727258682251,1.0131827592849731,9.763924598693848,0.7454767227172852,-0.045043639838695526,-0.07657188922166824,0.03352883830666542,19.39984893798828,-21.703102111816406,24.944337844848633,-0.07923805713653564,-0.1689586639404297,-0.10846227407455444,1.0924208164215088,9.932883262634277,0.8539389967918396
5_20251106_215133,1762437060244,5,0.19282950460910797,0.25499123334884644,0.6205843091011047,0.7160107493400574,0.11169367283582687,3.4083127975463867,1.3653806447982788,1.0514883995056152,9.780683517456055,0.6664714813232422,-0.045043639838695526,-0.07657188922166824,0.03352883830666542,19.445959091186523,-21.761497497558594,24.823331832885742,-0.032745957374572754,-0.12175941467285156,-0.14997398853302002,1.084234356880188,9.902442932128906,0.8164454698562622
5_20251106_215133,1762437060263,5,0.1936011016368866,0.25578707456588745,0.6202425360679626,0.7158147692680359,0.10693377256393433,3.4090287685394287,1.3658992052078247,1.1161291599273682,9.907570838928223,0.787373423576355,-0.10063231736421585,-0.08512399345636368,0.026198461651802063,19.48158836364746,-21.795166015625,24.66181755065918,0.021370291709899902,0.01898670196533203,-0.0032839179039001465,1.0947588682174683,9.88858413696289,0.7906573414802551
5_20251106_215133,1762437060283,5,0.19451439380645752,0.25655490159988403,0.619658887386322,0.7157978415489197,0.10693377256393433,3.4090287685394287,1.3658992052078247,1.1161291599273682,9.907570838928223,0.787373423576355,-0.10063231736421585,-0.08512399345636368,0.026198461651802063,19.52800750732422,-21.84154510498047,24.59514045715332,0.021370291709899902,0.01898670196533203,-0.0032839179039001465,1.0947588682174683,9.88858413696289,0.7906573414802551
5_20251106_215133,1762437060302,5,0.19550706446170807,0.256997287273407,0.6190392971038818,0.7159048318862915,0.10453679412603378,3.4095022678375244,1.3665838241577148,1.1137349605560303,9.907570838928223,0.9154577851295471,-0.08474984019994736,-0.026480983942747116,-0.02450331300497055,19.610477447509766,-21.8978271484375,24.502641677856445,0.015180826187133789,0.015189170837402344,0.09984034299850464,1.0985541343688965,9.89238166809082,0.8156174421310425
5_20251106_215133,1762437060321,5,0.19634930789470673,0.2569279670715332,0.6186031103134155,0.7160761952400208,0.10256929695606232,3.4098870754241943,1.3672338724136353,1.0921881198883057,9.892009735107422,0.8532111644744873,-0.08474984019994736,-0.026480983942747116,-0.02450331300497055,19.64892578125,-21.881271362304688,24.342180252075195,-0.0050928592681884766,-0.00029754638671875,0.03007495403289795,1.0972809791564941,9.89230728149414,0.8231362104415894
5_20251106_215133,1762437060340,5,0.19723470509052277,0.2565777003765106,0.6183111667633057,0.7162106037139893,0.09787514805793762,3.4102706909179688,1.3686200380325317,0.9437539577484131,9.817792892456055,0.921442985534668,-0.10918442904949188,0.022999055683612823,-0.04038579389452934,19.693824768066406,-21.964515686035156,24.19361686706543,-0.10840821266174316,-0.0538177490234375,0.08264374732971191,1.0521621704101562,9.871610641479492,0.838799238204956
5_20251106_215133,1762437060360,5,0.19805139303207397,0.2560644745826721,0.6180087327957153,0.7164299488067627,0.09487538784742355,3.4101412296295166,1.3700871467590332,0.8791133165359497,9.798639297485352,1.0519213676452637,-0.11956913024187088,0.032772891223430634,0.002374737523496151,19.678607940673828,-22.027420043945312,24.124223709106445,-0.13843905925750732,-0.05837726593017578,0.17049771547317505,1.017552375793457,9.857016563415527,0.8814236521720886
5_20251106_215133,1762437060379,5,0.19855740666389465,0.25554153323173523,0.6174712777137756,0.7169398069381714,0.09189601242542267,3.4099485874176025,1.3724098205566406,0.8491870760917664,9.82377815246582,1.3152722120285034,-0.11956913024187088,0.032772891223430634,0.002374737523496151,19.678607940673828,-22.027420043945312,24.124223709106445,-0.1346922516822815,-0.026590347290039062,0.3470788598060608,0.9838793277740479,9.85036849975586,0.9681933522224426
5_20251106_215133,1762437060399,5,0.19864407181739807,0.25530800223350525,0.6166693568229675,0.7176888585090637,0.08821064233779907,3.4101474285125732,1.3775235414505005,0.8695369362831116,9.973408699035645,1.7258601188659668,-0.1085735633969307,-0.013652825728058815,0.1685299277305603,19.655620574951172,-22.027122497558594,23.93401527404785,-0.09147393703460693,0.09843254089355469,0.6061334609985352,0.9610108733177185,9.87497615814209,1.1197266578674316
5_20251106_215133,1762437060419,5,0.19828161597251892,0.2556161880493164,0.6154396533966064,0.7187342047691345,0.08482380211353302,3.4111616611480713,1.3849353790283203,0.9437539577484131,10.149374961853027,2.035896062850952,-0.1085735633969307,-0.013652825728058815,0.1685299277305603,19.652393341064453,-22.089500427246094,23.89214515686035,-0.013805508613586426,0.21951961517333984,0.7329355478286743,0.9575594663619995,9.929855346679688,1.3029605150222778
5_20251106_215133,1762437060436,5,0.19703146815299988,0.25587570667266846,0.6141535043716431,0.7200844883918762,0.08210855722427368,3.4127047061920166,1.3924014568328857,0.9664978981018066,10.259503364562988,1.9772405624389648,0.059414226561784744,0.12012655287981033,0.2601596415042877,19.652393341064453,-22.089500427246094,23.89214515686035,0.007150769233703613,0.2637186050415039,0.5394240617752075,0.959347128868103,9.995784759521484,1.4378165006637573
5_20251106_215133,1762437060455,5,0.19477491080760956,0.2555638253688812,0.6134611368179321,0.7213981747627258,0.07897263765335083,3.414853096008301,1.4007378816604614,0.8671427965164185,10.181694984436035,1.5870023965835571,0.15593084692955017,0.26917755603790283,0.26443570852279663,19.601238250732422,-22.130752563476562,23.929941177368164,-0.07376343011856079,0.1487283706665039,0.11934876441955566,0.9409062266349792,10.032966613769531,1.4676536321640015
5_20251106_215133,1762437060475,5,0.1913132220506668,0.2543833255767822,0.6138172149658203,0.7224380970001221,0.07538685202598572,3.4173080921173096,1.4085783958435059,0.7929257154464722,10.13381290435791,1.3044989109039307,0.15593084692955017,0.26917755603790283,0.26443570852279663,19.46356773376465,-22.202407836914062,23.936742782592773,-0.11838442087173462,0.08067607879638672,-0.13052380084991455,0.9113101363182068,10.053136825561523,1.4350227117538452
5_20251106_215133,1762437060494,5,0.18674924969673157,0.2528003454208374,0.6150590181350708,0.7231314182281494,0.07538685202598572,3.4173080921173096,1.4085783958435059,0.7929257154464722,10.13381290435791,1.3044989109039307,0.22007164359092712,0.45854559540748596,0.411043256521225,19.35080337524414,-22.236961364746094,24.161577224731445,-0.11838442087173462,0.08067607879638672,-0.13052380084991455,0.9113101363182068,10.053136825561523,1.4350227117538452
5_20251106_215133,1762437060513,5,0.18116985261440277,0.2513731122016907,0.6166229844093323,0.723716139793396,0.07259573042392731,3.419670820236206,1.4136977195739746,1.1137349605560303,10.063187599182129,0.6688656210899353,0.17670024931430817,0.3229336142539978,0.48923394083976746,19.16441535949707,-22.28856658935547,24.356172561645508,0.1619398593902588,0.008040428161621094,-0.6129257082939148,0.9517951011657715,10.055147171020508,1.28179132938385
5_20251106_215133,1762437060531,5,0.17573539912700653,0.25204023718833923,0.6179412603378296,0.7236997485160828,0.07147675007581711,3.4225871562957764,1.4157068729400635,1.4620763063430786,10.340902328491211,0.3301006257534027,0.0972878485918045,0.12073741108179092,0.5319945216178894,18.915687561035156,-22.36925506591797,24.547788619995117,0.4082249402999878,0.22860431671142578,-0.7613525390625,1.0538513660430908,10.112298011779785,1.091453194618225
5_20251106_215133,1762437060551,5,0.1714991331100464,0.2549911141395569,0.6183871626853943,0.7233014106750488,0.07206735014915466,3.4264941215515137,1.4168606996536255,1.7026833295822144,10.63298225402832,0.8256790637969971,0.11927897483110428,0.05354229360818863,0.5240532755851746,18.565750122070312,-22.51935577392578,24.761194229125977,0.5190654993057251,0.4165468215942383,-0.21261930465698242,1.1836178302764893,10.216435432434082,1.0382983684539795
5_20251106_215133,1762437060570,5,0.16746962070465088,0.25807228684425354,0.6183292269706726,0.7232023477554321,0.07977161556482315,3.4400901794433594,1.4234822988510132,2.2233996391296387,11.207566261291504,1.6636135578155518,0.2206825166940689,0.1689957231283188,0.4513603150844574,18.20654296875,-22.619888305664062,24.96164894104004,0.7075965404510498,0.683354377746582,0.4132256507873535,1.5158030986785889,10.524211883544922,1.2503879070281982
5_20251106_215133,1762437060589,5,0.16284199059009552,0.2596651315689087,0.6184727549552917,0.7235661745071411,0.08699338138103485,3.449960947036743,1.428146481513977,2.4268980026245117,11.424232482910156,1.588199496269226,0.2732168734073639,0.30338597297668457,0.327965646982193,17.810680389404297,-22.722938537597656,25.17414665222168,0.7288758754730225,0.7200164794921875,0.27024924755096436,1.6980221271514893,10.704216003417969,1.3179502487182617
5_20251106_215133,1762437060611,5,0.15815916657447815,0.25996965169906616,0.6198832392692566,0.7232884764671326,0.09672224521636963,3.4631597995758057,1.4336848258972168,2.3383166790008545,11.549922943115234,1.509194254875183,0.3043709695339203,0.3785223364830017,0.19296452403068542,17.365764617919922,-22.8411865234375,25.330354690551758,0.5122356414794922,0.6765661239624023,0.15299510955810547,1.8260810375213623,10.873356819152832,1.3561991453170776
5_20251106_215133,1762437060628,5,0.1539236456155777,0.2590748071670532,0.6219201683998108,0.7227745652198792,0.10498304665088654,3.4756648540496826,1.4388749599456787,1.9636400938034058,11.587031364440918,1.6324902772903442,0.3703443706035614,0.38646355271339417,0.08728493750095367,16.92258071899414,-22.910690307617188,25.63629722595215,0.11004722118377686,0.5709390640258789,0.22103285789489746,1.853592872619629,11.016092300415039,1.4114574193954468
5_20251106_215133,1762437060646,5,0.15015728771686554,0.2575130760669708,0.6247071027755737,0.7217207551002502,0.11213202029466629,3.4886646270751953,1.4447212219238281,1.5698107481002808,11.470916748046875,1.7833185195922852,0.4522002637386322,0.41822853684425354,0.05551996827125549,16.503643035888672,-23.00196075439453,25.76698112487793,-0.22702562808990479,0.3638591766357422,0.297488808631897,1.7968363761901855,11.107057571411133,1.4858297109603882
5_20251106_215133,1762437060665,5,0.146205872297287,0.2555086016654968,0.6281825304031372,0.7202262878417969,0.11819520592689514,3.502324342727661,1.451045274734497,1.393844485282898,11.334453582763672,1.6540372371673584,0.5487168431282043,0.4915323257446289,0.09400444477796555,16.123394012451172,-23.04156494140625,25.99480628967285,-0.322393536567688,0.1819171905517578,0.13456594944000244,1.716238021850586,11.152536392211914,1.519471287727356
5_20251106_215133,1762437060684,5,0.1413964033126831,0.2532918453216553,0.6322799324989319,0.7183817625045776,0.12300831079483032,3.5154552459716797,1.45645010471344,1.371100664138794,11.208763122558594,1.2997105121612549,0.5487168431282043,0.4915323257446289,0.09400444477796555,15.748892784118652,-22.968963623046875,26.30610466003418,-0.2761099338531494,0.04498100280761719,-0.17580854892730713,1.6472105979919434,11.163782119750977,1.475519061088562
5_20251106_215133,1762437060703,5,0.13569292426109314,0.25099050998687744,0.637004017829895,0.716112494468689,0.12696772813796997,3.527639389038086,1.460071086883545,1.423770785331726,11.05793571472168,0.9238371253013611,0.6922701001167297,0.5880489349365234,0.17097339034080505,15.448114395141602,-22.879173278808594,26.634126663208008,-0.17875182628631592,-0.08467674255371094,-0.4413455128669739,1.602522611618042,11.14261245727539,1.365182638168335
5_20251106_215133,1762437060723,5,0.12932533025741577,0.2486274689435959,0.6420357823371887,0.7136171460151672,0.1307215392589569,3.5383875370025635,1.4617582559585571,1.5997370481491089,10.841269493103027,0.7263239622116089,0.6886048913002014,0.5904923677444458,0.22228601574897766,15.177742004394531,-22.686805725097656,26.911176681518555,-0.002228379249572754,-0.2410745620727539,-0.5110869407653809,1.6019654273986816,11.082344055175781,1.2374109029769897
5_20251106_215133,1762437060742,5,0.12269356101751328,0.2466660887002945,0.6468725800514221,0.7110963463783264,0.13552390038967133,3.5476021766662598,1.4610766172409058,1.9468814134597778,10.577919006347656,0.4581848978996277,0.7008221745491028,0.572777271270752,0.27787473797798157,14.858454704284668,-22.474655151367188,27.403051376342773,0.27593278884887695,-0.40353965759277344,-0.6233808398246765,1.6709486246109009,10.98145866394043,1.0815657377243042
5_20251106_215133,1762437060761,5,0.11580143123865128,0.2452654242515564,0.6515653729438782,0.7084472179412842,0.14196160435676575,3.554433584213257,1.4583241939544678,2.437671661376953,10.440258026123047,0.3025684952735901,0.721591591835022,0.4817584753036499,0.30475276708602905,14.530208587646484,-22.20092010498047,27.936304092407227,0.6133784055709839,-0.43296051025390625,-0.6231977939605713,1.8242932558059692,10.873218536376953,0.9257662892341614
5_20251106_215133,1762437060780,5,0.109128437936306,0.24467158317565918,0.6562034487724304,0.7054245471954346,0.1502828449010849,3.558687448501587,1.45376718044281,2.850653648376465,10.103887557983398,0.08111434429883957,0.7887867093086243,0.33698350191116333,0.2821507751941681,14.214656829833984,-21.914100646972656,28.497343063354492,0.8210883140563965,-0.6154651641845703,-0.6757215857505798,2.0295653343200684,10.719352722167969,0.7568359375
5_20251106_215133,1762437060799,5,0.10324539244174957,0.24501235783100128,0.6611319184303284,0.7015795707702637,0.16246861219406128,3.5597782135009766,1.446153163909912,3.148719072341919,9.601125717163086,-0.16547782719135284,0.7887867093086243,0.33698350191116333,0.2821507751941681,13.812801361083984,-21.64580535888672,29.09523582458496,0.8953230381011963,-0.8945817947387695,-0.7378510236740112,2.2533960342407227,10.495707511901855,0.5723732113838196
5_20251106_215133,1762437060819,5,0.09847348928451538,0.24613648653030396,0.6662775874137878,0.6969891786575317,0.16246861219406128,3.5597782135009766,1.446153163909912,3.148719072341919,9.601125717163086,-0.16547782719135284,0.7985605597496033,0.085918128490448,0.15631264448165894,13.43813705444336,-21.32569122314453,29.695165634155273,0.8953230381011963,-0.8945817947387695,-0.7378510236740112,2.2533960342407227,10.495707511901855,0.5723732113838196
5_20251106_215133,1762437060840,5,0.09485580027103424,0.24748407304286957,0.671208918094635,0.6922662854194641,0.1930333971977234,3.5522444248199463,1.4261417388916016,3.2768032550811768,9.338972091674805,0.010488435626029968,0.7002113461494446,0.07186823338270187,0.04024834930896759,13.137688636779785,-20.987709045410156,30.244234085083008,0.6507668495178223,-0.7376298904418945,-0.315363347530365,2.6260364055633545,10.0766019821167,0.32585176825523376
5_20251106_215133,1762437060858,5,0.09229903668165207,0.2481195330619812,0.6756961345672607,0.6880060434341431,0.2100895196199417,3.546496868133545,1.4163832664489746,3.100836992263794,9.78786563873291,0.41389405727386475,0.639735758304596,0.1946520358324051,-0.0990288034081459,13.137688636779785,-20.987709045410156,30.244234085083008,0.379840612411499,-0.2309894561767578,0.07043382525444031,2.720996379852295,10.018855094909668,0.34346023201942444
5_20251106_215133,1762437060876,5,0.08995163440704346,0.24689780175685883,0.6801579594612122,0.684350311756134,0.22493281960487366,3.542673349380493,1.4081926345825195,2.8267126083374023,10.46180534362793,0.4055147171020508,0.6886048913002014,0.42861324548721313,-0.25174498558044434,12.77691650390625,-20.641281127929688,30.80463218688965,0.08457303047180176,0.35436058044433594,0.04964357614517212,2.7421395778656006,10.107444763183594,0.35587114095687866
5_20251106_215133,1762437060895,5,0.08696987479925156,0.24307197332382202,0.6854098439216614,0.680856466293335,0.2392743080854416,3.540117025375366,1.3987458944320679,2.5442090034484863,10.573129653930664,-0.09365486353635788,0.7985605597496033,0.6130943894386292,-0.3781939744949341,12.449796676635742,-20.331222534179688,31.473840713500977,-0.15834450721740723,0.37254810333251953,-0.3596208095550537,2.7025535106658936,10.200581550598145,0.26596593856811523
5_20251106_215133,1762437060914,5,0.08338268846273422,0.2372005134820938,0.6917705535888672,0.6769318580627441,0.2514002025127411,3.5392327308654785,1.3869128227233887,2.156364917755127,10.763461112976074,-0.7759730219841003,0.8804164528846741,0.66501784324646,-0.4447782337665558,12.200504302978516,-19.951988220214844,31.985116958618164,-0.4369509220123291,0.4503040313720703,-0.8335511684417725,2.593315839767456,10.313157081604004,0.05757816135883331
5_20251106_215133,1762437060933,5,0.07977358251810074,0.23062513768672943,0.6988223195075989,0.6723805069923401,0.2606700360774994,3.540097713470459,1.3723335266113281,1.7733091115951538,10.934638977050781,-1.1590287685394287,0.8822490572929382,0.6430267095565796,-0.4502760171890259,11.983534812927246,-19.432769775390625,32.473243713378906,-0.6560052633285522,0.49718570709228516,-0.9732855558395386,2.429314374923706,10.437453269958496,-0.18574321269989014
5_20251106_215133,1762437060952,5,0.07632708549499512,0.22403791546821594,0.7059114575386047,0.6675853729248047,0.2670689821243286,3.542726993560791,1.3550443649291992,1.5518550872802734,11.096240997314453,-1.439138412475586,0.8993532061576843,0.6027096509933472,-0.3568137288093567,11.764041900634766,-18.96337890625,32.919769287109375,-0.7019674777984619,0.5270299911499023,-1.0027161836624146,2.2538225650787354,10.56921100616455,-0.4364222288131714
5_20251106_215133,1762437060971,5,0.07264075428247452,0.2183513343334198,0.7128193974494934,0.6625213623046875,0.2715931832790375,3.5477380752563477,1.3348932266235352,1.6871216297149658,11.485280990600586,-1.7946619987487793,0.9262312650680542,0.5520079135894775,-0.2596862018108368,11.595829963684082,-18.42937469482422,33.504730224609375,-0.45336079597473145,0.7328557968139648,-1.0865918397903442,2.1404824256896973,10.752425193786621,-0.7080701589584351
5_20251106_215133,1762437060990,5,0.06864722818136215,0.21360069513320923,0.7196044921875,0.657139003276825,0.27522534132003784,3.554039716720581,1.3129194974899292,1.8978023529052734,11.314104080200195,-1.7395977973937988,0.9079053401947021,0.4787041246891022,-0.2688491940498352,11.393074989318848,-17.860214233398438,34.1025390625,-0.19414401054382324,0.4493427276611328,-0.8252221345901489,2.0919463634490967,10.864761352539062,-0.9143756628036499
5_20251106_215133,1762437061010,5,0.06519629806280136,0.2092018723487854,0.7261884808540344,0.6516397595405579,0.27758681774139404,3.5605974197387695,1.28901207447052,1.6739541292190552,10.949004173278809,-1.5504639148712158,0.8706426024436951,0.4707629084587097,-0.37819400429725647,11.19304084777832,-17.24095916748047,34.71491241455078,-0.33439385890960693,0.06739330291748047,-0.5088706016540527,2.008347988128662,10.881610870361328,-1.041593313217163
5_20251106_215133,1762437061030,5,0.062497328966856,0.2040860503911972,0.7326329350471497,0.6462908983230591,0.27725979685783386,3.5659804344177246,1.2641708850860596,1.1628140211105347,10.603056907653809,-1.7419918775558472,0.7924519181251526,0.6436375975608826,-0.46799108386039734,11.031791687011719,-16.569900512695312,35.410911560058594,-0.6764271259307861,-0.22284317016601562,-0.5603188276290894,1.8392411470413208,10.825900077819824,-1.1816730499267578
5_20251106_215133,1762437061048,5,0.05926964432001114,0.19713902473449707,0.7387664318084717,0.6417534351348877,0.27449512481689453,3.5692737102508545,1.2394237518310547,0.8300342559814453,10.294217109680176,-2.6062612533569336,0.6623377203941345,0.9466265439987183,-0.474710613489151,10.871655464172363,-15.874130249023438,36.147987365722656,-0.8073655366897583,-0.42534637451171875,-1.1396706104278564,1.6373997926712036,10.719563484191895,-1.4665906429290771
5_20251106_215133,1762437061068,5,0.054254114627838135,0.1881389021873474,0.7442282438278198,0.6385800838470459,0.27449512481689453,3.5692737102508545,1.2394237518310547,0.8300342559814453,10.294217109680176,-2.6062612533569336,0.4686935842037201,1.109727382659912,-0.4710454046726227,10.589447975158691,-15.198188781738281,36.81231689453125,-0.8073655366897583,-0.42534637451171875,-1.1396706104278564,1.6373997926712036,10.719563484191895,-1.4665906429290771
