session_id,timestamp,label,quaternion_w,quaternion_x,quaternion_y,quaternion_z,position_x,position_y,position_z,accelerometer_x,accelerometer_y,accelerometer_z,gyroscope_x,gyroscope_y,gyroscope_z,magnetometer_x,magnetometer_y,magnetometer_z,linear_acceleration_x,linear_acceleration_y,linear_acceleration_z,gravity_x,gravity_y,gravity_z
3_20251106_214921,1762436924474,3,0.1847149133682251,0.5852135419845581,0.6316131949424744,0.4737829267978668,0.6170781254768372,2.892331123352051,0.506650447845459,5.406353950500488,8.623136520385742,-4.410214900970459,0.1487111896276474,-0.4151284098625183,0.2782374322414398,21.553264617919922,-23.1109619140625,28.50191307067871,1.4216458797454834,0.5766115188598633,0.3563699722290039,3.984708070755005,8.046525001525879,-4.766584873199463
3_20251106_214921,1762436924493,3,0.18528826534748077,0.5880587100982666,0.6308649182319641,0.47102516889572144,0.6351543068885803,2.8971922397613525,0.4728873074054718,5.44585657119751,8.490264892578125,-4.245022296905518,0.1481003314256668,-0.45055854320526123,0.15911878645420074,21.65245819091797,-23.07909393310547,28.4658145904541,1.1689186096191406,0.3549919128417969,0.4172501564025879,4.276937961578369,8.135272979736328,-4.6622724533081055
3_20251106_214921,1762436924511,3,0.18681032955646515,0.5900046229362488,0.6307769417762756,0.4680992066860199,0.6351543068885803,2.8971922397613525,0.4728873074054718,5.44585657119751,8.490264892578125,-4.245022296905518,0.149322047829628,-0.41329580545425415,-0.039412230253219604,21.775531768798828,-23.046302795410156,28.49827766418457,1.1689186096191406,0.3549919128417969,0.4172501564025879,4.276937961578369,8.135272979736328,-4.6622724533081055
3_20251106_214921,1762436924531,3,0.18828336894512177,0.5899101495742798,0.6324781179428101,0.46532443165779114,0.6715693473815918,2.9062700271606445,0.4151213765144348,4.464276313781738,8.071296691894531,-4.632865905761719,0.17803271114826202,-0.2611905038356781,-0.4254786968231201,21.860017776489258,-23.065048217773438,28.42008399963379,0.013598442077636719,-0.0744619369506836,-0.028870105743408203,4.450677871704102,8.145758628845215,-4.6039958000183105
3_20251106_214921,1762436924551,3,0.19007626175880432,0.588386595249176,0.6354132294654846,0.46251732110977173,0.6863384246826172,2.9093315601348877,0.3874901831150055,3.682602882385254,7.775625228881836,-4.912975311279297,0.13466130197048187,-0.18788671493530273,-0.5519276857376099,22.045318603515625,-23.014923095703125,28.37416648864746,-0.6144599914550781,-0.29610633850097656,-0.24718332290649414,4.297062873840332,8.071731567382812,-4.665791988372803
3_20251106_214921,1762436924569,3,0.19234474003314972,0.5857589244842529,0.6389774084091187,0.45999765396118164,0.6863384246826172,2.9093315601348877,0.3874901831150055,3.682602882385254,7.775625228881836,-4.912975311279297,0.06196841597557068,-0.16223040223121643,-0.6056838035583496,22.278743743896484,-22.98565673828125,28.2215518951416,-0.6144599914550781,-0.29610633850097656,-0.24718332290649414,4.297062873840332,8.071731567382812,-4.665791988372803
3_20251106_214921,1762436924589,3,0.19514347612857819,0.5825009942054749,0.6426590085029602,0.4578220844268799,0.7009713649749756,2.9099340438842773,0.33152881264686584,2.0881333351135254,7.250120162963867,-4.995572090148926,0.06196841597557068,-0.16223040223121643,-0.6056838035583496,22.540390014648438,-22.868385314941406,28.22044563293457,-1.536292552947998,-0.5654773712158203,-0.19190645217895508,3.6244258880615234,7.8155975341796875,-4.803665637969971
3_20251106_214921,1762436924608,3,0.1984635889530182,0.5793724656105042,0.6459460258483887,0.4557339549064636,0.6988499760627747,2.907353401184082,0.3062908947467804,1.4034210443496704,7.126824378967285,-4.703492164611816,0.01187750231474638,-0.2508057951927185,-0.5360451936721802,22.853286743164062,-22.70972442626953,28.168027877807617,-1.7768038511276245,-0.5510187149047852,0.0801386833190918,3.180224895477295,7.67784309387207,-4.783630847930908
3_20251106_214921,1762436924627,3,0.201949805021286,0.5767233371734619,0.6489540934562683,0.45328253507614136,0.6912833452224731,2.903618097305298,0.28401580452919006,0.882704496383667,7.104081153869629,-4.605334281921387,0.09556596726179123,-0.3241095542907715,-0.43952861428260803,23.187522888183594,-22.398643493652344,28.024656295776367,-1.8380162715911865,-0.45900917053222656,0.1426372528076172,2.7207207679748535,7.5630903244018555,-4.747971534729004
3_20251106_214921,1762436924645,3,0.20512154698371887,0.5750695466995239,0.6516618728637695,0.4500633776187897,0.6912833452224731,2.903618097305298,0.28401580452919006,0.882704496383667,7.104081153869629,-4.605334281921387,0.1432134062051773,-0.34121376276016235,-0.31430134177207947,23.567893981933594,-22.12273406982422,27.95003318786621,-1.8380162715911865,-0.45900917053222656,0.1426372528076172,2.7207207679748535,7.5630903244018555,-4.747971534729004
3_20251106_214921,1762436924665,3,0.2076883316040039,0.5743076205253601,0.6538600921630859,0.4466579854488373,0.657829225063324,2.8931782245635986,0.23786284029483795,0.3679732084274292,7.303987979888916,-5.0350751876831055,0.07479657232761383,-0.29356634616851807,-0.1634177714586258,23.8712158203125,-21.92652130126953,27.83033561706543,-1.5258690118789673,-0.1416926383972168,-0.21094322204589844,1.8938422203063965,7.445680618286133,-4.824131965637207
3_20251106_214921,1762436924683,3,0.20973269641399384,0.5741212368011475,0.6550707221031189,0.44416141510009766,0.637970507144928,2.888523817062378,0.2171745002269745,0.6205506324768066,7.4560136795043945,-5.096124649047852,0.07479657232761383,-0.29356634616851807,-0.1634177714586258,24.28783416748047,-21.660240173339844,27.702856063842773,-1.018633246421814,0.008266448974609375,-0.21759414672851562,1.6391838788986206,7.447747230529785,-4.878530502319336
3_20251106_214921,1762436924702,3,0.21129648387432098,0.574346125125885,0.6552469730377197,0.44286760687828064,0.6162241697311401,2.8840763568878174,0.19595977663993835,0.9712860584259033,7.527835845947266,-5.049439430236816,-0.016833141446113586,-0.2202625423669815,-0.025973202660679817,24.564966201782227,-21.502883911132812,27.54083824157715,-0.534318208694458,0.0640707015991211,-0.13672733306884766,1.5056042671203613,7.4637651443481445,-4.912712097167969
3_20251106_214921,1762436924721,3,0.21241185069084167,0.5747950077056885,0.6546573042869568,0.44262367486953735,0.5960631966590881,2.88092041015625,0.17564086616039276,1.6871216297149658,7.853433609008789,-4.972827911376953,-0.12251273542642593,-0.12618938088417053,0.1713360846042633,24.79095458984375,-21.375167846679688,27.511491775512695,0.14521396160125732,0.3117351531982422,-0.04809236526489258,1.5419076681137085,7.541698455810547,-4.9247355461120605
3_20251106_214921,1762436924740,3,0.21305932104587555,0.5756965279579163,0.6534123420715332,0.4429802894592285,0.579738974571228,2.8797595500946045,0.1560581624507904,2.5729382038116455,8.21135139465332,-5.026695728302002,-0.049819834530353546,-0.20621266961097717,0.24952678382396698,25.037073135375977,-21.33281707763672,27.386667251586914,0.8248245716094971,0.5357222557067871,-0.08156824111938477,1.7481136322021484,7.675629138946533,-4.945127487182617
3_20251106_214921,1762436924760,3,0.2133771777153015,0.5775779485702515,0.6518189907073975,0.4427254796028137,0.5691354870796204,2.8811042308807373,0.13544508814811707,3.6299328804016113,8.499839782714844,-5.284061431884766,0.021040473133325577,-0.32472044229507446,0.2849569320678711,25.245519638061523,-21.31756591796875,27.21929359436035,1.505455493927002,0.6593685150146484,-0.2711472511291504,2.1244773864746094,7.840471267700195,-5.012914180755615
3_20251106_214921,1762436924780,3,0.21375858783721924,0.5803452730178833,0.6500155329704285,0.44157272577285767,0.5667647123336792,2.885255813598633,0.1149219423532486,4.658198356628418,8.785935401916504,-5.322366714477539,0.005768853239715099,-0.42795658111572266,0.22570304572582245,25.375917434692383,-21.394973754882812,27.047128677368164,2.0269768238067627,0.7563714981079102,-0.24756193161010742,2.6312215328216553,8.029563903808594,-5.074804782867432
3_20251106_214921,1762436924801,3,0.21499298512935638,0.583294153213501,0.6481025815010071,0.4398965835571289,0.5724430680274963,2.89219069480896,0.09442491084337234,5.239964485168457,9.013374328613281,-5.40376615524292,0.005768853239715099,-0.42795658111572266,0.22570304572582245,25.4664306640625,-21.53728485107422,26.84514045715332,2.086994171142578,0.78704833984375,-0.2631688117980957,3.152970314025879,8.226325988769531,-5.140597343444824
3_20251106_214921,1762436924818,3,0.21724678575992584,0.5854153633117676,0.6469016075134277,0.4377340078353882,0.5724430680274963,2.89219069480896,0.09442491084337234,5.239964485168457,9.013374328613281,-5.40376615524292,-0.043100323528051376,-0.4859887361526489,-0.15975259244441986,25.4664306640625,-21.53728485107422,26.84514045715332,2.086994171142578,0.78704833984375,-0.2631688117980957,3.152970314025879,8.226325988769531,-5.140597343444824
3_20251106_214921,1762436924837,3,0.2205122411251068,0.5862633585929871,0.6465803384780884,0.43543481826782227,0.5839818120002747,2.9002761840820312,0.07417088747024536,5.174126625061035,8.718900680541992,-5.397780895233154,-0.043100323528051376,-0.4859887361526489,-0.15975259244441986,25.646263122558594,-21.610572814941406,26.580324172973633,1.6169252395629883,0.3940601348876953,-0.20574712753295898,3.557201385498047,8.324840545654297,-5.192033767700195
3_20251106_214921,1762436924856,3,0.22459381818771362,0.5862975716590881,0.6466096043586731,0.43325376510620117,0.5979055762290955,2.9077184200286865,0.05539611726999283,4.8365583419799805,8.377741813659668,-5.372642517089844,-0.10479766130447388,-0.4780474901199341,-0.28009289503097534,25.688440322875977,-21.74390411376953,26.417184829711914,1.0234856605529785,0.042321205139160156,-0.1444873809814453,3.813072681427002,8.335420608520508,-5.228155136108398
3_20251106_214921,1762436924875,3,0.22902227938175201,0.5858259797096252,0.6467610597610474,0.43134310841560364,0.6116837859153748,2.9139931201934814,0.03824620321393013,4.319433212280273,8.163469314575195,-5.330745697021484,-0.2428530901670456,-0.43406522274017334,-0.3240751624107361,25.96446418762207,-21.824203491210938,26.237123489379883,0.4050884246826172,-0.13756084442138672,-0.08207225799560547,3.9143447875976562,8.301030158996582,-5.248673439025879
3_20251106_214921,1762436924893,3,0.2338068187236786,0.5850168466567993,0.646645188331604,0.43004605174064636,0.6253702640533447,2.919447898864746,0.021197879686951637,3.8669486045837402,7.995882987976074,-5.194282531738281,-0.26056817173957825,-0.513477623462677,-0.2910884618759155,26.194847106933594,-21.86865997314453,25.920732498168945,-0.037917137145996094,-0.24411773681640625,0.043512821197509766,3.9048657417297363,8.24000072479248,-5.237795352935791
3_20251106_214921,1762436924913,3,0.23912404477596283,0.5847052335739136,0.6460607647895813,0.4284214377403259,0.6466020941734314,2.9271624088287354,-0.00683574378490448,3.1750540733337402,7.874980449676514,-4.782497406005859,-0.19948169589042664,-0.7065109014511108,-0.26421043276786804,26.463085174560547,-21.897369384765625,25.52497673034668,-0.5417752265930176,-0.2550644874572754,0.332186222076416,3.716829299926758,8.130044937133789,-5.114683628082275
3_20251106_214921,1762436924932,3,0.2453719824552536,0.5856966972351074,0.6448801755905151,0.42530176043510437,0.6537111401557922,2.9295942783355713,-0.019343050196766853,2.7644662857055664,7.766049385070801,-4.674762725830078,-0.12739965319633484,-0.8787747621536255,-0.17991112172603607,26.74260711669922,-21.9381103515625,25.15648078918457,-0.7618904113769531,-0.2911958694458008,0.35193634033203125,3.5263566970825195,8.057245254516602,-5.026699066162109
3_20251106_214921,1762436924951,3,0.2517765462398529,0.587673008441925,0.6433951258659363,0.4210602641105652,0.6537111401557922,2.9295942783355713,-0.019343050196766853,2.7644662857055664,7.766049385070801,-4.674762725830078,-0.06631318479776382,-1.022938847541809,-0.06262508779764175,27.232505798339844,-21.914581298828125,24.743314743041992,-0.7618904113769531,-0.2911958694458008,0.35193634033203125,3.5263566970825195,8.057245254516602,-5.026699066162109
3_20251106_214921,1762436924971,3,0.2582819163799286,0.5910094976425171,0.6411353945732117,0.4158649444580078,0.6574905514717102,2.9309558868408203,-0.03086020052433014,2.5382237434387207,7.7397141456604,-4.7406005859375,-0.07730874419212341,-1.0968533754348755,0.035724133253097534,27.673648834228516,-21.905845642089844,24.233308792114258,-0.7905063629150391,-0.2540249824523926,0.22887897491455078,3.3287301063537598,7.993739128112793,-4.969479560852051
3_20251106_214921,1762436924989,3,0.26493048667907715,0.5951911807060242,0.6380147337913513,0.4104832708835602,0.6579779982566833,2.931265115737915,-0.04794231057167053,2.6208200454711914,7.707393646240234,-4.735812187194824,-0.14267127215862274,-1.1298401355743408,0.09742147475481033,28.144214630126953,-22.008819580078125,23.830530166625977,-0.43237733840942383,-0.18709182739257812,0.16103887557983398,3.0531973838806152,7.8944854736328125,-4.896851062774658
3_20251106_214921,1762436925010,3,0.2718965411186218,0.5996978282928467,0.6340992450714111,0.4054046869277954,0.6562188267707825,2.9304018020629883,-0.055909279733896255,2.6722934246063232,7.683452606201172,-4.612516403198242,-0.17138192057609558,-1.1787093877792358,0.11391482502222061,28.664907455444336,-22.106727600097656,23.2404842376709,-0.30472326278686523,-0.16882610321044922,0.22746753692626953,2.9770166873931885,7.852278709411621,-4.839983940124512
3_20251106_214921,1762436925030,3,0.27918198704719543,0.6043394207954407,0.6297757029533386,0.40026724338531494,0.6533296704292297,2.9281468391418457,-0.06195655092597008,2.550194263458252,7.367431640625,-4.458096981048584,-0.18298836052417755,-1.2318545579910278,0.12735383212566376,29.097156524658203,-22.2840576171875,22.496740341186523,-0.3414580821990967,-0.3878774642944336,0.3055095672607422,2.8916523456573486,7.755309104919434,-4.763606548309326
3_20251106_214921,1762436925047,3,0.2867751717567444,0.6091908812522888,0.6250587105751038,0.3949025869369507,0.6504719257354736,2.92480731010437,-0.0661257654428482,2.551391363143921,6.919734954833984,-4.544284343719482,-0.20986640453338623,-1.2355197668075562,0.19454894959926605,29.685611724853516,-22.488868713378906,21.772096633911133,-0.27220869064331055,-0.668459415435791,0.17545747756958008,2.8236000537872314,7.588194370269775,-4.7197418212890625
3_20251106_214921,1762436925066,3,0.29429563879966736,0.6143771409988403,0.6196862459182739,0.3897688686847687,0.647262454032898,2.918704032897949,-0.07101275026798248,2.8841710090637207,6.8850202560424805,-4.698704242706299,-0.2795049846172333,-1.2807236909866333,0.27151793241500854,30.18814468383789,-22.72327423095703,20.935361862182617,0.048456668853759766,-0.5625395774841309,0.016829967498779297,2.835714340209961,7.447559833526611,-4.715534210205078
3_20251106_214921,1762436925085,3,0.302123486995697,0.6199778914451599,0.6133614778518677,0.3848850429058075,0.6447714567184448,2.91180682182312,-0.07451990246772766,2.9835262298583984,6.941282272338867,-4.3862738609313965,-0.36746951937675476,-1.3583035469055176,0.2440290004014969,30.689058303833008,-22.994674682617188,20.030256271362305,0.11824941635131836,-0.40502214431762695,0.26340818405151367,2.86527681350708,7.346304416656494,-4.64968204498291
3_20251106_214921,1762436925104,3,0.3109157383441925,0.6254435777664185,0.6064771413803101,0.3799173831939697,0.6425816416740417,2.9038312435150146,-0.07585472613573074,2.929658889770508,6.82756233215332,-3.921818733215332,-0.4108408987522125,-1.36380136013031,0.1255212426185608,31.060344696044922,-23.42375946044922,19.022462844848633,0.05150556564331055,-0.4149937629699707,0.5822906494140625,2.8781533241271973,7.242556095123291,-4.5041093826293945
3_20251106_214921,1762436925123,3,0.32036474347114563,0.6299722194671631,0.6000040769577026,0.37482863664627075,0.639975905418396,2.8945116996765137,-0.07508843392133713,2.6866579055786133,6.60730504989624,-3.762611150741577,-0.43099942803382874,-1.302103877067566,-0.017421098425984383,31.54170036315918,-23.84515380859375,17.96502113342285,-0.1531963348388672,-0.5082011222839355,0.5931985378265381,2.8398542404174805,7.115506172180176,-4.355809688568115
3_20251106_214921,1762436925142,3,0.3301234841346741,0.6333568692207336,0.5942844748497009,0.36973437666893005,0.639975905418396,2.8945116996765137,-0.07508843392133713,2.6866579055786133,6.60730504989624,-3.762611150741577,-0.43099942803382874,-1.302103877067566,-0.017421098425984383,31.954959869384766,-24.19489288330078,16.7980899810791,-0.1531963348388672,-0.5082011222839355,0.5931985378265381,2.8398542404174805,7.115506172180176,-4.355809688568115
3_20251106_214921,1762436925161,3,0.340146005153656,0.635879397392273,0.5890747308731079,0.3646218180656433,0.6356053352355957,2.8835270404815674,-0.07264618575572968,2.2593111991882324,6.567802429199219,-3.8045077323913574,-0.48170119524002075,-1.2904976606369019,-0.17135901749134064,32.403663635253906,-24.56696319580078,15.591550827026367,-0.4644346237182617,-0.43816328048706055,0.4410414695739746,2.723745822906494,7.005965709686279,-4.245549201965332
3_20251106_214921,1762436925180,3,0.3506421744823456,0.6379985213279724,0.5839620232582092,0.3591606318950653,0.628389298915863,2.8714210987091064,-0.06822472810745239,1.715850830078125,6.456477165222168,-3.5543246269226074,-0.47620341181755066,-1.3613578081130981,-0.1573091298341751,32.84117126464844,-24.9384765625,14.249361038208008,-0.8063161373138428,-0.4395909309387207,0.5529794692993164,2.5221669673919678,6.896068096160889,-4.107304096221924
3_20251106_214921,1762436925200,3,0.3614991307258606,0.6403492093086243,0.5784164071083069,0.35313698649406433,0.6056808829307556,2.845740795135498,-0.05321495980024338,0.8850985765457153,6.361909866333008,-2.965376377105713,-0.47620341181755066,-1.3613578081130981,-0.1573091298341751,33.21733856201172,-25.32611846923828,12.86390495300293,-1.0959887504577637,-0.3050880432128906,0.757073163986206,1.981087327003479,6.666997909545898,-3.722449541091919
3_20251106_214921,1762436925219,3,0.3725404143333435,0.6438864469528198,0.5716697573661804,0.34614676237106323,0.5893877148628235,2.833467960357666,-0.041284024715423584,0.622944712638855,6.820380210876465,-2.4207186698913574,-0.39923447370529175,-1.6417447328567505,0.032669808715581894,33.60518264770508,-25.725250244140625,11.451642990112305,-1.0865141153335571,0.12270545959472656,1.0413846969604492,1.709458827972412,6.697674751281738,-3.4621033668518066
3_20251106_214921,1762436925239,3,0.3838801085948944,0.6482260227203369,0.5638734698295593,0.33835744857788086,0.5688053965568542,2.821568012237549,-0.024302266538143158,0.29854437708854675,6.820380210876465,-1.8006473779678345,-0.36808034777641296,-1.6411339044570923,0.05038488656282425,33.94770050048828,-26.076522827148438,9.957376480102539,-1.1287314891815186,0.09816408157348633,1.3291646242141724,1.4272758960723877,6.7222161293029785,-3.129812002182007
3_20251106_214921,1762436925258,3,0.3949706554412842,0.6524922251701355,0.5559223294258118,0.3304579257965088,0.5461642146110535,2.81046724319458,-0.004547886550426483,-0.05458519607782364,6.590546607971191,-1.5157495737075806,-0.30760475993156433,-1.5684410333633423,0.05343920737504959,33.94770050048828,-26.076522827148438,9.957376480102539,-1.1854889392852783,-0.10533523559570312,1.2912501096725464,1.130903720855713,6.6958818435668945,-2.806999683380127
3_20251106_214921,1762436925276,3,0.4052962064743042,0.6565274000167847,0.5482729077339172,0.32265084981918335,0.5461642146110535,2.81046724319458,-0.004547886550426483,-0.05458519607782364,6.590546607971191,-1.5157495737075806,-0.30760475993156433,-1.5684410333633423,0.05343920737504959,34.22161102294922,-26.368431091308594,8.326324462890625,-1.1854889392852783,-0.10533523559570312,1.2912501096725464,1.130903720855713,6.6958818435668945,-2.806999683380127
3_20251106_214921,1762436925295,3,0.41511595249176025,0.6604783535003662,0.5403169393539429,0.3154436945915222,0.49367690086364746,2.793083429336548,0.036539435386657715,-0.7548590898513794,7.599658966064453,-2.4997239112854004,-0.30088523030281067,-1.498191475868225,0.15728619694709778,34.3989372253418,-26.65386199951172,6.664581298828125,-1.2737314701080322,0.7009949684143066,0.09687042236328125,0.5188723802566528,6.8986639976501465,-2.5965943336486816
3_20251106_214921,1762436925315,3,0.42468735575675964,0.6647586822509766,0.5318472981452942,0.30801793932914734,0.4624231457710266,2.786449670791626,0.05721285939216614,-1.049333095550537,7.074153900146484,-2.222008466720581,-0.22330541908740997,-1.5507259368896484,0.15850792825222015,34.57373809814453,-26.989120483398438,4.961233139038086,-1.2545644044876099,0.14039182662963867,0.2996687889099121,0.20523130893707275,6.933762073516846,-2.521677255630493
3_20251106_214921,1762436925334,3,0.4339432418346405,0.66940838098526,0.5232476592063904,0.29966241121292114,0.42715173959732056,2.779733180999756,0.07676306366920471,-1.116368055343628,6.906567573547363,-2.8911590576171875,-0.18482095003128052,-1.4261095523834229,0.1976032704114914,34.688926696777344,-27.303367614746094,3.2694759368896484,-1.0572794675827026,-0.021755695343017578,-0.29558539390563965,-0.059088557958602905,6.928323268890381,-2.595573663711548
3_20251106_214921,1762436925355,3,0.44215989112854004,0.6739097833633423,0.5148990750312805,0.29192328453063965,0.42715173959732056,2.779733180999756,0.07676306366920471,-1.116368055343628,6.906567573547363,-2.8911590576171875,-0.28011584281921387,-1.4004532098770142,0.19638153910636902,34.64678955078125,-27.614845275878906,1.5175418853759766,-1.0572794675827026,-0.021755695343017578,-0.29558539390563965,-0.059088557958602905,6.928323268890381,-2.595573663711548
3_20251106_214921,1762436925372,3,0.4503946602344513,0.6774284243583679,0.5069391131401062,0.28504055738449097,0.35597261786460876,2.773348331451416,0.10117216408252716,-1.8752973079681396,7.780413627624512,-3.879922389984131,-0.4725382626056671,-1.5232369899749756,0.17500127851963043,34.51613998413086,-27.982650756835938,-0.184814453125,-1.2476035356521606,0.5775146484375,-0.8300275802612305,-0.627693772315979,7.202898979187012,-3.0498948097229004
3_20251106_214921,1762436925390,3,0.460661381483078,0.6808721423149109,0.4971941411495209,0.2774927616119385,0.3155788779258728,2.7714083194732666,0.11135584861040115,-2.3684816360473633,7.2680768966674805,-3.074307680130005,-0.4725382626056671,-1.5232369899749756,0.17500127851963043,34.34368133544922,-28.23981475830078,-1.967855453491211,-1.3926303386688232,0.05214262008666992,-0.019530296325683594,-0.97585129737854,7.2159342765808105,-3.0547773838043213
3_20251106_214921,1762436925409,3,0.4720328748226166,0.6835312843322754,0.48706215620040894,0.26970431208610535,0.3155788779258728,2.7714083194732666,0.11135584861040115,-2.3684816360473633,7.2680768966674805,-3.074307680130005,-0.6838974356651306,-1.39862060546875,-0.03880136460065842,34.10989761352539,-28.501487731933594,-3.6992835998535156,-1.3926303386688232,0.05214262008666992,-0.019530296325683594,-0.97585129737854,7.2159342765808105,-3.0547773838043213
3_20251106_214921,1762436925430,3,0.483561247587204,0.6842502355575562,0.47851279377937317,0.26267027854919434,0.2144179344177246,2.7664148807525635,0.13529422879219055,-4.61653995513916,7.5661420822143555,-2.6697049140930176,-0.8964783549308777,-1.0388213396072388,-0.27948206663131714,33.79634094238281,-28.680007934570312,-5.513394355773926,-2.566194534301758,0.3411564826965332,0.22365474700927734,-2.0503454208374023,7.224985599517822,-2.893359661102295
3_20251106_214921,1762436925449,3,0.4954474866390228,0.6817581653594971,0.47261330485343933,0.2576320469379425,0.2144179344177246,2.7664148807525635,0.13529422879219055,-4.61653995513916,7.5661420822143555,-2.6697049140930176,-1.0351448059082031,-0.7260585427284241,-0.45418936014175415,33.34974670410156,-28.842689514160156,-7.27830696105957,-2.566194534301758,0.3411564826965332,0.22365474700927734,-2.0503454208374023,7.224985599517822,-2.893359661102295
3_20251106_214921,1762436925467,3,0.5074161291122437,0.6770551800727844,0.4687027633190155,0.2538560926914215,0.08689865469932556,2.7694032192230225,0.16025695204734802,-7.595995903015137,7.587688446044922,-1.9766135215759277,-1.0253708362579346,-0.4365086555480957,-0.4108179807662964,32.88573455810547,-28.88152313232422,-9.028044700622559,-3.7378714084625244,0.13215160369873047,0.6619882583618164,-3.8581244945526123,7.455536842346191,-2.638601779937744
3_20251106_214921,1762436925486,3,0.5180836915969849,0.671681821346283,0.46592599153518677,0.25168588757514954,0.008624836802482605,2.769223928451538,0.1754768043756485,-8.202899932861328,6.797636032104492,-1.785085678100586,-1.0253708362579346,-0.4365086555480957,-0.4108179807662964,32.41527557373047,-28.82056427001953,-10.789677619934082,-3.475820541381836,-0.5263204574584961,0.6828129291534424,-4.727079391479492,7.323956489562988,-2.4678986072540283
3_20251106_214921,1762436925505,3,0.5268383622169495,0.666899561882019,0.46283918619155884,0.2519250512123108,-0.07640788704156876,2.7683682441711426,0.19231809675693512,-8.61707878112793,7.074154376983643,-1.5995430946350098,-0.909306526184082,-0.23003637790679932,0.33871304988861084,31.974637985229492,-28.646217346191406,-12.426307678222656,-3.11199951171875,-0.19984149932861328,0.6946842670440674,-5.50507926940918,7.273995876312256,-2.294227361679077
3_20251106_214921,1762436925524,3,0.5341711640357971,0.6647422313690186,0.4565463662147522,0.2536618709564209,-0.07640788704156876,2.7683682441711426,0.19231809675693512,-8.61707878112793,7.074154376983643,-1.5995430946350098,-0.909306526184082,-0.23003637790679932,0.33871304988861084,31.52250862121582,-28.471717834472656,-14.158041954040527,-3.11199951171875,-0.19984149932861328,0.6946842670440674,-5.50507926940918,7.273995876312256,-2.294227361679077
3_20251106_214921,1762436925543,3,0.5397698283195496,0.6643944978713989,0.447282999753952,0.2591647803783417,-0.25124114751815796,2.765538454055786,0.23295752704143524,-6.804746627807617,7.484742164611816,-0.8825104236602783,-1.0785161256790161,0.19573631882667542,1.399785041809082,31.018840789794922,-28.32740020751953,-15.703038215637207,-0.6076993942260742,0.22336339950561523,0.9452519416809082,-6.197047233581543,7.261378765106201,-1.8277623653411865
3_20251106_214921,1762436925562,3,0.5435141921043396,0.6641824841499329,0.4364739656448364,0.2700822949409485,-0.3306512236595154,2.7688539028167725,0.25545063614845276,-5.319208145141602,8.811073303222656,-1.0489002466201782,-1.1707566976547241,0.4889513850212097,1.5518903732299805,30.43762969970703,-28.263458251953125,-17.225528717041016,0.7022714614868164,1.239755630493164,0.6230896711349487,-6.021479606628418,7.571317672729492,-1.671989917755127
3_20251106_214921,1762436925582,3,0.545987069606781,0.6631409525871277,0.42581552267074585,0.284294456243515,-0.3306512236595154,2.7688539028167725,0.25545063614845276,-5.319208145141602,8.811073303222656,-1.0489002466201782,-1.2605538368225098,0.7577318549156189,1.2495123147964478,29.873682022094727,-28.288787841796875,-18.451526641845703,0.7022714614868164,1.239755630493164,0.6230896711349487,-6.021479606628418,7.571317672729492,-1.671989917755127
3_20251106_214921,1762436925600,3,0.5484686493873596,0.6595311760902405,0.4179679751396179,0.29917144775390625,-0.4101334512233734,2.7798123359680176,0.2815459370613098,-4.858344554901123,9.802230834960938,-0.9327864646911621,-1.4871845245361328,1.3032341003417969,0.8719979524612427,29.429183959960938,-28.344253540039062,-19.632863998413086,0.9305081367492676,1.7847309112548828,0.5913628339767456,-5.788852691650391,8.017499923706055,-1.5241492986679077
3_20251106_214921,1762436925620,3,0.5511152148246765,0.6514278054237366,0.4145226776599884,0.31636175513267517,-0.5309783816337585,2.8037941455841064,0.33600497245788574,-4.768565654754639,8.528570175170898,0.6497128009796143,-1.6295161247253418,2.113851547241211,0.938582181930542,29.03354263305664,-28.384796142578125,-20.730878829956055,0.710442066192627,0.2112102508544922,1.454284429550171,-5.479007720947266,8.317359924316406,-0.8045716881752014
3_20251106_214921,1762436925639,3,0.551132082939148,0.6398149728775024,0.41437476873397827,0.3393874168395996,-0.5856339931488037,2.8182196617126465,0.3668040931224823,-3.4051265716552734,8.8900785446167,-0.682603120803833,-1.5989727973937988,2.6043760776519775,1.3851243257522583,28.67973518371582,-28.51275634765625,-21.558452606201172,1.6591053009033203,0.4581747055053711,0.09757488965988159,-5.064231872558594,8.431903839111328,-0.7801780104637146
3_20251106_214921,1762436925660,3,0.5471348166465759,0.6279817819595337,0.41388195753097534,0.3674018681049347,-0.6286665201187134,2.8376712799072266,0.3959595859050751,-1.6370844841003418,9.942285537719727,-1.2476104497909546,-1.540940761566162,2.393627643585205,1.7522540092468262,28.425771713256836,-28.77452850341797,-22.100675582885742,2.74171781539917,1.2083053588867188,-0.373945951461792,-4.378802299499512,8.733980178833008,-0.8736644983291626
3_20251106_214921,1762436925679,3,0.5415441393852234,0.6183896064758301,0.40983760356903076,0.39542052149772644,-0.6547293663024902,2.8586251735687256,0.42073896527290344,-0.39694130420684814,10.277460098266602,-0.9758802652359009,-1.3595138788223267,1.8603426218032837,1.7345389127731323,28.285329818725586,-28.942733764648438,-22.487957000732422,3.185488700866699,1.2347841262817383,-0.0817725658416748,-3.582430124282837,9.042675971984863,-0.8941076993942261
3_20251106_214921,1762436925697,3,0.5363770127296448,0.6113633513450623,0.40338334441185,0.4193047285079956,-0.6547293663024902,2.8586251735687256,0.42073896527290344,-0.39694130420684814,10.277460098266602,-0.9758802652359009,-1.2831557989120483,1.3783704042434692,1.3472506999969482,28.285329818725586,-28.942733764648438,-22.487957000732422,3.185488700866699,1.2347841262817383,-0.0817725658416748,-3.582430124282837,9.042675971984863,-0.8941076993942261
3_20251106_214921,1762436925715,3,0.5337997674942017,0.6048485636711121,0.3966822922229767,0.4380172789096832,-0.6769817471504211,2.905529737472534,0.4780947268009186,-0.3765914738178253,10.814933776855469,2.521898031234741,-1.4957367181777954,1.4748870134353638,0.8524502515792847,28.17621421813965,-29.196861267089844,-22.835067749023438,1.9948530197143555,1.2043447494506836,2.5152885913848877,-2.3714444637298584,9.610589027404785,0.0066093504428863525
3_20251106_214921,1762436925735,3,0.5340139269828796,0.5944344401359558,0.39226052165031433,0.4556407630443573,-0.6769817471504211,2.905529737472534,0.4780947268009186,-0.3765914738178253,10.814933776855469,2.521898031234741,-1.7455804347991943,2.088195323944092,0.4676055312156677,28.292001724243164,-29.324752807617188,-23.062843322753906,1.9948530197143555,1.2043447494506836,2.5152885913848877,-2.3714444637298584,9.610589027404785,0.0066093504428863525
3_20251106_214921,1762436925753,3,0.5348976850509644,0.5778504014015198,0.39196518063545227,0.4757485091686249,-0.6797947287559509,2.9661853313446045,0.5717173218727112,-0.8482289910316467,11.244674682617188,4.440768241882324,-1.8518707752227783,2.518855094909668,0.35276293754577637,28.63611602783203,-29.263763427734375,-23.156448364257812,0.9585780501365662,1.056157112121582,2.9229001998901367,-1.806807041168213,10.188517570495605,1.5178680419921875
3_20251106_214921,1762436925773,3,0.5349516272544861,0.5576061606407166,0.39381858706474304,0.4978042542934418,-0.6776472926139832,2.9997596740722656,0.6334645748138428,-1.1977672576904297,10.935836791992188,5.198500633239746,-1.7077068090438843,2.231748580932617,0.48776406049728394,29.03413200378418,-29.08820343017578,-23.08352279663086,0.4872318506240845,0.5978555679321289,2.9445061683654785,-1.6849991083145142,10.337981224060059,2.2539944648742676
3_20251106_214921,1762436925793,3,0.5335403680801392,0.5389228463172913,0.39464980363845825,0.5187951326370239,-0.6753305792808533,3.0325958728790283,0.705715537071228,-1.5939908027648926,10.647347450256348,6.724738121032715,-1.328359842300415,1.7222872972488403,0.837178647518158,29.547788619995117,-28.994346618652344,-22.83182716369629,0.072806715965271,0.24749279022216797,3.576594829559326,-1.6667975187301636,10.39985466003418,3.1481432914733887
3_20251106_214921,1762436925811,3,0.5307911038398743,0.5260590314865112,0.39204350113868713,0.5364928245544434,-0.6753305792808533,3.0325958728790283,0.705715537071228,-1.5939908027648926,10.647347450256348,6.724738121032715,-0.9044196009635925,1.6813592910766602,1.4150567054748535,29.87507438659668,-28.751075744628906,-22.831562042236328,0.072806715965271,0.24749279022216797,3.576594829559326,-1.6667975187301636,10.39985466003418,3.1481432914733887
3_20251106_214921,1762436925830,3,0.5236086249351501,0.517540693283081,0.38776177167892456,0.5546408295631409,-0.6608280539512634,3.092886209487915,0.8543305993080139,1.102961540222168,11.415853500366211,5.903562545776367,-0.686951756477356,1.7033504247665405,1.9043593406677246,30.414724349975586,-28.618637084960938,-22.510513305664062,2.0752599239349365,0.7597932815551758,1.6188650131225586,-0.9722983837127686,10.656060218811035,4.284697532653809
3_20251106_214921,1762436925852,3,0.5115851163864136,0.5110564231872559,0.38276320695877075,0.5749733448028564,-0.6350395083427429,3.1326000690460205,0.9463868141174316,2.819530487060547,12.064653396606445,6.298588752746582,-0.6368608474731445,1.5457473993301392,2.0246996879577637,30.837282180786133,-28.596229553222656,-21.952695846557617,3.0334630012512207,1.1268749237060547,1.6111130714416504,-0.21393263339996338,10.93777847290039,4.687475681304932
3_20251106_214921,1762436925871,3,0.49867725372314453,0.5061971545219421,0.37634459137916565,0.5945167541503906,-0.6040882468223572,3.1668741703033447,1.0238198041915894,4.215290069580078,12.320822715759277,7.075473785400391,-0.5452311038970947,1.6221054792404175,1.9342916011810303,31.257442474365234,-28.60028839111328,-21.26024627685547,3.5433781147003174,1.1064348220825195,1.9103984832763672,0.671911895275116,11.214387893676758,5.165075302124023
3_20251106_214921,1762436925888,3,0.48505935072898865,0.5007873773574829,0.3709077537059784,0.6134793162345886,-0.5653882622718811,3.199929714202881,1.0975561141967773,5.648158073425293,12.263364791870117,7.105400085449219,-0.3601391017436981,1.892107605934143,1.7840189933776855,31.976051330566406,-29.156097412109375,-20.45407485961914,3.980997085571289,0.8391809463500977,1.5522594451904297,1.667160987854004,11.42418384552002,5.553140640258789
3_20251106_214921,1762436925907,3,0.4700387120246887,0.4938039779663086,0.36816784739494324,0.6321974992752075,-0.5060520172119141,3.239337921142578,1.1823244094848633,6.957730293273926,12.234634399414062,6.32851505279541,-0.13534089922904968,2.024665355682373,1.5885422229766846,31.927776336669922,-29.658348083496094,-19.288942337036133,4.232455253601074,0.6483602523803711,0.6202993392944336,2.7252748012542725,11.586274147033691,5.708215713500977
3_20251106_214921,1762436925925,3,0.45493248105049133,0.48660871386528015,0.3674089014530182,0.6490447521209717,-0.4432733654975891,3.274569511413574,1.254881501197815,7.61730432510376,12.210693359375,5.7407636642456055,-0.13534089922904968,2.024665355682373,1.5885422229766846,31.76068878173828,-30.307762145996094,-17.94190216064453,3.913623809814453,0.49953556060791016,0.026038169860839844,3.7036805152893066,11.71115779876709,5.714725494384766
3_20251106_214921,1762436925945,3,0.4406479001045227,0.47978824377059937,0.36872899532318115,0.6630773544311523,-0.36462196707725525,3.312087059020996,1.3310974836349487,7.777709007263184,11.819258689880371,5.592329502105713,0.06441186368465424,1.9257053136825562,1.280666470527649,31.320178985595703,-31.063087463378906,-16.55343246459961,3.259222984313965,0.08648109436035156,-0.09791707992553711,4.518486022949219,11.73277759552002,5.69024658203125
3_20251106_214921,1762436925964,3,0.42775535583496094,0.47259923815727234,0.3715091347694397,0.6750231981277466,-0.36462196707725525,3.312087059020996,1.3310974836349487,7.777709007263184,11.819258689880371,5.592329502105713,0.16703714430332184,1.8902751207351685,0.8518394231796265,30.78875732421875,-31.901199340820312,-14.980752944946289,3.259222984313965,0.08648109436035156,-0.09791707992553711,4.518486022949219,11.73277759552002,5.69024658203125
3_20251106_214921,1762436925984,3,0.4153607487678528,0.4647400379180908,0.37504395842552185,0.6861735582351685,-0.201823890209198,3.3726513385772705,1.4604769945144653,8.618038177490234,11.002870559692383,5.197303295135498,0.2837122976779938,1.7711564302444458,0.8164092302322388,30.046066284179688,-32.80479431152344,-13.241754531860352,2.6982178688049316,-0.5088939666748047,-0.37313413619995117,5.919820308685303,11.511764526367188,5.570437431335449
3_20251106_214921,1762436926001,3,0.40284520387649536,0.4578501880168915,0.37889614701271057,0.6960794925689697,-0.201823890209198,3.3726513385772705,1.4604769945144653,8.618038177490234,11.002870559692383,5.197303295135498,0.2837122976779938,1.7711564302444458,0.8164092302322388,28.908864974975586,-33.339210510253906,-11.501957893371582,2.6982178688049316,-0.5088939666748047,-0.37313413619995117,5.919820308685303,11.511764526367188,5.570437431335449
3_20251106_214921,1762436926021,3,0.3902965486049652,0.45294490456581116,0.38244473934173584,0.7044469714164734,-0.013594523072242737,3.422900438308716,1.5743802785873413,9.139951705932617,10.829298973083496,4.629901885986328,0.44375887513160706,1.1431875228881836,0.8139657974243164,28.1871280670166,-34.079307556152344,-9.704973220825195,2.0878896713256836,-0.43218135833740234,-0.5954303741455078,7.052062034606934,11.261480331420898,5.225332260131836
3_20251106_214921,1762436926040,3,0.3789030611515045,0.4507654905319214,0.38492172956466675,0.7106885313987732,0.08001386374235153,3.4436047077178955,1.6247022151947021,8.998699188232422,10.832889556884766,5.2511701583862305,0.44375887513160706,1.1431875228881836,0.8139657974243164,27.45258140563965,-34.63129425048828,-8.040172576904297,1.557309627532959,-0.34287261962890625,0.020670413970947266,7.441389560699463,11.175762176513672,5.230499744415283
3_20251106_214921,1762436926060,3,0.36859750747680664,0.450213223695755,0.38764217495918274,0.7149667739868164,0.17277765274047852,3.46111798286438,1.6726632118225098,8.839491844177246,10.389982223510742,5.287081718444824,0.7174262404441833,0.8487507104873657,0.5176963806152344,26.731826782226562,-35.1571044921875,-6.401386260986328,1.1184816360473633,-0.6286239624023438,0.04526519775390625,7.721010208129883,11.018606185913086,5.241816520690918
3_20251106_214921,1762436926079,3,0.35898441076278687,0.44956591725349426,0.39207983016967773,0.7178398370742798,0.26789724826812744,3.4741618633270264,1.7179780006408691,8.495939254760742,9.548456192016602,4.371339321136475,0.8762510418891907,0.8744070529937744,0.37964099645614624,26.054553985595703,-35.57831573486328,-4.934728622436523,0.6199431419372559,-1.1761198043823242,-0.6963820457458496,7.875996112823486,10.724575996398926,5.067721366882324
3_20251106_214921,1762436926100,3,0.3492334485054016,0.4485142230987549,0.3983728885650635,0.7198402881622314,0.26789724826812744,3.4741618633270264,1.7179780006408691,8.495939254760742,9.548456192016602,4.371339321136475,0.8762510418891907,0.8744070529937744,0.37964099645614624,26.054553985595703,-35.57831573486328,-4.934728622436523,0.6199431419372559,-1.1761198043823242,-0.6963820457458496,7.875996112823486,10.724575996398926,5.067721366882324
3_20251106_214921,1762436926117,3,0.3394819498062134,0.4484899342060089,0.4047195017337799,0.7209791541099548,0.4397704303264618,3.4832541942596436,1.7816554307937622,8.346307754516602,8.837409019470215,2.3447349071502686,0.9483330845832825,0.7791121006011963,0.39430174231529236,25.46620750427246,-35.931053161621094,-3.4768333435058594,0.2971687316894531,-1.2275152206420898,-1.873908281326294,8.049139022827148,10.064924240112305,4.2186431884765625
3_20251106_214921,1762436926136,3,0.3302097022533417,0.45055344700813293,0.4099907875061035,0.7210205793380737,0.4397704303264618,3.4832541942596436,1.7816554307937622,8.346307754516602,8.837409019470215,2.3447349071502686,0.9000747799873352,0.24949240684509277,0.4382839798927307,24.840991973876953,-36.298187255859375,-2.074739456176758,0.2971687316894531,-1.2275152206420898,-1.873908281326294,8.049139022827148,10.064924240112305,4.2186431884765625
3_20251106_214921,1762436926156,3,0.3223095238208771,0.45432835817337036,0.41417422890663147,0.7198347449302673,0.5286198258399963,3.481731414794922,1.804396152496338,8.273286819458008,8.88529109954834,2.3267791271209717,0.8224949836730957,0.13770416378974915,0.32160884141921997,24.199949264526367,-36.52770233154297,-0.7788524627685547,0.17931842803955078,-0.9437074661254883,-1.5134913921356201,8.093968391418457,9.828998565673828,3.840270519256592
3_20251106_214921,1762436926174,3,0.31574687361717224,0.4579538404941559,0.4180976450443268,0.7181758880615234,0.669377326965332,3.4718215465545654,1.8317193984985352,7.868684768676758,8.656654357910156,2.576962471008301,0.7638519406318665,0.11815651506185532,0.1762230098247528,23.55183982849121,-36.68145751953125,0.3964805603027344,-0.1792316436767578,-0.7683038711547852,-0.8014307022094727,8.047916412353516,9.424958229064941,3.3783931732177734
3_20251106_214921,1762436926193,3,0.31054070591926575,0.4608522057533264,0.42213431000709534,0.7162278294563293,0.7364686131477356,3.4634485244750977,1.8413013219833374,7.576604843139648,8.576452255249023,2.4728190898895264,0.7638519406318665,0.11815651506185532,0.1762230098247528,23.014589309692383,-36.826446533203125,1.4140338897705078,-0.37704896926879883,-0.6788043975830078,-0.7244594097137451,7.953653812408447,9.255256652832031,3.1972784996032715
3_20251106_214921,1762436926212,3,0.3064464032649994,0.4632932245731354,0.42651790380477905,0.713815450668335,0.7980411052703857,3.453484058380127,1.8479633331298828,7.164819717407227,8.522584915161133,2.307626247406006,0.7565215826034546,0.03935495764017105,-0.09011400490999222,22.54039764404297,-36.918182373046875,2.5297088623046875,-0.6310672760009766,-0.5861377716064453,-0.7117218971252441,7.795886993408203,9.108722686767578,3.01934814453125
3_20251106_214921,1762436926231,3,0.3031717836856842,0.4653247594833374,0.43159446120262146,0.7108346819877625,0.7980411052703857,3.453484058380127,1.8479633331298828,7.164819717407227,8.522584915161133,2.307626247406006,0.7473586201667786,0.014920370653271675,-0.1988479346036911,22.27837562561035,-36.931602478027344,3.4522953033447266,-0.6310672760009766,-0.5861377716064453,-0.7117218971252441,7.795886993408203,9.108722686767578,3.01934814453125
3_20251106_214921,1762436926251,3,0.30105042457580566,0.4671306014060974,0.4368804693222046,0.7073140144348145,0.8587034940719604,3.440422773361206,1.8520113229751587,6.60579776763916,8.333450317382812,2.1400394439697266,0.7131502032279968,-0.023564105853438377,-0.18601976335048676,21.98119354248047,-36.93390655517578,4.279062271118164,-0.9520711898803711,-0.6202182769775391,-0.7034468650817871,7.557868957519531,8.953668594360352,2.8434863090515137
3_20251106_214921,1762436926270,3,0.29915136098861694,0.46904706954956055,0.4418274164199829,0.7037697434425354,0.9477757215499878,3.4131968021392822,1.8526217937469482,6.111416339874268,8.244869232177734,1.8036682605743408,0.7027655243873596,-0.13107630610466003,-0.0497969314455986,21.698410034179688,-36.897613525390625,5.093593597412109,-0.9370298385620117,-0.4306478500366211,-0.7139403820037842,7.048446178436279,8.675517082214355,2.517608642578125
3_20251106_214921,1762436926289,3,0.29689013957977295,0.472164124250412,0.4457722306251526,0.7001460194587708,0.9862170219421387,3.398961305618286,1.8488355875015259,6.210771560668945,8.44717025756836,1.4517358541488647,0.7027655243873596,-0.13107630610466003,-0.0497969314455986,21.502918243408203,-36.841453552246094,5.736110687255859,-0.6701397895812988,-0.1826772689819336,-0.8526982069015503,6.880911350250244,8.629847526550293,2.304434061050415
3_20251106_214921,1762436926310,3,0.29437655210494995,0.4774087071418762,0.4487610161304474,0.6957276463508606,1.0213147401809692,3.3851826190948486,1.8428466320037842,6.362796783447266,8.536949157714844,1.4325830936431885,0.733308732509613,-0.5904465913772583,0.20615537464618683,21.51808738708496,-36.73223114013672,6.198530197143555,-0.4144916534423828,-0.07431888580322266,-0.6974806785583496,6.777288436889648,8.611268043518066,2.130063772201538
3_20251106_214921,1762436926330,3,0.2921711802482605,0.4847176671028137,0.4504777491092682,0.6904741525650024,1.0213147401809692,3.3851826190948486,1.8428466320037842,6.362796783447266,8.536949157714844,1.4325830936431885,0.685661256313324,-0.7156738042831421,0.24586158990859985,21.53094482421875,-36.66094970703125,6.687189102172852,-0.4144916534423828,-0.07431888580322266,-0.6974806785583496,6.777288436889648,8.611268043518066,2.130063772201538
3_20251106_214921,1762436926348,3,0.2903999090194702,0.49280846118927,0.45130085945129395,0.6849344968795776,1.0610984563827515,3.370130777359009,1.8338290452957153,6.63332986831665,8.808679580688477,1.6001698970794678,0.6453441977500916,-0.7107869386672974,0.16522744297981262,21.473196029663086,-36.55622100830078,7.119632720947266,-0.11516666412353516,0.1579294204711914,-0.42391514778137207,6.7484965324401855,8.650750160217285,2.02408504486084
3_20251106_214921,1762436926365,3,0.2892228364944458,0.5002788305282593,0.45221376419067383,0.6793923377990723,1.1159310340881348,3.35188889503479,1.817785382270813,6.719517707824707,9.09477424621582,1.3799128532409668,0.632516086101532,-0.716895580291748,0.029615486040711403,21.44987678527832,-36.498390197753906,7.457878112792969,-0.03195333480834961,0.29528331756591797,-0.4235703945159912,6.751471042633057,8.799490928649902,1.803483247756958
3_20251106_214921,1762436926385,3,0.2889713943004608,0.5071237087249756,0.4536334276199341,0.6734521389007568,1.1159310340881348,3.35188889503479,1.817785382270813,6.719517707824707,9.09477424621582,1.3799128532409668,0.6068597435951233,-0.7492713928222656,-0.070566326379776,21.49644660949707,-36.49817657470703,7.757198333740234,-0.03195333480834961,0.29528331756591797,-0.4235703945159912,6.751471042633057,8.799490928649902,1.803483247756958
3_20251106_214921,1762436926403,3,0.2896064221858978,0.5135889649391174,0.4552597403526306,0.6671529412269592,1.1696107387542725,3.3365864753723145,1.7967638969421387,6.5375657081604,9.046892166137695,1.2470405101776123,0.6251856684684753,-0.8207426071166992,-0.14875702559947968,21.58017921447754,-36.48316192626953,8.071769714355469,-0.14053869247436523,0.1483774185180664,-0.37508463859558105,6.678104400634766,8.898514747619629,1.6221251487731934
3_20251106_214921,1762436926422,3,0.2909280061721802,0.5201108455657959,0.4571714401245117,0.6601817011833191,1.1696107387542725,3.3365864753723145,1.7967638969421387,6.5375657081604,9.046892166137695,1.2470405101776123,0.6691679358482361,-0.9361960291862488,-0.23244549334049225,21.68916130065918,-36.476959228515625,8.170797348022461,-0.14053869247436523,0.1483774185180664,-0.37508463859558105,6.678104400634766,8.898514747619629,1.6221251487731934
3_20251106_214921,1762436926442,3,0.2930082678794861,0.5270401835441589,0.4594046175479889,0.6521673202514648,1.1958638429641724,3.3287007808685303,1.7833369970321655,6.416663646697998,8.79431438446045,1.0196011066436768,0.6728331446647644,-1.038210391998291,-0.2923102080821991,21.833898544311523,-36.48106384277344,8.284547805786133,-0.2091526985168457,-0.08336067199707031,-0.482019305229187,6.625816345214844,8.87767505645752,1.5016204118728638
3_20251106_214921,1762436926461,3,0.2959122061729431,0.5343416333198547,0.4615524113178253,0.6433384418487549,1.2360546588897705,3.3143022060394287,1.7544617652893066,6.134160041809082,8.536949157714844,0.2882038950920105,0.6538962721824646,-1.1518312692642212,-0.3478989005088806,22.032907485961914,-36.393280029296875,8.32101058959961,-0.34070777893066406,-0.24870872497558594,-0.8361517786979675,6.474867820739746,8.78565788269043,1.124355673789978
3_20251106_214921,1762436926479,3,0.2996915280818939,0.5419746041297913,0.46349599957466125,0.633734941482544,1.2360546588897705,3.3143022060394287,1.7544617652893066,6.134160041809082,8.536949157714844,0.2882038950920105,0.6013619303703308,-1.263008713722229,-0.3906594216823578,22.36675262451172,-36.295684814453125,8.254739761352539,-0.34070777893066406,-0.24870872497558594,-0.8361517786979675,6.474867820739746,8.78565788269043,1.124355673789978
3_20251106_214921,1762436926500,3,0.3044397830963135,0.5498822927474976,0.46494346857070923,0.6235170364379883,1.266534686088562,3.295830249786377,1.7152376174926758,5.491344451904297,7.970744609832764,-0.26842406392097473,0.4993475377559662,-1.352194905281067,-0.43891775608062744,22.758089065551758,-36.26837921142578,8.081205368041992,-0.6857643127441406,-0.579002857208252,-0.9147454500198364,6.1771087646484375,8.549747467041016,0.6463213562965393
3_20251106_214921,1762436926521,3,0.31038352847099304,0.5577573180198669,0.46568015217781067,0.6129525303840637,1.2778230905532837,3.2808499336242676,1.6894004344940186,5.170535087585449,7.467983722686768,-0.1918129026889801,0.4003874659538269,-1.4126704931259155,-0.4835108518600464,23.224952697753906,-36.19823455810547,7.870857238769531,-0.8052587509155273,-0.8654112815856934,-0.6705074310302734,5.975793838500977,8.333395004272461,0.4786945581436157
3_20251106_214921,1762436926538,3,0.3173745274543762,0.5654100179672241,0.4657592475414276,0.6022070050239563,1.283581256866455,3.2670819759368896,1.6690924167633057,4.824588298797607,7.071760177612305,-0.1319604516029358,0.3533508777618408,-1.4432138204574585,-0.5458190441131592,23.664989471435547,-35.989646911621094,7.3916168212890625,-0.9209647178649902,-1.009307861328125,-0.4885239899158478,5.745553016662598,8.08106803894043,0.356563538312912
3_20251106_214921,1762436926557,3,0.32500016689300537,0.5726357102394104,0.465730220079422,0.5912347435951233,1.283581256866455,3.2670819759368896,1.6690924167633057,4.824588298797607,7.071760177612305,-0.1319604516029358,0.3533508777618408,-1.4432138204574585,-0.5458190441131592,23.664989471435547,-35.989646911621094,7.3916168212890625,-0.9209647178649902,-1.009307861328125,-0.4885239899158478,5.745553016662598,8.08106803894043,0.356563538312912
3_20251106_214921,1762436926575,3,0.3334196209907532,0.5789432525634766,0.4658001661300659,0.5802467465400696,1.285056710243225,3.2301080226898193,1.6223464012145996,3.9758799076080322,6.642019271850586,-0.6347212195396423,0.29104265570640564,-1.4059510231018066,-0.647222638130188,24.188905715942383,-35.812225341796875,6.820402145385742,-1.2159059047698975,-0.9635105133056641,-0.6821127533912659,5.19178581237793,7.60552978515625,0.04739151895046234
3_20251106_214921,1762436926595,3,0.3428981304168701,0.5839651226997375,0.46633613109588623,0.5691539645195007,1.2777518033981323,3.2057058811187744,1.5954176187515259,3.2169508934020996,6.173973083496094,-0.7675936818122864,0.12000055611133575,-1.3192082643508911,-0.9257768988609314,24.754215240478516,-35.544654846191406,6.266023635864258,-1.5798678398132324,-1.1452455520629883,-0.65198814868927,4.796818733215332,7.319218635559082,-0.11560550332069397
3_20251106_214921,1762436926614,3,0.35327523946762085,0.5877801775932312,0.46713459491729736,0.5581185817718506,1.2777518033981323,3.2057058811187744,1.5954176187515259,3.2169508934020996,6.173973083496094,-0.7675936818122864,0.12000055611133575,-1.3192082643508911,-0.9257768988609314,25.382234573364258,-35.27069091796875,5.470804214477539,-1.5798678398132324,-1.1452455520629883,-0.65198814868927,4.796818733215332,7.319218635559082,-0.11560550332069397
3_20251106_214921,1762436926633,3,0.3638582229614258,0.5912050604820251,0.46776264905929565,0.5470665693283081,1.2460631132125854,3.1488845348358154,1.5390397310256958,1.9253344535827637,5.215136528015137,-1.5648285150527954,0.08212694525718689,-1.3711317777633667,-0.8384232521057129,26.069154739379883,-35.041908264160156,4.568851470947266,-1.933131217956543,-1.4169034957885742,-0.9939628839492798,3.8584656715393066,6.632040023803711,-0.5708656311035156
3_20251106_214921,1762436926651,3,0.3737442195415497,0.5949676036834717,0.4680040180683136,0.5360047221183777,1.2460631132125854,3.1488845348358154,1.5390397310256958,1.9253344535827637,5.215136528015137,-1.5648285150527954,0.05524890124797821,-1.6258622407913208,-0.6490551829338074,26.75031852722168,-34.712379455566406,3.5603885650634766,-1.933131217956543,-1.4169034957885742,-0.9939628839492798,3.8584656715393066,6.632040023803711,-0.5708656311035156
3_20251106_214921,1762436926671,3,0.38436466455459595,0.6010997295379639,0.4655105769634247,0.5236819982528687,1.1942353248596191,3.0833261013031006,1.4773262739181519,1.1137349605560303,5.148101806640625,-1.9071847200393677,0.05524890124797821,-1.6258622407913208,-0.6490551829338074,27.43096160888672,-34.40675354003906,2.4297523498535156,-1.8188745975494385,-0.9353561401367188,-0.8743970394134521,2.9326095581054688,6.083457946777344,-1.0327876806259155
3_20251106_214921,1762436926691,3,0.3950936198234558,0.6096045970916748,0.4605511426925659,0.5100744366645813,1.1589868068695068,3.0467286109924316,1.442562460899353,0.8659457564353943,5.334841728210449,-1.8437411785125732,0.06685532629489899,-1.9319053888320923,-0.4309765100479126,28.016429901123047,-34.069541931152344,1.268951416015625,-1.6533310413360596,-0.5988931655883789,-0.6487628221511841,2.5192768573760986,5.933734893798828,-1.1949783563613892
3_20251106_214921,1762436926712,3,0.40581071376800537,0.6198116540908813,0.45351317524909973,0.495456337928772,1.1175107955932617,3.0086967945098877,1.4057393074035645,0.6349152326583862,5.478487968444824,-1.8353617191314697,-0.0015615224838256836,-2.233672618865967,-0.13898319005966187,28.52764320373535,-33.7850341796875,-0.1256237030029297,-1.5074893236160278,-0.3641972541809082,-0.5123066902160645,2.142404556274414,5.842685222625732,-1.3230550289154053
3_20251106_214921,1762436926731,3,0.41654282808303833,0.6301663517951965,0.44502535462379456,0.48097285628318787,1.0775282382965088,2.9756717681884766,1.3734617233276367,0.5630922913551331,5.720291614532471,-1.5516610145568848,-0.0015615224838256836,-2.233672618865967,-0.13898319005966187,28.89512062072754,-33.48345947265625,-1.6742362976074219,-1.2634499073028564,-0.0979146957397461,-0.1828848123550415,1.8265421390533447,5.818206310272217,-1.3687762022018433
3_20251106_214921,1762436926748,3,0.42800870537757874,0.6395140886306763,0.4351559281349182,0.46740734577178955,1.0382028818130493,2.946521520614624,1.3450080156326294,0.4697224497795105,6.050677299499512,-1.1267085075378418,-0.4590992331504822,-1.98932683467865,-0.1469244360923767,29.162473678588867,-33.24980926513672,-3.3497371673583984,-1.0854556560516357,0.18597650527954102,0.19365417957305908,1.555178165435791,5.864700794219971,-1.3203626871109009
3_20251106_214921,1762436926767,3,0.44039034843444824,0.6464130878448486,0.4249519407749176,0.45565587282180786,0.9956391453742981,2.9195446968078613,1.3172364234924316,0.4146581292152405,6.686310768127441,-1.0429151058197021,-0.4590992331504822,-1.98932683467865,-0.1469244360923767,29.22205924987793,-33.042083740234375,-5.047356605529785,-0.9124160408973694,0.6572880744934082,0.22195804119110107,1.3270741701126099,6.029022693634033,-1.2648731470108032
3_20251106_214921,1762436926785,3,0.45379698276519775,0.6503781080245972,0.4151588976383209,0.4457798898220062,0.9542155265808105,2.8979332447052,1.29347825050354,0.06152860075235367,7.112460136413574,-0.7628054618835449,-0.9465692639350891,-1.6423555612564087,-0.4303656220436096,29.082788467407227,-32.74376678466797,-7.116141319274902,-1.0124365091323853,0.8667497634887695,0.40165412425994873,1.073965072631836,6.245710372924805,-1.1644595861434937
3_20251106_214921,1762436926805,3,0.4687694013118744,0.6519852876663208,0.4057053327560425,0.4365474283695221,0.9053894281387329,2.8782145977020264,1.271371603012085,-0.6040308475494385,7.263288497924805,-0.18702471256256104,-1.121276617050171,-1.5959298610687256,-0.5623124241828918,28.79164695739746,-32.55543518066406,-9.192922592163086,-1.3423967361450195,0.8140625953674316,0.781947910785675,0.738365888595581,6.449225902557373,-0.9689726233482361
3_20251106_214921,1762436926824,3,0.48524871468544006,0.6519440412521362,0.3961585760116577,0.4272715747356415,0.8556210994720459,2.863285779953003,1.2542520761489868,-1.3402161598205566,7.494318962097168,0.06315860897302628,-1.121276617050171,-1.5959298610687256,-0.5623124241828918,28.40058708190918,-32.210205078125,-11.351784706115723,-1.6628656387329102,0.8360743522644043,0.8257050514221191,0.3226494789123535,6.658244609832764,-0.7625464200973511
3_20251106_214921,1762436926843,3,0.5019140243530273,0.6509143114089966,0.3866705298423767,0.4181850850582123,0.8022451996803284,2.8522939682006836,1.2410027980804443,-1.8992383480072021,7.821113586425781,0.33608585596084595,-1.1780869960784912,-1.5403412580490112,-0.5311583280563354,28.0106143951416,-31.863487243652344,-13.65932559967041,-1.7775102853775024,0.9302949905395508,0.8789058327674866,-0.12172806262969971,6.8908185958862305,-0.5428199768066406
3_20251106_214921,1762436926862,3,0.5182547569274902,0.649787962436676,0.3767017722129822,0.40900295972824097,0.7454856038093567,2.8450281620025635,1.2314611673355103,-2.3277816772460938,8.048553466796875,0.567116379737854,-1.1976346969604492,-1.4328290224075317,-0.4053201675415039,27.38709831237793,-31.34484100341797,-15.91865062713623,-1.7648429870605469,0.9261879920959473,0.8879491090774536,-0.5629387497901917,7.122365474700928,-0.3208327293395996
3_20251106_214921,1762436926882,3,0.5336995124816895,0.6482524871826172,0.3663405776023865,0.4009091258049011,0.7454856038093567,2.8450281620025635,1.2314611673355103,-2.3277816772460938,8.048553466796875,0.567116379737854,-1.2538342475891113,-1.2501804828643799,-0.25749093294143677,26.69610595703125,-30.730506896972656,-18.17880630493164,-1.7648429870605469,0.9261879920959473,0.8879491090774536,-0.5629387497901917,7.122365474700928,-0.3208327293395996
3_20251106_214921,1762436926900,3,0.5482938289642334,0.6460866928100586,0.35547229647636414,0.3944430351257324,0.6305393576622009,2.844621181488037,1.2249802350997925,-2.090765953063965,9.214478492736816,1.4062479734420776,-1.2886536121368408,-1.0430973768234253,-0.20068052411079407,26.001089096069336,-29.96668243408203,-20.395736694335938,-0.9479310512542725,1.4161376953125,1.1610662937164307,-1.1428349018096924,7.798340797424316,0.24518169462680817
3_20251106_214921,1762436926920,3,0.5620847344398499,0.6428886651992798,0.3450400233268738,0.3894898295402527,0.6305393576622009,2.844621181488037,1.2249802350997925,-2.090765953063965,9.214478492736816,1.4062479734420776,-1.2886536121368408,-1.0430973768234253,-0.20068052411079407,25.31182289123535,-29.090652465820312,-22.52919578552246,-0.9479310512542725,1.4161376953125,1.1610662937164307,-1.1428349018096924,7.798340797424316,0.24518169462680817
3_20251106_214921,1762436926940,3,0.5750787854194641,0.6388257145881653,0.33578744530677795,0.3852699100971222,0.5618018507957458,2.853797674179077,1.2286771535873413,-2.215259313583374,9.644220352172852,1.6348843574523926,-1.2171823978424072,-0.6490895748138428,-0.3069709539413452,24.597829818725586,-28.181907653808594,-24.324935913085938,-0.8579394817352295,1.4767036437988281,1.1117621660232544,-1.3573198318481445,8.167516708374023,0.5231221914291382
3_20251106_214921,1762436926960,3,0.5872583389282227,0.6337988972663879,0.32827824354171753,0.3816542327404022,0.4417206645011902,2.877981185913086,1.2451574802398682,-2.8365278244018555,9.107942581176758,1.6887515783309937,-1.2171823978424072,-0.6490895748138428,-0.3069709539413452,23.866920471191406,-27.13703155517578,-26.078203201293945,-0.9920852184295654,0.5367536544799805,0.6996530294418335,-1.84444260597229,8.571188926696777,0.9890985488891602
3_20251106_214921,1762436926976,3,0.5981764197349548,0.6277924180030823,0.3225734829902649,0.3794838488101959,0.388326495885849,2.890509605407715,1.2539087533950806,-2.909547805786133,9.36770248413086,1.4050509929656982,-1.2196258306503296,-0.1426827311515808,-0.20862175524234772,23.866920471191406,-27.13703155517578,-26.078203201293945,-0.8520841598510742,0.6372108459472656,0.3327620029449463,-2.0574636459350586,8.730491638183594,1.072288990020752
3_20251106_214921,1762436926995,3,0.6082921028137207,0.621025800704956,0.3172547221183777,0.3790213167667389,0.3301538825035095,2.9069983959198,1.2651349306106567,-2.5971179008483887,9.892009735107422,1.7773332595825195,-1.4016635417938232,-0.05471820756793022,-0.0449100136756897,23.181961059570312,-26.115982055664062,-27.640810012817383,-0.43172335624694824,0.9292144775390625,0.5640354156494141,-2.1653945446014404,8.96279525756836,1.2132978439331055
3_20251106_214921,1762436927015,3,0.6185044050216675,0.6133646368980408,0.31078505516052246,0.38032716512680054,0.27135294675827026,2.9270544052124023,1.2793458700180054,-2.372072696685791,10.136207580566406,2.195103645324707,-1.4016635417938232,-0.05471820756793022,-0.0449100136756897,22.499935150146484,-25.03295135498047,-29.12099838256836,-0.1653425693511963,0.9387302398681641,0.7854447364807129,-2.2067301273345947,9.197477340698242,1.4096589088439941
3_20251106_214921,1762436927034,3,0.6285553574562073,0.6051143407821655,0.3035508096218109,0.38289913535118103,0.21816317737102509,2.9468765258789062,1.2952916622161865,-2.2511706352233887,9.824974060058594,2.5470361709594727,-1.4199894666671753,0.024694206193089485,0.17866645753383636,21.96527862548828,-23.8924560546875,-30.364471435546875,-0.0355525016784668,0.5019969940185547,0.9099018573760986,-2.215618133544922,9.322977066040039,1.637134313583374
3_20251106_214921,1762436927053,3,0.6376305818557739,0.597428023815155,0.29603466391563416,0.3858374059200287,0.16804112493991852,2.966493844985962,1.3131599426269531,-2.0668251514434814,9.609504699707031,2.6284356117248535,-1.252612590789795,0.002703076461330056,0.340545654296875,21.511821746826172,-22.798377990722656,-31.429853439331055,0.1190345287322998,0.22922229766845703,0.7930409908294678,-2.1858596801757812,9.380282402038574,1.8353946208953857
3_20251106_214921,1762436927072,3,0.6439573168754578,0.5902585983276367,0.2898383140563965,0.3910338878631592,0.12184211611747742,2.986938238143921,1.333272933959961,-1.6694047451019287,10.039246559143066,2.979170799255371,-1.1823631525039673,-0.007681623101234436,0.5189181566238403,21.091014862060547,-21.753631591796875,-32.34614181518555,0.4131639003753662,0.5271711349487305,0.9150209426879883,-2.082568645477295,9.512075424194336,2.064149856567383
3_20251106_214921,1762436927092,3,0.6502624154090881,0.584801435470581,0.28110331296920776,0.3951543867588043,0.07822373509407043,3.0106372833251953,1.3579870462417603,-1.2336788177490234,10.582706451416016,3.577695846557617,-1.1823631525039673,-0.007681623101234436,0.5189181566238403,20.801660537719727,-20.72687530517578,-33.095367431640625,0.6791119575500488,0.8565044403076172,1.2108368873596191,-1.9127907752990723,9.726202011108398,2.366858959197998
3_20251106_214921,1762436927110,3,0.6561375856399536,0.5788686275482178,0.2724432945251465,0.40021148324012756,0.04371057078242302,3.0337636470794678,1.3837350606918335,-0.7835882902145386,10.889150619506836,4.242057800292969,-1.2043542861938477,0.24643808603286743,0.4957052767276764,20.547155380249023,-19.72325897216797,-33.8031005859375,0.9033620357513428,0.93035888671875,1.5001590251922607,-1.6869503259658813,9.958791732788086,2.741898775100708
3_20251106_214921,1762436927131,3,0.6616935729980469,0.571879506111145,0.2654150724411011,0.4057958722114563,0.011924844235181808,3.058840036392212,1.4138609170913696,-0.6578980684280396,10.646150588989258,4.311486721038818,-1.110280990600586,0.47795581817626953,0.2678527235984802,20.359041213989258,-18.816810607910156,-34.361324310302734,0.8232418298721313,0.5498867034912109,1.2556703090667725,-1.481139898300171,10.096263885498047,3.055816411972046
3_20251106_214921,1762436927149,3,0.6669908761978149,0.5638793706893921,0.26134225726127625,0.4109300374984741,-0.018016889691352844,3.084165096282959,1.4469197988510132,-0.874563992023468,10.178104400634766,4.020603656768799,-1.0314794778823853,0.6722108125686646,0.04366537183523178,20.281221389770508,-17.879180908203125,-34.80647659301758,0.4852607846260071,0.06547260284423828,0.7718296051025391,-1.359824776649475,10.112631797790527,3.2487740516662598
3_20251106_214921,1762436927169,3,0.6721183061599731,0.5549793839454651,0.26006361842155457,0.4154777228832245,-0.018016889691352844,3.084165096282959,1.4469197988510132,-0.874563992023468,10.178104400634766,4.020603656768799,-1.0632444620132446,0.8200400471687317,-0.09744437783956528,20.236942291259766,-16.989669799804688,-35.224178314208984,0.4852607846260071,0.06547260284423828,0.7718296051025391,-1.359824776649475,10.112631797790527,3.2487740516662598
3_20251106_214921,1762436927187,3,0.6774895787239075,0.5449202060699463,0.26040565967559814,0.4198317527770996,-0.06764033436775208,3.124300241470337,1.5065590143203735,-1.2241023778915405,9.404809951782227,3.5848779678344727,-1.1536524295806885,0.8279812932014465,-0.11210513114929199,20.443462371826172,-16.148422241210938,-35.41664123535156,0.06100606918334961,-0.5029945373535156,0.20897769927978516,-1.2851084470748901,9.907804489135742,3.3759002685546875
3_20251106_214921,1762436927206,3,0.683285653591156,0.5342443585395813,0.26048627495765686,0.4240879416465759,-0.09235480427742004,3.1420164108276367,1.5398248434066772,-1.319866418838501,9.433539390563965,4.437176704406738,-1.3020925521850586,0.8304247856140137,0.0002939775586128235,20.771759033203125,-15.287750244140625,-35.49580764770508,-0.027806401252746582,-0.3794126510620117,0.8490209579467773,-1.2920600175857544,9.812952041625977,3.588155746459961
3_20251106_214921,1762436927225,3,0.6891902685165405,0.5227549076080322,0.25952309370040894,0.4294086992740631,-0.1145487055182457,3.1577000617980957,1.5744690895080566,-1.2516345977783203,9.701679229736328,5.272717475891113,-1.4743564128875732,0.9525977373123169,0.19638153910636902,21.209123611450195,-14.432350158691406,-35.5843391418457,0.032340288162231445,-0.08901786804199219,1.3476495742797852,-1.2839748859405518,9.79069709777832,3.925067901611328
3_20251106_214921,1762436927244,3,0.6947026252746582,0.5098358392715454,0.25773680210113525,0.43706685304641724,-0.13498914241790771,3.171921730041504,1.6135056018829346,-1.0493333339691162,9.543667793273926,6.157337188720703,-1.5372755527496338,1.0344535112380981,0.381473571062088,21.667953491210938,-13.614112854003906,-35.564552307128906,0.18771326541900635,-0.19762325286865234,1.7858152389526367,-1.2370465993881226,9.741291046142578,4.371521949768066
3_20251106_214921,1762436927263,3,0.6993701457977295,0.49635767936706543,0.2553268373012543,0.4464511573314667,-0.13498914241790771,3.171921730041504,1.6135056018829346,-1.0493333339691162,9.543667793273926,6.157337188720703,-1.451143503189087,1.0961509943008423,0.5726742744445801,22.3443546295166,-12.784004211425781,-35.29264450073242,0.18771326541900635,-0.19762325286865234,1.7858152389526367,-1.2370465993881226,9.741291046142578,4.371521949768066
3_20251106_214921,1762436927282,3,0.7023671865463257,0.48331040143966675,0.25285279750823975,0.4573366940021515,-0.15471915900707245,3.1865172386169434,1.662039875984192,-0.7201446294784546,9.640628814697266,6.622988700866699,-1.300260066986084,1.1401331424713135,0.7186709642410278,23.5279541015625,-12.265434265136719,-35.043094635009766,0.4135216474533081,-0.08053016662597656,1.801173210144043,-1.1336662769317627,9.721158981323242,4.821815490722656
3_20251106_214921,1762436927301,3,0.7036172151565552,0.47122395038604736,0.2506771385669708,0.469075471162796,-0.18168988823890686,3.2080841064453125,1.7514468431472778,-0.4292616546154022,9.259967803955078,6.626580238342285,-1.2159606218338013,1.1523505449295044,0.8836044073104858,24.28432846069336,-11.518203735351562,-34.715538024902344,0.464991956949234,-0.3472576141357422,1.1584968566894531,-0.8942536115646362,9.60722541809082,5.468083381652832
3_20251106_214921,1762436927321,3,0.7034783363342285,0.4599478542804718,0.24819518625736237,0.48162782192230225,-0.1925397515296936,3.2160861492156982,1.8028273582458496,-0.16112259030342102,8.785935401916504,6.634959697723389,-1.2159606218338013,1.1523505449295044,0.8836044073104858,25.04737091064453,-10.847274780273438,-34.21335983276367,0.5865048170089722,-0.6570320129394531,0.9335007667541504,-0.7476274371147156,9.442967414855957,5.701458930969238
3_20251106_214921,1762436927340,3,0.7019528150558472,0.449531614780426,0.24479970335960388,0.495233952999115,-0.19933755695819855,3.2220852375030518,1.8491418361663818,0.2590417265892029,9.100759506225586,6.669673919677734,-1.1090593338012695,1.1047030687332153,1.2391276359558105,25.796443939208984,-10.404129028320312,-33.54022216796875,0.8053353428840637,-0.27376651763916016,0.7745718955993652,-0.5462936162948608,9.374526023864746,5.895102024078369
3_20251106_214921,1762436927359,3,0.6993222832679749,0.4397163987159729,0.2408851832151413,0.5094822645187378,-0.20292215049266815,3.2291574478149414,1.9015522003173828,0.6349152326583862,9.61788558959961,7.053926467895508,-1.1090593338012695,1.1047030687332153,1.2391276359558105,25.796443939208984,-10.404129028320312,-33.54022216796875,0.9449670910835266,0.1946878433227539,0.9270596504211426,-0.3100518584251404,9.423197746276855,6.126866817474365
3_20251106_214921,1762436927380,3,0.696496844291687,0.42893916368484497,0.23707926273345947,0.524115264415741,-0.20296552777290344,3.2370572090148926,1.959036946296692,0.7438467741012573,9.675342559814453,7.679983615875244,-1.2990381717681885,1.2830754518508911,1.1303937435150146,27.113937377929688,-9.906349182128906,-32.05956268310547,0.8431189060211182,0.20171546936035156,1.2424931526184082,-0.09927214682102203,9.473627090454102,6.437490463256836
3_20251106_214921,1762436927399,3,0.6940670013427734,0.4164793789386749,0.23386113345623016,0.5386324524879456,-0.20073561370372772,3.2440032958984375,2.013261079788208,0.7270880937576294,9.530500411987305,8.19232177734375,-1.2886536121368408,1.4162440299987793,1.0271575450897217,27.113937377929688,-9.906349182128906,-32.05956268310547,0.661088228225708,0.04549884796142578,1.403864860534668,0.06599989533424377,9.485001564025879,6.788456916809082
3_20251106_214921,1762436927416,3,0.6915214657783508,0.40293848514556885,0.23195227980613708,0.552844226360321,-0.20073561370372772,3.2440032958984375,2.013261079788208,0.7270880937576294,9.530500411987305,8.19232177734375,-1.1732001304626465,1.5194801092147827,1.0161620378494263,27.76885986328125,-9.832931518554688,-31.315921783447266,0.661088228225708,0.04549884796142578,1.403864860534668,0.06599989533424377,9.485001564025879,6.788456916809082
3_20251106_214921,1762436927435,3,0.688034176826477,0.389347106218338,0.231357604265213,0.5670021772384644,-0.19731906056404114,3.249659538269043,2.0690557956695557,0.5391513109207153,9.141459465026855,8.34913444519043,-1.0345338582992554,1.5946165323257446,1.1682672500610352,28.374053955078125,-9.976982116699219,-30.416048049926758,0.3785211443901062,-0.27483367919921875,1.2485418319702148,0.16063016653060913,9.416293144226074,7.100592613220215
3_20251106_214921,1762436927454,3,0.6825832724571228,0.3763127028942108,0.23152637481689453,0.5821205973625183,-0.1930118352174759,3.2535531520843506,2.1245272159576416,0.5475306510925293,8.876911163330078,7.999595642089844,-0.9514561295509338,1.6282140016555786,1.3863461017608643,28.925273895263672,-10.212516784667969,-29.479434967041016,0.3095203936100006,-0.4315061569213867,0.7192020416259766,0.2380102574825287,9.308417320251465,7.280393600463867
3_20251106_214921,1762436927473,3,0.675236701965332,0.36402392387390137,0.2315363883972168,0.5982749462127686,-0.18703623116016388,3.2566165924072266,2.1780881881713867,0.9246011972427368,9.076818466186523,7.5949931144714355,-0.9019761681556702,1.5628515481948853,1.557388186454773,29.42192840576172,-10.54034423828125,-28.424983978271484,0.5492727756500244,-0.18527889251708984,0.2516794204711914,0.3753284215927124,9.262097358703613,7.343313694000244
3_20251106_214921,1762436927492,3,0.6665009260177612,0.3527977466583252,0.2307528257369995,0.6148686408996582,-0.17783263325691223,3.2607033252716064,2.23063063621521,1.660786509513855,9.69090461730957,7.948122501373291,-0.8219528794288635,1.440678596496582,1.6331353187561035,29.960079193115234,-10.990829467773438,-27.34417724609375,1.0283664464950562,0.3430461883544922,0.48384714126586914,0.6324200630187988,9.347858428955078,7.464275360107422
3_20251106_214921,1762436927512,3,0.6563556790351868,0.3427249491214752,0.22958889603614807,0.6316848397254944,-0.14878636598587036,3.274991512298584,2.338803768157959,2.5861058235168457,10.636573791503906,9.98310661315918,-0.6704583764076233,1.358211874961853,1.6251940727233887,30.367008209228516,-11.612770080566406,-26.244674682617188,1.3045613765716553,0.9042625427246094,1.7733182907104492,1.2815444469451904,9.732311248779297,8.20978832244873
3_20251106_214921,1762436927530,3,0.6462838649749756,0.33416861295700073,0.22830277681350708,0.6469361186027527,-0.13006512820720673,3.286247968673706,2.396219253540039,2.7608752250671387,11.127363204956055,10.649864196777344,-0.6704583764076233,1.358211874961853,1.6251940727233887,30.695194244384766,-12.328323364257812,-25.055347442626953,1.183464765548706,1.1160411834716797,1.9520606994628906,1.5774104595184326,10.011322021484375,8.697803497314453
3_20251106_214921,1762436927550,3,0.6355270147323608,0.3261330723762512,0.22872062027454376,0.6613845825195312,-0.10634946078062057,3.301478862762451,2.4639089107513428,2.878185749053955,11.112998962402344,11.028130531311035,-0.2721746265888214,1.5292540788650513,1.3973416090011597,30.99225616455078,-13.170631408691406,-23.91019058227539,1.04062020778656,0.8813409805297852,1.8642616271972656,1.837565541267395,10.231657981872559,9.16386890411377
3_20251106_214921,1762436927570,3,0.624476432800293,0.31806468963623047,0.23159931600093842,0.6747042536735535,-0.08093629777431488,3.316924571990967,2.532658576965332,2.786012887954712,10.552780151367188,10.625923156738281,-0.060204535722732544,1.6929657459259033,1.2550101280212402,31.166454315185547,-14.033843994140625,-22.72965431213379,0.7587578296661377,0.2568979263305664,1.1696434020996094,2.027255058288574,10.295882225036621,9.456279754638672
3_20251106_214921,1762436927589,3,0.6130694150924683,0.3097553849220276,0.2371310293674469,0.6869981288909912,-0.0565037801861763,3.3294670581817627,2.5955922603607178,2.5729384422302246,9.78666877746582,9.779607772827148,0.13038526475429535,1.743667483329773,1.196977972984314,31.221717834472656,-15.067581176757812,-21.543445587158203,0.43654680252075195,-0.40737056732177734,0.25866222381591797,2.1363916397094727,10.194039344787598,9.52094554901123
3_20251106_214921,1762436927608,3,0.6011262536048889,0.30199041962623596,0.24427083134651184,0.6984130144119263,-0.03250570595264435,3.338070869445801,2.654036283493042,2.423306941986084,8.987039566040039,9.031452178955078,0.26416462659835815,1.7033504247665405,1.234851598739624,31.234291076660156,-16.204833984375,-20.293237686157227,0.22953224182128906,-0.9656000137329102,-0.39159488677978516,2.193774700164795,9.95263957977295,9.423047065734863
3_20251106_214921,1762436927626,3,0.5881849527359009,0.2951761782169342,0.25197142362594604,0.7095208764076233,-0.010247915983200073,3.3422577381134033,2.7044572830200195,2.4616127014160156,8.508220672607422,8.538268089294434,0.345409631729126,1.6392096281051636,1.3484724760055542,31.19359588623047,-17.421005249023438,-19.006027221679688,0.21427035331726074,-1.1555356979370117,-0.7078237533569336,2.247342348098755,9.663756370544434,9.246091842651367
3_20251106_214921,1762436927646,3,0.5741061568260193,0.2893884778022766,0.2594509422779083,0.7206535935401917,0.013421513140201569,3.342878580093384,2.752176523208618,2.739327907562256,8.359786987304688,8.21027660369873,0.3551834523677826,1.5927839279174805,1.483473539352417,31.032955169677734,-18.60771942138672,-17.695898056030273,0.3935885429382324,-1.0431756973266602,-0.8286523818969727,2.3457393646240234,9.402962684631348,9.038928985595703
3_20251106_214921,1762436927665,3,0.5588752627372742,0.2841893136501312,0.2662610113620758,0.732120156288147,0.013421513140201569,3.342878580093384,2.752176523208618,2.739327907562256,8.359786987304688,8.21027660369873,0.34113356471061707,1.5182584524154663,1.5525012016296387,30.649749755859375,-19.8594970703125,-16.34158706665039,0.3935885429382324,-1.0431756973266602,-0.8286523818969727,2.3457393646240234,9.402962684631348,9.038928985595703
3_20251106_214921,1762436927683,3,0.5431594848632812,0.2795725166797638,0.2722308933734894,0.7434428334236145,0.04286950081586838,3.3400590419769287,2.801055908203125,3.27321195602417,8.450761795043945,8.05705451965332,0.34235531091690063,1.4180766344070435,1.5072972774505615,30.23965072631836,-21.162689208984375,-15.029860496520996,0.7419781684875488,-0.7617607116699219,-0.7854995727539062,2.531233787536621,9.212522506713867,8.842554092407227
3_20251106_214921,1762436927703,3,0.5274922251701355,0.27545541524887085,0.27774691581726074,0.7541438341140747,0.09456512331962585,3.3319358825683594,2.869478464126587,4.0177764892578125,8.607574462890625,8.453277587890625,0.34663137793540955,1.374705195426941,1.3655767440795898,29.748592376708984,-22.384353637695312,-13.638622283935547,1.0000355243682861,-0.3842945098876953,-0.20546913146972656,3.0177409648895264,8.99186897277832,8.658746719360352
3_20251106_214921,1762436927722,3,0.5127052664756775,0.27125415205955505,0.28328603506088257,0.7637431025505066,0.12724509835243225,3.3258161544799805,2.904839038848877,4.247610092163086,8.59560489654541,8.50355339050293,0.2837122976779938,1.4437329769134521,1.1994214057922363,29.23074722290039,-23.645675659179688,-12.208608627319336,0.9838953018188477,-0.31701087951660156,-0.12415504455566406,3.2637147903442383,8.912615776062012,8.627708435058594
3_20251106_214921,1762436927741,3,0.4989013671875,0.26572132110595703,0.28896215558052063,0.7726516127586365,0.15813978016376495,3.319272756576538,2.9350290298461914,4.463079452514648,8.380136489868164,8.610091209411621,0.2513364553451538,1.440678596496582,1.050370454788208,28.54430389404297,-24.892196655273438,-10.866029739379883,0.9594917297363281,-0.4259834289550781,-0.014093399047851562,3.5035877227783203,8.806119918823242,8.624184608459473
3_20251106_214921,1762436927759,3,0.48606425523757935,0.25958579778671265,0.2946445941925049,0.7807312607765198,0.19209758937358856,3.3107244968414307,2.9654417037963867,4.58876895904541,8.082071304321289,8.674731254577637,0.2513364553451538,1.440678596496582,1.050370454788208,27.84123992919922,-26.002182006835938,-9.521528244018555,0.8681449890136719,-0.5792388916015625,0.04043769836425781,3.7206239700317383,8.661310195922852,8.634293556213379
3_20251106_214921,1762436927779,3,0.4737548232078552,0.2546306550502777,0.3011939227581024,0.7874019145965576,0.22824332118034363,3.2997021675109863,2.9954750537872314,4.440335273742676,7.847448348999023,8.509538650512695,0.6991003155708313,1.1364679336547852,0.782200813293457,27.119430541992188,-27.02490997314453,-8.270774841308594,0.5757689476013184,-0.6510896682739258,-0.09980392456054688,3.8645663261413574,8.49853801727295,8.609342575073242
3_20251106_214921,1762436927799,3,0.4621717035770416,0.25181129574775696,0.30926039814949036,0.7920520305633545,0.26353514194488525,3.2867677211761475,3.0229427814483643,4.1781816482543945,7.6882405281066895,8.259355545043945,0.8640337586402893,1.0020776987075806,0.6557518243789673,26.338199615478516,-28.02635955810547,-7.03546142578125,0.25089216232299805,-0.6482377052307129,-0.27998924255371094,3.9272894859313965,8.336478233337402,8.539344787597656
3_20251106_214921,1762436927819,3,0.4514680504798889,0.25026512145996094,0.31818872690200806,0.7951728701591492,0.26353514194488525,3.2867677211761475,3.0229427814483643,4.1781816482543945,7.6882405281066895,8.259355545043945,0.9190115928649902,0.9336608648300171,0.5409092903137207,26.338199615478516,-28.02635955810547,-7.03546142578125,0.25089216232299805,-0.6482377052307129,-0.27998924255371094,3.9272894859313965,8.336478233337402,8.539344787597656
3_20251106_214921,1762436927836,3,0.4415833652019501,0.24899698793888092,0.3274778425693512,0.7973474264144897,0.3002239763736725,3.270219326019287,3.0503039360046387,3.8753280639648438,7.512274742126465,8.174365043640137,0.9752112030982971,0.9025068283081055,0.46210771799087524,25.675891876220703,-28.868896484375,-5.900696754455566,-0.04156923294067383,-0.65936279296875,-0.29198360443115234,3.9168972969055176,8.171637535095215,8.466348648071289
3_20251106_214921,1762436927857,3,0.4320432245731354,0.2477560192346573,0.33722826838493347,0.7988946437835693,0.3517274856567383,3.2382569313049316,3.086648464202881,3.402493476867676,6.743768692016602,7.482470512390137,0.9752112030982971,0.9025068283081055,0.46210771799087524,25.06847381591797,-29.59551239013672,-4.734561920166016,-0.360245943069458,-0.9755077362060547,-0.7248706817626953,3.762739419937134,7.719276428222656,8.207341194152832
3_20251106_214921,1762436927878,3,0.4225366413593292,0.2470630407333374,0.3473619520664215,0.7998514175415039,0.37939658761024475,3.2140603065490723,3.101426362991333,3.306729316711426,6.67314338684082,6.8228960037231445,1.060732126235962,0.8463072776794434,0.44133833050727844,24.499221801757812,-30.29436492919922,-3.5934600830078125,-0.3648080825805664,-0.8369064331054688,-1.1075563430786133,3.671537399291992,7.510049819946289,7.930452346801758
3_20251106_214921,1762436927894,3,0.4131911098957062,0.24719399213790894,0.3568277955055237,0.8005262017250061,0.39778733253479004,3.195986747741699,3.109057903289795,3.2983500957489014,6.813198089599609,6.6050333976745605,0.9739894270896912,0.6019613742828369,0.4578316807746887,23.95948600769043,-30.891845703125,-2.381685256958008,-0.2985498905181885,-0.5574812889099121,-1.0603351593017578,3.59689998626709,7.3706793785095215,7.665368556976318
3_20251106_214921,1762436927913,3,0.40440985560417175,0.24795366823673248,0.3652719259262085,0.8009669780731201,0.41744929552078247,3.174206018447876,3.11488938331604,3.2013893127441406,6.863473892211914,6.652915000915527,0.9739894270896912,0.6019613742828369,0.4578316807746887,23.441396713256836,-31.32488250732422,-1.2065372467041016,-0.316408634185791,-0.4057645797729492,-0.8099632263183594,3.5177979469299316,7.269238471984863,7.462878227233887
3_20251106_214921,1762436927933,3,0.39736366271972656,0.24896809458732605,0.3728178143501282,0.8007020950317383,0.43539971113204956,3.15046763420105,3.1178219318389893,2.9547972679138184,6.625260829925537,6.5092692375183105,0.871364176273346,0.5585899353027344,0.27090707421302795,22.945960998535156,-31.79346466064453,-0.08526611328125,-0.45040035247802734,-0.5151824951171875,-0.7628870010375977,3.4051976203918457,7.140443325042725,7.272156238555908
3_20251106_214921,1762436927950,3,0.39029017090797424,0.24888473749160767,0.38068291544914246,0.8005064129829407,0.44835591316223145,3.1295809745788574,3.1172471046447754,2.70461368560791,6.358319282531738,5.932291507720947,0.871364176273346,0.5585899353027344,0.27090707421302795,22.44537353515625,-32.14888000488281,0.9432773590087891,-0.560467004776001,-0.6256990432739258,-1.0718917846679688,3.265080690383911,6.984018325805664,7.004183292388916
3_20251106_214921,1762436927971,3,0.3834702670574188,0.2484642118215561,0.3891904652118683,0.7998417615890503,0.4610801339149475,3.102595806121826,3.1108014583587646,2.5250563621520996,6.245796203613281,5.282293319702148,0.9746003150939941,0.5353771448135376,0.16889263689517975,22.00753402709961,-32.46305847167969,2.015613555908203,-0.5920195579528809,-0.5905780792236328,-1.377511978149414,3.1170759201049805,6.836374282836914,6.6598052978515625
3_20251106_214921,1762436927991,3,0.3770495653152466,0.2484453320503235,0.3979395925998688,0.7985941171646118,0.4701559543609619,3.07676362991333,3.0991625785827637,2.315572500228882,6.370289325714111,4.749607086181641,0.9067943096160889,0.41625845432281494,0.18538597226142883,21.5869140625,-32.68840789794922,3.076770782470703,-0.6412026882171631,-0.37286806106567383,-1.528158187866211,2.956775188446045,6.743157386779785,6.277765274047852
3_20251106_214921,1762436928010,3,0.37103399634361267,0.24910162389278412,0.4057568907737732,0.7972725033760071,0.4760892987251282,3.0541155338287354,3.0859317779541016,2.2150204181671143,6.515132427215576,4.9459228515625,0.7498020529747009,0.2751487195491791,0.2287573665380478,21.170413970947266,-32.85016632080078,4.0581512451171875,-0.5934038162231445,-0.1824202537536621,-1.065474033355713,2.808424234390259,6.697552680969238,6.011396884918213
3_20251106_214921,1762436928029,3,0.3654998242855072,0.2503705620765686,0.4118715226650238,0.7962953448295593,0.4803880751132965,3.0315215587615967,3.069957733154297,2.20664119720459,6.740177631378174,5.024928092956543,0.6612266898155212,0.19329285621643066,0.24586157500743866,20.818971633911133,-32.93274688720703,5.0570831298828125,-0.481426477432251,0.03410005569458008,-0.7891750335693359,2.688067674636841,6.706077575683594,5.814103126525879
3_20251106_214921,1762436928046,3,0.360373854637146,0.25194865465164185,0.41694486141204834,0.7954932451248169,0.4831363558769226,3.0115156173706055,3.052936315536499,2.232975959777832,6.839532852172852,4.740030288696289,0.6679461598396301,0.155419260263443,0.18599684536457062,20.430946350097656,-33.04093933105469,5.864788055419922,-0.3640735149383545,0.10676431655883789,-0.8592586517333984,2.5970494747161865,6.732768535614014,5.5992889404296875
3_20251106_214921,1762436928066,3,0.35581985116004944,0.2535572350025177,0.42206624150276184,0.7943305373191833,0.48440733551979065,2.991825819015503,3.032212972640991,2.0558128356933594,6.86826229095459,4.267195701599121,0.6141901016235352,0.1658039540052414,0.0937562808394432,20.1697998046875,-33.06476593017578,6.570850372314453,-0.43298935890197754,0.10839509963989258,-1.0656747817993164,2.488802194595337,6.759867191314697,5.3328704833984375
3_20251106_214921,1762436928085,3,0.35203123092651367,0.25453755259513855,0.42705896496772766,0.7930355072021484,0.4839702844619751,2.9735920429229736,3.008702039718628,1.8894230127334595,6.931705474853516,3.939204692840576,0.5085105299949646,0.15114319324493408,0.05343920737504959,19.911178588867188,-33.03876495361328,7.318517684936523,-0.4795032739639282,0.13747072219848633,-1.1149325370788574,2.3689262866973877,6.794234752655029,5.054137229919434
3_20251106_214921,1762436928105,3,0.34888210892677307,0.2551094591617584,0.4313620626926422,0.791913628578186,0.48167961835861206,2.9554688930511475,2.979937791824341,1.8223881721496582,7.099292755126953,3.8374552726745605,0.4333741366863251,0.07356338948011398,0.03450240194797516,19.733627319335938,-33.082550048828125,8.068035125732422,-0.43723034858703613,0.24404621124267578,-0.9733452796936035,2.2596185207366943,6.855246543884277,4.810800552368164
3_20251106_214921,1762436928123,3,0.3463100790977478,0.2558816969394684,0.43496227264404297,0.7908234596252441,0.4787631034851074,2.9427037239074707,2.9563992023468018,1.7338064908981323,7.388978958129883,4.165446758270264,0.3808397948741913,0.01186604704707861,0.010067814029753208,19.584049224853516,-33.085052490234375,8.616580963134766,-0.4206496477127075,0.4269862174987793,-0.5162830352783203,2.15445613861084,6.9619927406311035,4.681729793548584
3_20251106_214921,1762436928141,3,0.34437689185142517,0.25686731934547424,0.43802356719970703,0.7896575927734375,0.47402629256248474,2.930742025375366,2.9296092987060547,1.5566432476043701,7.542200565338135,4.026589393615723,0.3863375782966614,0.0002596175763756037,-0.022918881848454475,19.399616241455078,-33.064414978027344,9.123634338378906,-0.47825026512145996,0.46416616439819336,-0.5241122245788574,2.03489351272583,7.078034400939941,4.55070161819458
3_20251106_214921,1762436928162,3,0.3427831828594208,0.2577851414680481,0.44112738966941833,0.7883229851722717,0.46737343072891235,2.9202823638916016,2.8998141288757324,1.4046179056167603,7.572127342224121,3.562134027481079,0.39183536171913147,-0.01623372919857502,-0.052240386605262756,19.276805877685547,-33.03886413574219,9.53852653503418,-0.5042204856872559,0.39527463912963867,-0.7908542156219482,1.9088383913040161,7.176852703094482,4.352988243103027
3_20251106_214921,1762436928180,3,0.3413153886795044,0.2585982084274292,0.44438284635543823,0.7868638038635254,0.45970338582992554,2.912238836288452,2.870494842529297,1.3016717433929443,7.68584680557251,3.467566967010498,0.31120121479034424,-0.040668316185474396,-0.05773817002773285,19.155296325683594,-32.99994659423828,9.87258529663086,-0.48573338985443115,0.4071955680847168,-0.7083368301391602,1.7874051332473755,7.278651237487793,4.175903797149658
3_20251106_214921,1762436928200,3,0.3403085172176361,0.259378045797348,0.447005957365036,0.7855563759803772,0.45019280910491943,2.90576434135437,2.840186595916748,1.181966781616211,7.794777870178223,3.85062313079834,0.20063470304012299,-0.049831289798021317,-0.04063396155834198,19.13328742980957,-32.917137145996094,10.224874496459961,-0.48435068130493164,0.4129009246826172,-0.2602243423461914,1.6663174629211426,7.3818769454956055,4.110847473144531
3_20251106_214921,1762436928220,3,0.33951181173324585,0.2599337697029114,0.4487495422363281,0.7847229242324829,0.45019280910491943,2.90576434135437,2.840186595916748,1.181966781616211,7.794777870178223,3.85062313079834,0.16825886070728302,-0.02539670094847679,-0.01497763954102993,19.121139526367188,-32.883087158203125,10.509017944335938,-0.48435068130493164,0.4129009246826172,-0.2602243423461914,1.6663174629211426,7.3818769454956055,4.110847473144531
3_20251106_214921,1762436928240,3,0.3384913206100464,0.2602265179157257,0.450232595205307,0.7842170596122742,0.4382788836956024,2.900438070297241,2.8079097270965576,1.1292966604232788,7.773231506347656,3.9463868141174316,0.18169789016246796,-0.04311177507042885,0.0015157079324126244,19.121139526367188,-32.883087158203125,10.509017944335938,-0.4296165704727173,0.3130836486816406,-0.13156843185424805,1.558913230895996,7.460147857666016,4.07795524597168
3_20251106_214921,1762436928259,3,0.33738917112350464,0.26073160767555237,0.451704740524292,0.7836775183677673,0.4168827533721924,2.8952183723449707,2.7573723793029785,1.148449420928955,7.974335670471191,4.081653594970703,0.15787415206432343,-0.07060068845748901,0.032058946788311005,19.124691009521484,-32.79707336425781,10.700094223022461,-0.2669104337692261,0.3497657775878906,0.010794639587402344,1.4153598546981812,7.624569892883301,4.070858955383301
3_20251106_214921,1762436928276,3,0.33622440695762634,0.2614849805831909,0.45282307267189026,0.7832815647125244,0.4168827533721924,2.8952183723449707,2.7573723793029785,1.148449420928955,7.974335670471191,4.081653594970703,0.13466130197048187,-0.08526144176721573,0.05221748352050781,19.06631088256836,-32.727996826171875,10.92900276184082,-0.2669104337692261,0.3497657775878906,0.010794639587402344,1.4153598546981812,7.624569892883301,4.070858955383301
3_20251106_214921,1762436928295,3,0.3349858224391937,0.26231658458709717,0.453691691160202,0.7830315232276917,0.4053632318973541,2.8943192958831787,2.73340106010437,1.0790205001831055,7.993488311767578,4.076865196228027,0.14687860012054443,-0.09564613550901413,0.05710439383983612,19.006717681884766,-32.68376159667969,11.130350112915039,-0.26907145977020264,0.2951345443725586,0.004805088043212891,1.348091959953308,7.6983537673950195,4.0720601081848145
3_20251106_214921,1762436928315,3,0.33378955721855164,0.26329684257507324,0.4545953571796417,0.7826892137527466,0.3936091959476471,2.894120454788208,2.7102179527282715,1.0526854991912842,7.937227249145508,3.9224460124969482,0.10595066100358963,-0.044333506375551224,0.025339432060718536,19.08186149597168,-32.629844665527344,11.24247932434082,-0.23632514476776123,0.19109869003295898,-0.11969113349914551,1.2890106439590454,7.746128559112549,4.042137145996094
3_20251106_214921,1762436928333,3,0.33272287249565125,0.2636357843875885,0.45545247197151184,0.7825309634208679,0.37183481454849243,2.8956735134124756,2.6670143604278564,1.149646520614624,8.096435546875,3.607621908187866,-0.021720057353377342,0.04912879690527916,-0.04552087187767029,19.11531639099121,-32.666481018066406,11.378320693969727,-0.08517098426818848,0.2408595085144043,-0.29743409156799316,1.2348175048828125,7.855576038360596,3.9050559997558594
3_20251106_214921,1762436928353,3,0.3321036696434021,0.2626088857650757,0.455852210521698,0.7829064130783081,0.35984480381011963,2.898001194000244,2.6436281204223633,1.0095916986465454,8.229307174682617,3.660292148590088,-0.14694732427597046,0.16152790188789368,-0.12310069054365158,19.11372184753418,-32.68025207519531,11.499702453613281,-0.18018066883087158,0.2989845275878906,-0.19581127166748047,1.189772367477417,7.930322647094727,3.8561034202575684
3_20251106_214921,1762436928372,3,0.33270132541656494,0.26051315665245056,0.45561617612838745,0.783490002155304,0.348240464925766,2.9011521339416504,2.6224477291107178,0.9042513370513916,8.313100814819336,3.829075813293457,-0.23979876935482025,0.27575957775115967,-0.18663063645362854,19.04071807861328,-32.67327117919922,11.578121185302734,-0.2284168004989624,0.30622291564941406,-0.021622180938720703,1.132668137550354,8.006877899169922,3.8506979942321777
3_20251106_214921,1762436928392,3,0.3326917886734009,0.2564955949783325,0.45549219846725464,0.7848904728889465,0.3364845812320709,2.9046671390533447,2.6028878688812256,0.8659457564353943,8.19698715209961,4.055318355560303,-0.30271783471107483,0.3411221206188202,-0.21045435965061188,18.982112884521484,-32.627685546875,11.644306182861328,-0.21337789297103882,0.15208721160888672,0.1636962890625,1.079323649406433,8.044899940490723,3.8916220664978027
3_20251106_214921,1762436928410,3,0.3326956331729889,0.2516421973705292,0.4551521837711334,0.7866551280021667,0.324428915977478,2.9078850746154785,2.585293769836426,0.7558172345161438,8.00067138671875,4.25163459777832,-0.30271783471107483,0.3411221206188202,-0.21045435965061188,18.982717514038086,-32.615264892578125,11.658086776733398,-0.2588050961494446,-0.03538322448730469,0.2880101203918457,1.0146223306655884,8.036054611206055,3.9636244773864746
3_20251106_214921,1762436928430,3,0.3322557210922241,0.2471785992383957,0.45470932126045227,0.7885102033615112,0.31163379549980164,2.911224603652954,2.5682804584503174,0.7713788747787476,8.076085090637207,4.1546735763549805,-0.2843919098377228,0.32890480756759644,-0.15058961510658264,18.948570251464844,-32.57957458496094,11.616859436035156,-0.19459480047225952,0.032024383544921875,0.15283918380737305,0.9659736752510071,8.044060707092285,4.001834392547607
3_20251106_214921,1762436928448,3,0.3309026062488556,0.24386145174503326,0.4540853202342987,0.790469229221344,0.30046534538269043,2.9146335124969482,2.554248809814453,0.8731280565261841,8.268810272216797,4.210934638977051,-0.24651828408241272,0.17435605823993683,0.1255212426185608,18.937088012695312,-32.56781005859375,11.616632461547852,-0.07427644729614258,0.17979907989501953,0.1672801971435547,0.9474045038223267,8.089011192321777,4.043654441833496
3_20251106_214921,1762436928468,3,0.32897627353668213,0.24187380075454712,0.4527561068534851,0.7926434278488159,0.28889456391334534,2.9198808670043945,2.5412709712982178,1.0191681385040283,8.631515502929688,4.646660804748535,-0.2837810218334198,0.03263544663786888,0.2531919777393341,18.911195755004883,-32.60626220703125,11.533761978149414,0.05741095542907715,0.4340038299560547,0.4824051856994629,0.9617571830749512,8.197511672973633,4.164255619049072
3_20251106_214921,1762436928487,3,0.3268111050128937,0.24144023656845093,0.4503963887691498,0.7950120568275452,0.27931883931159973,2.926868200302124,2.532346725463867,1.2777308225631714,9.018163681030273,5.180544853210449,-0.2678985297679901,-0.04616609960794449,0.2959524989128113,18.829418182373047,-32.549034118652344,11.531648635864258,0.25277888774871826,0.6565217971801758,0.8130316734313965,1.0249519348144531,8.361641883850098,4.367513179779053
3_20251106_214921,1762436928506,3,0.32465460896492004,0.24185578525066376,0.44776079058647156,0.7972549796104431,0.2714507579803467,2.9358327388763428,2.5268383026123047,1.472849726676941,9.20969009399414,5.449880599975586,-0.2379661649465561,0.014920372515916824,0.2385312169790268,18.769886016845703,-32.53950500488281,11.434846878051758,0.3583182096481323,0.6784391403198242,0.8658938407897949,1.1145315170288086,8.531250953674316,4.583986759185791
3_20251106_214921,1762436928524,3,0.32249751687049866,0.2416137009859085,0.4456377923488617,0.7993904948234558,0.2714507579803467,2.9358327388763428,2.5268383026123047,1.472849726676941,9.20969009399414,5.449880599975586,-0.1964273750782013,0.11937824636697769,0.11208222061395645,18.69121551513672,-32.65620422363281,11.32139778137207,0.3583182096481323,0.6784391403198242,0.8658938407897949,1.1145315170288086,8.531250953674316,4.583986759185791
3_20251106_214921,1762436928544,3,0.3208354115486145,0.2402363270521164,0.4443807899951935,0.8011721968650818,0.25982165336608887,2.958505868911743,2.5216214656829834,1.4524999856948853,9.358125686645508,5.083583354949951,-0.1909295916557312,0.16213876008987427,-0.01192331500351429,18.57708740234375,-32.76219177246094,11.152677536010742,0.20308434963226318,0.5349454879760742,0.27913808822631836,1.249415636062622,8.823180198669434,4.804445266723633
3_20251106_214921,1762436928563,3,0.3198714554309845,0.238035187125206,0.44361796975135803,0.8026360273361206,0.254702091217041,2.9708290100097656,2.520350694656372,1.221469521522522,9.164203643798828,5.051262855529785,-0.18298836052417755,0.18474076688289642,-0.11454858630895615,18.398815155029297,-32.92292022705078,11.034513473510742,-0.022356867790222168,0.27281856536865234,0.19745445251464844,1.2438263893127441,8.891385078430176,4.853808403015137
3_20251106_214921,1762436928584,3,0.3196409344673157,0.2353072166442871,0.44324806332588196,0.8037358522415161,0.2484050840139389,2.984285354614258,2.5200953483581543,0.968891978263855,9.045696258544922,5.175756454467773,-0.18298836052417755,0.18474076688289642,-0.11454858630895615,18.295578002929688,-33.041481018066406,10.94711685180664,-0.2199474573135376,0.12344932556152344,0.25755834579467773,1.1888394355773926,8.922246932983398,4.918198108673096
3_20251106_214921,1762436928601,3,0.31939491629600525,0.2318066954612732,0.44310083985328674,0.8049311637878418,0.2484050840139389,2.984285354614258,2.5200953483581543,0.968891978263855,9.045696258544922,5.175756454467773,-0.15916462242603302,0.30691367387771606,-0.1322636753320694,18.232223510742188,-33.09513854980469,10.889543533325195,-0.2199474573135376,0.12344932556152344,0.25755834579467773,1.1888394355773926,8.922246932983398,4.918198108673096
3_20251106_214921,1762436928620,3,0.31867659091949463,0.22799809277057648,0.44333502650260925,0.8061738014221191,0.2362058460712433,3.0056216716766357,2.519286632537842,0.803699254989624,8.911625862121582,4.718482971191406,-0.10601939260959625,0.24094030261039734,-0.0656794086098671,18.122238159179688,-33.11430358886719,10.830801010131836,-0.2616204023361206,-0.008329391479492188,-0.16305875778198242,1.0653196573257446,8.919955253601074,4.881541728973389
3_20251106_214921,1762436928639,3,0.31767234206199646,0.22519026696681976,0.44363582134246826,0.8071932196617126,0.2289171814918518,3.016117572784424,2.518646001815796,0.7318762540817261,8.951128005981445,4.886070251464844,-0.10540852695703506,0.1505323350429535,0.0528283417224884,18.09583854675293,-33.1650390625,10.720634460449219,-0.26675474643707275,0.024938583374023438,0.0036230087280273438,0.9986310005187988,8.926189422607422,4.882447242736816
3_20251106_214921,1762436928659,3,0.3161628246307373,0.22360169887542725,0.4434458017349243,0.8083310723304749,0.2213343232870102,3.0271878242492676,2.5193591117858887,0.9018572568893433,9.115123748779297,5.327781677246094,-0.10601938515901566,0.09921970963478088,0.16278398036956787,18.018888473510742,-33.24461364746094,10.662042617797852,-0.07741904258728027,0.15114784240722656,0.35626745223999023,0.9792762994766235,8.96397590637207,4.9715142250061035
3_20251106_214921,1762436928679,3,0.31403741240501404,0.22284607589244843,0.44284558296203613,0.8096961975097656,0.21496149897575378,3.0375308990478516,2.5212953090667725,1.150843620300293,9.092379570007324,5.4426984786987305,-0.027828708291053772,0.09616538137197495,0.20982056856155396,17.92441749572754,-33.200469970703125,10.632143020629883,0.13725388050079346,0.1027231216430664,0.37694740295410156,1.0135897397994995,8.989656448364258,5.065751075744629
3_20251106_214921,1762436928696,3,0.31136438250541687,0.22253075242042542,0.44267842173576355,0.8109057545661926,0.21003849804401398,3.047139883041382,2.5235681533813477,1.3435685634613037,9.111533164978027,5.281096935272217,0.03325776755809784,0.12548688054084778,0.20493365824222565,17.92441749572754,-33.200469970703125,10.632143020629883,0.2639831304550171,0.09750175476074219,0.17227697372436523,1.0795854330062866,9.014031410217285,5.108819961547852
3_20251106_214921,1762436928715,3,0.3084205389022827,0.2221657931804657,0.443045973777771,0.8119294047355652,0.20622019469738007,3.0570266246795654,2.5256271362304688,1.48721444606781,9.105547904968262,5.028519630432129,0.02653825655579567,0.14808887243270874,0.1511775553226471,17.838212966918945,-33.21885681152344,10.655479431152344,0.32610321044921875,0.07321357727050781,-0.0642404556274414,1.1611112356185913,9.032334327697754,5.09276008605957
3_20251106_214921,1762436928737,3,0.30582699179649353,0.2214502990245819,0.4435400664806366,0.812835693359375,0.20365992188453674,3.0679378509521484,2.527858257293701,1.606919288635254,9.04210376739502,5.083583354949951,-0.023552654311060905,0.10960441082715988,0.0784846618771553,17.777790069580078,-33.210540771484375,10.68032455444336,0.3566465377807617,0.007815361022949219,-0.0073413848876953125,1.2502727508544922,9.03428840637207,5.0909247398376465
3_20251106_214921,1762436928754,3,0.30407750606536865,0.22064782679080963,0.4437043368816376,0.8136202096939087,0.20262162387371063,3.0759122371673584,2.530226707458496,1.6332544088363647,9.018163681030273,5.4235453605651855,-0.04798724129796028,0.040576688945293427,0.01739818975329399,17.64323616027832,-33.2315673828125,10.647632598876953,0.3063852787017822,-0.012899398803710938,0.2660961151123047,1.3268691301345825,9.031063079833984,5.157449245452881
3_20251106_214921,1762436928774,3,0.3031429350376129,0.22007407248020172,0.4435790479183197,0.8141924738883972,0.20238935947418213,3.0842716693878174,2.5336880683898926,1.6440279483795166,8.991828918457031,5.502551078796387,-0.04798724129796028,0.040576688945293427,0.01739818975329399,17.545339584350586,-33.25007629394531,10.602895736694336,0.2537270784378052,-0.0313873291015625,0.27608156204223633,1.3903008699417114,9.023216247558594,5.22646951675415
3_20251106_214921,1762436928792,3,0.30348706245422363,0.22000259160995483,0.44379788637161255,0.813964307308197,0.20261523127555847,3.091857671737671,2.5364956855773926,1.5530520677566528,8.893671035766602,5.051263332366943,0.09984201937913895,0.024083342403173447,-0.15608739852905273,17.484111785888672,-33.25445556640625,10.640993118286133,0.13020098209381104,-0.10363578796386719,-0.14016485214233398,1.4228510856628418,8.997306823730469,5.191428184509277
3_20251106_214921,1762436928811,3,0.30374282598495483,0.21926450729370117,0.4450318217277527,0.8133941292762756,0.2028815895318985,3.098668336868286,2.5376880168914795,1.441726565361023,8.852970123291016,4.653842926025391,0.09800942987203598,0.05645917356014252,-0.24405191838741302,17.385820388793945,-33.27349853515625,10.650321960449219,0.015100359916687012,-0.11546897888183594,-0.4300680160522461,1.426626205444336,8.968439102172852,5.083910942077637
3_20251106_214921,1762436928830,3,0.3045438528060913,0.21791838109493256,0.44658994674682617,0.8126020431518555,0.2028815895318985,3.098668336868286,2.5376880168914795,1.441726565361023,8.852970123291016,4.653842926025391,0.038755547255277634,0.0729525238275528,-0.31613391637802124,17.33658218383789,-33.27735137939453,10.7159423828125,0.015100359916687012,-0.11546897888183594,-0.4300680160522461,1.426626205444336,8.968439102172852,5.083910942077637
3_20251106_214921,1762436928851,3,0.3059562146663666,0.2159843146800995,0.4479431211948395,0.811842679977417,0.2000483274459839,3.110060214996338,2.534280776977539,0.8084874153137207,8.710521697998047,4.426403522491455,0.038755547255277634,0.0729525238275528,-0.31613391637802124,17.360149383544922,-33.2884521484375,10.730175018310547,-0.4501943588256836,-0.1731109619140625,-0.41371822357177734,1.2586817741394043,8.88363265991211,4.840121746063232
3_20251106_214921,1762436928869,3,0.30761802196502686,0.2138129472732544,0.4489240050315857,0.8112474679946899,0.2000483274459839,3.110060214996338,2.534280776977539,0.8084874153137207,8.710521697998047,4.426403522491455,-0.018665736541152,0.06562214344739914,-0.3326272964477539,17.423503875732422,-33.23478698730469,10.787748336791992,-0.4501943588256836,-0.1731109619140625,-0.41371822357177734,1.2586817741394043,8.88363265991211,4.840121746063232
3_20251106_214921,1762436928888,3,0.30902954936027527,0.2119951844215393,0.4496929943561554,0.8107619881629944,0.19095680117607117,3.1164021492004395,2.5277175903320312,0.36198800802230835,8.451959609985352,4.554488182067871,0.0008819345384836197,-0.021731512621045113,-0.15669827163219452,17.53740882873535,-33.15229797363281,10.793746948242188,-0.6016556024551392,-0.2965726852416992,-0.16575908660888672,0.9636436104774475,8.74853229522705,4.720247268676758
3_20251106_214921,1762436928906,3,0.3096693754196167,0.21115681529045105,0.4502307176589966,0.8104381561279297,0.18393272161483765,3.118513822555542,2.524240016937256,0.36557912826538086,8.560890197753906,4.714892387390137,0.008212312124669552,-0.07793106138706207,0.019841648638248444,17.724119186401367,-33.077056884765625,10.748357772827148,-0.47845160961151123,-0.1501140594482422,-0.004283905029296875,0.8440307378768921,8.711004257202148,4.719176292419434
3_20251106_214921,1762436928927,3,0.30922991037368774,0.21150361001491547,0.45027652382850647,0.810490071773529,0.17658430337905884,3.12040376663208,2.521190643310547,0.5978066921234131,8.668624877929688,4.811853408813477,0.030814308673143387,-0.13474148511886597,0.17439042031764984,17.81012725830078,-33.058937072753906,10.752054214477539,-0.19697922468185425,-0.03390312194824219,0.0741415023803711,0.7947859168052673,8.70252799987793,4.7377119064331055
3_20251106_214921,1762436928944,3,0.3078802227973938,0.21304911375045776,0.4499828517436981,0.8107621669769287,0.16980183124542236,3.122572422027588,2.5188255310058594,0.8671428561210632,8.838605880737305,4.931558609008789,0.030814308673143387,-0.13474148511886597,0.17439042031764984,17.859167098999023,-33.05535888671875,10.71346664428711,0.057885587215423584,0.10886287689208984,0.15507745742797852,0.8092572689056396,8.729743003845215,4.7764811515808105
3_20251106_214921,1762436928963,3,0.30596673488616943,0.21561382710933685,0.4494146406650543,0.8111236095428467,0.1642562448978424,3.125433921813965,2.5178940296173096,1.1364789009094238,9.021754264831543,5.255958557128906,0.04914025217294693,-0.20254746079444885,0.2739613950252533,17.911014556884766,-33.013160705566406,10.581058502197266,0.2617773413658142,0.23360919952392578,0.38358211517333984,0.8747015595436096,8.788145065307617,4.872376441955566
3_20251106_214921,1762436928982,3,0.30394452810287476,0.2186020463705063,0.4485691785812378,0.8115519285202026,0.1603071689605713,3.1291184425354004,2.5183866024017334,1.3555389642715454,9.140262603759766,5.374466896057129,0.04364246502518654,-0.2104887068271637,0.2733505070209503,17.961650848388672,-32.995811462402344,10.421089172363281,0.3846698999404907,0.2816944122314453,0.40167236328125,0.9708690643310547,8.85856819152832,4.972794532775879
3_20251106_214921,1762436929002,3,0.3021526038646698,0.22131897509098053,0.4478290379047394,0.8118934035301208,0.15810972452163696,3.133753776550293,2.520169496536255,1.5470668077468872,9.171385765075684,5.397210597991943,0.05952495336532593,-0.1842215359210968,0.19515980780124664,17.961538314819336,-33.00756072998047,10.339727401733398,0.46095824241638184,0.25025463104248047,0.33953285217285156,1.0861085653305054,8.921131134033203,5.057677745819092
3_20251106_214921,1762436929020,3,0.3007484972476959,0.22402724623680115,0.4471408426761627,0.8120512366294861,0.15766073763370514,3.1382036209106445,2.522364854812622,1.6667717695236206,9.118715286254883,5.330175876617432,0.05952495336532593,-0.1842215359210968,0.19515980780124664,17.97069549560547,-33.068878173828125,10.271316528320312,0.4645305871963501,0.1580667495727539,0.21799850463867188,1.2022411823272705,8.960648536682129,5.11217737197876
3_20251106_214921,1762436929040,3,0.29993245005607605,0.22646473348140717,0.4469173848628998,0.811799943447113,0.15829330682754517,3.1429262161254883,2.5247445106506348,1.566219687461853,8.969083786010742,5.132662773132324,0.1432134062051773,-0.15001310408115387,-0.03574703633785248,17.89374542236328,-33.14844512939453,10.212724685668945,0.29118287563323975,0.006748199462890625,0.016387939453125,1.2750368118286133,8.962335586547852,5.116274833679199
3_20251106_214921,1762436929059,3,0.29985958337783813,0.22848868370056152,0.4472905993461609,0.8110538125038147,0.15922300517559052,3.1467504501342773,2.526280164718628,1.4058150053024292,8.802694320678711,4.893252849578857,0.13710476458072662,-0.11091776192188263,-0.12798762321472168,17.85195541381836,-33.2391357421875,10.249954223632812,0.10462260246276855,-0.12771320343017578,-0.17841768264770508,1.3011924028396606,8.930407524108887,5.0716705322265625
3_20251106_214921,1762436929079,3,0.300445556640625,0.2290041595697403,0.4484144151210785,0.8100703954696655,0.15989577770233154,3.1493821144104004,2.526414632797241,1.2166812419891357,8.538146018981934,4.610749244689941,0.11328104138374329,-0.07915278524160385,-0.19762620329856873,17.80512809753418,-33.20491027832031,10.275815963745117,-0.06760895252227783,-0.3138093948364258,-0.36873674392700195,1.2842901945114136,8.85195541381836,4.979485988616943
3_20251106_214921,1762436929098,3,0.30153077840805054,0.22891110181808472,0.44961488246917725,0.8090274333953857,0.15969674289226532,3.150531768798828,2.5249955654144287,0.9904388785362244,8.4052734375,4.418024063110352,0.07601829618215561,-0.08831576257944107,-0.20801089704036713,17.80512809753418,-33.20491027832031,10.275815963745117,-0.23508113622665405,-0.3573455810546875,-0.4491696357727051,1.2255200147628784,8.762619018554688,4.867193698883057
3_20251106_214921,1762436929117,3,0.30281129479408264,0.2287084460258484,0.4505558907985687,0.8080824017524719,0.1581171751022339,3.1504366397857666,2.5219357013702393,0.7187087535858154,8.329859733581543,4.243254661560059,0.05708149075508118,-0.09808959811925888,-0.20556744933128357,17.78145980834961,-33.193939208984375,10.27509880065918,-0.4054490327835083,-0.3462076187133789,-0.49915122985839844,1.1241577863693237,8.676067352294922,4.742405891418457
3_20251106_214921,1762436929135,3,0.30416062474250793,0.22849929332733154,0.45135146379470825,0.8071903586387634,0.15522852540016174,3.149660587310791,2.518256187438965,0.528377890586853,8.395697593688965,4.366550922393799,-0.017444007098674774,-0.09992218762636185,-0.18113286793231964,17.77896499633789,-33.22053527832031,10.423250198364258,-0.47662389278411865,-0.22429561614990234,-0.30068397521972656,1.0050017833709717,8.619993209838867,4.667234897613525
3_20251106_214921,1762436929155,3,0.3054563105106354,0.22812199592590332,0.4515707492828369,0.8066849708557129,0.15018096566200256,3.14806866645813,2.5139060020446777,0.34762340784072876,8.365771293640137,4.513788223266602,-0.017444007098674774,-0.09992218762636185,-0.18113286793231964,17.829933166503906,-33.167938232421875,10.507366180419922,-0.5259026885032654,-0.20337772369384766,-0.1227574348449707,0.8735260963439941,8.569149017333984,4.636545658111572
3_20251106_214921,1762436929174,3,0.3066323399543762,0.22749845683574677,0.45133519172668457,0.806546688079834,0.14408086240291595,3.14622163772583,2.5106775760650635,0.3105148673057556,8.419638633728027,4.8908586502075195,-0.10785198211669922,-0.06937894970178604,-0.07423151284456253,17.955020904541016,-33.09761047363281,10.55413818359375,-0.4504089951515198,-0.11960887908935547,0.20345020294189453,0.7609238624572754,8.539247512817383,4.687408447265625
3_20251106_214921,1762436929193,3,0.30726829171180725,0.22702357172966003,0.45069000124931335,0.8067992329597473,0.13709600269794464,3.1442372798919678,2.5082805156707764,0.32727354764938354,8.455550193786621,4.931558609008789,-0.10785198211669922,-0.06937894970178604,-0.07423151284456253,18.0318603515625,-33.02979278564453,10.531368255615234,-0.3469202518463135,-0.06695747375488281,0.19532012939453125,0.674193799495697,8.522507667541504,4.736238479614258
3_20251106_214921,1762436929212,3,0.3070894479751587,0.2272348254919052,0.4501259922981262,0.8071226477622986,0.13709600269794464,3.1442372798919678,2.5082805156707764,0.32727354764938354,8.455550193786621,4.931558609008789,-0.020498331636190414,-0.13596323132514954,0.12857556343078613,18.197017669677734,-32.905914306640625,10.486053466796875,-0.3469202518463135,-0.06695747375488281,0.19532012939453125,0.674193799495697,8.522507667541504,4.736238479614258
3_20251106_214921,1762436929231,3,0.30673664808273315,0.22861483693122864,0.44933637976646423,0.8073070645332336,0.12291761487722397,3.140763998031616,2.5066263675689697,0.6516739130020142,8.600393295288086,5.164982795715332,-0.02233092486858368,-0.14695878326892853,0.2238704413175583,18.32501220703125,-32.796844482421875,10.425487518310547,0.021211445331573486,0.06267929077148438,0.2893357276916504,0.6304624676704407,8.537714004516602,4.875647068023682
3_20251106_214921,1762436929250,3,0.30528339743614197,0.23025396466255188,0.44838806986808777,0.8079191446304321,0.1171782985329628,3.1396400928497314,2.50701642036438,0.917418897151947,8.675806045532227,5.120692253112793,0.01554268877953291,-0.13901753723621368,0.2721288204193115,18.420879364013672,-32.827484130859375,10.361038208007812,0.22956514358520508,0.1104736328125,0.19603633880615234,0.6878537535667419,8.565332412719727,4.924655914306641
3_20251106_214921,1762436929269,3,0.30335748195648193,0.23219479620456696,0.44761598110198975,0.8085169792175293,0.11301262676715851,3.139092206954956,2.507744312286377,1.1568288803100586,8.754812240600586,5.054854393005371,0.01554268877953291,-0.13901753723621368,0.2721288204193115,18.48130226135254,-32.83580017089844,10.336193084716797,0.37518012523651123,0.15158367156982422,0.10415887832641602,0.7816487550735474,8.603228569030762,4.950695514678955
3_20251106_214921,1762436929290,3,0.3012217581272125,0.23413310945034027,0.44696786999702454,0.8091148734092712,0.11036954820156097,3.1389567852020264,2.5082759857177734,1.2980806827545166,8.73446273803711,4.881282329559326,0.018597014248371124,-0.09014835208654404,0.23975293338298798,18.493574142456055,-32.84648132324219,10.228288650512695,0.4131455421447754,0.10498714447021484,-0.055530548095703125,0.8849351406097412,8.629475593566895,4.936812877655029
3_20251106_214921,1762436929309,3,0.29923778772354126,0.2356358766555786,0.4464392364025116,0.8097063899040222,0.1094513088464737,3.1392500400543213,2.508347272872925,1.3782827854156494,8.778753280639648,4.796291351318359,0.005157987587153912,-0.06143771484494209,0.17255781590938568,18.46707534790039,-32.89735412597656,10.131637573242188,0.39467811584472656,0.11942195892333984,-0.11241722106933594,0.9836046695709229,8.659331321716309,4.908708572387695
3_20251106_214921,1762436929327,3,0.2976965308189392,0.2366461455821991,0.44604629278182983,0.8101963400840759,0.10972938686609268,3.139834403991699,2.5077810287475586,1.43215012550354,8.789525985717773,4.652645587921143,-0.016222277656197548,-0.01134681235998869,0.09619974344968796,18.402618408203125,-32.964111328125,10.127864837646484,0.35883641242980957,0.1041555404663086,-0.2048501968383789,1.0733137130737305,8.685370445251465,4.8574957847595215
3_20251106_214921,1762436929346,3,0.29665833711624146,0.23695191740989685,0.44579070806503296,0.8106282949447632,0.10972938686609268,3.139834403991699,2.5077810287475586,1.43215012550354,8.789525985717773,4.652645587921143,-0.05776108056306839,0.032024580985307693,0.015565596520900726,18.375328063964844,-33.01606750488281,10.139345169067383,0.35883641242980957,0.1041555404663086,-0.2048501968383789,1.0733137130737305,8.685370445251465,4.8574957847595215
3_20251106_214921,1762436929365,3,0.29607075452804565,0.23644600808620453,0.44556134939193726,0.8111168146133423,0.11103735864162445,3.140782594680786,2.5062003135681152,1.4070121049880981,8.794315338134766,4.534137725830078,-0.12190186977386475,0.05829176679253578,-0.040023088455200195,18.25981903076172,-33.12394714355469,10.15985107421875,0.26695871353149414,0.08715629577636719,-0.25868654251098633,1.140053391456604,8.707159042358398,4.7928242683410645
3_20251106_214921,1762436929384,3,0.2959820032119751,0.23534990847110748,0.4450478255748749,0.8117496371269226,0.11418772488832474,3.142857313156128,2.502166271209717,1.1687992811203003,8.723688125610352,4.699330806732178,-0.1548885703086853,0.06378955394029617,-0.06690113991498947,18.120838165283203,-33.2205810546875,10.152608871459961,-0.003628373146057129,0.00023555755615234375,-0.03953409194946289,1.1724276542663574,8.7234525680542,4.738864898681641
3_20251106_214921,1762436929404,3,0.2961406707763672,0.2339746505022049,0.4443642199039459,0.8124635219573975,0.11418772488832474,3.142857313156128,2.502166271209717,1.1687992811203003,8.723688125610352,4.699330806732178,-0.14083868265151978,0.050350528210401535,-0.05346211791038513,18.05779266357422,-33.26222229003906,10.149364471435547,-0.003628373146057129,0.00023555755615234375,-0.03953409194946289,1.1724276542663574,8.7234525680542,4.738864898681641
3_20251106_214921,1762436929424,3,0.2962285280227661,0.23276108503341675,0.44371020793914795,0.8131372332572937,0.11605893820524216,3.1444694995880127,2.4995806217193604,1.0036064386367798,8.705733299255371,5.026124954223633,-0.12129101157188416,0.034468043595552444,0.0027374373748898506,18.03342056274414,-33.26380920410156,10.148384094238281,-0.11494052410125732,-0.005402565002441406,0.20951128005981445,1.118546962738037,8.711135864257812,4.816613674163818
3_20251106_214921,1762436929442,3,0.29589709639549255,0.2319142073392868,0.44302496314048767,0.8138732314109802,0.11649871617555618,3.1451399326324463,2.499346971511841,1.0478973388671875,8.708127975463867,5.033307075500488,-0.08158479630947113,-0.0015729765873402357,0.07115428894758224,18.008331298828125,-33.28956604003906,10.052261352539062,-0.05651962757110596,-0.0024061203002929688,0.1733546257019043,1.1044169664382935,8.71053409576416,4.859952449798584
3_20251106_214921,1762436929460,3,0.2950921654701233,0.23171883821487427,0.44238415360450745,0.814569354057312,0.11710979044437408,3.145979642868042,2.4998574256896973,1.1664050817489624,8.771570205688477,5.131465911865234,-0.0724218338727951,-0.046776965260505676,0.1297972947359085,17.979122161865234,-33.37892150878906,10.035917282104492,0.049590468406677246,0.048829078674316406,0.2172107696533203,1.1168146133422852,8.72274112701416,4.914255142211914
3_20251106_214921,1762436929480,3,0.29410746693611145,0.2320205420255661,0.44169914722442627,0.8152110576629639,0.1182246059179306,3.1473281383514404,2.5015668869018555,1.282518982887268,8.890079498291016,5.308629035949707,-0.07486528903245926,-0.06327030807733536,0.1456797569990158,17.905189514160156,-33.407989501953125,9.951349258422852,0.13256347179412842,0.13387107849121094,0.31549930572509766,1.1499555110931396,8.756208419799805,4.993129730224609
