session_id,timestamp,label,quaternion_w,quaternion_x,quaternion_y,quaternion_z,position_x,position_y,position_z,accelerometer_x,accelerometer_y,accelerometer_z,gyroscope_x,gyroscope_y,gyroscope_z,magnetometer_x,magnetometer_y,magnetometer_z,linear_acceleration_x,linear_acceleration_y,linear_acceleration_z,gravity_x,gravity_y,gravity_z
1_20251106_212424,1762435427490,1,0.40419772267341614,0.5084685683250427,0.6103703379631042,0.4533563554286957,0.25546830892562866,2.722794771194458,1.2557237148284912,-0.30117738246917725,10.458213806152344,-2.7534985542297363,-0.20327287912368774,0.13801723718643188,-0.0421687550842762,34.30807113647461,-19.655261993408203,10.873380661010742,0.05947309732437134,1.0326366424560547,-0.15074920654296875,-0.3606504797935486,9.425577163696289,-2.6027493476867676
1_20251106_212424,1762435427509,1,0.40457844734191895,0.5069191455841064,0.6101400852203369,0.45505857467651367,0.2532344460487366,2.751634120941162,1.2105690240859985,-0.36222684383392334,10.710790634155273,-2.6517491340637207,-0.19166645407676697,0.05188532546162605,0.021361175924539566,34.21813201904297,-19.74831771850586,10.827550888061523,-0.0012610852718353271,1.0281705856323242,-0.0391998291015625,-0.360965758562088,9.68262004852295,-2.612549304962158
1_20251106_212424,1762435427528,1,0.4051549732685089,0.5061475038528442,0.6093425154685974,0.4564710855484009,0.25152263045310974,2.7825093269348145,1.1685727834701538,-0.2113986611366272,10.950201034545898,-2.284255027770996,-0.17334049940109253,-0.052572544664144516,0.10627137869596481,34.114990234375,-19.866741180419922,10.726638793945312,0.11965367197990417,1.0140647888183594,0.2626354694366455,-0.33105233311653137,9.936136245727539,-2.5468904972076416
1_20251106_212424,1762435427546,1,0.4058382213115692,0.5062828660011292,0.6078755855560303,0.45766833424568176,0.25068044662475586,2.81309175491333,1.1325223445892334,-0.04740290343761444,11.0711030960083,-1.8377559185028076,-0.1134757548570633,-0.09533306956291199,0.1221538558602333,34.023529052734375,-19.996654510498047,10.598918914794922,0.22691954672336578,0.9079732894897461,0.567307710647583,-0.2743224501609802,10.163129806518555,-2.4050636291503906
1_20251106_212424,1762435427568,1,0.4064222574234009,0.5068821907043457,0.6063857078552246,0.4584624469280243,0.25071796774864197,2.846273183822632,1.0982270240783691,0.04716400057077408,11.07948112487793,-1.7288243770599365,-0.041393719613552094,-0.033635735511779785,0.07511727511882782,34.00761032104492,-20.07211685180664,10.52926254272461,0.25718918442726135,0.7330818176269531,0.5409913063049316,-0.21002517640590668,10.346399307250977,-2.269815683364868
1_20251106_212424,1762435427585,1,0.40654733777046204,0.5071994662284851,0.6056029200553894,0.45903491973876953,0.2514609098434448,2.8812646865844727,1.0654780864715576,0.02202596515417099,10.941822052001953,-1.7611446380615234,0.020303616300225258,0.031115921214222908,0.0024243704974651337,33.89550018310547,-20.140567779541016,10.374849319458008,0.18564093112945557,0.47633838653564453,0.4069368839263916,-0.16361495852470398,10.465483665466309,-2.168081521987915
1_20251106_212424,1762435427604,1,0.40627604722976685,0.5069974064826965,0.6057184934616089,0.4593457877635956,0.2514609098434448,2.8812646865844727,1.0654780864715576,0.02202596515417099,10.941822052001953,-1.7611446380615234,0.06734020262956619,0.07448731362819672,-0.04766653850674629,33.873931884765625,-20.10354232788086,10.280046463012695,0.18564093112945557,0.47633838653564453,0.4069368839263916,-0.16361495852470398,10.465483665466309,-2.168081521987915
1_20251106_212424,1762435427622,1,0.40581074357032776,0.506591260433197,0.6063840985298157,0.45932698249816895,0.2526225447654724,2.942117929458618,1.0112261772155762,-0.27364519238471985,10.399558067321777,-1.987386703491211,0.11376592516899109,0.06410261988639832,-0.03667097166180611,33.86758804321289,-20.216556549072266,10.277671813964844,-0.09206199645996094,-0.08164691925048828,0.09438514709472656,-0.1815831959247589,10.481204986572266,-2.0817718505859375
1_20251106_212424,1762435427642,1,0.4051629900932312,0.5065017342567444,0.6071650981903076,0.4589656889438629,0.2526499629020691,2.971351385116577,0.9843229055404663,-0.31195083260536194,10.148178100585938,-2.0735745429992676,0.1748523861169815,0.016455167904496193,0.031135011464357376,33.86758804321289,-20.216556549072266,10.277671813964844,-0.10429410636425018,-0.2664213180541992,0.006557941436767578,-0.20765672624111176,10.414599418640137,-2.080132484436035
1_20251106_212424,1762435427662,1,0.40417376160621643,0.5072138905525208,0.6077620983123779,0.4582606256008148,0.2528756856918335,2.9979968070983887,0.9585372805595398,-0.14196979999542236,10.044034957885742,-2.1549737453460693,0.21944551169872284,-0.026305362582206726,0.10749310255050659,33.82750701904297,-20.281726837158203,10.274881362915039,0.052549540996551514,-0.2964515686035156,-0.059873104095458984,-0.19451934099197388,10.340486526489258,-2.0951006412506104
1_20251106_212424,1762435427680,1,0.40287041664123535,0.5087223052978516,0.6080425977706909,0.45736339688301086,0.2528756856918335,2.9979968070983887,0.9585372805595398,-0.14196979999542236,10.044034957885742,-2.1549737453460693,0.21944551169872284,-0.026305362582206726,0.10749310255050659,33.813106536865234,-20.320323944091797,10.287115097045898,0.052549540996551514,-0.2964515686035156,-0.059873104095458984,-0.19451934099197388,10.340486526489258,-2.0951006412506104
1_20251106_212424,1762435427700,1,0.40133967995643616,0.510396420955658,0.6082521677017212,0.45656460523605347,0.25551173090934753,3.0419468879699707,0.911987841129303,0.19679516553878784,9.862083435058594,-2.237570285797119,0.22799761593341827,-0.012866338714957237,0.11299088597297668,33.814430236816406,-20.283733367919922,10.396038055419922,0.2734246253967285,-0.32590484619140625,-0.09041452407836914,-0.07662947475910187,10.18798828125,-2.14715576171875
1_20251106_212424,1762435427719,1,0.39981770515441895,0.5119450688362122,0.6085798740386963,0.45572859048843384,0.25551173090934753,3.0419468879699707,0.911987841129303,0.19679516553878784,9.862083435058594,-2.237570285797119,0.22799761593341827,-0.012866338714957237,0.11299088597297668,33.75511932373047,-20.25070571899414,10.461959838867188,0.2734246253967285,-0.32590484619140625,-0.09041452407836914,-0.07662947475910187,10.18798828125,-2.14715576171875
1_20251106_212424,1762435427740,1,0.3982945382595062,0.5132332444190979,0.6092170476913452,0.4547611176967621,0.2608800530433655,3.076914072036743,0.8662592172622681,0.11180465668439865,9.586761474609375,-2.6062612533569336,0.24449098110198975,0.004848738666623831,0.060456518083810806,33.75032043457031,-20.303630828857422,10.731229782104492,0.1048925593495369,-0.3899574279785156,-0.3342397212982178,0.006912097334861755,9.97671890258789,-2.272021532058716
1_20251106_212424,1762435427757,1,0.3967703878879547,0.5144699811935425,0.6099470257759094,0.45371636748313904,0.2636476159095764,3.0900111198425293,0.8449609279632568,0.1309574544429779,9.489801406860352,-2.772651195526123,0.2163911759853363,-0.00309250270947814,0.0812259241938591,33.75032043457031,-20.303630828857422,10.731229782104492,0.09923628717660904,-0.38953399658203125,-0.40050363540649414,0.031721167266368866,9.879335403442383,-2.372147560119629
1_20251106_212424,1762435427777,1,0.3952910006046295,0.5157098174095154,0.6104980111122131,0.4528582692146301,0.26714178919792175,3.101997137069702,0.8223798274993896,0.2937561869621277,9.461071014404297,-2.81813907623291,0.2163911759853363,-0.00309250270947814,0.0812259241938591,33.770294189453125,-20.354427337646484,10.94741439819336,0.20962801575660706,-0.3346118927001953,-0.3567931652069092,0.08412817120552063,9.795682907104492,-2.461345911026001
1_20251106_212424,1762435427795,1,0.39386245608329773,0.5174110531806946,0.6105654239654541,0.45207083225250244,0.26714178919792175,3.101997137069702,0.8223798274993896,0.2937561869621277,9.461071014404297,-2.81813907623291,0.20417389273643494,-0.056848593056201935,0.16063833236694336,33.77081298828125,-20.330524444580078,11.069587707519531,0.20962801575660706,-0.3346118927001953,-0.3567931652069092,0.08412817120552063,9.795682907104492,-2.461345911026001
1_20251106_212424,1762435427815,1,0.39245301485061646,0.5194395780563354,0.6103715896606445,0.4512312710285187,0.27211907505989075,3.1133806705474854,0.7972732782363892,0.4745106101036072,9.437129974365234,-2.8779916763305664,0.19684351980686188,-0.06417897343635559,0.14170153439044952,33.756019592285156,-20.36966323852539,11.135887145996094,0.3123059570789337,-0.28684234619140625,-0.3333165645599365,0.16220465302467346,9.72397232055664,-2.54467511177063
1_20251106_212424,1762435427834,1,0.391209214925766,0.5214263796806335,0.6101561188697815,0.4503103792667389,0.28343918919563293,3.1297237873077393,0.752539336681366,0.6241418123245239,9.343761444091797,-3.1616923809051514,0.17851758003234863,-0.06967675685882568,0.09099975973367691,33.732154846191406,-20.358966827392578,11.16220474243164,0.301002562046051,-0.25865745544433594,-0.42017269134521484,0.3231392502784729,9.602418899536133,-2.7415196895599365
1_20251106_212424,1762435427852,1,0.39026445150375366,0.5230710506439209,0.6101059317588806,0.4492895007133484,0.28954747319221497,3.1358561515808105,0.7306925058364868,0.5511217713356018,9.270740509033203,-3.1892247200012207,0.13758963346481323,-0.07822886109352112,0.03052414581179619,33.69490432739258,-20.362293243408203,11.255348205566406,0.18238604068756104,-0.26534271240234375,-0.35816383361816406,0.36873573064804077,9.536083221435547,-2.8310608863830566
1_20251106_212424,1762435427871,1,0.38979047536849976,0.524240255355835,0.6101825833320618,0.4482329487800598,0.29567062854766846,3.14103102684021,0.7084066271781921,0.3679732382297516,9.180961608886719,-2.9689671993255615,0.08139009773731232,-0.06478983908891678,-0.02628627046942711,33.681419372558594,-20.376453399658203,11.335689544677734,-0.0006100237369537354,-0.28409767150878906,-0.11032509803771973,0.3685832619667053,9.465059280395508,-2.858642101287842
1_20251106_212424,1762435427891,1,0.3897646367549896,0.5248005986213684,0.6103664040565491,0.44734853506088257,0.29567062854766846,3.14103102684021,0.7084066271781921,0.3679732382297516,9.180961608886719,-2.9689671993255615,0.037407830357551575,-0.004314232151955366,-0.06477074325084686,33.7022819519043,-20.426036834716797,11.430229187011719,-0.0006100237369537354,-0.28409767150878906,-0.11032509803771973,0.3685832619667053,9.465059280395508,-2.858642101287842
1_20251106_212424,1762435427910,1,0.38978907465934753,0.5246295928955078,0.6108148097991943,0.44691556692123413,0.3016156852245331,3.1455376148223877,0.6839883327484131,0.15370139479637146,9.142656326293945,-2.8325037956237793,0.010529778897762299,0.05371791869401932,-0.05866210535168648,33.693817138671875,-20.363773345947266,11.40402603149414,-0.171905517578125,-0.2579221725463867,0.02091050148010254,0.32560691237449646,9.400578498840332,-2.853414297103882
1_20251106_212424,1762435427930,1,0.3896180987358093,0.5240930318832397,0.6113553643226624,0.4469550848007202,0.309001624584198,3.1501855850219727,0.6465514898300171,0.127366304397583,9.069636344909668,-2.691251754760742,0.010529778897762299,0.05371791869401932,-0.05866210535168648,33.644073486328125,-20.37990951538086,11.44234848022461,-0.11136025190353394,-0.21180343627929688,0.1219792366027832,0.23872655630111694,9.281439781188965,-2.8132309913635254
1_20251106_212424,1762435427949,1,0.3892873227596283,0.5240221619606018,0.6115525960922241,0.4470565617084503,0.31266722083091736,3.152167797088623,0.6302148103713989,0.36198797821998596,9.324607849121094,-2.3584723472595215,0.018471023067831993,0.03294851630926132,0.003035235218703747,33.60882568359375,-20.357311248779297,11.45492172241211,0.09860911965370178,0.034534454345703125,0.36380696296691895,0.2633788585662842,9.29007339477539,-2.7222793102264404
1_20251106_212424,1762435427967,1,0.38895851373672485,0.5248587727546692,0.6113211512565613,0.4466777443885803,0.3166954219341278,3.1546144485473633,0.617056131362915,0.5595011115074158,9.559228897094727,-2.095121383666992,0.06917279958724976,-0.05257254093885422,0.06228911504149437,33.54618835449219,-20.386798858642578,11.492488861083984,0.2368977963924408,0.21532440185546875,0.5017263889312744,0.322603315114975,9.343904495239258,-2.5968477725982666
1_20251106_212424,1762435427987,1,0.388517290353775,0.5264198184013367,0.6112251281738281,0.445354163646698,0.32129937410354614,3.1576783657073975,0.6042357087135315,0.528377890586853,9.566411972045898,-2.460221290588379,0.18279361724853516,-0.12954150140285492,0.06289997696876526,33.534114837646484,-20.375843048095703,11.573360443115234,0.16461965441703796,0.17800617218017578,0.10930109024047852,0.36375823616981506,9.388405799865723,-2.5695223808288574
1_20251106_212424,1762435428005,1,0.3879106640815735,0.5279611349105835,0.6117548942565918,0.4433264434337616,0.32549092173576355,3.1606340408325195,0.5913183689117432,0.2973473072052002,9.404809951782227,-2.838489055633545,0.24998873472213745,-0.09594393521547318,-0.07943150401115417,33.556976318359375,-20.39950180053711,11.587329864501953,-0.05312874913215637,0.013123512268066406,-0.21517324447631836,0.35047605633735657,9.39168643951416,-2.6233158111572266
1_20251106_212424,1762435428025,1,0.3874749541282654,0.528751015663147,0.6128010153770447,0.44131672382354736,0.32877859473228455,3.1624834537506104,0.5767243504524231,0.05314924567937851,9.027738571166992,-3.1748600006103516,0.24998873472213745,-0.09594393521547318,-0.07943150401115417,33.57096862792969,-20.373058319091797,11.534282684326172,-0.23786145448684692,-0.29115772247314453,-0.4412355422973633,0.29101070761680603,9.318896293640137,-2.7336244583129883
1_20251106_212424,1762435428044,1,0.3871314823627472,0.5288591384887695,0.6140369176864624,0.4397680461406708,0.3308139741420746,3.162637710571289,0.5613048672676086,-0.04859994351863861,8.766782760620117,-3.5531272888183594,0.1082681342959404,0.009735655970871449,-0.08065322786569595,33.608642578125,-20.345966339111328,11.576831817626953,-0.2716885209083557,-0.44169044494628906,-0.655602216720581,0.2230885922908783,9.208473205566406,-2.8975250720977783
1_20251106_212424,1762435428063,1,0.3868660628795624,0.5288457274436951,0.614880383014679,0.43883824348449707,0.3320777118206024,3.161181688308716,0.5444668531417847,-0.021067827939987183,8.624334335327148,-3.6955761909484863,0.1082681342959404,0.009735655970871449,-0.08065322786569595,33.63653564453125,-20.28158950805664,11.579132080078125,-0.19532513618469238,-0.46731090545654297,-0.6384408473968506,0.1742573082447052,9.091645240783691,-3.0571353435516357
1_20251106_212424,1762435428083,1,0.38682153820991516,0.5289146304130554,0.6150327324867249,0.43858078122138977,0.33287373185157776,3.158191204071045,0.5269851088523865,0.026814162731170654,8.505826950073242,-3.5986151695251465,-0.05788706988096237,-0.05562686547636986,0.01708512380719185,33.66533660888672,-20.204387664794922,11.554664611816406,-0.11795452237129211,-0.4686546325683594,-0.4331839084625244,0.14476868510246277,8.974481582641602,-3.165431261062622
1_20251106_212424,1762435428101,1,0.38730064034461975,0.5291906595230103,0.6145161390304565,0.4385491907596588,0.3331815302371979,3.1535422801971436,0.5096848607063293,-0.018673710525035858,8.315495491027832,-3.417860984802246,-0.05788706988096237,-0.05562686547636986,0.01708512380719185,33.70702362060547,-20.113834381103516,11.530952453613281,-0.13075390458106995,-0.5271892547607422,-0.20194387435913086,0.11208020150661469,8.842684745788574,-3.2159171104431152
1_20251106_212424,1762435428120,1,0.38825809955596924,0.5296525359153748,0.6136084198951721,0.4384160041809082,0.3326885402202606,3.1473731994628906,0.4938502609729767,-0.2006252259016037,8.036582946777344,-3.323293685913086,-0.08598683774471283,-0.12893062829971313,0.009754747152328491,33.78376388549805,-20.046146392822266,11.521697998046875,-0.25016433000564575,-0.6448812484741211,-0.08590126037597656,0.04953911900520325,8.681464195251465,-3.2373924255371094
1_20251106_212424,1762435428138,1,0.38937729597091675,0.5301018357276917,0.6126973628997803,0.4381544291973114,0.33084115386009216,3.139000654220581,0.4772827625274658,-0.4436262547969818,7.884557247161865,-3.4884867668151855,-0.1281365156173706,-0.07273107767105103,0.021972041577100754,33.82312774658203,-20.005146026611328,11.42934799194336,-0.39453229308128357,-0.6375250816345215,-0.20087528228759766,-0.04909395053982735,8.522082328796387,-3.287611484527588
1_20251106_212424,1762435428158,1,0.39036065340042114,0.5302174091339111,0.6117691993713379,0.438436359167099,0.33084115386009216,3.139000654220581,0.4772827625274658,-0.4436262547969818,7.884557247161865,-3.4884867668151855,-0.2154901772737503,-0.03180314227938652,0.06961949169635773,33.86490249633789,-19.926067352294922,11.2972412109375,-0.39453229308128357,-0.6375250816345215,-0.20087528228759766,-0.04909395053982735,8.522082328796387,-3.287611484527588
1_20251106_212424,1762435428178,1,0.39136260747909546,0.5301194190979004,0.6104246377944946,0.43953433632850647,0.3270454704761505,3.1277759075164795,0.45872819423675537,-0.6028338074684143,7.795975685119629,-3.6333298683166504,-0.2154901772737503,-0.03180314227938652,0.06961949169635773,33.86490249633789,-19.926067352294922,11.2972412109375,-0.44299188256263733,-0.5808858871459961,-0.27657461166381836,-0.15984192490577698,8.376861572265625,-3.356755256652832
1_20251106_212424,1762435428196,1,0.39254331588745117,0.5302448868751526,0.6081963777542114,0.44141510128974915,0.3170534074306488,3.104901075363159,0.42850860953330994,-0.6698685884475708,7.730137825012207,-3.1604952812194824,-0.36331942677497864,-0.04096611216664314,0.28464385867118835,33.875370025634766,-19.962406158447266,11.242874145507812,-0.32201194763183594,-0.41735076904296875,0.17061567306518555,-0.34785664081573486,8.147488594055176,-3.331110954284668
1_20251106_212424,1762435428215,1,0.39347440004348755,0.5308506488800049,0.6051310896873474,0.44406288862228394,0.3117380738258362,3.092409610748291,0.4152378737926483,-0.36462098360061646,7.8019609451293945,-3.037199020385742,-0.3767584562301636,-0.060513779520988464,0.44896650314331055,33.86114501953125,-20.023967742919922,11.038318634033203,-0.013411462306976318,-0.27642250061035156,0.23512959480285645,-0.35120952129364014,8.078383445739746,-3.2723286151885986
1_20251106_212424,1762435428234,1,0.3939172625541687,0.5324049592018127,0.6010647416114807,0.4473201334476471,0.3078570067882538,3.080657958984375,0.4035384953022003,0.0746961459517479,8.120375633239746,-2.9414353370666504,-0.3767584562301636,-0.060513779520988464,0.44896650314331055,33.86927032470703,-20.121471405029297,10.820436477661133,0.34072455763816833,0.033593177795410156,0.26471471786499023,-0.26602840423583984,8.086782455444336,-3.2061500549316406
1_20251106_212424,1762435428253,1,0.39422062039375305,0.5350169539451599,0.5960152745246887,0.45068037509918213,0.3078570067882538,3.080657958984375,0.4035384953022003,0.0746961459517479,8.120375633239746,-2.9414353370666504,-0.37553671002388,-0.1356501430273056,0.5748046040534973,33.84870147705078,-20.29604721069336,10.613506317138672,0.34072455763816833,0.033593177795410156,0.26471471786499023,-0.26602840423583984,8.086782455444336,-3.2061500549316406
1_20251106_212424,1762435428272,1,0.395048052072525,0.5378632545471191,0.5905658602714539,0.45373132824897766,0.3060925602912903,3.0702784061431885,0.39328432083129883,0.4302197992801666,8.53814697265625,-2.7307543754577637,-0.44517529010772705,-0.16924770176410675,0.45385339856147766,33.69981384277344,-20.603321075439453,10.317935943603516,0.5569985508918762,0.36109161376953125,0.38031673431396484,-0.1267787665128708,8.177055358886719,-3.1110711097717285
1_20251106_212424,1762435428291,1,0.39627406001091003,0.539558470249176,0.5856389999389648,0.457023561000824,0.307698130607605,3.0577096939086914,0.3822961747646332,0.48887521028518677,8.952325820922852,-2.081953763961792,-0.48732495307922363,-0.012866336852312088,0.32496094703674316,33.57459259033203,-20.921566009521484,10.023080825805664,0.38693201541900635,0.507664680480957,0.6856405735015869,0.10194317996501923,8.444661140441895,-2.767594337463379
1_20251106_212424,1762435428311,1,0.3974981904029846,0.5396878123283386,0.5816491842269897,0.4608866274356842,0.31008851528167725,3.0540030002593994,0.37964150309562683,0.4661312699317932,8.969083786010742,-2.238767147064209,-0.48732495307922363,-0.012866336852312088,0.32496094703674316,33.49590301513672,-21.27444076538086,9.742912292480469,0.29135048389434814,0.4195375442504883,0.4230618476867676,0.17478078603744507,8.549546241760254,-2.6618289947509766
1_20251106_212424,1762435428329,1,0.3984273672103882,0.5388402342796326,0.5784499645233154,0.4650833010673523,0.3132671117782593,3.0521154403686523,0.37792888283729553,0.5056338906288147,9.145050048828125,-2.366851568222046,-0.5129812955856323,0.12274563312530518,0.2351638227701187,33.30652618408203,-21.659038543701172,9.403736114501953,0.26468247175216675,0.47640323638916016,0.23598194122314453,0.24095140397548676,8.668646812438965,-2.6028335094451904
1_20251106_212424,1762435428349,1,0.39939892292022705,0.537725031375885,0.5753358006477356,0.46938368678092957,0.3132671117782593,3.0521154403686523,0.37792888283729553,0.5056338906288147,9.145050048828125,-2.366851568222046,-0.5416919589042664,0.0750981867313385,0.22905518114566803,33.14402770996094,-22.003841400146484,9.01226806640625,0.26468247175216675,0.47640323638916016,0.23598194122314453,0.24095140397548676,8.668646812438965,-2.6028335094451904
1_20251106_212424,1762435428369,1,0.4008553624153137,0.5367786884307861,0.571854293346405,0.4734620153903961,0.3214433491230011,3.0530645847320557,0.37910154461860657,0.5152102708816528,9.264755249023438,-1.8126178979873657,-0.5612396001815796,0.04027889668941498,0.23760728538036346,32.942771911621094,-22.377216339111328,8.726932525634766,0.17801553010940552,0.38878822326660156,0.560897946357727,0.3371947407722473,8.875967025756836,-2.3735158443450928
1_20251106_212424,1762435428388,1,0.40255773067474365,0.5359010696411133,0.5681021213531494,0.47751158475875854,0.32648250460624695,3.0557563304901123,0.38309812545776367,0.61576247215271,9.38446044921875,-1.5720107555389404,-0.5612396001815796,0.04027889668941498,0.23760728538036346,32.69085693359375,-22.79117202758789,8.411809921264648,0.22285416722297668,0.40679454803466797,0.6412041187286377,0.3929083049297333,8.977665901184082,-2.213214874267578
1_20251106_212424,1762435428406,1,0.4039880931377411,0.5351658463478088,0.5645312666893005,0.4813476502895355,0.331952840089798,3.059802293777466,0.3883269727230072,0.8647487163543701,9.686117172241211,-1.4774439334869385,-0.45555999875068665,0.04394408315420151,0.23760728538036346,32.444480895996094,-23.104801177978516,8.112314224243164,0.3774723410606384,0.5667610168457031,0.5886168479919434,0.4872763752937317,9.119356155395508,-2.066060781478882
1_20251106_212424,1762435428426,1,0.40510424971580505,0.5345310568809509,0.5612571835517883,0.4849303960800171,0.3392312228679657,3.066702127456665,0.39524632692337036,0.9820595979690552,9.984182357788086,-1.6055283546447754,-0.43662315607070923,0.061659157276153564,0.18201859295368195,32.333274841308594,-23.373371124267578,7.954168319702148,0.3958265781402588,0.6918611526489258,0.3684258460998535,0.5862330198287964,9.29232120513916,-1.973954200744629
1_20251106_212424,1762435428445,1,0.40623658895492554,0.5335658192634583,0.558403730392456,0.48832839727401733,0.3392312228679657,3.066702127456665,0.39524632692337036,0.9820595979690552,9.984182357788086,-1.6055283546447754,-0.48610323667526245,0.0854828804731369,0.09038889408111572,32.22389221191406,-23.604671478271484,7.837364196777344,0.3958265781402588,0.6918611526489258,0.3684258460998535,0.5862330198287964,9.29232120513916,-1.973954200744629
1_20251106_212424,1762435428464,1,0.4078715741634369,0.5318121314048767,0.5558876991271973,0.4917372465133667,0.3475693166255951,3.0763487815856934,0.40360787510871887,0.9078425168991089,10.117053985595703,-1.5384933948516846,-0.5453571677207947,0.11052833497524261,0.027469824999570847,32.07844161987305,-23.83768081665039,7.651506423950195,0.2572876214981079,0.6597862243652344,0.34836864471435547,0.650554895401001,9.457267761230469,-1.88686203956604
1_20251106_212424,1762435428485,1,0.40993374586105347,0.5293101668357849,0.5535492300987244,0.49534663558006287,0.3640317916870117,3.0994343757629395,0.425796777009964,1.0718382596969604,10.497716903686523,-0.4683312773704529,-0.49648794531822205,0.1429041624069214,-0.03239491954445839,31.995840072631836,-24.02932357788086,7.4959259033203125,0.2926047444343567,0.698638916015625,0.9884929060935974,0.7792335152626038,9.799077987670898,-1.4568241834640503
1_20251106_212424,1762435428502,1,0.4119020402431488,0.5264550447463989,0.5518049597740173,0.4986914098262787,0.3717469274997711,3.1117169857025146,0.4382367432117462,1.0000152587890625,10.581509590148926,-0.6287359595298767,-0.35843250155448914,0.13374119997024536,-0.1038660854101181,31.928455352783203,-24.15805435180664,7.409736633300781,0.17662543058395386,0.6259450912475586,0.6624706387519836,0.8233898282051086,9.955564498901367,-1.2912065982818604
1_20251106_212424,1762435428521,1,0.4136003851890564,0.5237756967544556,0.5509493350982666,0.5010474324226379,0.37980902194976807,3.1265740394592285,0.45220836997032166,0.7761670351028442,10.61742115020752,-1.012988805770874,-0.35843250155448914,0.13374119997024536,-0.1038660854101181,31.899927139282227,-24.258075714111328,7.203899383544922,-0.03777819871902466,0.529484748840332,0.22257423400878906,0.8139452338218689,10.087936401367188,-1.235563039779663
1_20251106_212424,1762435428541,1,0.4151713252067566,0.5214956998825073,0.5504222512245178,0.5027030110359192,0.3872213363647461,3.142582416534424,0.4659941792488098,0.6002008318901062,10.466592788696289,-1.296689510345459,-0.27413317561149597,0.07754164189100266,-0.0885944664478302,31.922876358032227,-24.293216705322266,7.109474182128906,-0.1709955334663391,0.30292510986328125,-0.04890120029449463,0.7711963653564453,10.163667678833008,-1.2477883100509644
1_20251106_212424,1762435428559,1,0.41666489839553833,0.5195765495300293,0.5497221946716309,0.504218339920044,0.3930523097515106,3.1567118167877197,0.4767822325229645,0.5654863715171814,10.343297004699707,-1.6534101963043213,-0.32666754722595215,0.11175006628036499,-0.03667097166180611,31.968393325805664,-24.352420806884766,7.06956672668457,-0.1645680069923401,0.14370250701904297,-0.3244975805282593,0.7300543785095215,10.199594497680664,-1.328912615776062
1_20251106_212424,1762435428579,1,0.4179598391056061,0.5175696015357971,0.5487096905708313,0.5063092112541199,0.39887070655822754,3.1717755794525146,0.4871722459793091,0.6193535923957825,10.248729705810547,-1.6570013761520386,-0.4274602234363556,0.11602611839771271,0.0012026410549879074,31.98297691345215,-24.32516098022461,6.935422897338867,-0.08856064081192017,0.03930854797363281,-0.26247096061706543,0.7079142332077026,10.209421157836914,-1.3945304155349731
1_20251106_212424,1762435428600,1,0.4194880425930023,0.5153757929801941,0.5470930337905884,0.5090253353118896,0.4048752188682556,3.187302589416504,0.49810492992401123,0.7677876949310303,10.358858108520508,-1.224866509437561,-0.5319181084632874,0.10686315596103668,0.018917717039585114,32.02403259277344,-24.270259857177734,6.708173751831055,0.04789876937866211,0.11954975128173828,0.13573110103607178,0.7198889255523682,10.23930835723877,-1.3605976104736328
1_20251106_212424,1762435428621,1,0.4215131402015686,0.5129649043083191,0.5447894334793091,0.5122480988502502,0.41090455651283264,3.202867031097412,0.510474443435669,0.8168667554855347,10.482154846191406,-0.7687907218933105,-0.5319181084632874,0.10686315596103668,0.018917717039585114,32.02403259277344,-24.270259857177734,6.708173751831055,0.07758224010467529,0.1942768096923828,0.4734455347061157,0.7392845153808594,10.287878036499023,-1.2422362565994263
1_20251106_212424,1762435428636,1,0.42364490032196045,0.5102898478507996,0.5425896048545837,0.515485942363739,0.41090455651283264,3.202867031097412,0.510474443435669,0.8168667554855347,10.482154846191406,-0.7687907218933105,-0.5355833172798157,0.12091303616762161,-0.010403788648545742,32.02733612060547,-24.230968475341797,6.546770095825195,0.07758224010467529,0.1942768096923828,0.4734455347061157,0.7392845153808594,10.287878036499023,-1.2422362565994263
1_20251106_212424,1762435428656,1,0.4254888892173767,0.5075685977935791,0.5409227013587952,0.5183974504470825,0.41547083854675293,3.2143664360046387,0.5208355188369751,0.8432018756866455,10.407938003540039,-0.5186073780059814,-0.46594470739364624,0.13496293127536774,-0.040336161851882935,32.05510711669922,-24.189952850341797,6.372831344604492,0.08313387632369995,0.09604740142822266,0.578903079032898,0.7600679993629456,10.311890602111816,-1.0975104570388794
1_20251106_212424,1762435428673,1,0.4271355867385864,0.5052380561828613,0.5394148826599121,0.5208851099014282,0.42616358399391174,3.238410711288452,0.5455708503723145,0.9712861180305481,10.275064468383789,-0.6921795606613159,-0.4005821645259857,0.11908043920993805,-0.03667097166180611,32.032920837402344,-24.176959991455078,6.169370651245117,0.1455221176147461,-0.030655860900878906,0.25289982557296753,0.825764000415802,10.305720329284668,-0.9450793862342834
1_20251106_212424,1762435428694,1,0.42876219749450684,0.5033463835716248,0.5377960801124573,0.5230494737625122,0.43261873722076416,3.251119375228882,0.559969425201416,0.9629067778587341,10.255912780761719,-0.744849681854248,-0.37370413541793823,0.07082213461399078,-0.020788487046957016,32.034812927246094,-24.162784576416016,6.007438659667969,0.10971421003341675,-0.03984642028808594,0.16018378734588623,0.8531925678253174,10.295759201049805,-0.9050334692001343
1_20251106_212424,1762435428712,1,0.4306003749370575,0.5016869306564331,0.5361278653144836,0.5248432755470276,0.43261873722076416,3.251119375228882,0.559969425201416,0.9629067778587341,10.255912780761719,-0.744849681854248,-0.35232383012771606,-0.0061468263156712055,-0.0782097727060318,32.01362609863281,-24.136829376220703,5.763692855834961,0.10971421003341675,-0.03984642028808594,0.16018378734588623,0.8531925678253174,10.295759201049805,-0.9050334692001343
1_20251106_212424,1762435428732,1,0.43266990780830383,0.4999085068702698,0.5346679091453552,0.5263254642486572,0.43840691447257996,3.262354612350464,0.573636531829834,0.8360195159912109,10.209226608276367,-0.694573700428009,-0.3761475682258606,0.01401170901954174,-0.11363992094993591,32.0004997253418,-24.185291290283203,5.505336761474609,-0.013738453388214111,-0.06922626495361328,0.16836780309677124,0.849757969379425,10.27845287322998,-0.8629415035247803
1_20251106_212424,1762435428750,1,0.4350624978542328,0.4978620707988739,0.5332288146018982,0.5277509093284607,0.44636377692222595,3.279761791229248,0.5991374254226685,0.5032398104667664,10.018896102905273,-0.4419962167739868,-0.3761475682258606,0.04883100092411041,-0.11058560013771057,32.02433776855469,-24.219219207763672,5.289264678955078,-0.24456340074539185,-0.18067264556884766,0.27610844373703003,0.7478032112121582,10.199568748474121,-0.7181046605110168
1_20251106_212424,1762435428770,1,0.4372452199459076,0.4955621063709259,0.5319631695747375,0.5293864607810974,0.44636377692222595,3.279761791229248,0.5991374254226685,0.5032398104667664,10.018896102905273,-0.4419962167739868,-0.3859214186668396,0.061048295348882675,-0.07882063835859299,32.025115966796875,-24.229755401611328,5.08625602722168,-0.24456340074539185,-0.18067264556884766,0.27610844373703003,0.7478032112121582,10.199568748474121,-0.7181046605110168
1_20251106_212424,1762435428790,1,0.439267098903656,0.49331098794937134,0.530552864074707,0.5312272310256958,0.4511534571647644,3.294872760772705,0.6282698512077332,0.4876781702041626,10.046428680419922,-0.16188666224479675,-0.37736931443214417,0.060437433421611786,-0.04461221396923065,32.026092529296875,-24.24001693725586,4.8562164306640625,-0.16284096240997314,-0.09475421905517578,0.38930538296699524,0.6505191326141357,10.141182899475098,-0.551192045211792
1_20251106_212424,1762435428811,1,0.44110411405563354,0.49128878116607666,0.5289937257766724,0.5331305265426636,0.452700138092041,3.301508665084839,0.6445656418800354,0.49246636033058167,9.931511878967285,-0.23131553828716278,-0.32178062200546265,0.025618137791752815,-0.01101465430110693,32.11329650878906,-24.208667755126953,4.792596817016602,-0.12644222378730774,-0.16773700714111328,0.2559012174606323,0.6189085841178894,10.099248886108398,-0.4872167408466339
1_20251106_212424,1762435428828,1,0.4426872730255127,0.489820271730423,0.527392566204071,0.5347533822059631,0.4536570608615875,3.3065109252929688,0.6584062576293945,0.49605751037597656,9.936300277709961,-0.2552565336227417,-0.3040655255317688,-0.026916226372122765,0.04579576477408409,32.199180603027344,-24.213909149169922,4.620054244995117,-0.09828084707260132,-0.13035869598388672,0.18556815385818481,0.5943383574485779,10.066658973693848,-0.4408246874809265
1_20251106_212424,1762435428847,1,0.444084495306015,0.4889353811740875,0.5254589915275574,0.536305844783783,0.45449477434158325,3.3114616870880127,0.6731064319610596,0.5499247312545776,10.042837142944336,-0.14153684675693512,-0.3040655255317688,-0.026916226372122765,0.04579576477408409,32.22403335571289,-24.223262786865234,4.458576202392578,-0.035530924797058105,-0.0190582275390625,0.2394302934408188,0.5854556560516357,10.061895370483398,-0.3809671401977539
1_20251106_212424,1762435428865,1,0.44550615549087524,0.4883209764957428,0.523099422454834,0.5379905700683594,0.4555591642856598,3.31592059135437,0.6873506307601929,0.7115263938903809,10.063186645507812,0.030838273465633392,-0.3254458010196686,-0.04463130235671997,0.08733457326889038,32.271339416503906,-24.268428802490234,4.270254135131836,0.10085660219192505,0.0010328292846679688,0.32944434881210327,0.6106697916984558,10.062153816223145,-0.2986060678958893
1_20251106_212424,1762435428884,1,0.44682028889656067,0.4877399802207947,0.5205941200256348,0.5398547053337097,0.45726776123046875,3.320591688156128,0.7026926279067993,0.8443989157676697,10.135009765625,0.0870995968580246,-0.33766311407089233,-0.031192278489470482,0.1172669380903244,32.297096252441406,-24.264949798583984,4.082006454467773,0.18698328733444214,0.058284759521484375,0.30856454372406006,0.6574156284332275,10.076725006103516,-0.22146493196487427
1_20251106_212424,1762435428903,1,0.4480898380279541,0.48716601729393005,0.5180153846740723,0.5417977571487427,0.45726776123046875,3.320591688156128,0.7026926279067993,0.8443989157676697,10.135009765625,0.0870995968580246,-0.33766311407089233,-0.031192278489470482,0.1172669380903244,32.29827117919922,-24.274944305419922,3.8249340057373047,0.18698328733444214,0.058284759521484375,0.30856454372406006,0.6574156284332275,10.076725006103516,-0.22146493196487427
1_20251106_212424,1762435428923,1,0.44943806529045105,0.4865548014640808,0.5156211256980896,0.5435114502906799,0.46274423599243164,3.3302433490753174,0.7355194687843323,0.8934779167175293,10.206832885742188,0.27144521474838257,-0.30101120471954346,-0.04157697781920433,0.031745877116918564,32.34577560424805,-24.319835662841797,3.609579086303711,0.14188653230667114,0.09169578552246094,0.3259965479373932,0.7515913844108582,10.115137100219727,-0.054551322013139725
1_20251106_212424,1762435428942,1,0.4510171115398407,0.48579177260398865,0.5135297179222107,0.5448643565177917,0.46536344289779663,3.334843635559082,0.7518675327301025,0.7199057340621948,10.151768684387207,0.3169330656528473,-0.2875722050666809,-0.004314232151955366,-0.023231949657201767,32.35713195800781,-24.354961395263672,3.4335670471191406,-0.025348544120788574,0.029305458068847656,0.2971875071525574,0.7452542781829834,10.12246322631836,0.01974555477499962
1_20251106_212424,1762435428960,1,0.45263734459877014,0.4846040606498718,0.5119315385818481,0.546081006526947,0.46735766530036926,3.3386995792388916,0.7673096060752869,0.5978067517280579,10.006925582885742,0.3157360255718231,-0.2668027877807617,0.04027889668941498,-0.029951460659503937,32.234230041503906,-24.410701751708984,3.184314727783203,-0.11795800924301147,-0.09243011474609375,0.23679238557815552,0.7157647609710693,10.099355697631836,0.0789436474442482
1_20251106_212424,1762435428980,1,0.45396265387535095,0.48318323493003845,0.5107144117355347,0.5473780035972595,0.4691295623779297,3.3422412872314453,0.7841656804084778,0.606186032295227,9.92552661895752,0.26186880469322205,-0.25519639253616333,0.05677224323153496,0.007922152988612652,32.21083450317383,-24.422557830810547,2.9532928466796875,-0.08766299486160278,-0.13906383514404297,0.14634013175964355,0.6938490271568298,10.064590454101562,0.11552868038415909
1_20251106_212424,1762435428999,1,0.4549494981765747,0.48188650608062744,0.5094842910766602,0.5488461256027222,0.4706786572933197,3.3452301025390625,0.7993659377098083,0.6756149530410767,9.988969802856445,0.11104057729244232,-0.26619192957878113,0.01767689734697342,0.054958734661340714,32.269325256347656,-24.47989273071289,2.805746078491211,-0.01458728313446045,-0.060497283935546875,-0.0035904794931411743,0.6902022361755371,10.049467086791992,0.1146310567855835
1_20251106_212424,1762435429020,1,0.45598071813583374,0.4810452461242676,0.5077633857727051,0.5503211617469788,0.4706786572933197,3.3452301025390625,0.7993659377098083,0.6756149530410767,9.988969802856445,0.11104057729244232,-0.26619192957878113,0.01767689734697342,0.054958734661340714,32.269325256347656,-24.47989273071289,2.805746078491211,-0.01458728313446045,-0.060497283935546875,-0.0035904794931411743,0.6902022361755371,10.049467086791992,0.1146310567855835
1_20251106_212424,1762435429039,1,0.4572233259677887,0.48058632016181946,0.5055323839187622,0.5517432689666748,0.4748701751232147,3.3514838218688965,0.8307576775550842,0.9162218570709229,10.13261604309082,0.5216284990310669,-0.30101120471954346,-0.08555923402309418,0.07023035734891891,32.23332214355469,-24.516307830810547,2.4385452270507812,0.1647629737854004,0.06106758117675781,0.3077857494354248,0.7514588832855225,10.071548461914062,0.2138427495956421
1_20251106_212424,1762435429057,1,0.45882147550582886,0.4802643954753876,0.50307697057724,0.5529398918151855,0.47729137539863586,3.3543004989624023,0.8453296422958374,0.917418897151947,10.1194486618042,0.629362940788269,-0.26924625039100647,-0.06967675685882568,0.018917717039585114,32.23332214355469,-24.516307830810547,2.4385452270507812,0.13276797533035278,0.03832054138183594,0.3324161767959595,0.7846509218215942,10.081128120422363,0.29694676399230957
1_20251106_212424,1762435429075,1,0.4602608382701874,0.4796501696109772,0.5009241104125977,0.5542298555374146,0.47729137539863586,3.3543004989624023,0.8453296422958374,0.917418897151947,10.1194486618042,0.629362940788269,-0.24786600470542908,-0.03241400793194771,-0.027508001774549484,32.27086639404297,-24.512577056884766,2.3048534393310547,0.13276797533035278,0.03832054138183594,0.3324161767959595,0.7846509218215942,10.081128120422363,0.29694676399230957
1_20251106_212424,1762435429095,1,0.46170762181282043,0.4786596894264221,0.49920886754989624,0.5554291009902954,0.48199713230133057,3.360711097717285,0.8754436373710632,0.7330732941627502,10.28703498840332,0.4569878578186035,-0.2814635634422302,0.009124791249632835,-0.05560777708888054,32.260982513427734,-24.487041473388672,2.1832447052001953,-0.04411834478378296,0.15265655517578125,0.09112614393234253,0.7771916389465332,10.134378433227539,0.365861713886261
1_20251106_212424,1762435429114,1,0.46331462264060974,0.4772724509239197,0.4977937936782837,0.5565536022186279,0.4838331639766693,3.364140033721924,0.8898624181747437,0.6804031133651733,10.211621284484863,0.4928993284702301,-0.31750455498695374,0.02683986909687519,-0.07882063090801239,32.32450866699219,-24.456340789794922,2.024028778076172,-0.0774308443069458,0.061794281005859375,0.10163009166717529,0.7578339576721191,10.149827003479004,0.3912692368030548
1_20251106_212424,1762435429133,1,0.4651687443256378,0.47565823793411255,0.4964674413204193,0.5575727224349976,0.48532554507255554,3.367412567138672,0.9042561650276184,0.6660385131835938,10.155360221862793,0.6449246406555176,-0.33216530084609985,0.016455167904496193,-0.0782097727060318,32.435665130615234,-24.44717025756836,1.8256988525390625,-0.07343631982803345,0.0044269561767578125,0.20292431116104126,0.7394748330116272,10.150933265686035,0.4420003294944763
1_20251106_212424,1762435429153,1,0.467006117105484,0.4738970994949341,0.49517545104026794,0.5586842894554138,0.4865145981311798,3.3706586360931396,0.9199655055999756,0.6397034525871277,10.142192840576172,0.8747580647468567,-0.33155447244644165,-0.033635735511779785,-0.06477074325084686,32.4360466003418,-24.458248138427734,1.6767559051513672,-0.07981711626052856,-0.006992340087890625,0.3462061882019043,0.7195205688476562,10.149185180664062,0.5285518765449524
1_20251106_212424,1762435429171,1,0.46916282176971436,0.47246697545051575,0.4934345781803131,0.5596280097961426,0.4871608018875122,3.3732547760009766,0.9349009394645691,0.5690774917602539,10.07635498046875,1.1393060684204102,-0.33155447244644165,-0.033635735511779785,-0.06477074325084686,32.466426849365234,-24.378887176513672,1.4360275268554688,-0.12035447359085083,-0.058264732360839844,0.4886033535003662,0.6894319653511047,10.13461971282959,0.650702714920044
1_20251106_212424,1762435429191,1,0.4712176024913788,0.4710237681865692,0.49177107214927673,0.5605816841125488,0.4872259199619293,3.375530481338501,0.9522497057914734,0.4864811301231384,9.98178768157959,1.171626329421997,-0.2942917048931122,-0.0482964888215065,-0.06171642616391182,32.54043197631836,-24.372905731201172,1.3173236846923828,-0.16236066818237305,-0.12226581573486328,0.41673892736434937,0.6488417983055115,10.104053497314453,0.7548874020576477
1_20251106_212424,1762435429210,1,0.47304463386535645,0.4690934717655182,0.49054625630378723,0.5617334246635437,0.48650097846984863,3.3769893646240234,0.9686857461929321,0.3631850481033325,9.887221336364746,1.0387537479400635,-0.2307617962360382,0.041500624269247055,-0.08615101128816605,32.61785125732422,-24.31589126586914,1.1185779571533203,-0.22852540016174316,-0.17346668243408203,0.22709310054779053,0.5917104482650757,10.060688018798828,0.811660647392273
1_20251106_212424,1762435429229,1,0.47461095452308655,0.4669462740421295,0.4897630512714386,0.5628834366798401,0.48650097846984863,3.3769893646240234,0.9686857461929321,0.3631850481033325,9.887221336364746,1.0387537479400635,-0.24847686290740967,0.057993970811367035,-0.06110556051135063,32.64461898803711,-24.287837982177734,0.98492431640625,-0.22852540016174316,-0.17346668243408203,0.22709310054779053,0.5917104482650757,10.060688018798828,0.811660647392273
1_20251106_212424,1762435429248,1,0.4761233627796173,0.46492063999176025,0.48898351192474365,0.5639595985412598,0.4827064871788025,3.3782856464385986,1.0004551410675049,0.24587419629096985,9.86567497253418,1.0028424263000488,-0.29001563787460327,0.07204386591911316,-0.020788490772247314,32.62153244018555,-24.287670135498047,0.8082313537597656,-0.22746413946151733,-0.12729835510253906,0.1290597915649414,0.4733383357524872,9.992973327636719,0.8737826347351074
1_20251106_212424,1762435429266,1,0.4775497317314148,0.46292299032211304,0.48799121379852295,0.5652549266815186,0.4802970886230469,3.378307819366455,1.0150434970855713,0.31290894746780396,9.852506637573242,1.0746653079986572,-0.3040655553340912,0.06776780635118484,0.03052414581179619,32.59693908691406,-24.312755584716797,0.6445274353027344,-0.12834349274635315,-0.11237335205078125,0.16070616245269775,0.4412524402141571,9.964879989624023,0.9139591455459595
1_20251106_212424,1762435429287,1,0.4788215458393097,0.46112653613090515,0.48669174313545227,0.5667657256126404,0.47785401344299316,3.37801194190979,1.0303759574890137,0.4314168393611908,9.848916053771973,1.1704292297363281,-0.28451788425445557,0.038446299731731415,0.08489111065864563,32.621395111083984,-24.322643280029297,0.5371131896972656,-0.007868468761444092,-0.09277153015136719,0.20517611503601074,0.4392853081226349,9.94168758392334,0.9652531147003174
1_20251106_212424,1762435429305,1,0.4797939956188202,0.4598582088947296,0.4850606322288513,0.5683698654174805,0.47584977746009827,3.3775651454925537,1.0459448099136353,0.5547129511833191,9.88123607635498,1.330833911895752,-0.2686353921890259,0.026229003444314003,0.12459731101989746,32.660648345947266,-24.293392181396484,0.3634014129638672,0.09234213829040527,-0.04836082458496094,0.29246461391448975,0.4623708128929138,9.929596900939941,1.0383692979812622
1_20251106_212424,1762435429325,1,0.4804348051548004,0.45892947912216187,0.48318853974342346,0.5701709985733032,0.47471216320991516,3.3771421909332275,1.062613844871521,0.7474378943443298,9.937496185302734,1.400262713432312,-0.251531183719635,0.038446299731731415,0.14414498209953308,32.696983337402344,-24.314510345458984,0.2021503448486328,0.22805368900299072,0.006319999694824219,0.28951478004455566,0.5193842053413391,9.93117618560791,1.1107479333877563
1_20251106_212424,1762435429342,1,0.4808269441127777,0.4581010639667511,0.48119473457336426,0.572189211845398,0.4746783375740051,3.3770880699157715,1.0771955251693726,0.9006602168083191,10.056005477905273,1.2446463108062744,-0.23503783345222473,0.0494418665766716,0.13070595264434814,32.67671585083008,-24.264118194580078,0.026514053344726562,0.305020809173584,0.09986305236816406,0.10711872577667236,0.5956394076347351,9.95614242553711,1.137527585029602
1_20251106_212424,1762435429363,1,0.4810410737991333,0.45737189054489136,0.4792368710041046,0.5742320418357849,0.4760721027851105,3.3778438568115234,1.0930039882659912,1.0658529996871948,10.223592758178711,1.2745726108551025,-0.251531183719635,0.032337650656700134,0.09038889408111572,32.673683166503906,-24.326229095458984,-0.04238700866699219,0.3761708736419678,0.2139606475830078,0.10963606834411621,0.689682126045227,10.009632110595703,1.1649365425109863
1_20251106_212424,1762435429383,1,0.48151513934135437,0.45690828561782837,0.4772546887397766,0.5758523344993591,0.47871512174606323,3.3788535594940186,1.1095776557922363,1.0634589195251465,10.085930824279785,1.4050509929656982,-0.27535492181777954,0.022563815116882324,0.012198206037282944,32.65100860595703,-24.313915252685547,-0.1782665252685547,0.2990214228630066,0.061038970947265625,0.19209158420562744,0.7644374966621399,10.02489185333252,1.2129594087600708
1_20251106_212424,1762435429400,1,0.48236867785453796,0.45615965127944946,0.4753878116607666,0.577273964881897,0.48105743527412415,3.379690408706665,1.1230584383010864,0.9054483771324158,10.052413940429688,1.5474997758865356,-0.3034546971321106,0.03050505556166172,-0.04644480720162392,32.60636901855469,-24.26511001586914,-0.35488319396972656,0.11280864477157593,0.022017478942871094,0.26763224601745605,0.7926397323608398,10.030396461486816,1.2798675298690796
1_20251106_212424,1762435429419,1,0.48367586731910706,0.4548783600330353,0.4735821783542633,0.5786737203598022,0.483335018157959,3.3805277347564697,1.1382079124450684,0.7163146138191223,10.011713981628418,1.5846083164215088,-0.315061092376709,0.05860483646392822,-0.07759889960289001,32.62377166748047,-24.187625885009766,-0.4879722595214844,-0.06106013059616089,-0.014946937561035156,0.24379253387451172,0.7773747444152832,10.026660919189453,1.340815782546997
1_20251106_212424,1762435429440,1,0.48525482416152954,0.45302385091781616,0.47203537821769714,0.5800687670707703,0.483335018157959,3.3805277347564697,1.1382079124450684,0.7163146138191223,10.011713981628418,1.5846083164215088,-0.3034546673297882,0.08426115661859512,-0.0678250640630722,32.579341888427734,-24.126941680908203,-0.5967445373535156,-0.06106013059616089,-0.014946937561035156,0.24379253387451172,0.7773747444152832,10.026660919189453,1.340815782546997
1_20251106_212424,1762435429459,1,0.4867088496685028,0.4509437084197998,0.4708268344402313,0.581451952457428,0.48586565256118774,3.381821632385254,1.1696445941925049,0.5140132904052734,10.02129077911377,1.4864501953125,-0.29123738408088684,0.08670461177825928,-0.02567540854215622,32.5308952331543,-24.129711151123047,-0.6392555236816406,-0.17697852849960327,0.004033088684082031,0.07999062538146973,0.6909918189048767,10.017257690429688,1.4064595699310303
1_20251106_212424,1762435429477,1,0.48791325092315674,0.4490068852901459,0.4697114825248718,0.5828418135643005,0.48633134365081787,3.382168769836426,1.1833163499832153,0.5702745914459229,9.937498092651367,1.6085493564605713,-0.29123738408088684,0.0598265640437603,0.03663279488682747,32.5308952331543,-24.129711151123047,-0.6392555236816406,-0.09657377004623413,-0.06380748748779297,0.16167175769805908,0.666848361492157,10.00130558013916,1.4468775987625122
1_20251106_212424,1762435429496,1,0.4889214336872101,0.4476379156112671,0.4683181941509247,0.5841696262359619,0.48685193061828613,3.382230043411255,1.1978801488876343,0.686388373374939,9.896797180175781,1.7581803798675537,-0.29123738408088684,0.0598265640437603,0.03663279488682747,32.435916900634766,-24.097850799560547,-0.6964530944824219,0.015632033348083496,-0.08360671997070312,0.24904227256774902,0.6707563400268555,9.980403900146484,1.5091381072998047
1_20251106_212424,1762435429516,1,0.48961469531059265,0.4466325640678406,0.4666179418563843,0.5857170820236206,0.48685193061828613,3.382230043411255,1.1978801488876343,0.686388373374939,9.896797180175781,1.7581803798675537,-0.2472551465034485,0.015233438462018967,0.10932569950819016,32.399444580078125,-24.111713409423828,-0.8063182830810547,0.015632033348083496,-0.08360671997070312,0.24904227256774902,0.6707563400268555,9.980403900146484,1.5091381072998047
1_20251106_212424,1762435429534,1,0.49018043279647827,0.4459649622440338,0.4646759033203125,0.5872943997383118,0.48895642161369324,3.3825228214263916,1.227285623550415,0.8264431357383728,10.058399200439453,1.832397699356079,-0.24542254209518433,0.007292197551578283,0.096497543156147,32.41402816772461,-24.084453582763672,-0.9404621124267578,0.10136330127716064,0.062175750732421875,0.2107166051864624,0.7250798344612122,9.996223449707031,1.6216810941696167
1_20251106_212424,1762435429553,1,0.49070924520492554,0.4453689455986023,0.4627097249031067,0.5888553857803345,0.48895642161369324,3.3825228214263916,1.227285623550415,0.8264431357383728,10.058399200439453,1.832397699356079,-0.2509203255176544,0.018898626789450645,0.086112841963768,32.43989562988281,-24.069232940673828,-1.0473480224609375,0.10136330127716064,0.062175750732421875,0.2107166051864624,0.7250798344612122,9.996223449707031,1.6216810941696167
1_20251106_212424,1762435429573,1,0.4912976324558258,0.44469064474105835,0.460823118686676,0.5903549194335938,0.49178001284599304,3.3826212882995605,1.2561883926391602,0.7857434749603271,9.913557052612305,1.8503533601760864,-0.26069414615631104,0.01706603355705738,0.0916106253862381,32.47211456298828,-24.153942108154297,-1.1288223266601562,0.03499412536621094,-0.06075859069824219,0.14845716953277588,0.7507493495941162,9.974315643310547,1.7018961906433105
1_20251106_212424,1762435429592,1,0.4917674958705902,0.44388529658317566,0.4590044319629669,0.5919843912124634,0.4932534992694855,3.3822336196899414,1.2713295221328735,0.7641965746879578,9.86567497253418,1.9784376621246338,-0.2576398551464081,0.006070468109101057,0.08366937935352325,32.45880126953125,-24.191059112548828,-1.2652664184570312,0.010757803916931152,-0.08691215515136719,0.22123312950134277,0.7534387707710266,9.952587127685547,1.757204532623291
1_20251106_212424,1762435429610,1,0.49251240491867065,0.443248450756073,0.45710259675979614,0.5933123230934143,0.4942774772644043,3.3816144466400146,1.2848966121673584,0.6576591730117798,9.835747718811035,2.0095608234405518,-0.24847686290740967,0.018898626789450645,0.06839776039123535,32.48214340209961,-24.225658416748047,-1.41375732421875,-0.07662367820739746,-0.09347152709960938,0.20188498497009277,0.7342828512191772,9.929219245910645,1.807675838470459
1_20251106_212424,1762435429630,1,0.4932909607887268,0.4423709511756897,0.4553525745868683,0.5946646332740784,0.4950016736984253,3.3804948329925537,1.2999002933502197,0.6169595122337341,9.775895118713379,2.0323047637939453,-0.2558072507381439,0.061659157276153564,0.08305852115154266,32.49492263793945,-24.224056243896484,-1.494363784790039,-0.09385865926742554,-0.12265968322753906,0.1797032356262207,0.7108181715011597,9.898554801940918,1.8526015281677246
1_20251106_212424,1762435429649,1,0.49387863278388977,0.44115129113197327,0.45384207367897034,0.5962355732917786,0.4955291152000427,3.379164218902588,1.313671350479126,0.6648414731025696,9.781881332397461,1.9365408420562744,-0.27963095903396606,0.10503055155277252,0.12459731847047806,32.48100280761719,-24.27359390258789,-1.6445884704589844,-0.036781370639801025,-0.0933389663696289,0.06715142726898193,0.7016228437423706,9.87522029876709,1.8693894147872925
1_20251106_212424,1762435429670,1,0.49411529302597046,0.43967944383621216,0.45232537388801575,0.5982757210731506,0.4963628053665161,3.3776767253875732,1.3275096416473389,0.8228520154953003,9.793850898742676,2.1448276042938232,-0.3089524507522583,0.09342412650585175,0.15575140714645386,32.41633987426758,-24.352237701416016,-1.7162055969238281,0.09698331356048584,-0.06509590148925781,0.2203505039215088,0.7258687019348145,9.858946800231934,1.9244771003723145
1_20251106_212424,1762435429688,1,0.4943963289260864,0.43856388330459595,0.45044106245040894,0.6002806425094604,0.4980117082595825,3.3764026165008545,1.3427783250808716,0.9940300583839417,9.929117202758789,2.3950109481811523,-0.33155447244644165,0.0647134780883789,0.16491438448429108,32.40665054321289,-24.326435089111328,-1.864847183227539,0.2145290970802307,0.056136131286621094,0.37642717361450195,0.7795009613037109,9.872981071472168,2.0185837745666504
1_20251106_212424,1762435429706,1,0.4947090148925781,0.4374493360519409,0.44808608293533325,0.6025943160057068,0.5000853538513184,3.3757078647613525,1.3572580814361572,1.049094319343567,10.0332612991333,2.5973122119903564,-0.30650901794433594,0.06593520939350128,0.1374254673719406,32.316497802734375,-24.431377410888672,-1.9785213470458984,0.21567469835281372,0.12822437286376953,0.4629826545715332,0.8334196209907532,9.905036926269531,2.1343295574188232
1_20251106_212424,1762435429725,1,0.4950081706047058,0.4362739026546478,0.4457640051841736,0.6049185395240784,0.5026541948318481,3.375027656555176,1.3719799518585205,1.0766265392303467,9.896797180175781,2.526686191558838,-0.251531183719635,0.08181770145893097,0.0964975357055664,32.27953338623047,-24.445911407470703,-2.0208053588867188,0.1945655345916748,-0.006591796875,0.3138854503631592,0.8820610046386719,9.903388977050781,2.2128007411956787
1_20251106_212424,1762435429745,1,0.49517953395843506,0.43491706252098083,0.4439544379711151,0.6070822477340698,0.5063339471817017,3.374171495437622,1.388237476348877,1.1304936408996582,9.872856140136719,2.195103645324707,-0.251531183719635,0.08181770145893097,0.0964975357055664,32.191001892089844,-24.513851165771484,-2.0661067962646484,0.19874608516693115,-0.02442646026611328,-0.014157772064208984,0.931747555732727,9.897282600402832,2.209261417388916
1_20251106_212424,1762435429764,1,0.4952223300933838,0.43369990587234497,0.44242504239082336,0.6090314388275146,0.5102916955947876,3.3734474182128906,1.4022183418273926,1.2214694023132324,9.901585578918457,2.211862325668335,-0.25030946731567383,0.05249618738889694,0.07694987207651138,32.06349182128906,-24.633861541748047,-2.168001174926758,0.23177748918533325,0.0034427642822265625,0.002080678939819336,0.9896919131278992,9.89814281463623,2.2097816467285156
1_20251106_212424,1762435429782,1,0.4955849349498749,0.43313464522361755,0.440712034702301,0.6103792786598206,0.5144184827804565,3.372983932495117,1.415478229522705,1.2190754413604736,9.974605560302734,2.4847896099090576,-0.25030946731567383,0.05249618738889694,0.07694987207651138,31.98642921447754,-24.725177764892578,-2.307954788208008,0.18350684642791748,0.06117057800292969,0.22000622749328613,1.0355685949325562,9.913434982299805,2.2647833824157715
1_20251106_212424,1762435429802,1,0.49645906686782837,0.4324198067188263,0.43877917528152466,0.6115671396255493,0.5190703868865967,3.3725497722625732,1.4306203126907349,1.1328877210617065,9.931511878967285,2.6416029930114746,-0.29673516750335693,0.05005273222923279,-0.037892699241638184,31.93726348876953,-24.752124786376953,-2.445606231689453,0.07785522937774658,0.014461517333984375,0.3014557361602783,1.05503249168396,9.9170503616333,2.3401472568511963
1_20251106_212424,1762435429822,1,0.49762797355651855,0.4309976398944855,0.4371303915977478,0.6128004789352417,0.5232824087142944,3.3717918395996094,1.446034550666809,0.9868477582931519,9.803428649902344,2.6787116527557373,-0.2637484669685364,0.06776780635118484,-0.08554014563560486,31.949140548706055,-24.763347625732422,-2.4994449615478516,-0.054547786712646484,-0.0908975601196289,0.27085137367248535,1.0413955450057983,9.894326210021973,2.407860279083252
1_20251106_212424,1762435429839,1,0.4989925026893616,0.42925456166267395,0.43591365218162537,0.6137803196907043,0.5232824087142944,3.3717918395996094,1.446034550666809,0.9868477582931519,9.803428649902344,2.6787116527557373,-0.2570289671421051,0.0750981867313385,-0.08431841433048248,31.823644638061523,-24.845821380615234,-2.5870304107666016,-0.054547786712646484,-0.0908975601196289,0.27085137367248535,1.0413955450057983,9.894326210021973,2.407860279083252
1_20251106_212424,1762435429860,1,0.5002663135528564,0.42728039622306824,0.434947669506073,0.6148053407669067,0.5290141105651855,3.3682730197906494,1.4744441509246826,0.7929257750511169,9.516136169433594,2.7218053340911865,-0.27046799659729004,0.06715694069862366,-0.053164321929216385,31.814266204833984,-24.808002471923828,-2.6813430786132812,-0.16898006200790405,-0.2588958740234375,0.21030974388122559,0.961905837059021,9.775032043457031,2.511495590209961
1_20251106_212424,1762435429880,1,0.5015574097633362,0.4253693222999573,0.4338166117668152,0.6158768534660339,0.5290141105651855,3.3682730197906494,1.4744441509246826,0.7929257750511169,9.516136169433594,2.7218053340911865,-0.27046799659729004,0.06715694069862366,-0.053164321929216385,31.814266204833984,-24.808002471923828,-2.6813430786132812,-0.16898006200790405,-0.2588958740234375,0.21030974388122559,0.961905837059021,9.775032043457031,2.511495590209961
1_20251106_212424,1762435429898,1,0.5027359127998352,0.42359814047813416,0.43258363008499146,0.6170029640197754,0.532650351524353,3.3610379695892334,1.504686713218689,0.7737729549407959,9.360518455505371,2.8032045364379883,-0.24420081079006195,0.057383108884096146,-0.017734166234731674,31.828330993652344,-24.804645538330078,-2.9376602172851562,-0.12710851430892944,-0.2750568389892578,0.18611907958984375,0.9008814692497253,9.635575294494629,2.6170854568481445
1_20251106_212424,1762435429916,1,0.5037398338317871,0.4218735098838806,0.4313783347606659,0.6182084083557129,0.5336847901344299,3.356670618057251,1.5182266235351562,0.7737729549407959,9.28630256652832,2.774475574493408,-0.2576398253440857,0.07204385846853256,-0.001240817829966545,31.828330993652344,-24.804645538330078,-2.9376602172851562,-0.10168683528900146,-0.2794179916381836,0.12591195106506348,0.8754597902297974,9.565720558166504,2.6485636234283447
1_20251106_212424,1762435429936,1,0.5046936869621277,0.42010778188705444,0.4301230311393738,0.6195061802864075,0.5345149040222168,3.3511528968811035,1.5330506563186646,0.7893346548080444,9.267149925231934,2.823554515838623,-0.2576398253440857,0.07204385846853256,-0.001240817829966545,31.919246673583984,-24.721858978271484,-3.1218719482421875,-0.06890010833740234,-0.23885631561279297,0.13999271392822266,0.8582347631454468,9.506006240844727,2.6835618019104004
1_20251106_212424,1762435429955,1,0.5056806206703186,0.4185940623283386,0.4286608099937439,0.6207383275032043,0.5349695086479187,3.3458058834075928,1.5460610389709473,0.7546201944351196,9.250391006469727,2.8199634552001953,-0.2509203255176544,0.04088975861668587,0.03357847034931183,31.946523666381836,-24.681522369384766,-3.228229522705078,-0.08289164304733276,-0.20449256896972656,0.10912132263183594,0.8375118374824524,9.454883575439453,2.7108421325683594
1_20251106_212424,1762435429973,1,0.5064745545387268,0.4172566831111908,0.4271812438964844,0.6220101118087769,0.5349695086479187,3.3458058834075928,1.5460610389709473,0.7546201944351196,9.250391006469727,2.8199634552001953,-0.2509203255176544,0.038446299731731415,0.05312614142894745,31.959810256958008,-24.66762924194336,-3.2815399169921875,-0.08289164304733276,-0.20449256896972656,0.10912132263183594,0.8375118374824524,9.454883575439453,2.7108421325683594
1_20251106_212424,1762435429993,1,0.5072152614593506,0.41605183482170105,0.42565497756004333,0.623258650302887,0.5351318717002869,3.3397257328033447,1.5596492290496826,0.7330732941627502,9.311440467834473,2.663149833679199,-0.2936808466911316,0.03355938196182251,0.07756073772907257,31.949811935424805,-24.65384292602539,-3.4845104217529297,-0.08355087041854858,-0.11475467681884766,-0.038153886795043945,0.8166241645812988,9.42619514465332,2.701303720474243
1_20251106_212424,1762435430012,1,0.5078835487365723,0.414932519197464,0.4240010678768158,0.6245865821838379,0.535125732421875,3.3291127681732178,1.5839639902114868,0.8300342559814453,9.492195129394531,2.9133334159851074,-0.2936808466911316,0.03355938196182251,0.07756073772907257,32.04920196533203,-24.621700286865234,-3.547639846801758,0.020840227603912354,0.05468940734863281,0.17438769340515137,0.809194028377533,9.437505722045898,2.738945722579956
1_20251106_212424,1762435430032,1,0.508711576461792,0.41393643617630005,0.42190247774124146,0.6259931325912476,0.5355136394500732,3.3247244358062744,1.5967228412628174,0.9389657974243164,9.59274673461914,3.18745756149292,-0.34316086769104004,0.03722456842660904,0.13070596754550934,32.111915588378906,-24.615299224853516,-3.788480758666992,0.1038174033164978,0.12419319152832031,0.3588094711303711,0.8351483941078186,9.46855354309082,2.828648090362549
1_20251106_212424,1762435430050,1,0.5092980861663818,0.4127729535102844,0.4196107089519501,0.62782222032547,0.5355136394500732,3.3247244358062744,1.5967228412628174,0.9389657974243164,9.59274673461914,3.18745756149292,-0.30650901794433594,0.031115921214222908,0.13009509444236755,32.174537658691406,-24.597423553466797,-3.920927047729492,0.1038174033164978,0.12419319152832031,0.3588094711303711,0.8351483941078186,9.46855354309082,2.828648090362549
1_20251106_212424,1762435430071,1,0.5098575353622437,0.4117591679096222,0.41723936796188354,0.6296117901802063,0.5380277633666992,3.318115711212158,1.6238001585006714,1.1017645597457886,9.69090461730957,3.2556893825531006,-0.2790200710296631,0.024396410211920738,0.10993656516075134,32.15156173706055,-24.585506439208984,-4.016258239746094,0.1779124140739441,0.14728450775146484,0.2683267593383789,0.9238521456718445,9.543620109558105,2.9873626232147217
1_20251106_212424,1762435430089,1,0.5102812647819519,0.41083139181137085,0.41505154967308044,0.6313182711601257,0.5400815606117249,3.315646171569824,1.6381394863128662,1.094582200050354,9.704072952270508,3.216186761856079,-0.2790200710296631,0.024396410211920738,0.10993656516075134,32.065147399902344,-24.615779876708984,-4.060768127441406,0.13658404350280762,0.12836265563964844,0.1830592155456543,0.9579981565475464,9.57571029663086,3.033127546310425
1_20251106_212424,1762435430108,1,0.5109668374061584,0.41004931926727295,0.41282546520233154,0.63273024559021,0.542209267616272,3.3138861656188965,1.651330828666687,1.1089468002319336,9.718437194824219,3.4113059043884277,-0.2881830632686615,-3.817921970039606e-05,0.08428024500608444,32.00328826904297,-24.655803680419922,-4.226207733154297,0.12075889110565186,0.1141815185546875,0.30254268646240234,0.9881879091262817,9.604255676269531,3.1087632179260254
1_20251106_212424,1762435430127,1,0.5119098424911499,0.40932366251945496,0.4105674624443054,0.6339060068130493,0.5447713136672974,3.312608480453491,1.6666332483291626,1.0921881198883057,9.795047760009766,3.562134027481079,-0.31200677156448364,0.005459603387862444,0.0451848991215229,31.979101181030273,-24.66873550415039,-4.349098205566406,0.08320021629333496,0.1526336669921875,0.36269640922546387,1.0089879035949707,9.642414093017578,3.1994376182556152
1_20251106_212424,1762435430146,1,0.5129159092903137,0.40816593170166016,0.40838560461997986,0.6352472305297852,0.5447713136672974,3.312608480453491,1.6666332483291626,1.0921881198883057,9.795047760009766,3.562134027481079,-0.2985677719116211,0.024396410211920738,0.01708512380719185,31.942628860473633,-24.682598114013672,-4.458963394165039,0.08320021629333496,0.1526336669921875,0.36269640922546387,1.0089879035949707,9.642414093017578,3.1994376182556152
1_20251106_212424,1762435430164,1,0.5139724612236023,0.40672749280929565,0.40648937225341797,0.6365307569503784,0.5475295782089233,3.3118014335632324,1.6835062503814697,1.069444179534912,9.781880378723145,3.6794447898864746,-0.2771874964237213,0.038446299731731415,-0.0024625472724437714,31.87230682373047,-24.660358428955078,-4.650606155395508,0.048364996910095215,0.1115732192993164,0.3840057849884033,1.021079182624817,9.670307159423828,3.2954390048980713
1_20251106_212424,1762435430184,1,0.5150263905525208,0.40513163805007935,0.40485015511512756,0.6377401947975159,0.5520526170730591,3.3109827041625977,1.7128101587295532,1.0155768394470215,9.76991081237793,3.626774549484253,-0.2576398253440857,0.031115921214222908,-0.018345028162002563,31.796964645385742,-24.714542388916016,-4.7357025146484375,-0.010225057601928711,0.07159996032714844,0.20209527015686035,1.0258018970489502,9.698310852050781,3.4246792793273926
1_20251106_212424,1762435430203,1,0.5161420106887817,0.4036500155925751,0.4033607244491577,0.6387207508087158,0.5540308356285095,3.31095814704895,1.727855920791626,0.9473451375961304,9.793851852416992,3.5741045475006104,-0.23992475867271423,-0.0018707733834162354,-0.02201021835207939,31.712947845458984,-24.71834945678711,-4.914847373962402,-0.06276535987854004,0.07643318176269531,0.11954021453857422,1.0101104974746704,9.717418670654297,3.454564332962036
1_20251106_212424,1762435430223,1,0.517408549785614,0.4025852680206299,0.4019199311733246,0.6392760276794434,0.5557215213775635,3.3111183643341064,1.7428386211395264,0.9413598775863647,9.78427505493164,3.705779790878296,-0.23992475867271423,-0.0018707733834162354,-0.02201021835207939,31.664981842041016,-24.732059478759766,-5.119816780090332,-0.05500054359436035,0.05348491668701172,0.200972318649292,0.9963604211807251,9.730790138244629,3.504807472229004
1_20251106_212424,1762435430240,1,0.5187169313430786,0.4017859101295471,0.40050452947616577,0.6396068930625916,0.5571489930152893,3.3114001750946045,1.757068395614624,0.9581185579299927,9.78666877746582,3.8075292110443115,-0.24236822128295898,0.013400844298303127,-1.9088387489318848e-05,31.634037017822266,-24.657215118408203,-5.308932304382324,-0.030593454837799072,0.04470252990722656,0.24217724800109863,0.9887120127677917,9.741966247558594,3.565351963043213
1_20251106_212424,1762435430260,1,0.519842803478241,0.4006384015083313,0.39912149310112,0.6402767896652222,0.5586027503013611,3.3122446537017822,1.7727594375610352,0.9712860584259033,9.92193603515625,3.785982131958008,-0.23503783345222473,0.042111486196517944,0.0036460994742810726,31.623939514160156,-24.643566131591797,-5.498386383056641,-0.013940751552581787,0.14397621154785156,0.17650413513183594,0.9852268099784851,9.777959823608398,3.609477996826172
1_20251106_212424,1762435430280,1,0.520804762840271,0.39932581782341003,0.3978545367717743,0.6411030292510986,0.5600870251655579,3.313619375228882,1.7887448072433472,1.0191681385040283,9.966226577758789,3.9643425941467285,-0.22954006493091583,0.031115921214222908,0.005478693637996912,31.61443519592285,-24.629108428955078,-5.768938064575195,0.02715301513671875,0.15061283111572266,0.2838916778564453,0.9920151233673096,9.815613746643066,3.680450916290283
1_20251106_212424,1762435430299,1,0.5217729806900024,0.3982653319835663,0.3966265320777893,0.6417359709739685,0.5617769360542297,3.315138578414917,1.8043510913848877,1.1197203397750854,9.917146682739258,4.110382556915283,-0.20144027471542358,0.024396410211920738,0.009754747152328491,31.618242263793945,-24.577533721923828,-5.903044700622559,0.10216414928436279,0.08122634887695312,0.3439455032348633,1.0175561904907227,9.835920333862305,3.76643705368042
1_20251106_212424,1762435430319,1,0.5226678848266602,0.39733609557151794,0.39537012577056885,0.6423587203025818,0.5639549493789673,3.316561698913574,1.8202093839645386,1.2262576818466187,9.82856559753418,4.142702579498291,-0.13057997822761536,0.0017944149440154433,-0.006738600321114063,31.618242263793945,-24.577533721923828,-5.903044700622559,0.1669611930847168,-0.0058841705322265625,0.3010125160217285,1.0592964887619019,9.834449768066406,3.8416900634765625
1_20251106_212424,1762435430337,1,0.5232976078987122,0.39670825004577637,0.39438703656196594,0.6428382992744446,0.5664624571800232,3.317779302597046,1.8361072540283203,1.219075322151184,9.78547191619873,4.145096778869629,-0.0823216587305069,0.0011835502227768302,-0.056829508394002914,31.62023162841797,-24.563228607177734,-6.078492164611816,0.1278231143951416,-0.03918266296386719,0.24272537231445312,1.0912522077560425,9.824654579162598,3.902371406555176
1_20251106_212424,1762435430356,1,0.5240153670310974,0.3962310552597046,0.3937161862850189,0.6429590582847595,0.5688142776489258,3.3186213970184326,1.8519878387451172,1.0802175998687744,9.710058212280273,4.185796737670898,-0.08598684519529343,0.05921570211648941,-0.11180733144283295,31.59817123413086,-24.526874542236328,-6.105713844299316,-0.008827686309814453,-0.09167671203613281,0.22674036026000977,1.0890452861785889,9.801734924316406,3.9590563774108887
1_20251106_212424,1762435430374,1,0.5247576236724854,0.3951322138309479,0.3935694992542267,0.643119752407074,0.5705584287643433,3.318629026412964,1.8666117191314697,0.9377687573432922,9.496983528137207,4.093624114990234,-0.08598684519529343,0.05921570211648941,-0.11180733144283295,31.62364387512207,-24.512187957763672,-6.158534049987793,-0.12102121114730835,-0.24380111694335938,0.10765409469604492,1.0587899684906006,9.740784645080566,3.9859700202941895
1_20251106_212424,1762435430394,1,0.5254831314086914,0.39348575472831726,0.3939322531223297,0.6433147192001343,0.5716567635536194,3.3171279430389404,1.8816074132919312,0.8144726753234863,9.244405746459961,3.8410463333129883,-0.07499127835035324,0.1166369840502739,-0.13685280084609985,31.63833999633789,-24.47317886352539,-6.21131706237793,-0.19545388221740723,-0.39710330963134766,-0.11593890190124512,1.0099265575408936,9.641509056091309,3.9569852352142334
1_20251106_212424,1762435430413,1,0.5259681344032288,0.3922516107559204,0.39453887939453125,0.6433002948760986,0.5720526576042175,3.3145720958709717,1.8940807580947876,0.7929257750511169,9.203705787658691,3.5705134868621826,-0.01940259151160717,0.10197623074054718,-0.10814213752746582,31.72344398498535,-24.467891693115234,-6.180850982666016,-0.17360061407089233,-0.35024261474609375,-0.3091771602630615,0.9665263891220093,9.553948402404785,3.879690647125244
1_20251106_212424,1762435430432,1,0.5261644124984741,0.3918702304363251,0.39493128657341003,0.64313143491745,0.572067379951477,3.311363697052002,1.9050525426864624,0.8348225355148315,9.269542694091797,3.5597400665283203,-0.010850485414266586,-0.01897498592734337,0.020750312134623528,31.824752807617188,-24.39834976196289,-6.216156005859375,-0.10536313056945801,-0.2275247573852539,-0.25596046447753906,0.9401856660842896,9.49706745147705,3.8157005310058594
1_20251106_212424,1762435430452,1,0.5262327790260315,0.39221417903900146,0.39490699768066406,0.6428806781768799,0.5717145204544067,3.3073508739471436,1.9153918027877808,0.819260835647583,9.23243522644043,3.607621669769287,-0.010850485414266586,-0.01897498592734337,0.020750312134623528,31.86322784423828,-24.358562469482422,-6.186860084533691,-0.09673988819122314,-0.21170520782470703,-0.16646313667297363,0.9160007238388062,9.444140434265137,3.7740848064422607
1_20251106_212424,1762435430471,1,0.5265328288078308,0.39271271228790283,0.39464011788368225,0.6424944400787354,0.570877730846405,3.3029086589813232,1.923931360244751,0.7270880341529846,9.145050048828125,3.485522747039795,-0.024900373071432114,-0.02202930860221386,0.02258290722966194,31.922550201416016,-24.37997817993164,-6.157903671264648,-0.15113013982772827,-0.2392721176147461,-0.2308495044708252,0.8782181739807129,9.384322166442871,3.71637225151062
1_20251106_212424,1762435430491,1,0.5269003510475159,0.39284589886665344,0.39440885186195374,0.6422536969184875,0.570877730846405,3.3029086589813232,1.923931360244751,0.7270880341529846,9.145050048828125,3.485522747039795,-0.04200458526611328,0.0005726855015382171,0.009143881499767303,31.984691619873047,-24.35116195678711,-6.127891540527344,-0.15113013982772827,-0.2392721176147461,-0.2308495044708252,0.8782181739807129,9.384322166442871,3.71637225151062
1_20251106_212424,1762435430510,1,0.5272578001022339,0.39265722036361694,0.39406540989875793,0.642286479473114,0.5689870715141296,3.2971134185791016,1.9321521520614624,0.5762597918510437,9.046892166137695,3.4939022064208984,-0.14462986588478088,0.021952951326966286,0.08428024500608444,32.012489318847656,-24.286922454833984,-6.112074851989746,-0.2415667176246643,-0.2699441909790039,-0.17797613143920898,0.817826509475708,9.3168363571167,3.6718783378601074
1_20251106_212424,1762435430529,1,0.5275803208351135,0.3922393023967743,0.3933223783969879,0.6427323222160339,0.564708411693573,3.285769462585449,1.9460740089416504,0.7582113146781921,9.125898361206055,3.859002113342285,-0.16601012647151947,0.011568250134587288,0.1588057279586792,32.0667610168457,-24.19503402709961,-6.189363479614258,-0.012297511100769043,-0.10496330261230469,0.14848852157592773,0.7705088257789612,9.23086166381836,3.7105135917663574
1_20251106_212424,1762435430547,1,0.5274688601493835,0.3917967677116394,0.39207011461257935,0.6438578367233276,0.5633852481842041,3.280568838119507,1.953437089920044,1.022759199142456,9.257572174072266,4.063697814941406,-0.15806889533996582,-0.020807581022381783,0.2046205997467041,32.10200881958008,-24.217632293701172,-6.201936721801758,0.20180028676986694,0.021368026733398438,0.2825474739074707,0.8209589123725891,9.236204147338867,3.7811503410339355
1_20251106_212424,1762435430566,1,0.527207612991333,0.3918369710445404,0.3902800977230072,0.6451336145401001,0.5630488395690918,3.276102066040039,1.9620720148086548,1.181966781616211,9.508953094482422,4.237269878387451,-0.14768418669700623,-0.04890735447406769,0.20584231615066528,32.063026428222656,-24.269702911376953,-6.258528709411621,0.28880631923675537,0.2181997299194336,0.3648958206176758,0.8931604623794556,9.290753364562988,3.8723740577697754
1_20251106_212424,1762435430585,1,0.5267730355262756,0.39213189482688904,0.3881849944591522,0.6465718150138855,0.5630488395690918,3.276102066040039,1.9620720148086548,1.181966781616211,9.508953094482422,4.237269878387451,-0.11775180697441101,-0.04096611216664314,0.14231239259243011,31.9613094329834,-24.351398468017578,-6.264036178588867,0.28880631923675537,0.2181997299194336,0.3648958206176758,0.8931604623794556,9.290753364562988,3.8723740577697754
1_20251106_212424,1762435430604,1,0.5264862775802612,0.3923296332359314,0.3864540159702301,0.6477213501930237,0.5639179348945618,3.2723968029022217,1.972238302230835,1.289701223373413,9.54127311706543,4.376127243041992,-0.09820413589477539,-0.006757691036909819,0.053737007081508636,31.89514923095703,-24.443675994873047,-6.227787017822266,0.317232608795166,0.20041561126708984,0.4030027389526367,0.9724686145782471,9.34085750579834,3.9731245040893555
1_20251106_212424,1762435430623,1,0.5264939665794373,0.39206162095069885,0.38520342111587524,0.648621678352356,0.5675421953201294,3.266956090927124,1.9934395551681519,1.2011196613311768,9.391642570495605,4.522167205810547,-0.08659771084785461,0.04150062054395676,-0.027508001774549484,31.810327529907227,-24.46017837524414,-6.393679618835449,0.12967371940612793,0.013924598693847656,0.35732460021972656,1.0714459419250488,9.377717971801758,4.16484260559082
1_20251106_212424,1762435430643,1,0.5267263650894165,0.3911327123641968,0.3845254182815552,0.6493957042694092,0.5694491863250732,3.264028787612915,2.004946231842041,1.0622618198394775,9.244405746459961,4.476679801940918,-0.05788706988096237,0.07326558977365494,-0.07698804140090942,31.745464324951172,-24.53908920288086,-6.438264846801758,-0.0073473453521728516,-0.10664939880371094,0.24946975708007812,1.0696091651916504,9.351055145263672,4.22721004486084
1_20251106_212424,1762435430661,1,0.527189314365387,0.38986876606941223,0.38435283303260803,0.6498820781707764,0.5709779262542725,3.260859966278076,2.0163187980651855,0.9664978981018066,9.20969009399414,4.388097763061523,-0.03833939880132675,0.07754164189100266,-0.0782097727060318,31.66790771484375,-24.631084442138672,-6.510636329650879,-0.082489013671875,-0.11309146881103516,0.12871026992797852,1.0489869117736816,9.322781562805176,4.259387493133545
1_20251106_212424,1762435430681,1,0.5275723934173584,0.3885243535041809,0.3844732344150543,0.650304913520813,0.5722049474716187,3.257525682449341,2.0279006958007812,0.9497392177581787,9.268346786499023,4.328245162963867,-0.03161988407373428,0.06593520939350128,-0.05805123969912529,31.616443634033203,-24.68435287475586,-6.527170181274414,-0.07939815521240234,-0.043547630310058594,0.05508613586425781,1.029137372970581,9.311894416809082,4.273159027099609
1_20251106_212424,1762435430700,1,0.5278555750846863,0.3873656094074249,0.3846554160118103,0.6506586074829102,0.5731766223907471,3.254321336746216,2.0386195182800293,0.9796655178070068,9.240814208984375,4.370141983032227,-0.0016875145956873894,0.045165810734033585,-0.05194259062409401,31.581592559814453,-24.66122055053711,-6.568662643432617,-0.039577484130859375,-0.05686473846435547,0.07758617401123047,1.0192430019378662,9.29767894744873,4.292555809020996
1_20251106_212424,1762435430719,1,0.5281847715377808,0.3866817355155945,0.3848930597305298,0.6506576538085938,0.5738301873207092,3.251098394393921,2.0488150119781494,0.9210100173950195,9.23243522644043,4.297122001647949,0.03374263644218445,0.05249618738889694,-0.06232729181647301,31.57001304626465,-24.649593353271484,-6.555373191833496,-0.07858633995056152,-0.05219459533691406,0.0036530494689941406,0.999596357345581,9.284629821777344,4.293468952178955
1_20251106_212424,1762435430738,1,0.528361976146698,0.3860648274421692,0.3853629529476166,0.6506019830703735,0.5740712285041809,3.247683048248291,2.058070659637451,0.8611575961112976,9.155823707580566,4.136717796325684,0.04901426285505295,0.08365029096603394,-0.06538160890340805,31.610689163208008,-24.583614349365234,-6.633679389953613,-0.11075097322463989,-0.10304450988769531,-0.12540102005004883,0.9719085693359375,9.258868217468262,4.262118816375732
1_20251106_212424,1762435430759,1,0.5283410549163818,0.3853182792663574,0.38621559739112854,0.6505559682846069,0.5738736987113953,3.2438526153564453,2.0660207271575928,0.827640175819397,9.122306823730469,3.832667112350464,0.050235994160175323,0.08670461177825928,-0.02628627046942711,31.622974395751953,-24.582683563232422,-6.646705627441406,-0.11541473865509033,-0.10924911499023438,-0.34356141090393066,0.9430549144744873,9.231555938720703,4.1762285232543945
1_20251106_212424,1762435430776,1,0.528237521648407,0.38489842414855957,0.38696685433387756,0.6504421234130859,0.5738736987113953,3.2438526153564453,2.0660207271575928,0.827640175819397,9.122306823730469,3.832667112350464,0.033742643892765045,0.04760926961898804,0.04335230588912964,31.622974395751953,-24.582683563232422,-6.646705627441406,-0.11541473865509033,-0.10924911499023438,-0.34356141090393066,0.9430549144744873,9.231555938720703,4.1762285232543945
1_20251106_212424,1762435430796,1,0.5278437733650208,0.3851527273654938,0.38740792870521545,0.6503486633300781,0.5732947587966919,3.2372355461120605,2.0780885219573975,1.0179710388183594,9.3413667678833,4.050529956817627,-0.0010766498744487762,0.04638754203915596,0.09833014011383057,31.64786720275879,-24.557193756103516,-6.523550033569336,0.07284492254257202,0.09211349487304688,-0.04980278015136719,0.9451261162757874,9.249253273010254,4.100332736968994
1_20251106_212424,1762435430814,1,0.5272318124771118,0.3854657709598541,0.3874109387397766,0.6506577730178833,0.5738011598587036,3.234792709350586,2.083371877670288,1.2071048021316528,9.374883651733398,4.131929397583008,0.006253726780414581,0.047609273344278336,0.10566051304340363,31.651193618774414,-24.494678497314453,-6.495197296142578,0.20958298444747925,0.10050392150878906,0.025277137756347656,0.9975218176841736,9.27437973022461,4.10665225982666
1_20251106_212424,1762435430834,1,0.5264917016029358,0.38582515716552734,0.387214332818985,0.6511608958244324,0.5738011598587036,3.234792709350586,2.083371877670288,1.2071048021316528,9.374883651733398,4.131929397583008,0.04351647198200226,0.02012035623192787,0.08428025245666504,31.70406723022461,-24.41629409790039,-6.478135108947754,0.20958298444747925,0.10050392150878906,0.025277137756347656,0.9975218176841736,9.27437973022461,4.10665225982666
1_20251106_212424,1762435430853,1,0.5257154703140259,0.3865359425544739,0.38699379563331604,0.6514975428581238,0.5770263671875,3.2312302589416504,2.092850685119629,1.274139642715454,9.480223655700684,3.942795753479004,0.05756636708974838,-0.016531527042388916,0.050682682543992996,31.62855339050293,-24.447521209716797,-6.346443176269531,0.17761003971099854,0.1405506134033203,-0.1098480224609375,1.0965296030044556,9.339673042297363,4.052643775939941
1_20251106_212424,1762435430874,1,0.5251089334487915,0.3876054286956787,0.3869151771068573,0.6513979434967041,0.5793071985244751,3.2302215099334717,2.097107410430908,1.1987255811691284,9.488603591918945,3.9775099754333496,0.03862956166267395,-0.003703367430716753,0.009143882431089878,31.603378295898438,-24.461803436279297,-6.334171295166016,0.0817568302154541,0.11914443969726562,-0.060106754302978516,1.1169687509536743,9.36945915222168,4.037616729736328
1_20251106_212424,1762435430891,1,0.5248541831970215,0.38841918110847473,0.3869346082210541,0.6511069536209106,0.5811172723770142,3.229518175125122,2.10025954246521,1.1424641609191895,9.402416229248047,3.9822983741760254,0.018471021205186844,0.057993970811367035,-0.02934059500694275,31.59068489074707,-24.47488784790039,-6.3619585037231445,0.02039635181427002,0.026365280151367188,-0.04425477981567383,1.1220678091049194,9.37605094909668,4.026553153991699
1_20251106_212424,1762435430912,1,0.5248326063156128,0.3885376751422882,0.3872692286968231,0.6508546471595764,0.583085834980011,3.2284083366394043,2.103280544281006,1.104158639907837,9.269542694091797,3.861396312713623,0.021525343880057335,0.0647134855389595,-0.03483837842941284,31.562801361083984,-24.527645111083984,-6.269381523132324,-0.014327287673950195,-0.0852060317993164,-0.1321256160736084,1.118485927581787,9.354748725891113,3.9935219287872314
1_20251106_212424,1762435430930,1,0.5247901678085327,0.38847804069519043,0.3877134919166565,0.6506599187850952,0.583085834980011,3.2284083366394043,2.103280544281006,1.104158639907837,9.269542694091797,3.861396312713623,0.030688317492604256,0.009735655970871449,-0.005516870878636837,31.54044532775879,-24.491695404052734,-6.256053924560547,-0.014327287673950195,-0.0852060317993164,-0.1321256160736084,1.118485927581787,9.354748725891113,3.9935219287872314
1_20251106_212424,1762435430950,1,0.5247622728347778,0.388956755399704,0.38787922263145447,0.6502975225448608,0.5860613584518433,3.225133180618286,2.1079719066619873,1.023956298828125,9.23482894897461,3.9619483947753906,0.023968806490302086,-0.020196717232465744,0.02930241823196411,31.479923248291016,-24.483516693115234,-6.217693328857422,-0.06547868251800537,-0.0681295394897461,-0.005267620086669922,1.0894349813461304,9.302958488464355,3.9672160148620605
1_20251106_212424,1762435430968,1,0.5246687531471252,0.38958805799484253,0.3877483308315277,0.6500731110572815,0.5871546864509583,3.22365665435791,2.110292673110962,1.0610648393630981,9.315031051635742,4.10080623626709,0.023968806490302086,-0.020196717232465744,0.02930241823196411,31.415876388549805,-24.53812026977539,-6.180652618408203,-0.02269613742828369,0.009657859802246094,0.1068720817565918,1.0837609767913818,9.305373191833496,3.993934154510498
1_20251106_212424,1762435430987,1,0.5244739651679993,0.38995203375816345,0.3876068890094757,0.6500964164733887,0.5882413387298584,3.2221598625183105,2.112729072570801,1.0802175998687744,9.299469947814941,4.033771514892578,0.012973237782716751,-0.007368555758148432,0.040297981351614,31.411151885986328,-24.614139556884766,-6.114654541015625,-0.0028346776962280273,-0.00472259521484375,0.03186988830566406,1.0830522775650024,9.304192543029785,4.001901626586914
1_20251106_212424,1762435431006,1,0.5242654085159302,0.39007917046546936,0.38762879371643066,0.6501753330230713,0.5882413387298584,3.2221598625183105,2.112729072570801,1.0802175998687744,9.299469947814941,4.033771514892578,0.037407830357551575,0.011568250134587288,-0.007349465042352676,31.44830322265625,-24.610950469970703,-6.194280624389648,-0.0028346776962280273,-0.00472259521484375,0.03186988830566406,1.0830522775650024,9.304192543029785,4.001901626586914
1_20251106_212424,1762435431025,1,0.5243434906005859,0.39035552740097046,0.3877320885658264,0.649884819984436,0.5897448658943176,3.21925950050354,2.117097854614258,0.9389657974243164,9.2886962890625,3.9056873321533203,0.03252091258764267,0.012789979577064514,-0.028118867427110672,31.469966888427734,-24.647846221923828,-6.112994194030762,-0.10983598232269287,-0.0076198577880859375,-0.08130455017089844,1.0488017797470093,9.296316146850586,3.9869918823242188
1_20251106_212424,1762435431044,1,0.5253475904464722,0.3909419775009155,0.3874422013759613,0.6488935351371765,0.589732825756073,3.2175700664520264,2.1190273761749268,0.8587634563446045,9.220464706420898,3.9499778747558594,0.03252091258764267,0.012789979577064514,-0.028118867427110672,31.457582473754883,-24.648906707763672,-6.086452484130859,-0.1520305871963501,-0.06068134307861328,-0.02961111068725586,1.0107940435409546,9.281146049499512,3.9795889854431152
1_20251106_212424,1762435431062,1,0.5259993672370911,0.3910347521305084,0.3875657320022583,0.648235559463501,0.589732825756073,3.2175700664520264,2.1190273761749268,0.8587634563446045,9.220464706420898,3.9499778747558594,-0.02917642705142498,0.03050505556166172,-0.03422751650214195,31.445606231689453,-24.637821197509766,-6.019097328186035,-0.1520305871963501,-0.06068134307861328,-0.02961111068725586,1.0107940435409546,9.281146049499512,3.9795889854431152
1_20251106_212424,1762435431081,1,0.5267437100410461,0.3907369375228882,0.387541800737381,0.6478248834609985,0.5886974334716797,3.2133331298828125,2.122915744781494,0.8767192363739014,9.074424743652344,4.086441516876221,-0.02245691418647766,0.03661370649933815,-0.01895589753985405,31.372095108032227,-24.643123626708984,-5.967974662780762,-0.08446717262268066,-0.13747215270996094,0.0747060775756836,0.961186408996582,9.211896896362305,4.011735439300537
1_20251106_212424,1762435431101,1,0.5271626114845276,0.3902573585510254,0.38751962780952454,0.6477864980697632,0.5878239274024963,3.210850238800049,2.1250619888305664,0.891083836555481,9.167794227600098,4.037362098693848,-0.0029092440381646156,0.018287761136889458,-0.008571195416152477,31.333126068115234,-24.683582305908203,-5.929689407348633,-0.056082069873809814,-0.035282135009765625,0.020501136779785156,0.9471659064292908,9.203076362609863,4.0168609619140625
1_20251106_212424,1762435431120,1,0.527286946773529,0.38986003398895264,0.3875707983970642,0.6478939056396484,0.5869770050048828,3.2086966037750244,2.1269140243530273,0.925798237323761,9.23482894897461,3.985889434814453,-0.0029092440381646156,0.018287761136889458,-0.008571195416152477,31.382476806640625,-24.667980194091797,-5.913947105407715,-0.017094135284423828,0.025402069091796875,-0.02477741241455078,0.9428923726081848,9.209426879882812,4.010666847229004
1_20251106_212424,1762435431140,1,0.52736896276474,0.3893981873989105,0.3877236843109131,0.6480134129524231,0.586139976978302,3.206681966781616,2.1286251544952393,0.9461480379104614,9.255178451538086,3.9643425941467285,-0.014515673741698265,0.025007272139191628,-0.017123300582170486,31.35940170288086,-24.656200408935547,-5.995761871337891,0.002604544162750244,0.03660106658935547,-0.03705930709838867,0.9435434937477112,9.21857738494873,4.001401901245117
1_20251106_212424,1762435431159,1,0.5280306339263916,0.38902023434638977,0.3877471387386322,0.6476874351501465,0.5851749181747437,3.2048556804656982,2.130153179168701,0.8671427965164185,9.215676307678223,3.9954657554626465,-0.031009020283818245,0.04394408315420151,-0.04888826981186867,31.370586395263672,-24.66836929321289,-5.954986572265625,-0.061120569705963135,-0.0023212432861328125,-0.004748821258544922,0.9282633662223816,9.217997550964355,4.000214576721191
1_20251106_212424,1762435431180,1,0.5285772085189819,0.3882397413253784,0.38813939690589905,0.647475004196167,0.5851749181747437,3.2048556804656982,2.130153179168701,0.8671427965164185,9.215676307678223,3.9954657554626465,-0.04322631657123566,0.10014364123344421,-0.11363992094993591,31.370586395263672,-24.66836929321289,-5.954986572265625,-0.061120569705963135,-0.0023212432861328125,-0.004748821258544922,0.9282633662223816,9.217997550964355,4.000214576721191
1_20251106_212424,1762435431196,1,0.529164731502533,0.3870116174221039,0.38880690932273865,0.6473298072814941,0.5817341208457947,3.2009191513061523,2.1324009895324707,0.6109742522239685,9.048089981079102,3.8853373527526855,-0.04811323434114456,0.10014364123344421,-0.09042706340551376,31.38760757446289,-24.57980728149414,-5.9391326904296875,-0.22164326906204224,-0.12616920471191406,-0.08252334594726562,0.8326175212860107,9.174259185791016,3.967860698699951
1_20251106_212424,1762435431216,1,0.5296964049339294,0.3857755959033966,0.3894861340522766,0.6472244262695312,0.5790354609489441,3.1984920501708984,2.1332454681396484,0.5642893314361572,9.037315368652344,3.9344162940979004,-0.04200458526611328,0.0598265677690506,-0.023842811584472656,31.403106689453125,-24.52811050415039,-6.0051679611206055,-0.2146625518798828,-0.10955524444580078,-0.026755332946777344,0.77895188331604,9.146870613098145,3.9611716270446777
1_20251106_212424,1762435431235,1,0.5300832390785217,0.3850375711917877,0.38980433344841003,0.6471555829048157,0.5759425759315491,3.1958847045898438,2.1345510482788086,0.6492798328399658,9.087593078613281,4.112776756286621,-0.03161988407373428,0.03783543407917023,0.040908847004175186,31.429086685180664,-24.501140594482422,-6.030692100524902,-0.10373759269714355,-0.04742240905761719,0.12128400802612305,0.7530174255371094,9.135015487670898,3.991492748260498
1_20251106_212424,1762435431255,1,0.5300565958023071,0.38457512855529785,0.38989970088005066,0.6473949551582336,0.5759425759315491,3.1958847045898438,2.1345510482788086,0.6492798328399658,9.087593078613281,4.112776756286621,-0.006574432365596294,0.04699840396642685,0.06778689473867416,31.53201675415039,-24.394596099853516,-5.997624397277832,-0.10373759269714355,-0.04742240905761719,0.12128400802612305,0.7530174255371094,9.135015487670898,3.991492748260498
1_20251106_212424,1762435431274,1,0.5296496748924255,0.3841613829135895,0.3899492621421814,0.6479434967041016,0.5702338814735413,3.19118332862854,2.1379358768463135,0.7127234935760498,9.167794227600098,4.088835716247559,0.020914481952786446,0.045165810734033585,0.0763390064239502,31.621139526367188,-24.325847625732422,-6.033420562744141,-0.027703404426574707,0.030554771423339844,0.05348920822143555,0.7404268980026245,9.137239456176758,4.035346508026123
1_20251106_212424,1762435431292,1,0.5290586948394775,0.3839835524559021,0.3900426924228668,0.6484752893447876,0.5675011873245239,3.1894354820251465,2.139585256576538,0.7199057340621948,9.27193832397461,4.036165237426758,0.01602756232023239,0.05555051192641258,0.10077359527349472,31.656696319580078,-24.336429595947266,-5.991664886474609,-0.016416966915130615,0.10775947570800781,0.0006551742553710938,0.7363227009773254,9.164178848266602,4.035510063171387
1_20251106_212424,1762435431312,1,0.5282580852508545,0.38384780287742615,0.39017605781555176,0.6491277813911438,0.5648532509803772,3.187931537628174,2.14109468460083,0.7641966342926025,9.244405746459961,3.989480495452881,0.00686459057033062,0.06349175423383713,0.12154299020767212,31.692760467529297,-24.334720611572266,-5.922612190246582,0.02229917049407959,0.06418132781982422,-0.03682374954223633,0.741897463798523,9.180224418640137,4.026304244995117
1_20251106_212424,1762435431331,1,0.5273885726928711,0.3838277757167816,0.3902614414691925,0.6497949957847595,0.5648532509803772,3.187931537628174,2.14109468460083,0.7641966342926025,9.244405746459961,3.989480495452881,-0.0004657851532101631,0.05677224323153496,0.14475584030151367,31.68238067626953,-24.309864044189453,-5.976639747619629,0.02229917049407959,0.06418132781982422,-0.03682374954223633,0.741897463798523,9.180224418640137,4.026304244995117
1_20251106_212424,1762435431350,1,0.5264260768890381,0.38398611545562744,0.39016056060791016,0.6505420804023743,0.5626758337020874,3.18688702583313,2.1424849033355713,0.8803103566169739,9.316228866577148,3.9918746948242188,-0.007796161808073521,0.04883100092411041,0.16247092187404633,31.61741828918457,-24.388912200927734,-6.007708549499512,0.11073035001754761,0.10880374908447266,-0.02754354476928711,0.7695800065994263,9.207425117492676,4.019418239593506
1_20251106_212424,1762435431370,1,0.5254724621772766,0.38442423939704895,0.389769971370697,0.6512880325317383,0.5613064169883728,3.186628580093384,2.145177125930786,1.172390341758728,9.468254089355469,4.145096778869629,0.0007559442892670631,0.0341702476143837,0.15147535502910614,31.597900390625,-24.504070281982422,-5.8754119873046875,0.28154808282852173,0.1805286407470703,0.09403276443481445,0.8908422589302063,9.287725448608398,4.0510640144348145
1_20251106_212424,1762435431389,1,0.5244712829589844,0.38498783111572266,0.38930216431617737,0.6520414352416992,0.5621674060821533,3.187458038330078,2.1472296714782715,1.2513957023620605,9.505362510681152,4.219314098358154,0.011140644550323486,0.03050505556166172,0.10260619223117828,31.52166748046875,-24.559467315673828,-5.838861465454102,0.2884427309036255,0.17410945892333984,0.13460016250610352,0.9629529714584351,9.331253051757812,4.084713935852051
1_20251106_212424,1762435431408,1,0.5235981345176697,0.3854675889015198,0.38895538449287415,0.6526663899421692,0.5635548233985901,3.188433885574341,2.14920711517334,1.2274547815322876,9.439523696899414,4.175023078918457,0.030077451840043068,0.054328784346580505,0.034800201654434204,31.454097747802734,-24.676860809326172,-5.803140640258789,0.21160149574279785,0.08661651611328125,0.07224750518798828,1.0158532857894897,9.352907180786133,4.102775573730469
1_20251106_212424,1762435431427,1,0.5229747295379639,0.38565298914909363,0.3889760971069336,0.6530442833900452,0.5654187798500061,3.1895670890808105,2.151244640350342,1.1472524404525757,9.38685417175293,4.086441516876221,0.04595993459224701,0.06593520939350128,-0.01956675946712494,31.375244140625,-24.782215118408203,-5.794678688049316,0.10511934757232666,0.02715778350830078,-0.013067245483398438,1.042133092880249,9.359696388244629,4.099508762359619
1_20251106_212424,1762435431445,1,0.5225614309310913,0.38561296463012695,0.38939711451530457,0.65314781665802,0.5670650005340576,3.1904497146606445,2.1527392864227295,1.0634589195251465,9.324607849121094,3.9990572929382324,0.044738203287124634,0.057993970811367035,-0.055607784539461136,31.29881477355957,-24.837886810302734,-5.731096267700195,0.01706063747406006,-0.028070449829101562,-0.08036136627197266,1.0463982820510864,9.352678298950195,4.079418659210205
1_20251106_212424,1762435431464,1,0.5224941968917847,0.38550594449043274,0.3899771273136139,0.6529186964035034,0.5670650005340576,3.1904497146606445,2.1527392864227295,1.0634589195251465,9.324607849121094,3.9990572929382324,0.034964367747306824,0.05799397453665733,-0.06660334020853043,31.21392059326172,-24.831295013427734,-5.693717002868652,0.01706063747406006,-0.028070449829101562,-0.08036136627197266,1.0463982820510864,9.352678298950195,4.079418659210205
1_20251106_212424,1762435431483,1,0.5225085020065308,0.38526320457458496,0.39066964387893677,0.6526364684104919,0.5682504773139954,3.1910884380340576,2.1541309356689453,0.8647487163543701,9.256376266479492,4.018209457397461,0.04779253154993057,0.051885321736335754,-0.047666534781455994,31.149688720703125,-24.874553680419922,-5.534765243530273,-0.14531970024108887,-0.0770416259765625,-0.04896736145019531,1.010068416595459,9.333417892456055,4.067176818847656
1_20251106_212424,1762435431502,1,0.5225414037704468,0.38495495915412903,0.3914550244808197,0.6523213386535645,0.5683066844940186,3.190943479537964,2.1557633876800537,0.6947677135467529,9.140262603759766,4.006239414215088,0.040462151169776917,0.03661370277404785,-0.012236383743584156,31.162677764892578,-24.861064910888672,-5.547527313232422,-0.21156036853790283,-0.12859821319580078,-0.0282745361328125,0.9063280820846558,9.268860816955566,4.0345139503479
1_20251106_212424,1762435431521,1,0.5224759578704834,0.38476812839508057,0.3921089172363281,0.6520912051200867,0.5674519538879395,3.190401554107666,2.1568191051483154,0.7103293538093567,9.172582626342773,4.153476715087891,0.017249291762709618,0.048220135271549225,0.02624809369444847,31.14132308959961,-24.812152862548828,-5.574484825134277,-0.15679901838302612,-0.07702255249023438,0.0951700210571289,0.8671283721923828,9.249605178833008,4.058306694030762
1_20251106_212424,1762435431540,1,0.5223638415336609,0.384450763463974,0.392466276884079,0.6521531939506531,0.5663115978240967,3.189859390258789,2.1584510803222656,0.7474378943443298,9.239617347717285,4.287545680999756,0.015416698530316353,0.07693077623844147,0.0555696003139019,31.119163513183594,-24.775936126708984,-5.588190078735352,-0.09575235843658447,-0.007990837097167969,0.18339109420776367,0.8431902527809143,9.247608184814453,4.104154586791992
1_20251106_212424,1762435431560,1,0.5218894481658936,0.38387203216552734,0.3927931487560272,0.6526769399642944,0.5651712417602539,3.1893181800842285,2.160506010055542,0.8432018160820007,9.24799633026123,4.243255138397217,0.05756636708974838,0.08181769400835037,0.0916106253862381,31.108287811279297,-24.751750946044922,-5.574636459350586,9.238719940185547e-06,0.0003108978271484375,0.11128044128417969,0.8431925773620605,9.247685432434082,4.131974697113037
1_20251106_212424,1762435431579,1,0.5210029482841492,0.3835100531578064,0.3931802213191986,0.6533645987510681,0.5643908381462097,3.1888532638549805,2.1622390747070312,0.9222071170806885,9.24679946899414,4.122352600097656,0.11498764902353287,0.05005273222923279,0.12581904232501984,31.122180938720703,-24.72543716430664,-5.614167213439941,0.06321167945861816,-0.0007085800170898438,-0.007697582244873047,0.8589954376220703,9.24750804901123,4.130050182342529
1_20251106_212424,1762435431598,1,0.5197021961212158,0.38385677337646484,0.39361533522605896,0.6539347171783447,0.5643908381462097,3.1888532638549805,2.1622390747070312,0.9222071170806885,9.24679946899414,4.122352600097656,0.11498764902353287,0.05005273222923279,0.12581904232501984,31.122180938720703,-24.72543716430664,-5.614167213439941,0.06321167945861816,-0.0007085800170898438,-0.007697582244873047,0.8589954376220703,9.24750804901123,4.130050182342529
1_20251106_212424,1762435431618,1,0.5183429718017578,0.3848279118537903,0.39392226934432983,0.6542578339576721,0.5646072626113892,3.188150644302368,2.1645009517669678,1.1352819204330444,9.28749942779541,3.985889434814453,0.11682024598121643,0.019509492442011833,0.14231237769126892,31.071409225463867,-24.777767181396484,-5.725315093994141,0.19099640846252441,0.02789306640625,-0.08958148956298828,0.94428551197052,9.25960636138916,4.075470924377441
1_20251106_212424,1762435431636,1,0.5170364379882812,0.3859542906284332,0.39409464597702026,0.6545242667198181,0.5655819177627563,3.187955617904663,2.165196418762207,1.174784541130066,9.280317306518555,4.036165237426758,0.11682024598121643,0.019509492442011833,0.14231237769126892,31.071409225463867,-24.777767181396484,-5.725315093994141,0.18439924716949463,0.016569137573242188,-0.031444549560546875,0.9903852939605713,9.263748168945312,4.067609786987305
1_20251106_212424,1762435431655,1,0.515845775604248,0.3866530656814575,0.39434996247291565,0.6548974514007568,0.5670455098152161,3.187828540802002,2.16542649269104,1.1676021814346313,9.2886962890625,3.897307872772217,0.09971603751182556,0.09159153699874878,0.06289997696876526,31.02911376953125,-24.880741119384766,-5.715381622314453,0.14177346229553223,0.01995849609375,-0.13624143600463867,1.0258287191390991,9.26873779296875,4.0335493087768555
1_20251106_212424,1762435431674,1,0.5146803259849548,0.3868871033191681,0.3949495553970337,0.6553147435188293,0.568640947341919,3.18768048286438,2.164926528930664,1.1005674600601196,9.258769989013672,3.7716174125671387,0.09727257490158081,0.08365029096603394,0.03968711569905281,30.975250244140625,-24.96047592163086,-5.597280502319336,0.059790968894958496,-0.007974624633789062,-0.20954561233520508,1.0407764911651611,9.266744613647461,3.9811630249023438
1_20251106_212424,1762435431693,1,0.5137673020362854,0.3872443437576294,0.39563316106796265,0.6554077863693237,0.5703075528144836,3.1876559257507324,2.163778066635132,1.0957791805267334,9.309045791625977,3.735706329345703,0.07955749332904816,0.07570904493331909,0.051293548196554184,30.92258644104004,-25.026973724365234,-5.546497344970703,0.04400217533111572,0.03384113311767578,-0.1963653564453125,1.0517770051956177,9.2752046585083,3.9320716857910156
1_20251106_212424,1762435431713,1,0.5129570960998535,0.3876689672470093,0.39622941613197327,0.6554311513900757,0.5721592903137207,3.1878139972686768,2.1621253490448,1.149646520614624,9.341365814208984,3.7273268699645996,0.08016836643218994,0.057993970811367035,0.06717602908611298,30.891277313232422,-25.142383575439453,-5.468755722045898,0.07829558849334717,0.052928924560546875,-0.16379570960998535,1.0713509321212769,9.288436889648438,3.891122579574585
1_20251106_212424,1762435431731,1,0.5120047926902771,0.3882191479206085,0.39679545164108276,0.6555076837539673,0.5743434429168701,3.1880764961242676,2.1602110862731934,1.226257562637329,9.329395294189453,3.7656326293945312,0.08016836643218994,0.057993970811367035,0.06717602908611298,30.7965145111084,-25.311588287353516,-5.435070991516113,0.12392532825469971,0.032767295837402344,-0.10039186477661133,1.1023322343826294,9.29662799835205,3.8660244941711426
1_20251106_212424,1762435431750,1,0.5111621618270874,0.38898736238479614,0.39721956849098206,0.6554530262947083,0.5769062042236328,3.188274621963501,2.1583075523376465,1.2801249027252197,9.277922630310059,3.835061550140381,0.08444441109895706,0.031726788729429245,0.047628358006477356,30.716066360473633,-25.430713653564453,-5.3052263259887695,0.14223408699035645,-0.014964103698730469,-0.024770259857177734,1.1378908157348633,9.292886734008789,3.8598318099975586
1_20251106_212424,1762435431769,1,0.5103999376296997,0.3897210955619812,0.3975774347782135,0.6553941965103149,0.5798295736312866,3.188490867614746,2.1566872596740723,1.316036343574524,9.303060531616211,3.9284310340881348,0.08139009773731232,0.031115921214222908,0.014030800200998783,30.647705078125,-25.549182891845703,-5.161375045776367,0.14251649379730225,0.008138656616210938,0.054879188537597656,1.1735198497772217,9.294921875,3.873551845550537
1_20251106_212424,1762435431789,1,0.5098416209220886,0.3902517855167389,0.39791038632392883,0.6553109288215637,0.5831461548805237,3.18877911567688,2.155186653137207,1.3028687238693237,9.318622589111328,3.912869453430176,0.08139009773731232,0.031115921214222908,0.014030800200998783,30.605632781982422,-25.628658294677734,-4.988718032836914,0.10347914695739746,0.018960952758789062,0.03145408630371094,1.1993895769119263,9.299661636352539,3.881415367126465
1_20251106_212424,1762435431810,1,0.5093754529953003,0.3906414806842804,0.3984442353248596,0.655116856098175,0.5863479375839233,3.1890981197357178,2.1536788940429688,1.1676021814346313,9.309045791625977,3.878154993057251,0.10948986560106277,0.018898626789450645,-0.05560777708888054,30.567888259887695,-25.63265609741211,-4.827993392944336,-0.025429964065551758,0.00750732421875,-0.0026082992553710938,1.193032145500183,9.301538467407227,3.880763292312622
1_20251106_212424,1762435431828,1,0.5091035962104797,0.3909759819507599,0.39911746978759766,0.6547186970710754,0.588444173336029,3.1892073154449463,2.1523478031158447,1.0263502597808838,9.239617347717285,3.802741050720215,0.10948986560106277,0.018898626789450645,-0.05560777708888054,30.480792999267578,-25.65225601196289,-4.683012008666992,-0.13334548473358154,-0.049536705017089844,-0.06241774559020996,1.1596957445144653,9.289154052734375,3.865158796310425
1_20251106_212424,1762435431847,1,0.5089097023010254,0.3909686207771301,0.40006130933761597,0.6542976498603821,0.5901705622673035,3.1890006065368652,2.150346517562866,0.9569215178489685,9.180962562561035,3.6962034702301025,0.10460294783115387,0.03661370277404785,-0.07087939232587814,30.402868270874023,-25.721561431884766,-4.511562347412109,-0.1622193455696106,-0.08655357360839844,-0.1351642608642578,1.119140863418579,9.267516136169434,3.8313677310943604
1_20251106_212424,1762435431865,1,0.5087569355964661,0.39082592725753784,0.40114375948905945,0.6538388133049011,0.5911293029785156,3.188598871231079,2.1481640338897705,0.9090395569801331,9.17617416381836,3.6399424076080322,0.1027703583240509,0.04883100092411041,-0.06538161635398865,30.402090072631836,-25.71102523803711,-4.308553695678711,-0.1680811047554016,-0.0730733871459961,-0.15314030647277832,1.0771206617355347,9.249247550964355,3.7930827140808105
1_20251106_212424,1762435431885,1,0.5085271000862122,0.39067426323890686,0.4021378755569458,0.6534974575042725,0.5911293029785156,3.188598871231079,2.1481640338897705,0.9090395569801331,9.17617416381836,3.6399424076080322,0.066729336977005,0.0390571653842926,-0.00612773559987545,30.44098663330078,-25.647472381591797,-4.14356803894043,-0.1680811047554016,-0.0730733871459961,-0.15314030647277832,1.0771206617355347,9.249247550964355,3.7930827140808105
1_20251106_212424,1762435431904,1,0.508213996887207,0.39066511392593384,0.40289220213890076,0.6532818675041199,0.5917826294898987,3.187364101409912,2.142373561859131,0.9437539577484131,9.210887908935547,3.6459274291992188,0.07283798605203629,0.012789979577064514,0.02013944834470749,30.419954299926758,-25.574932098388672,-4.021318435668945,-0.08018338680267334,-0.021486282348632812,-0.08881664276123047,1.0239373445510864,9.23237419128418,3.734744071960449
1_20251106_212424,1762435431922,1,0.5078227519989014,0.3909796178340912,0.403462678194046,0.6530458331108093,0.5918712615966797,3.1866657733917236,2.1395299434661865,0.9988181591033936,9.17617416381836,3.6387453079223633,0.07283798605203629,0.012789979577064514,0.02013944834470749,30.400232315063477,-25.477413177490234,-3.8850250244140625,-0.020095348358154297,-0.04496002197265625,-0.07679891586303711,1.0189135074615479,9.221134185791016,3.7155442237854004
1_20251106_212424,1762435431942,1,0.5073480606079102,0.39142918586730957,0.40400564670562744,0.6528097987174988,0.5918712615966797,3.1866657733917236,2.1395299434661865,0.9988181591033936,9.17617416381836,3.6387453079223633,0.07772490382194519,0.019509492442011833,0.02319376915693283,30.42582893371582,-25.43936538696289,-3.761606216430664,-0.020095348358154297,-0.04496002197265625,-0.07679891586303711,1.0189135074615479,9.221134185791016,3.7155442237854004
1_20251106_212424,1762435431961,1,0.5068219900131226,0.3917413055896759,0.40451017022132874,0.652718722820282,0.5924206376075745,3.185206413269043,2.1326401233673096,1.0478973388671875,9.218070983886719,3.5872721672058105,0.056344643235206604,0.015233438462018967,0.004256964661180973,30.425533294677734,-25.439769744873047,-3.721057891845703,0.014910578727722168,-0.001194000244140625,-0.07883810997009277,1.0329867601394653,9.21926498413086,3.6661102771759033
1_20251106_212424,1762435431980,1,0.5064738988876343,0.3920736610889435,0.4049050211906433,0.6525444984436035,0.5925233364105225,3.184683084487915,2.1292667388916016,0.9712861180305481,9.268346786499023,3.613607406616211,0.027633992955088615,0.04760926961898804,-0.017734166234731674,30.43661880493164,-25.452068328857422,-3.666767120361328,-0.049360573291778564,0.03926563262939453,-0.042002201080322266,1.0206466913223267,9.229081153869629,3.655609607696533
1_20251106_212424,1762435431999,1,0.5062653422355652,0.3919343948364258,0.4053577780723572,0.6525089740753174,0.5924230813980103,3.1840145587921143,2.1258678436279297,0.9485421776771545,9.166597366333008,3.5848779678344727,0.021525347605347633,0.0647134780883789,-0.027508001774549484,30.44025421142578,-25.37753677368164,-3.584085464477539,-0.05768364667892456,-0.049986839294433594,-0.05658531188964844,1.006225824356079,9.216584205627441,3.641463279724121
1_20251106_212424,1762435432020,1,0.5061386823654175,0.3915381133556366,0.4059463143348694,0.6524792313575745,0.5919479727745056,3.183209180831909,2.1220853328704834,0.8958719968795776,9.185750961303711,3.577695846557617,0.023357940837740898,0.05005272850394249,-0.01590157300233841,30.440959930419922,-25.364978790283203,-3.583822250366211,-0.08828306198120117,-0.024666786193847656,-0.051013946533203125,0.9841550588607788,9.210417747497559,3.6287097930908203
1_20251106_212424,1762435432039,1,0.5059690475463867,0.3912483751773834,0.406440407037735,0.652476966381073,0.5919479727745056,3.183209180831909,2.1220853328704834,0.8958719968795776,9.185750961303711,3.577695846557617,0.011140644550323486,0.038446299731731415,-0.000629953108727932,30.394540786743164,-25.318599700927734,-3.5171470642089844,-0.08828306198120117,-0.024666786193847656,-0.051013946533203125,0.9841550588607788,9.210417747497559,3.6287097930908203
1_20251106_212424,1762435432057,1,0.5058709383010864,0.39101868867874146,0.4067757725715637,0.652481734752655,0.5913516283035278,3.1825621128082275,2.118755578994751,0.9293893575668335,9.237223625183105,3.659095287322998,0.013584105297923088,0.01706603355705738,0.006700423080474138,30.394540786743164,-25.318599700927734,-3.5171470642089844,-0.043812572956085205,0.021444320678710938,0.024308204650878906,0.9732019305229187,9.215779304504395,3.634787082672119
1_20251106_212424,1762435432077,1,0.5057170391082764,0.39087796211242676,0.40696555376052856,0.6525670289993286,0.5898312330245972,3.181762933731079,2.11403489112854,0.8994631767272949,9.301864624023438,3.8063321113586426,0.04901426285505295,0.004848738666623831,0.02013944834470749,30.415796279907227,-25.36764144897461,-3.476673126220703,-0.04815042018890381,0.06620311737060547,0.11859893798828125,0.9476135969161987,9.235661506652832,3.6877331733703613
1_20251106_212424,1762435432095,1,0.5054565668106079,0.390914648771286,0.40720176696777344,0.6525995135307312,0.589106559753418,3.181774139404297,2.112061023712158,0.96170973777771,9.34495735168457,3.675853729248047,0.09116392582654953,-0.005535961594432592,0.028691552579402924,30.438364028930664,-25.391704559326172,-3.4221553802490234,0.01127690076828003,0.08743667602539062,-0.009503364562988281,0.9504328370094299,9.25752067565918,3.685357093811035
1_20251106_212424,1762435432114,1,0.5049566030502319,0.39113566279411316,0.40765613317489624,0.6525704860687256,0.5886013507843018,3.1821630001068115,2.1098718643188477,1.0311386585235596,9.395233154296875,3.608819007873535,0.09971603751182556,-0.029970547184348106,0.028691552579402924,30.438068389892578,-25.392108917236328,-3.3816070556640625,0.06456464529037476,0.1101694107055664,-0.06123065948486328,0.9665740132331848,9.285063743591309,3.6700496673583984
1_20251106_212424,1762435432134,1,0.5045161843299866,0.3917892575263977,0.4080536663532257,0.652270495891571,0.5883433222770691,3.1828322410583496,2.107576608657837,1.0478973388671875,9.377277374267578,3.6351542472839355,0.09971603751182556,-0.029970547184348106,0.028691552579402924,30.48530387878418,-25.414180755615234,-3.366657257080078,0.0650586485862732,0.07377052307128906,-0.02791619300842285,0.9828386902809143,9.303506851196289,3.6630704402923584
1_20251106_212424,1762435432152,1,0.5042328834533691,0.3927615284919739,0.40844160318374634,0.65166175365448,0.5881679654121399,3.1835153102874756,2.10520339012146,1.0012123584747314,9.348548889160156,3.4962964057922363,0.11376592516899109,-0.053794268518686295,0.010976476594805717,30.546951293945312,-25.386043548583984,-3.269063949584961,0.014698922634124756,0.03603363037109375,-0.13341927528381348,0.9865134358406067,9.312515258789062,3.62971568107605
1_20251106_212424,1762435432171,1,0.5039084553718567,0.39366036653518677,0.4089762568473816,0.6510347127914429,0.5879930257797241,3.184246778488159,2.1019091606140137,0.9868477582931519,9.32939624786377,3.296388864517212,0.11376591771841049,-0.019585849717259407,0.0012026410549879074,30.6048641204834,-25.432567596435547,-3.2406349182128906,0.0002675056457519531,0.013504981994628906,-0.2666614055633545,0.9865802526473999,9.31589126586914,3.5630502700805664
1_20251106_212424,1762435432191,1,0.5035389065742493,0.39438319206237793,0.40963777899742126,0.650467038154602,0.587968111038208,3.185077428817749,2.097440242767334,1.0359268188476562,9.348548889160156,3.1766839027404785,0.059398964047431946,-0.0018707733834162354,0.006089558359235525,30.589365005493164,-25.484264373779297,-3.174600601196289,0.03947722911834717,0.02612590789794922,-0.30909299850463867,0.9964495897293091,9.322422981262207,3.485776901245117
1_20251106_212424,1762435432210,1,0.5033206939697266,0.3949820101261139,0.4101220667362213,0.6499671936035156,0.587968111038208,3.185077428817749,2.097440242767334,1.0359268188476562,9.348548889160156,3.1766839027404785,0.018471021205186844,0.0017944149440154433,-0.007349465042352676,30.59773063659668,-25.54665756225586,-3.1348819732666016,0.03947722911834717,0.02612590789794922,-0.30909299850463867,0.9964495897293091,9.322422981262207,3.485776901245117
1_20251106_212424,1762435432230,1,0.5032980442047119,0.39550623297691345,0.4104374349117279,0.6494666934013367,0.5881263017654419,3.1860406398773193,2.0925426483154297,1.056276559829712,9.37967300415039,3.2712509632110596,-0.018180862069129944,0.022563815116882324,-0.03544924408197403,30.574174880981445,-25.523937225341797,-3.0542373657226562,0.047861576080322266,0.045800209045410156,-0.17162084579467773,1.0084149837493896,9.33387279510498,3.4428718090057373
1_20251106_212424,1762435432249,1,0.503447949886322,0.39550289511680603,0.4106810986995697,0.6491984724998474,0.588348388671875,3.1888277530670166,2.083493947982788,0.9353746175765991,9.473041534423828,3.4591879844665527,-0.018180862069129944,0.022563815116882324,-0.03544924408197403,30.54789924621582,-25.551311492919922,-2.9881649017333984,-0.062259554862976074,0.08810997009277344,0.027296781539916992,0.9976341724395752,9.384931564331055,3.4318912029266357
1_20251106_212424,1762435432267,1,0.5038349032402039,0.3951411843299866,0.4109262526035309,0.6489633917808533,0.588348388671875,3.1888277530670166,2.083493947982788,0.9353746175765991,9.473041534423828,3.4591879844665527,-0.04322631657123566,0.04577667638659477,-0.053164321929216385,30.585063934326172,-25.536502838134766,-2.9729137420654297,-0.062259554862976074,0.08810997009277344,0.027296781539916992,0.9976341724395752,9.384931564331055,3.4318912029266357
1_20251106_212424,1762435432286,1,0.5041066408157349,0.3944638967514038,0.4112461507320404,0.6489617228507996,0.5869974493980408,3.1917033195495605,2.076848268508911,0.7773641347885132,9.388051986694336,3.6842329502105713,-0.04322631657123566,0.04577667638659477,-0.053164321929216385,30.552946090698242,-25.451663970947266,-2.904956817626953,-0.14652711153030396,-0.0043239593505859375,0.18486523628234863,0.9238912463188171,9.392375946044922,3.4993677139282227
1_20251106_212424,1762435432305,1,0.5042401552200317,0.3938681483268738,0.41154944896698,0.6490275263786316,0.5859388113021851,3.193197250366211,2.074471950531006,0.8611575961112976,9.428750991821289,3.708174228668213,0.005642862990498543,0.029283326119184494,0.034800197929143906,30.56473731994629,-25.451412200927734,-2.850400924682617,-0.05018693208694458,0.029100418090820312,0.16704511642456055,0.9113445281982422,9.399650573730469,3.5411291122436523
1_20251106_212424,1762435432324,1,0.5039850473403931,0.39343851804733276,0.411716490983963,0.6493802666664124,0.5850114822387695,3.194925308227539,2.0725815296173096,0.9545273780822754,9.476633071899414,3.700991630554199,0.037407830357551575,0.009124791249632835,0.05618046596646309,30.50391960144043,-25.44363784790039,-2.7714920043945312,0.03454631567001343,0.06158638000488281,0.12789011001586914,0.919981062412262,9.415046691894531,3.57310152053833
1_20251106_212424,1762435432344,1,0.5034589171409607,0.3934103548526764,0.4118514955043793,0.649719774723053,0.5844647884368896,3.1969141960144043,2.0709633827209473,1.0299415588378906,9.529302597045898,3.6315629482269287,0.040462151169776917,0.013400844298303127,0.04579576477408409,30.467361450195312,-25.44601821899414,-2.7729625701904297,0.08796840906143188,0.09140491485595703,0.04676938056945801,0.9419731497764587,9.437897682189941,3.5847935676574707
1_20251106_212424,1762435432363,1,0.5029019117355347,0.393442302942276,0.41200315952301025,0.650035560131073,0.5844647884368896,3.1969141960144043,2.0709633827209473,1.0299415588378906,9.529302597045898,3.6315629482269287,0.030688313767313957,0.026229003444314003,0.0195285826921463,30.442691802978516,-25.448009490966797,-2.7333946228027344,0.08796840906143188,0.09140491485595703,0.04676938056945801,0.9419731497764587,9.437897682189941,3.5847935676574707
1_20251106_212424,1762435432381,1,0.5025311708450317,0.39347895979881287,0.41218990087509155,0.6501817107200623,0.5842825174331665,3.1989877223968506,2.0696144104003906,1.0502912998199463,9.464662551879883,3.6638832092285156,0.020914481952786446,0.05249618738889694,-0.00796032976359129,30.469783782958984,-25.39632797241211,-2.7178421020507812,0.08665454387664795,0.021411895751953125,0.06327176094055176,0.9636367559432983,9.44325065612793,3.600611448287964
1_20251106_212424,1762435432400,1,0.5021710395812988,0.3931131958961487,0.4125247895717621,0.6504687070846558,0.5841382145881653,3.2022252082824707,2.0679261684417725,0.9557244777679443,9.428750991821289,3.6195926666259766,0.020914481952786446,0.05249618738889694,-0.00796032976359129,30.50804901123047,-25.368427276611328,-2.7563915252685547,-0.012724995613098145,-0.014642715454101562,0.0010395050048828125,0.9684494733810425,9.44339370727539,3.6185531616210938
1_20251106_212424,1762435432421,1,0.5018998980522156,0.3926960825920105,0.4130204916000366,0.6506153345108032,0.5839295387268066,3.2041873931884766,2.066756248474121,0.9365717172622681,9.49937629699707,3.548966407775879,0.038018688559532166,0.05371791869401932,-0.009182059206068516,30.473705291748047,-25.333003997802734,-2.770587921142578,-0.02550220489501953,0.04478645324707031,-0.055669307708740234,0.9620739221572876,9.45458984375,3.604635715484619
1_20251106_212424,1762435432439,1,0.5015982985496521,0.392386794090271,0.41352277994155884,0.6507154703140259,0.5837557911872864,3.2058186531066895,2.066014528274536,0.960512638092041,9.468254089355469,3.690218448638916,0.04168388247489929,0.028061596676707268,0.010365611873567104,30.411056518554688,-25.374103546142578,-2.8278961181640625,-0.001249074935913086,0.010931015014648438,0.0684661865234375,0.9617617130279541,9.45732307434082,3.6217522621154785
