session_id,timestamp,label,quaternion_w,quaternion_x,quaternion_y,quaternion_z,position_x,position_y,position_z,accelerometer_x,accelerometer_y,accelerometer_z,gyroscope_x,gyroscope_y,gyroscope_z,magnetometer_x,magnetometer_y,magnetometer_z,linear_acceleration_x,linear_acceleration_y,linear_acceleration_z,gravity_x,gravity_y,gravity_z
8_20251106_214554,1762436717329,8,0.21896833181381226,0.3932061791419983,0.7087970972061157,0.5431836247444153,-0.004666120745241642,3.2083282470703125,0.7036229968070984,1.4920026063919067,9.610702514648438,-3.0048787593841553,-0.08943059295415878,0.040626320987939835,0.18019744753837585,22.711666107177734,-16.977157592773438,24.52222442626953,0.16397297382354736,0.5090351104736328,0.3125157356262207,1.3280296325683594,9.101667404174805,-3.317394495010376
8_20251106_214554,1762436717346,8,0.21813654899597168,0.39413976669311523,0.7076011300086975,0.5443995594978333,0.0031251367181539536,3.214418411254883,0.6869794726371765,1.5626285076141357,9.671751976013184,-2.8588390350341797,-0.11264345049858093,0.03329594433307648,0.16492582857608795,22.55154037475586,-17.01300048828125,24.555870056152344,0.18767905235290527,0.4560680389404297,0.36684441566467285,1.3749494552612305,9.215683937072754,-3.2256834506988525
8_20251106_214554,1762436717365,8,0.21749302744865417,0.39492473006248474,0.7063921093940735,0.5456568598747253,0.0031251367181539536,3.214418411254883,0.6869794726371765,1.5626285076141357,9.671751976013184,-2.8588390350341797,-0.09676096588373184,0.0320742167532444,0.1319391429424286,22.508441925048828,-17.128662109375,24.579055786132812,0.18767905235290527,0.4560680389404297,0.36684441566467285,1.3749494552612305,9.215683937072754,-3.2256834506988525
8_20251106_214554,1762436717385,8,0.2169693559408188,0.39551442861557007,0.7053678631782532,0.5467621088027954,0.02071232721209526,3.230797052383423,0.657209038734436,1.5398845672607422,9.707662582397461,-2.6864638328552246,-0.014294234104454517,0.053454481065273285,0.0952872633934021,22.428672790527344,-17.258460998535156,24.5194091796875,0.10134482383728027,0.3162069320678711,0.3265223503112793,1.438539743423462,9.39145565032959,-3.012986183166504
8_20251106_214554,1762436717404,8,0.21624313294887543,0.3959413170814514,0.7048949003219604,0.5473504662513733,0.029391910880804062,3.2398788928985596,0.6434592604637146,1.4249677658081055,9.58077621459961,-2.964179039001465,0.0657290443778038,0.05711967125535011,0.06168970465660095,22.315670013427734,-17.328125,24.48664093017578,-0.010857582092285156,0.1514568328857422,0.03904581069946289,1.4358253479003906,9.429319381713867,-3.0032248497009277
8_20251106_214554,1762436717422,8,0.21538300812244415,0.3963114023208618,0.7049776911735535,0.5473151803016663,0.036461979150772095,3.2476985454559326,0.631189227104187,1.29329252243042,9.451494216918945,-3.211968421936035,0.0657290443778038,0.05711967125535011,0.06168970465660095,22.2281551361084,-17.371490478515625,24.495933532714844,-0.11402630805969238,0.017740249633789062,-0.16699481010437012,1.4073188304901123,9.433753967285156,-3.044973611831665
8_20251106_214554,1762436717442,8,0.21440957486629486,0.3964911997318268,0.7052345871925354,0.5472362041473389,0.04345446452498436,3.255922794342041,0.6174314618110657,1.25259268283844,9.42396354675293,-3.310126304626465,0.029077161103487015,0.0992693305015564,0.06046797335147858,22.123828887939453,-17.491531372070312,24.55721664428711,-0.12378096580505371,-0.007832527160644531,-0.21212220191955566,1.3763736486434937,9.431796073913574,-3.098004102706909
8_20251106_214554,1762436717462,8,0.2134084552526474,0.3965613842010498,0.705308735370636,0.5474810600280762,0.04345446452498436,3.255922794342041,0.6174314618110657,1.25259268283844,9.42396354675293,-3.310126304626465,-0.002687804400920868,0.0937715545296669,0.06657662242650986,22.059276580810547,-17.558425903320312,24.566959381103516,-0.12378096580505371,-0.007832527160644531,-0.21212220191955566,1.3763736486434937,9.431796073913574,-3.098004102706909
8_20251106_214554,1762436717479,8,0.21249960362911224,0.3965914845466614,0.705224335193634,0.5479212999343872,0.054160840809345245,3.2700421810150146,0.593017578125,1.1747844219207764,9.372489929199219,-3.0324108600616455,-0.022235475480556488,0.09621500968933105,0.08184824138879776,21.946372985839844,-17.627952575683594,24.520675659179688,-0.1338052749633789,-0.05021381378173828,0.07875323295593262,1.3085896968841553,9.422703742980957,-3.111164093017578
8_20251106_214554,1762436717499,8,0.21160392463207245,0.39668384194374084,0.7049692273139954,0.5485289692878723,0.05911211669445038,3.277013063430786,0.5813248753547668,1.2549868822097778,9.4275541305542,-2.996499538421631,-0.029565852135419846,0.10537797957658768,0.11239147931337357,21.953624725341797,-17.715057373046875,24.519317626953125,-0.042882323265075684,0.0038805007934570312,0.09173178672790527,1.2978692054748535,9.423673629760742,-3.088231325149536
8_20251106_214554,1762436717519,8,0.21050982177257538,0.39686650037765503,0.7045754194259644,0.549323320388794,0.06392928212881088,3.2835779190063477,0.5705320835113525,1.3351891040802002,9.404809951782227,-2.9845290184020996,-0.0014660749584436417,0.06445004791021347,0.13926950097084045,21.816364288330078,-17.774566650390625,24.566932678222656,0.029855966567993164,-0.0150909423828125,0.0829617977142334,1.305333137512207,9.419900894165039,-3.067490816116333
8_20251106_214554,1762436717540,8,0.2094915807247162,0.39756956696510315,0.7040956616401672,0.5498191118240356,0.06857451796531677,3.290034532546997,0.5608476996421814,1.3280067443847656,9.492195129394531,-2.8803858757019043,0.026022836565971375,0.018635191023349762,0.1514868140220642,21.70539093017578,-17.795082092285156,24.643352508544922,0.018138885498046875,0.05783557891845703,0.14968395233154297,1.3098678588867188,9.434359550476074,-3.0300698280334473
8_20251106_214554,1762436717557,8,0.20854753255844116,0.3985844552516937,0.7036552429199219,0.5500069260597229,0.07241271436214447,3.2953200340270996,0.5534641146659851,1.3495538234710693,9.467056274414062,-2.8313069343566895,0.04984656348824501,0.0320742167532444,0.1575954556465149,21.70539093017578,-17.795082092285156,24.643352508544922,0.03174877166748047,0.026157379150390625,0.1590101718902588,1.3178050518035889,9.440898895263672,-2.9903171062469482
8_20251106_214554,1762436717576,8,0.20739257335662842,0.3995792865753174,0.7033404111862183,0.5501245260238647,0.07708282023668289,3.3012595176696777,0.5455606579780579,1.442923665046692,9.451494216918945,-2.8755974769592285,0.07672461122274399,0.04001545533537865,0.14904335141181946,21.65494155883789,-17.823776245117188,24.681411743164062,0.10009491443634033,0.00847625732421875,0.09177565574645996,1.3428287506103516,9.443017959594727,-2.9673731327056885
8_20251106_214554,1762436717596,8,0.2061489075422287,0.4005465805530548,0.7031936049461365,0.5500761866569519,0.08169270306825638,3.3068623542785645,0.5383167862892151,1.3998297452926636,9.429948806762695,-2.880385637283325,0.07672461122274399,0.04001545533537865,0.14904335141181946,21.554336547851562,-17.880760192871094,24.71697998046875,0.0456007719039917,-0.010455131530761719,0.06958985328674316,1.3542289733886719,9.440403938293457,-2.9499754905700684
8_20251106_214554,1762436717615,8,0.20494110882282257,0.40127503871917725,0.7032493352890015,0.5499253273010254,0.08169270306825638,3.3068623542785645,0.5383167862892151,1.3998297452926636,9.429948806762695,-2.880385637283325,0.08833103626966476,0.049789294600486755,0.11727838963270187,21.493408203125,-17.884735107421875,24.714527130126953,0.0456007719039917,-0.010455131530761719,0.06958985328674316,1.3542289733886719,9.440403938293457,-2.9499754905700684
8_20251106_214554,1762436717633,8,0.20370440185070038,0.40165936946868896,0.703592836856842,0.5496647953987122,0.08906931430101395,3.3159143924713135,0.5252431035041809,1.2214694023132324,9.227646827697754,-3.0934605598449707,0.09871574491262436,0.09988020360469818,0.05252673104405403,21.46673583984375,-17.91265106201172,24.83466339111328,-0.0983729362487793,-0.16700077056884766,-0.10466289520263672,1.3198423385620117,9.394647598266602,-2.988797664642334
8_20251106_214554,1762436717653,8,0.20263704657554626,0.40122827887535095,0.7042200565338135,0.5495709180831909,0.0919407531619072,3.3191590309143066,0.5184305310249329,1.1077497005462646,9.068439483642578,-3.024031639099121,0.07672461122274399,0.13103429973125458,0.009766200557351112,21.416582107543945,-17.940940856933594,24.832172393798828,-0.16967415809631348,-0.26096630096435547,-0.028187274932861328,1.2774238586425781,9.329405784606934,-2.9958443641662598
8_20251106_214554,1762436717672,8,0.20168113708496094,0.400332510471344,0.705086350440979,0.5494650602340698,0.09323908388614655,3.3208162784576416,0.5125496983528137,0.8060933351516724,8.866137504577637,-2.898341417312622,0.0553443506360054,0.19334250688552856,-0.043989893049001694,21.317386627197266,-17.972816467285156,24.868270874023438,-0.37706446647644043,-0.37061500549316406,0.0780024528503418,1.1831578016281128,9.2367525100708,-2.976343870162964
8_20251106_214554,1762436717691,8,0.20085139572620392,0.39872556924819946,0.7061347961425781,0.549591064453125,0.09323908388614655,3.3208162784576416,0.5125496983528137,0.8060933351516724,8.866137504577637,-2.898341417312622,0.0553443506360054,0.19334250688552856,-0.043989893049001694,21.283042907714844,-17.937393188476562,24.854076385498047,-0.37706446647644043,-0.37061500549316406,0.0780024528503418,1.1831578016281128,9.2367525100708,-2.976343870162964
8_20251106_214554,1762436717710,8,0.19973541796207428,0.39597511291503906,0.7075239419937134,0.5501993298530579,0.08936239778995514,3.3186497688293457,0.5030112862586975,0.11778991669416428,8.310707092285156,-2.836094856262207,0.0009773839265108109,0.39981478452682495,-0.004283687099814415,21.187583923339844,-17.89459991455078,24.959339141845703,-0.7289512753486633,-0.6409339904785156,0.08746123313903809,0.8467411994934082,8.951641082763672,-2.923556089401245
8_20251106_214554,1762436717730,8,0.19803428649902344,0.3926125466823578,0.7089787125587463,0.5513501763343811,0.08333045989274979,3.3133692741394043,0.4984684884548187,0.035193510353565216,8.050947189331055,-2.834897994995117,-0.02834412083029747,0.4340232014656067,0.14782162010669708,21.054058074951172,-17.879440307617188,25.07611846923828,-0.6492381691932678,-0.720555305480957,0.07092666625976562,0.6844316720962524,8.771502494812012,-2.905824661254883
8_20251106_214554,1762436717748,8,0.19552338123321533,0.3896813988685608,0.7101119160652161,0.5528653264045715,0.07753906399011612,3.3072891235351562,0.49533307552337646,0.15968665480613708,7.852236747741699,-2.742725133895874,-0.025900661945343018,0.38515400886535645,0.35918083786964417,20.94500160217285,-17.862548828125,25.180362701416016,-0.41979601979255676,-0.73541259765625,0.1304795742034912,0.5794826745986938,8.58764934539795,-2.8732047080993652
8_20251106_214554,1762436717767,8,0.1913345456123352,0.38985782861709595,0.7094826102256775,0.5550102591514587,0.07059437036514282,3.2979378700256348,0.4925456941127777,0.424234539270401,7.746896743774414,-2.6373846530914307,0.0058643026277422905,0.325900137424469,0.5870333909988403,20.762731552124023,-17.850563049316406,25.295181274414062,-0.12419852614402771,-0.6726016998291016,0.18865609169006348,0.5484330654144287,8.419498443603516,-2.826040744781494
8_20251106_214554,1762436717785,8,0.18623879551887512,0.3919880986213684,0.7080126404762268,0.5571162700653076,0.0651024729013443,3.2880563735961914,0.49088937044143677,0.7294821739196777,7.653526782989502,-2.5308473110198975,0.0058643026277422905,0.325900137424469,0.5870333909988403,20.42998504638672,-17.93506622314453,25.30765151977539,0.14483928680419922,-0.6127772331237793,0.23615479469299316,0.5846428871154785,8.266304016113281,-2.7670021057128906
8_20251106_214554,1762436717806,8,0.18020424246788025,0.39568597078323364,0.7058991193771362,0.5591650009155273,0.06047358736395836,3.2749953269958496,0.49021920561790466,0.968891978263855,7.400949001312256,-2.412339448928833,0.07794634252786636,0.2843613624572754,0.9199546575546265,20.073192596435547,-17.997520446777344,25.46834945678711,0.30739927291870117,-0.692284107208252,0.28373026847839355,0.6614927053451538,8.093233108520508,-2.6960697174072266
8_20251106_214554,1762436717823,8,0.17324687540531158,0.40036627650260925,0.7033740878105164,0.561210572719574,0.05783877149224281,3.2617814540863037,0.49000000953674316,1.1987254619598389,7.262091636657715,-2.552394151687622,0.11398734897375107,0.34239351749420166,1.0421276092529297,19.727073669433594,-18.084434509277344,25.64252471923828,0.42978620529174805,-0.6649131774902344,0.11494040489196777,0.7689392566680908,7.927004814147949,-2.66733455657959
8_20251106_214554,1762436717844,8,0.16503910720348358,0.40555161237716675,0.700610339641571,0.5634137988090515,0.057575926184654236,3.24505877494812,0.48961949348449707,1.5973429679870605,7.0143022537231445,-2.7163901329040527,0.12559378147125244,0.3973712921142578,1.213169813156128,19.3284912109375,-18.237579345703125,25.840450286865234,0.6627229452133179,-0.7301616668701172,-0.03924441337585449,0.9346200227737427,7.744463920593262,-2.6771457195281982
8_20251106_214554,1762436717863,8,0.15551170706748962,0.4116458594799042,0.697217583656311,0.5659075975418091,0.06058230623602867,3.2273919582366943,0.48928993940353394,2.1168622970581055,6.806015491485596,-2.6720991134643555,0.12131772190332413,0.4437970519065857,1.3915421962738037,18.818008422851562,-18.447288513183594,25.95180892944336,0.945793867111206,-0.7507591247558594,0.004037380218505859,1.1710684299468994,7.556774616241455,-2.6761364936828613
8_20251106_214554,1762436717881,8,0.14468440413475037,0.41869381070137024,0.6930294632911682,0.568746030330658,0.06792496144771576,3.2082924842834473,0.4884099066257477,2.8063626289367676,6.712645530700684,-2.882779836654663,0.14575231075286865,0.5128247141838074,1.5491453409194946,18.242462158203125,-18.736183166503906,26.045616149902344,1.3082354068756104,-0.6753034591674805,-0.1653146743774414,1.4981272220611572,7.387948989868164,-2.7174651622772217
8_20251106_214554,1762436717901,8,0.13231050968170166,0.426340788602829,0.6882886290550232,0.5718270540237427,0.06792496144771576,3.2082924842834473,0.4884099066257477,2.8063626289367676,6.712645530700684,-2.882779836654663,0.14575231075286865,0.5128247141838074,1.5491453409194946,17.56824493408203,-19.033050537109375,26.29769515991211,1.3082354068756104,-0.6753034591674805,-0.1653146743774414,1.4981272220611572,7.387948989868164,-2.7174651622772217
8_20251106_214554,1762436717920,8,0.11902964115142822,0.43519362807273865,0.6827519536018372,0.5747070908546448,0.10027110576629639,3.1696791648864746,0.48243406414985657,4.615104675292969,7.136401176452637,-3.401102304458618,0.16591084003448486,0.4132538139820099,1.7598936557769775,16.868131637573242,-19.368362426757812,26.466903686523438,2.1478962898254395,-0.12594127655029297,-0.46415019035339355,2.4672083854675293,7.26234245300293,-2.9369521141052246
8_20251106_214554,1762436717940,8,0.10587455332279205,0.44475245475769043,0.67668217420578,0.5771369934082031,0.12649574875831604,3.1518516540527344,0.4779035151004791,5.2938313484191895,7.336308479309082,-3.304141044616699,0.13170242309570312,0.3295653462409973,1.6389424800872803,16.020488739013672,-19.726577758789062,26.7110595703125,2.261298418045044,0.059172630310058594,-0.29375123977661133,3.0325329303741455,7.277135848999023,-3.010389804840088
8_20251106_214554,1762436717959,8,0.09403817355632782,0.4539969861507416,0.6705381274223328,0.5791564583778381,0.16349223256111145,3.1338727474212646,0.47201746702194214,5.855247497558594,7.4979095458984375,-3.3472349643707275,0.05595520883798599,0.3552216589450836,1.4581265449523926,15.199220657348633,-20.057281494140625,26.875625610351562,2.258171558380127,0.1766190528869629,-0.26947617530822754,3.597075939178467,7.321290493011475,-3.0777587890625
8_20251106_214554,1762436717979,8,0.08322329819202423,0.4616846442222595,0.6646267175674438,0.5815432071685791,0.20620273053646088,3.1184487342834473,0.46467918157577515,6.635724067687988,7.598462104797363,-3.7398672103881836,0.05595520883798599,0.3552216589450836,1.4581265449523926,15.199220657348633,-20.057281494140625,26.875625610351562,2.4309186935424805,0.22173738479614258,-0.529686689376831,4.204805374145508,7.376724720001221,-3.2101805210113525
8_20251106_214554,1762436717998,8,0.07356290519237518,0.46798184514045715,0.6585517525672913,0.5847145318984985,0.24755829572677612,3.107248544692993,0.45738503336906433,7.331209182739258,7.948000907897949,-3.8332371711730957,-0.24642282724380493,0.3601085841655731,1.1026031970977783,14.313411712646484,-20.443260192871094,27.144817352294922,2.5011229515075684,0.45702075958251953,-0.4984452724456787,4.8300862312316895,7.49098014831543,-3.334791898727417
8_20251106_214554,1762436718016,8,0.0659630298614502,0.4731788635253906,0.6522279381752014,0.5885145664215088,0.30250710248947144,3.0962910652160645,0.4481942057609558,7.70109748840332,8.00426197052002,-3.6764235496520996,-0.3979172706604004,0.29657864570617676,0.8454291820526123,13.378352165222168,-20.844703674316406,27.384750366210938,2.296809196472168,0.4106254577636719,-0.27330541610717773,5.404288291931152,7.593636512756348,-3.403118133544922
8_20251106_214554,1762436718035,8,0.060845475643873215,0.477015882730484,0.6460669040679932,0.5927488803863525,0.30250710248947144,3.0962910652160645,0.4481942057609558,7.70109748840332,8.00426197052002,-3.6764235496520996,-0.48710352182388306,0.201894611120224,0.6420111656188965,12.515592575073242,-21.26568603515625,27.545997619628906,2.296809196472168,0.4106254577636719,-0.27330541610717773,5.404288291931152,7.593636512756348,-3.403118133544922
8_20251106_214554,1762436718054,8,0.05785173550248146,0.48005926609039307,0.6401817798614502,0.5969619154930115,0.4189533591270447,3.078794479370117,0.4313841164112091,7.9979658126831055,7.847448348999023,-3.3484320640563965,-0.5500226020812988,0.03635026887059212,0.53022301197052,11.656652450561523,-21.62348175048828,27.668018341064453,1.673168659210205,0.1656956672668457,0.06449437141418457,6.3247971534729,7.681752681732178,-3.412926435470581
8_20251106_214554,1762436718073,8,0.05677260458469391,0.48332303762435913,0.6342902779579163,0.6007091999053955,0.47650784254074097,3.071615695953369,0.4254070818424225,7.958463191986084,7.7684431076049805,-2.8959474563598633,-0.5921722650527954,-0.12613974511623383,0.4440910220146179,10.855106353759766,-22.05170440673828,27.696292877197266,1.3069329261779785,0.0693521499633789,0.41358327865600586,6.6515302658081055,7.699090957641602,-3.309530735015869
8_20251106_214554,1762436718092,8,0.057426124811172485,0.4869861304759979,0.6283749938011169,0.6038970351219177,0.5372364521026611,3.064206600189209,0.4217567443847656,7.750176906585693,7.622403144836426,-2.4554333686828613,-0.5866745114326477,-0.21227167546749115,0.3371897041797638,10.12728214263916,-22.462738037109375,27.741291046142578,0.8789172172546387,-0.06134986877441406,0.6832780838012695,6.871259689331055,7.68375301361084,-3.138711452484131
8_20251106_214554,1762436718111,8,0.05902860686182976,0.49025920033454895,0.6230132579803467,0.6066432595252991,0.6001347899436951,3.0559232234954834,0.4211660921573639,7.584983825683594,7.396161079406738,-2.132229804992676,-0.5683485269546509,-0.21227167546749115,0.18630608916282654,9.727861404418945,-22.876358032226562,27.690872192382812,0.570979118347168,-0.2300739288330078,0.8051853179931641,7.014004707336426,7.626235008239746,-2.93741512298584
8_20251106_214554,1762436718131,8,0.06139902397990227,0.4925289452075958,0.6184543967247009,0.6092286705970764,0.6001347899436951,3.0559232234954834,0.4211660921573639,7.584983825683594,7.396161079406738,-2.132229804992676,-0.5927831530570984,-0.18539361655712128,0.03053560107946396,9.32562255859375,-23.3402099609375,27.63939666748047,0.570979118347168,-0.2300739288330078,0.8051853179931641,7.014004707336426,7.626235008239746,-2.93741512298584
8_20251106_214554,1762436718149,8,0.06470426172018051,0.49374067783355713,0.6144066452980042,0.6119951009750366,0.6676555871963501,3.046015501022339,0.4235987365245819,7.501190662384033,7.286031723022461,-2.1082887649536133,-0.5927831530570984,-0.18539361655712128,0.03053560107946396,9.028301239013672,-23.683212280273438,27.445541381835938,0.38974905014038086,-0.27216243743896484,0.6633012294769287,7.111441612243652,7.558194160461426,-2.771589994430542
8_20251106_214554,1762436718169,8,0.06906140595674515,0.4942018985748291,0.6106274127960205,0.6149221062660217,0.7711625695228577,3.0298218727111816,0.43136921525001526,7.209110260009766,7.355461120605469,-2.1023035049438477,-0.7186212539672852,-0.27396899461746216,-0.1869322657585144,8.839344024658203,-24.044044494628906,27.24205780029297,0.043738365173339844,-0.13702726364135742,0.4450063705444336,7.165371894836426,7.492488384246826,-2.5473098754882812
8_20251106_214554,1762436718188,8,0.07470386475324631,0.49448511004447937,0.6068553328514099,0.6177624464035034,0.8218132257461548,3.0209665298461914,0.43764567375183105,7.170804977416992,7.227376937866211,-1.9000024795532227,-0.790703296661377,-0.38331377506256104,-0.2535164952278137,8.85824203491211,-24.390426635742188,26.95229721069336,0.0043468475341796875,-0.21208953857421875,0.5178461074829102,7.1664581298828125,7.43946647644043,-2.417848587036133
8_20251106_214554,1762436718206,8,0.0816863477230072,0.49492210149765015,0.6028763651847839,0.6204188466072083,0.8669173121452332,3.0125393867492676,0.4447641670703888,6.970897674560547,7.253711700439453,-1.8209971189498901,-0.790703296661377,-0.38331377506256104,-0.2535164952278137,8.958719253540039,-24.79430389404297,26.691680908203125,-0.1564483642578125,-0.1486039161682129,0.47748100757598877,7.127346038818359,7.402315616607666,-2.298478126525879
8_20251106_214554,1762436718226,8,0.09017598628997803,0.49605751037597656,0.5987626910209656,0.6223170161247253,0.8669173121452332,3.0125393867492676,0.4447641670703888,6.970897674560547,7.253711700439453,-1.8209971189498901,-0.7681013345718384,-0.7180676460266113,-0.3830198347568512,9.149124145507812,-25.116744995117188,26.38201904296875,-0.1564483642578125,-0.1486039161682129,0.47748100757598877,7.127346038818359,7.402315616607666,-2.298478126525879
8_20251106_214554,1762436718244,8,0.09977950155735016,0.49772021174430847,0.5950844883918762,0.6230514645576477,0.9494023323059082,2.9942586421966553,0.46372687816619873,5.964179039001465,7.075351715087891,-1.6079223155975342,-0.7681013345718384,-0.7180676460266113,-0.3830198347568512,9.459965705871582,-25.46796417236328,25.981853485107422,-0.8315725326538086,-0.23128318786621094,0.45076584815979004,6.795751571655273,7.306634902954102,-2.058688163757324
8_20251106_214554,1762436718264,8,0.10972312837839127,0.4993683099746704,0.5918418169021606,0.623149573802948,0.9826214909553528,2.9843552112579346,0.4743901193141937,5.526059150695801,6.911355972290039,-1.6330604553222656,-0.7326711416244507,-0.8151951432228088,-0.3970697224140167,9.86929702758789,-25.79987335205078,25.545326232910156,-1.0157537460327148,-0.31622314453125,0.3405022621154785,6.541812896728516,7.227579116821289,-1.9735627174377441
8_20251106_214554,1762436718283,8,0.11982668936252594,0.5013264417648315,0.5883140563964844,0.623056948184967,0.9826214909553528,2.9843552112579346,0.4743901193141937,5.526059150695801,6.911355972290039,-1.6330604553222656,-0.7919250726699829,-0.8854445815086365,-0.31826815009117126,10.403605461120605,-26.073204040527344,25.07421112060547,-1.0157537460327148,-0.31622314453125,0.3405022621154785,6.541812896728516,7.227579116821289,-1.9735627174377441
8_20251106_214554,1762436718303,8,0.13024361431598663,0.504080593585968,0.5838726758956909,0.6229221820831299,1.034468173980713,2.963977813720703,0.4978143274784088,4.852120399475098,7.220194339752197,-1.4259707927703857,-0.8407942056655884,-0.9782960414886475,-0.2651229202747345,10.947279930114746,-26.395973205566406,24.60253143310547,-1.143458366394043,0.0368351936340332,0.3876152038574219,5.995578765869141,7.183359146118164,-1.8135859966278076
8_20251106_214554,1762436718320,8,0.14107225835323334,0.5074977278709412,0.5787480473518372,0.622571587562561,1.0508900880813599,2.9552950859069824,0.510451078414917,4.435546875,7.161539077758789,-0.9914419054985046,-0.8823330402374268,-0.9978437423706055,-0.21686461567878723,11.586723327636719,-26.74951934814453,24.079917907714844,-1.2480254173278809,-0.0174560546875,0.6577152609825134,5.683572292327881,7.178995132446289,-1.649157166481018
8_20251106_214554,1762436718341,8,0.1518731415271759,0.5109916925430298,0.5731348395347595,0.6223652362823486,1.0642943382263184,2.9456613063812256,0.5277484655380249,4.252398490905762,7.1759033203125,-0.667041540145874,-0.9257044196128845,-0.9025488495826721,-0.18632139265537262,12.246606826782227,-27.176414489746094,23.516151428222656,-1.1449389457702637,-0.0024733543395996094,0.785692572593689,5.397337436676025,7.1783766746521,-1.452734112739563
8_20251106_214554,1762436718360,8,0.16220241785049438,0.5138526558876038,0.5671759843826294,0.6228621602058411,1.0720126628875732,2.938488483428955,0.5442014336585999,4.099176406860352,7.451225280761719,-0.49107521772384644,-0.9727410078048706,-0.807253897190094,-0.228471040725708,12.96097183227539,-27.499542236328125,22.942943572998047,-1.0385289192199707,0.2182788848876953,0.7693271040916443,5.137705326080322,7.232946395874023,-1.2604023218154907
8_20251106_214554,1762436718380,8,0.17260129749774933,0.5158212780952454,0.5611092448234558,0.6239339709281921,1.075999140739441,2.932774782180786,0.5656291246414185,3.774775981903076,7.900118827819824,-0.3079267144203186,-1.0228317975997925,-0.7144024968147278,-0.3255985379219055,13.672306060791016,-27.884780883789062,22.30083465576172,-1.0903434753417969,0.5337376594543457,0.7619804739952087,4.865119457244873,7.3663811683654785,-1.0699071884155273
8_20251106_214554,1762436718399,8,0.18325234949588776,0.5164427757263184,0.5553724765777588,0.6255132555961609,1.0752428770065308,2.930506467819214,0.5853133201599121,3.239694833755493,8.334648132324219,-0.16188669204711914,-1.0436012744903564,-0.6478182077407837,-0.4850342273712158,14.323118209838867,-28.2618408203125,21.697086334228516,-1.3003394603729248,0.7746133804321289,0.7264164090156555,4.540034294128418,7.56003475189209,-0.8883031010627747
8_20251106_214554,1762436718417,8,0.19458991289138794,0.5155929923057556,0.550409197807312,0.6271748542785645,1.068719744682312,2.930954694747925,0.6077611446380615,2.438868522644043,8.552511215209961,0.09907009452581406,-1.041157841682434,-0.5690166354179382,-0.6291982531547546,14.323118209838867,-28.2618408203125,21.697086334228516,-1.6809325218200684,0.7939810752868652,0.7898985743522644,4.119801044464111,7.758530139923096,-0.6908285021781921
8_20251106_214554,1762436718436,8,0.20638404786586761,0.5133207440376282,0.5463219285011292,0.6288400888442993,1.0557268857955933,2.934238910675049,0.6323112845420837,1.6428308486938477,8.800300598144531,0.48451998829841614,-1.041157841682434,-0.5690166354179382,-0.6291982531547546,14.966864585876465,-28.563133239746094,20.97278594970703,-1.9815762042999268,0.8334159851074219,0.9402787685394287,3.6244070529937744,7.966884613037109,-0.45575881004333496
8_20251106_214554,1762436718455,8,0.2178654670715332,0.5098617076873779,0.5429677963256836,0.6306834816932678,1.0356743335723877,2.940387725830078,0.6576815843582153,0.8144726157188416,9.070833206176758,0.2905980050563812,-0.9171522855758667,-0.2770233154296875,-0.6835652589797974,15.604872703552246,-28.96501922607422,20.2598876953125,-2.2479474544525146,0.8831586837768555,0.5970854759216309,3.062420129776001,8.187674522399902,-0.30648747086524963
8_20251106_214554,1762436718474,8,0.22808240354061127,0.5054498910903931,0.5404092669487,0.6328164339065552,1.0087556838989258,2.948579788208008,0.6830044388771057,0.1944010704755783,9.044498443603516,0.13857272267341614,-0.8267443180084229,-0.2348736673593521,-0.5455098152160645,16.20853614807129,-29.33148193359375,19.532794952392578,-2.294415235519409,0.6854591369628906,0.3560481667518616,2.488816261291504,8.359039306640625,-0.21747544407844543
8_20251106_214554,1762436718493,8,0.23682047426700592,0.5015133619308472,0.5379379987716675,0.6348410248756409,0.9757024645805359,2.958042621612549,0.7081102728843689,-0.23773373663425446,8.971478462219238,0.1649078130722046,-0.8267443180084229,-0.2348736673593521,-0.5455098152160645,16.838178634643555,-29.670974731445312,18.78017807006836,-2.1812400817871094,0.48995113372802734,0.30590659379959106,1.9435062408447266,8.481527328491211,-0.14099879562854767
8_20251106_214554,1762436718512,8,0.24429845809936523,0.4991495907306671,0.5343508124351501,0.6368964910507202,0.93707275390625,2.9689347743988037,0.7339791655540466,-0.6914154291152954,9.174976348876953,0.594648540019989,-0.7845946550369263,-0.35093796253204346,-0.053152862936258316,17.388256072998047,-29.915435791015625,18.012725830078125,-2.1079373359680176,0.5547590255737305,0.5885179042816162,1.4165220260620117,8.620217323303223,0.0061306580901145935
8_20251106_214554,1762436718531,8,0.25056689977645874,0.49843722581863403,0.5295230150222778,0.6390476822853088,0.8927454352378845,2.9815335273742676,0.7606356143951416,-1.3641571998596191,9.44072151184082,0.7646295428276062,-0.6770824790000916,-0.3173404037952423,0.172256201505661,17.923540115356445,-30.19903564453125,17.311569213867188,-2.224543571472168,0.6564035415649414,0.6067991256713867,0.8603862524032593,8.784317970275879,0.15783041715621948
8_20251106_214554,1762436718551,8,0.25484758615493774,0.49876388907432556,0.5243604779243469,0.6413527727127075,0.8411096334457397,2.9962077140808105,0.7882015109062195,-1.5437146425247192,9.467056274414062,0.4569878578186035,-0.49260133504867554,-0.2971818447113037,0.46852561831474304,18.411884307861328,-30.460159301757812,16.554916381835938,-1.9232807159423828,0.5461902618408203,0.23932595551013947,0.37956610321998596,8.920866012573242,0.21766190230846405
8_20251106_214554,1762436718570,8,0.25633594393730164,0.5006682872772217,0.5191168785095215,0.6435377597808838,0.791054368019104,3.0115408897399902,0.8137626051902771,-0.8793522119522095,9.682525634765625,0.46656423807144165,-0.49260133504867554,-0.2971818447113037,0.46852561831474304,18.866588592529297,-30.673301696777344,15.784332275390625,-1.0071346759796143,0.6093273162841797,0.1991218626499176,0.1277824491262436,9.073198318481445,0.26744237542152405
8_20251106_214554,1762436718589,8,0.25477880239486694,0.5039461255073547,0.5130885243415833,0.646425724029541,0.7441542744636536,3.0287742614746094,0.8388743996620178,0.36557915806770325,10.045230865478516,0.5695104598999023,-0.4742753803730011,0.037571996450424194,1.065340518951416,19.058971405029297,-30.9930419921875,15.204341888427734,0.1902373731136322,0.7776260375976562,0.24165448546409607,0.17534178495407104,9.26760482788086,0.3278559744358063
8_20251106_214554,1762436718609,8,0.25095734000205994,0.5069221258163452,0.5057451128959656,0.6513618230819702,0.7031984329223633,3.0491251945495605,0.8632786870002747,1.48721444606781,10.717973709106445,0.5276137590408325,-0.6135525703430176,0.2171662300825119,1.1087119579315186,19.101905822753906,-31.373085021972656,14.671478271484375,1.0494980812072754,1.1602954864501953,0.15980622172355652,0.4377163052558899,9.55767822265625,0.367807537317276
8_20251106_214554,1762436718627,8,0.24651215970516205,0.5087108016014099,0.49758487939834595,0.6579167246818542,0.7031984329223633,3.0491251945495605,0.8632786870002747,1.48721444606781,10.717973709106445,0.5276137590408325,-0.7131235003471375,0.33384138345718384,0.9352262616157532,19.04854965209961,-31.746246337890625,14.067371368408203,1.0494980812072754,1.1602954864501953,0.15980622172355652,0.4377163052558899,9.55767822265625,0.367807537317276
8_20251106_214554,1762436718646,8,0.24297001957893372,0.508759617805481,0.4897848069667816,0.6650112867355347,0.6404006481170654,3.101987838745117,0.9173268675804138,2.2736759185791016,11.785741806030273,2.195103645324707,-0.7723773717880249,0.5751329660415649,0.6090245246887207,18.774646759033203,-32.146942138671875,13.52175521850586,1.199721336364746,1.4832277297973633,1.328820824623108,1.0739545822143555,10.30251407623291,0.8662828207015991
8_20251106_214554,1762436718665,8,0.24063055217266083,0.5055077075958252,0.4836181700229645,0.6728093028068542,0.6404006481170654,3.101987838745117,0.9173268675804138,2.2736759185791016,11.785741806030273,2.195103645324707,-0.7039605379104614,0.9300453066825867,0.29320743680000305,18.314441680908203,-32.6107177734375,13.062339782714844,1.199721336364746,1.4832277297973633,1.328820824623108,1.0739545822143555,10.30251407623291,0.8662828207015991
8_20251106_214554,1762436718685,8,0.23826844990253448,0.4984273314476013,0.4801606237888336,0.6813546419143677,0.6148287057876587,3.1353375911712646,0.9513250589370728,2.0210986137390137,11.95811653137207,2.63442063331604,-0.6172177791595459,1.2996184825897217,0.26205331087112427,17.768638610839844,-33.08045959472656,12.64004135131836,0.7577152252197266,1.3244819641113281,1.4145102500915527,1.263383388519287,10.633634567260742,1.2199103832244873
8_20251106_214554,1762436718704,8,0.23400290310382843,0.48883694410324097,0.478201299905777,0.6910894513130188,0.5779568552970886,3.2021782398223877,1.016258716583252,2.628002643585205,12.15443229675293,1.8862648010253906,-0.6037787199020386,1.2660208940505981,0.4752451181411743,17.175907135009766,-33.51611328125,12.257120132446289,0.9597353935241699,1.0225334167480469,0.37935101985931396,1.6682672500610352,11.131898880004883,1.5069137811660767
8_20251106_214554,1762436718723,8,0.22824949026107788,0.48043376207351685,0.47529155015945435,0.7008448243141174,0.565065324306488,3.242260217666626,1.0531284809112549,2.946417808532715,12.79006576538086,2.775672674179077,-0.5439139604568481,1.0002946853637695,0.6230744123458862,16.485815048217773,-33.93476104736328,12.046516418457031,1.0225205421447754,1.326533317565918,1.0150072574615479,1.9238972663879395,11.463532447814941,1.7606654167175293
8_20251106_214554,1762436718741,8,0.2225278913974762,0.4747740626335144,0.47134289145469666,0.709159255027771,0.5567200779914856,3.2806692123413086,1.0892088413238525,3.0110583305358887,13.144392013549805,3.611213207244873,-0.3398851156234741,1.0705441236495972,0.5332772731781006,15.735384941101074,-34.3565673828125,11.752361297607422,0.8697288036346436,1.3446874618530273,1.480438232421875,2.141329526901245,11.799704551696777,2.130774974822998
8_20251106_214554,1762436718761,8,0.2159629613161087,0.46835219860076904,0.46934375166893005,0.7167444825172424,0.551228404045105,3.3241426944732666,1.1304805278778076,3.2325124740600586,12.7637300491333,3.1790781021118164,-0.1401323825120926,1.3851395845413208,0.3994978964328766,14.960363388061523,-34.64226531982422,11.578231811523438,0.8729465007781982,0.7712202072143555,0.8386425971984863,2.3595659732818604,11.992509841918945,2.34043550491333
8_20251106_214554,1762436718780,8,0.20800010859966278,0.4593994617462158,0.46982541680336,0.7245358228683472,0.550094485282898,3.3623242378234863,1.165796160697937,3.805899143218994,12.40341854095459,2.351917266845703,-0.022235475480556488,1.44866943359375,0.4141586422920227,14.212678909301758,-34.990753173828125,11.488405227661133,1.1570665836334229,0.32872676849365234,0.009185314178466797,2.6488325595855713,12.074691772460938,2.3427319526672363
8_20251106_214554,1762436718799,8,0.19912397861480713,0.4504210650920868,0.4710441827774048,0.7318387031555176,0.550094485282898,3.3623242378234863,1.165796160697937,3.805899143218994,12.40341854095459,2.351917266845703,-0.022235475480556488,1.44866943359375,0.4141586422920227,13.480100631713867,-35.2880859375,11.386608123779297,1.1570665836334229,0.32872676849365234,0.009185314178466797,2.6488325595855713,12.074691772460938,2.3427319526672363
8_20251106_214554,1762436718820,8,0.18998688459396362,0.4436876177787781,0.47179847955703735,0.7378702163696289,0.5562043786048889,3.4067437648773193,1.2057652473449707,4.667774677276611,12.09817123413086,2.0610342025756836,0.17079776525497437,1.0369466543197632,0.5479380488395691,12.730619430541992,-35.43766784667969,11.422161102294922,1.6151537895202637,0.0187835693359375,-0.225358247756958,3.0526208877563477,12.079387664794922,2.2863924503326416
8_20251106_214554,1762436718838,8,0.1811077892780304,0.4389548599720001,0.47272688150405884,0.742326021194458,0.5820351243019104,3.476503610610962,1.2670801877975464,5.249540328979492,12.280122756958008,2.1232805252075195,0.37665921449661255,1.112083077430725,0.36040255427360535,12.730619430541992,-35.43766784667969,11.422161102294922,1.4010486602783203,0.16256237030029297,-0.10534930229187012,3.848491668701172,12.117560386657715,2.2286298274993896
8_20251106_214554,1762436718856,8,0.17221495509147644,0.43319424986839294,0.47592559456825256,0.7457744479179382,0.5994398593902588,3.5070364475250244,1.2928893566131592,5.351289749145508,11.704341888427734,1.6001698970794678,0.4884474277496338,1.4798234701156616,0.14782162010669708,11.957767486572266,-35.57587432861328,11.416448593139648,1.2022385597229004,-0.33057498931884766,-0.5027680397033691,4.149051189422607,12.034916877746582,2.102937936782837
8_20251106_214554,1762436718876,8,0.1627212017774582,0.4239814877510071,0.48132234811782837,0.7497268319129944,0.6236897706985474,3.536830425262451,1.3169445991516113,6.082686901092529,11.233901977539062,1.054315447807312,0.4004828929901123,1.6673589944839478,0.15576285123825073,11.145254135131836,-35.75548553466797,11.543634414672852,1.5469083786010742,-0.6408119201660156,-0.8388980627059937,4.535778522491455,11.874713897705078,1.8932135105133057
8_20251106_214554,1762436718894,8,0.15262265503406525,0.41340816020965576,0.48621684312820435,0.7545814514160156,0.6504432559013367,3.561433792114258,1.3361358642578125,6.98047399520874,11.52119255065918,1.3344250917434692,0.4004828929901123,1.6673589944839478,0.15576285123825073,10.358423233032227,-35.908531188964844,11.685846328735352,1.955756664276123,-0.28281688690185547,-0.44703078269958496,5.024717330932617,11.804009437561035,1.7814558744430542
8_20251106_214554,1762436718914,8,0.14334335923194885,0.4045864939689636,0.48850905895233154,0.7596850395202637,0.6868738532066345,3.587930679321289,1.3587206602096558,7.719053268432617,11.977269172668457,2.5470361709594727,-0.00818558782339096,1.1475130319595337,0.315809428691864,9.590642929077148,-35.923866271972656,11.95309829711914,2.1554689407348633,0.13860797882080078,0.612464189529419,5.563584327697754,11.838661193847656,1.9345719814300537
8_20251106_214554,1762436718933,8,0.13590186834335327,0.3981468081474304,0.4887685775756836,0.7642741799354553,0.727853536605835,3.6118927001953125,1.3845442533493042,8.516288757324219,11.856367111206055,3.9176573753356934,0.005864300765097141,0.972805917263031,0.21807105839252472,8.833343505859375,-35.96392059326172,12.260862350463867,2.362163543701172,0.014164924621582031,1.58646821975708,6.154125213623047,11.842202186584473,2.3311891555786133
8_20251106_214554,1762436718953,8,0.1297275722026825,0.3923483192920685,0.48912161588668823,0.7681103944778442,0.7749662399291992,3.6337528228759766,1.4144341945648193,9.136360168457031,11.512813568115234,4.283954620361328,0.005864300765097141,0.972805917263031,0.21807105839252472,8.125775337219238,-35.99945068359375,12.4354248046875,2.3857879638671875,-0.26351070404052734,1.5622124671936035,6.750572204589844,11.776324272155762,2.7217421531677246
8_20251106_214554,1762436718971,8,0.12414659559726715,0.3858264684677124,0.4909135103225708,0.7711870670318604,0.8266696333885193,3.6533241271972656,1.4468694925308228,9.282400131225586,11.340438842773438,4.194175720214844,0.41697627305984497,0.9422626495361328,-0.18509964644908905,7.459712505340576,-35.93309020996094,12.708183288574219,2.0254621505737305,-0.3487081527709961,1.1779470443725586,7.2569379806518555,11.689146995544434,3.016228675842285
8_20251106_214554,1762436718991,8,0.11956840008497238,0.379005491733551,0.49512967467308044,0.7725961804389954,0.880885124206543,3.6697022914886475,1.480635643005371,9.114812850952148,10.88196849822998,4.092426776885986,0.674150288105011,0.8237549066543579,-0.4404411017894745,6.934553146362305,-35.94563293457031,13.039045333862305,1.486299991607666,-0.6457424163818359,0.8609585762023926,7.628512859344482,11.527710914611816,3.2314682006835938
8_20251106_214554,1762436719009,8,0.11644429713487625,0.37217646837234497,0.5019444227218628,0.7719956040382385,0.9356926083564758,3.6815521717071533,1.5141264200210571,8.832308769226074,10.17570972442627,3.7464795112609863,0.674150288105011,0.8237549066543579,-0.4404411017894745,6.500136852264404,-35.85243225097656,13.402484893798828,0.9630365371704102,-1.0816011428833008,0.41200923919677734,7.869272232055664,11.25731086730957,3.334470272064209
8_20251106_214554,1762436719029,8,0.11478343605995178,0.36564627289772034,0.5105207562446594,0.769737720489502,0.9923723936080933,3.6884145736694336,1.547661542892456,8.485164642333984,9.616687774658203,3.3490593433380127,0.9203287363052368,0.4890010356903076,-0.7434300184249878,6.1539411544799805,-35.70330810546875,13.75689697265625,0.49271392822265625,-1.3124980926513672,0.011671304702758789,7.992450714111328,10.92918586730957,3.337388038635254
8_20251106_214554,1762436719047,8,0.11454382538795471,0.3601042628288269,0.5196518301963806,0.7662679553031921,1.041442632675171,3.6903131008148193,1.576100468635559,8.23976993560791,9.317424774169922,3.2425217628479004,0.9197179079055786,0.23427042365074158,-0.8436117768287659,5.892441749572754,-35.56104278564453,14.100959777832031,0.19785594940185547,-1.2894096374511719,-0.07589292526245117,8.041913986206055,10.606834411621094,3.3184146881103516
8_20251106_214554,1762436719067,8,0.11625675857067108,0.35591763257980347,0.5287814736366272,0.7617067098617554,1.0936839580535889,3.6879897117614746,1.60538649559021,8.188297271728516,9.183355331420898,3.077329158782959,0.877568244934082,0.07483474910259247,-1.0335906744003296,5.920440673828125,-35.275062561035156,14.645599365234375,0.11710643768310547,-1.1387834548950195,-0.19286847114562988,8.07119083404541,10.322138786315918,3.270197629928589
8_20251106_214554,1762436719085,8,0.12021326273679733,0.3518175184726715,0.5379911661148071,0.7565307021141052,1.0936839580535889,3.6879897117614746,1.60538649559021,8.188297271728516,9.183355331420898,3.077329158782959,0.8097622394561768,0.040626320987939835,-1.3225297927856445,6.105912208557129,-34.942176818847656,15.132396697998047,0.11710643768310547,-1.1387834548950195,-0.19286847114562988,8.07119083404541,10.322138786315918,3.270197629928589
8_20251106_214554,1762436719104,8,0.1266564130783081,0.34644535183906555,0.5474911332130432,0.7511239647865295,1.1810283660888672,3.671611785888672,1.6496201753616333,7.35515022277832,8.123967170715332,2.0323047637939453,0.7816624641418457,0.07178042829036713,-1.5699299573898315,6.427360534667969,-34.551536560058594,15.747291564941406,-0.5479011535644531,-1.5192575454711914,-0.8847596645355225,7.903051376342773,9.643224716186523,2.9170644283294678
8_20251106_214554,1762436719124,8,0.1347118318080902,0.33950096368789673,0.5575616359710693,0.7454641461372375,1.2181153297424316,3.6564953327178955,1.6646229028701782,6.641708850860596,7.858222007751465,1.2578139305114746,0.6967522501945496,0.14386247098445892,-1.6572835445404053,6.837733745574951,-34.09241485595703,16.353424072265625,-1.0090737342834473,-1.4280023574829102,-1.3274004459381104,7.650782585144043,9.286224365234375,2.585214376449585
8_20251106_214554,1762436719144,8,0.14320702850818634,0.33142098784446716,0.5673257112503052,0.7401306629180908,1.2489734888076782,3.6381545066833496,1.6729280948638916,6.056352138519287,7.835477828979492,0.41748520731925964,0.5806879997253418,0.14691679179668427,-1.590699315071106,7.522543907165527,-33.5028076171875,16.972721099853516,-1.2755441665649414,-1.1605968475341797,-1.7341833114624023,7.3318963050842285,8.996074676513672,2.1516685485839844
8_20251106_214554,1762436719162,8,0.1515219509601593,0.32341599464416504,0.5760790109634399,0.7352388501167297,1.2489734888076782,3.6381545066833496,1.6729280948638916,6.056352138519287,7.835477828979492,0.41748520731925964,0.426139235496521,0.008250490762293339,-1.4117159843444824,8.257705688476562,-32.8846435546875,17.567474365234375,-1.2755441665649414,-1.1605968475341797,-1.7341833114624023,7.3318963050842285,8.996074676513672,2.1516685485839844
8_20251106_214554,1762436719181,8,0.1599154770374298,0.31718435883522034,0.5829803347587585,0.7307222485542297,1.2956080436706543,3.5970919132232666,1.6708992719650269,5.899538040161133,8.436397552490234,-0.04457584023475647,0.426139235496521,0.008250490762293339,-1.4117159843444824,9.02881908416748,-32.276512145996094,18.149921417236328,-0.9270515441894531,-0.2869443893432617,-1.394679307937622,6.826589584350586,8.723341941833496,1.350103497505188
8_20251106_214554,1762436719200,8,0.1685675084590912,0.3131765127182007,0.5879344344139099,0.7265250086784363,1.3134739398956299,3.577180862426758,1.6641590595245361,5.781030654907227,8.88888168334961,0.24032191932201385,0.16529998183250427,-0.3222272992134094,-1.0928446054458618,9.891058921813965,-31.573707580566406,18.61600112915039,-0.8364472389221191,0.1324319839477539,-0.8878251910209656,6.617477893829346,8.756449699401855,1.1281471252441406
8_20251106_214554,1762436719219,8,0.17721007764339447,0.3105284869670868,0.5914903879165649,0.7227086424827576,1.3273227214813232,3.560661554336548,1.6553215980529785,5.788212776184082,9.285104751586914,0.12420812249183655,0.06817250698804855,-0.4254634380340576,-1.0745186805725098,10.738899230957031,-30.909507751464844,19.094314575195312,-0.6634120941162109,0.4229240417480469,-0.8031512498855591,6.451624870300293,8.862180709838867,0.9273593425750732
8_20251106_214554,1762436719239,8,0.1865873485803604,0.30846667289733887,0.5940491557121277,0.7191238403320312,1.3273227214813232,3.560661554336548,1.6553215980529785,5.788212776184082,9.285104751586914,0.12420812249183655,-0.04178314656019211,-0.559242844581604,-1.1191117763519287,11.599617004394531,-30.243568420410156,19.478504180908203,-0.6634120941162109,0.4229240417480469,-0.8031512498855591,6.451624870300293,8.862180709838867,0.9273593425750732
8_20251106_214554,1762436719259,8,0.19727414846420288,0.3068443238735199,0.5957037806510925,0.7155882120132446,1.3458539247512817,3.5354137420654297,1.6366946697235107,5.157367706298828,9.818989753723145,1.0902268886566162,-0.029565852135419846,-0.6441530585289001,-1.1728678941726685,12.481874465942383,-29.63788604736328,19.767742156982422,-0.8936362266540527,0.6412792205810547,0.17663276195526123,6.051003932952881,9.17771053314209,0.913594126701355
8_20251106_214554,1762436719276,8,0.2086866796016693,0.30534374713897705,0.5973272919654846,0.7116284966468811,1.3478152751922607,3.528090476989746,1.6301426887512207,4.265565872192383,9.900388717651367,1.1333208084106445,-0.029565852135419846,-0.6441530585289001,-1.1728678941726685,12.481874465942383,-29.63788604736328,19.767742156982422,-1.4283504486083984,0.5781431198120117,0.17578136920928955,5.693916320800781,9.322245597839355,0.957539439201355
8_20251106_214554,1762436719296,8,0.22081798315048218,0.30350664258003235,0.5993058681488037,0.7070753574371338,1.3426848649978638,3.521510362625122,1.6220369338989258,3.2851827144622803,9.850112915039062,0.699988842010498,-0.06438513845205307,-0.6618680953979492,-1.3188645839691162,13.435317993164062,-29.076454162597656,19.93722152709961,-1.9269869327545166,0.42229366302490234,-0.20604050159454346,5.212169647216797,9.42781925201416,0.9060293436050415
8_20251106_214554,1762436719315,8,0.23341073095798492,0.3008478581905365,0.6009213924407959,0.7027826905250549,1.3426848649978638,3.521510362625122,1.6220369338989258,3.2851827144622803,9.850112915039062,0.699988842010498,-0.30140066146850586,-0.6166641116142273,-1.3219189643859863,14.291359901428223,-28.532852172851562,19.994380950927734,-1.9269869327545166,0.42229366302490234,-0.20604050159454346,5.212169647216797,9.42781925201416,0.9060293436050415
8_20251106_214554,1762436719334,8,0.2464776188135147,0.2971898317337036,0.60108482837677,0.6997313499450684,1.3095494508743286,3.5126333236694336,1.6029855012893677,1.4740467071533203,9.724422454833984,0.18884879350662231,-0.30140066146850586,-0.6166641116142273,-1.3219189643859863,15.204893112182617,-28.059539794921875,19.944278717041016,-2.5276174545288086,0.1754617691040039,-0.48044663667678833,4.001664161682129,9.54896068572998,0.6692954301834106
8_20251106_214554,1762436719353,8,0.25953224301338196,0.29352155327796936,0.599541962146759,0.697880744934082,1.2818655967712402,3.5090672969818115,1.5929688215255737,1.0263503789901733,9.638235092163086,0.5192344188690186,-0.5811767578125,-0.8133625388145447,-0.9596760272979736,16.119525909423828,-27.573135375976562,19.840377807617188,-2.380250930786133,0.07141971588134766,-0.12004876136779785,3.4066014289855957,9.566815376281738,0.6392831802368164
8_20251106_214554,1762436719372,8,0.2720729112625122,0.2921963632106781,0.5963773131370544,0.6963704228401184,1.249153733253479,3.506525754928589,1.5852288007736206,1.069444179534912,9.875249862670898,1.2865431308746338,-0.4785514175891876,-1.140786051750183,-0.6450808048248291,17.06588363647461,-27.17211151123047,19.722583770751953,-1.8697259426116943,0.2467479705810547,0.5178079605102539,2.9391701221466064,9.628501892089844,0.7687351703643799
8_20251106_214554,1762436719390,8,0.28417590260505676,0.29502633213996887,0.5920197367668152,0.6940577030181885,1.2156985998153687,3.505638837814331,1.5816247463226318,1.3088539838790894,10.197257041931152,2.134054183959961,-0.32217004895210266,-1.3338192701339722,-0.44654974341392517,18.00687026977539,-26.894371032714844,19.372371673583984,-1.3042529821395874,0.4550037384033203,1.0922552347183228,2.6131069660186768,9.742253303527832,1.0417989492416382
8_20251106_214554,1762436719410,8,0.29528993368148804,0.30032768845558167,0.587520182132721,0.6909610033035278,1.1774933338165283,3.507366895675659,1.5815776586532593,1.661983609199524,10.61861801147461,2.2776999473571777,-0.16945388913154602,-1.3478692770004272,-0.43127813935279846,18.911697387695312,-26.61846923828125,18.966625213623047,-0.7608987092971802,0.7010917663574219,0.9887207746505737,2.422882318496704,9.917526245117188,1.288979172706604
8_20251106_214554,1762436719430,8,0.30592939257621765,0.3061847388744354,0.5836799740791321,0.6870049834251404,1.1393474340438843,3.511871337890625,1.5842511653900146,1.8140089511871338,10.859224319458008,2.183133125305176,-0.0833219438791275,-1.3216019868850708,-0.568722665309906,19.80966567993164,-26.254920959472656,18.50817108154297,-0.48709869384765625,0.7533588409423828,0.7153232097625732,2.30110764503479,10.105865478515625,1.4678099155426025
8_20251106_214554,1762436719450,8,0.31694236397743225,0.31133997440338135,0.5807422995567322,0.6821681261062622,1.101344108581543,3.5189573764801025,1.5889545679092407,1.7206389904022217,11.029206275939941,2.179542064666748,-0.1242498829960823,-1.2018725872039795,-0.7996295094490051,20.64056968688965,-25.996475219726562,18.11273193359375,-0.4643747806549072,0.7386722564697266,0.5693857669830322,2.185013771057129,10.290534019470215,1.6101562976837158
8_20251106_214554,1762436719468,8,0.32884156703948975,0.3143320381641388,0.5784700512886047,0.6770752668380737,1.0668294429779053,3.526646375656128,1.5954657793045044,1.3639183044433594,10.952594757080078,2.621253252029419,-0.19816452264785767,-1.0198348760604858,-1.0482515096664429,21.484649658203125,-25.735885620117188,17.582622528076172,-0.6568763256072998,0.5296478271484375,0.8088775873184204,2.020794630050659,10.42294692993164,1.8123756647109985
8_20251106_214554,1762436719487,8,0.34141796827316284,0.31444162130355835,0.5769651532173157,0.6720650792121887,1.029135823249817,3.5352022647857666,1.6052258014678955,0.8970690965652466,10.73114013671875,2.9899444580078125,-0.17189735174179077,-0.8536795973777771,-1.257167100906372,22.304962158203125,-25.464462280273438,17.065311431884766,-0.8989803791046143,0.24655437469482422,0.9420552253723145,1.7960494756698608,10.484585762023926,2.047889232635498
8_20251106_214554,1762436719506,8,0.35439595580101013,0.3123624324798584,0.5765918493270874,0.6666146516799927,0.9911999106407166,3.5425221920013428,1.6164474487304688,0.1668689250946045,10.330129623413086,3.0378265380859375,-0.004520398564636707,-0.798701822757721,-1.4208788871765137,23.211790084838867,-25.162635803222656,16.578994750976562,-1.303344488143921,-0.1235647201538086,0.7919497489929199,1.4702134132385254,10.453694343566895,2.2458767890930176
8_20251106_214554,1762436719525,8,0.367562860250473,0.3094339370727539,0.577797532081604,0.6597713232040405,0.9444613456726074,3.5482211112976074,1.6294336318969727,-0.7321151494979858,9.78666877746582,2.621253252029419,0.1891237050294876,-0.8090865015983582,-1.505789041519165,24.09796714782715,-24.799346923828125,16.065982818603516,-1.761862874031067,-0.5336208343505859,0.30030131340026855,1.029747724533081,10.320289611816406,2.3209519386291504
8_20251106_214554,1762436719545,8,0.3806414306163788,0.30652916431427,0.5803567171096802,0.6514123678207397,0.9444613456726074,3.5482211112976074,1.6294336318969727,-0.7321151494979858,9.78666877746582,2.621253252029419,0.23127338290214539,-0.8231363892555237,-1.509454369544983,25.06886100769043,-24.206748962402344,15.709342956542969,-1.761862874031067,-0.5336208343505859,0.30030131340026855,1.029747724533081,10.320289611816406,2.3209519386291504
8_20251106_214554,1762436719563,8,0.393696665763855,0.3037039339542389,0.5830748081207275,0.6424878835678101,0.888492226600647,3.5513229370117188,1.6425914764404297,-1.759183406829834,9.549653053283691,2.381843328475952,0.17690640687942505,-0.7199002504348755,-1.4648611545562744,26.054550170898438,-23.57501220703125,15.286407470703125,-2.231144905090332,-0.6165094375610352,0.04871320724487305,0.47196152806282043,10.166162490844727,2.333130121231079
8_20251106_214554,1762436719582,8,0.40604516863822937,0.3000858724117279,0.5856700539588928,0.6340870261192322,0.7762330174446106,3.5497703552246094,1.6665635108947754,-3.4625847339630127,9.0816068649292,2.8678455352783203,0.24898844957351685,-0.5812339782714844,-1.3915574550628662,26.983440399169922,-22.872032165527344,14.876117706298828,-2.6389636993408203,-0.7262916564941406,0.36232852935791016,-0.8236209750175476,9.80789852142334,2.50551700592041
8_20251106_214554,1762436719602,8,0.41700106859207153,0.2960834205150604,0.5888859033584595,0.6258259415626526,0.7079700231552124,3.5447726249694824,1.6797535419464111,-4.192784786224365,8.681792259216309,2.8355250358581543,0.4200305938720703,-0.5348082184791565,-1.2339544296264648,28.04102897644043,-22.04742431640625,14.405525207519531,-2.69533109664917,-0.9008846282958984,0.2640063762664795,-1.4974536895751953,9.582676887512207,2.571518659591675
8_20251106_214554,1762436719620,8,0.42624330520629883,0.2931585907936096,0.5927711129188538,0.617249608039856,0.6332555413246155,3.5369553565979004,1.6931989192962646,-5.092966079711914,8.463929176330566,2.904953956604004,0.4200305938720703,-0.5348082184791565,-1.2339544296264648,29.041027069091797,-21.15265655517578,14.055713653564453,-2.8764100074768066,-0.8949975967407227,0.26674818992614746,-2.2165560722351074,9.358926773071289,2.6382057666778564
8_20251106_214554,1762436719640,8,0.4341132938861847,0.2926664352416992,0.5962211489677429,0.6086151003837585,0.552391529083252,3.526984930038452,1.7079190015792847,-5.819575309753418,8.431609153747559,3.3478622436523438,0.7144674062728882,-0.7608281970024109,-0.5888811945915222,29.96811866760254,-20.250770568847656,13.770801544189453,-2.882415294647217,-0.7418546676635742,0.5677251815795898,-2.937160015106201,9.173463821411133,2.780137062072754
8_20251106_214554,1762436719660,8,0.4402126371860504,0.29565075039863586,0.5989436507225037,0.6000583171844482,0.4618406593799591,3.514671802520752,1.724736213684082,-6.1236252784729,8.40287971496582,3.469961166381836,0.9789718389511108,-0.8176385760307312,-0.17960186302661896,30.826013565063477,-19.290328979492188,13.43020248413086,-2.5491721630096436,-0.6164674758911133,0.5518593788146973,-3.574453115463257,9.019347190856934,2.9181017875671387
8_20251106_214554,1762436719679,8,0.4435408115386963,0.30211612582206726,0.6017200350761414,0.5915491580963135,0.4618406593799591,3.514671802520752,1.724736213684082,-6.1236252784729,8.40287971496582,3.469961166381836,1.256304383277893,-0.7815975546836853,0.23089922964572906,31.618057250976562,-18.41014862060547,13.180183410644531,-2.5491721630096436,-0.6164674758911133,0.5518593788146973,-3.574453115463257,9.019347190856934,2.9181017875671387
8_20251106_214554,1762436719699,8,0.4435254633426666,0.3117496073246002,0.6049370765686035,0.583222508430481,0.2851771116256714,3.487037181854248,1.7535182237625122,-5.268932342529297,8.262825012207031,2.1101131439208984,1.3949706554412842,-0.7211219668388367,0.6016941666603088,31.618057250976562,-18.41014862060547,13.180183410644531,-0.972231388092041,-0.4814920425415039,-0.6720588207244873,-4.296700954437256,8.744317054748535,2.7821719646453857
8_20251106_214554,1762436719717,8,0.4406064450740814,0.323750376701355,0.6079792380332947,0.575684666633606,0.20178797841072083,3.472538471221924,1.7625482082366943,-4.385509490966797,8.398092269897461,1.6348843574523926,1.3943597078323364,-0.7021852135658264,0.822827160358429,32.12175750732422,-17.698379516601562,12.861650466918945,-0.07104682922363281,-0.2769794464111328,-0.9178299903869629,-4.314462661743164,8.675071716308594,2.5527143478393555
8_20251106_214554,1762436719736,8,0.4362195134162903,0.3371139466762543,0.6102922558784485,0.5688673853874207,0.12063193321228027,3.457761764526367,1.76828932762146,-3.579895496368408,8.583633422851562,1.470888614654541,1.3943597078323364,-0.7021852135658264,0.822827160358429,32.56938552856445,-17.104148864746094,12.673942565917969,0.587653636932373,-0.073150634765625,-0.8654606342315674,-4.167549133300781,8.656784057617188,2.3363492488861084
8_20251106_214554,1762436719754,8,0.4308571517467499,0.35021159052848816,0.6126596927642822,0.562460720539093,0.05402286350727081,3.445239305496216,1.770218014717102,-3.0388293266296387,8.702142715454102,1.12613844871521,1.3754230737686157,-0.3991962671279907,0.7568537592887878,32.92133331298828,-16.703567504882812,12.451810836791992,0.9029760360717773,0.03628730773925781,-0.9681687355041504,-3.941805362701416,8.665855407714844,2.0943071842193604
8_20251106_214554,1762436719773,8,0.42486241459846497,0.3617362380027771,0.6158642768859863,0.5561924576759338,-0.009791336953639984,3.432469606399536,1.768224835395813,-2.855680465698242,8.588422775268555,0.6628803014755249,1.3076170682907104,-0.16034817695617676,0.5815355777740479,33.034427642822266,-16.420822143554688,12.44802474975586,0.8688998222351074,-0.06194591522216797,-1.1451414823532104,-3.7245802879333496,8.650368690490723,1.8080217838287354
8_20251106_214554,1762436719793,8,0.4183908998966217,0.37060338258743286,0.6201967597007751,0.5504163503646851,-0.06829036772251129,3.41922926902771,1.7621352672576904,-2.9502475261688232,8.24606704711914,0.27862748503685,1.3076170682907104,-0.16034817695617676,0.5815355777740479,33.01569366455078,-16.32195281982422,12.449155807495117,0.6194663047790527,-0.3234415054321289,-1.2235153913497925,-3.569713830947876,8.56950855255127,1.5021429061889648
8_20251106_214554,1762436719811,8,0.4113994538784027,0.37671613693237305,0.6254209876060486,0.5456042289733887,-0.06829036772251129,3.41922926902771,1.7621352672576904,-2.9502475261688232,8.24606704711914,0.27862748503685,1.091370940208435,0.3112393915653229,0.3976652920246124,32.97088623046875,-16.25019073486328,12.489326477050781,0.6194663047790527,-0.3234415054321289,-1.2235153913497925,-3.569713830947876,8.56950855255127,1.5021429061889648
8_20251106_214554,1762436719831,8,0.4038563668727875,0.38125237822532654,0.6309528946876526,0.5417057275772095,-0.1278066486120224,3.4030070304870605,1.7505571842193604,-3.000523567199707,7.877374649047852,-0.04457583278417587,1.0815969705581665,0.33811742067337036,0.4569191634654999,32.858009338378906,-16.296493530273438,12.63279914855957,0.4553523063659668,-0.5537071228027344,-1.237375020980835,-3.455875873565674,8.431081771850586,1.1927992105484009
8_20251106_214554,1762436719851,8,0.39589035511016846,0.3859797716140747,0.6362459063529968,0.5380349159240723,-0.22375595569610596,3.367502450942993,1.720495343208313,-2.889198064804077,7.125627517700195,-0.2911680042743683,1.1048098802566528,0.32162410020828247,0.5876442193984985,32.559139251708984,-16.39385986328125,12.916803359985352,0.37837910652160645,-0.8866291046142578,-0.9677426815032959,-3.2675771713256836,8.012256622314453,0.6765746474266052
8_20251106_214554,1762436719870,8,0.38723883032798767,0.3916188180446625,0.6410340666770935,0.5345616340637207,-0.22375595569610596,3.367502450942993,1.720495343208313,-2.889198064804077,7.125627517700195,-0.2911680042743683,1.1646746397018433,0.2935243248939514,0.7232562303543091,32.329368591308594,-16.5499267578125,13.270011901855469,0.37837910652160645,-0.8866291046142578,-0.9677426815032959,-3.2675771713256836,8.012256622314453,0.6765746474266052
8_20251106_214554,1762436719890,8,0.3776809871196747,0.39825931191444397,0.6454998254776001,0.5311087965965271,-0.30528852343559265,3.323683500289917,1.6804195642471313,-2.686896800994873,6.673142910003662,-0.8178697228431702,1.1927744150161743,0.3362848460674286,0.861311674118042,32.08026123046875,-16.619544982910156,13.610570907592773,0.386383056640625,-0.8989772796630859,-1.0068162679672241,-3.073279857635498,7.572120189666748,0.18894650042057037
8_20251106_214554,1762436719907,8,0.36704057455062866,0.40563955903053284,0.6495891213417053,0.5279884338378906,-0.3389512300491333,3.3002231121063232,1.6574081182479858,-2.4929747581481934,6.412186145782471,-1.3852710723876953,1.152457356452942,0.4627338647842407,1.0183038711547852,31.712430953979492,-16.623245239257812,14.096488952636719,0.46424412727355957,-0.9279475212097168,-1.2593741416931152,-2.957218885421753,7.3401336669921875,-0.12589699029922485
8_20251106_214554,1762436719927,8,0.35497957468032837,0.4132520854473114,0.6531385779380798,0.5259488821029663,-0.37034666538238525,3.273813486099243,1.6291007995605469,-2.0967512130737305,6.288890361785889,-2.032874822616577,1.0394474267959595,0.6081196665763855,1.192400336265564,31.266143798828125,-16.731765747070312,14.53680419921875,0.6883740425109863,-0.8409948348999023,-1.5255823135375977,-2.785125255584717,7.129885196685791,-0.5072925090789795
8_20251106_214554,1762436719945,8,0.3414531946182251,0.42079365253448486,0.6558271646499634,0.5255788564682007,-0.39662519097328186,3.246676445007324,1.5967522859573364,-1.4922415018081665,6.383457183837891,-2.4961328506469727,0.8610748648643494,0.7302926182746887,1.350614309310913,30.733762741088867,-16.846923828125,15.08181381225586,1.0343071222305298,-0.5971426963806152,-1.5910723209381104,-2.5265486240386963,6.980599880218506,-0.9050605297088623
8_20251106_214554,1762436719965,8,0.3269450068473816,0.42815136909484863,0.6572327613830566,0.5271039009094238,-0.417270302772522,3.2179641723632812,1.5598253011703491,-0.6734597086906433,6.462462425231934,-2.411142349243164,0.673539400100708,0.8200896978378296,1.4746198654174805,30.15546417236328,-17.127975463867188,15.648956298828125,1.482471227645874,-0.41450977325439453,-1.2048654556274414,-2.155930995941162,6.876972198486328,-1.2062768936157227
8_20251106_214554,1762436719984,8,0.3118513524532318,0.43524235486984253,0.657271683216095,0.5303835868835449,-0.4292702376842499,3.1910488605499268,1.5232652425765991,0.2614358365535736,6.511541366577148,-2.3848071098327637,0.673539400100708,0.8200896978378296,1.4746198654174805,29.466093063354492,-17.42967987060547,16.306034088134766,1.9338934421539307,-0.2923445701599121,-0.942824125289917,-1.6724575757980347,6.8038859367370605,-1.4419829845428467
8_20251106_214554,1762436720003,8,0.29628702998161316,0.44224515557289124,0.6562513113021851,0.5347592234611511,-0.4327566623687744,3.165008783340454,1.4852994680404663,1.2118929624557495,6.632443428039551,-2.6206259727478027,0.5330405235290527,0.8995020985603333,1.5699148178100586,28.670862197875977,-17.89990234375,16.847625732421875,2.3074803352355957,-0.13715410232543945,-0.9429144859313965,-1.0955874919891357,6.76959753036499,-1.6777114868164062
8_20251106_214554,1762436720021,8,0.2804381847381592,0.4490053057670593,0.6548417210578918,0.5393801927566528,-0.4282729923725128,3.141880512237549,1.4483280181884766,1.99955153465271,6.894597053527832,-2.8157451152801514,0.5330405235290527,0.8995020985603333,1.5699148178100586,27.75680160522461,-18.315956115722656,17.45321273803711,2.47611141204834,0.09999942779541016,-0.9104269742965698,-0.47655975818634033,6.794597625732422,-1.9053181409835815
8_20251106_214554,1762436720041,8,0.2651819586753845,0.45535075664520264,0.6530095338821411,0.5439786314964294,-0.4138876497745514,3.11850643157959,1.4066113233566284,2.6986284255981445,7.136401176452637,-2.79060697555542,0.46889975666999817,0.8750675320625305,1.5063848495483398,26.774873733520508,-18.84980010986328,18.13507080078125,2.5401506423950195,0.27344322204589844,-0.7082309722900391,0.15847784280776978,6.862957954406738,-2.082376003265381
8_20251106_214554,1762436720061,8,0.25064054131507874,0.4604487419128418,0.651157021522522,0.548781156539917,-0.3923494517803192,3.098949909210205,1.3665032386779785,3.276803493499756,7.42369270324707,-2.978543758392334,0.3174053132534027,1.016788125038147,1.1942329406738281,25.78942108154297,-19.446434020996094,18.815608978271484,2.4946606159210205,0.44858789443969727,-0.7169342041015625,0.7821429371833801,6.975104808807373,-2.2616095542907715
8_20251106_214554,1762436720079,8,0.2365177720785141,0.4636116623878479,0.6497818827629089,0.553991973400116,-0.3635921776294708,3.0821831226348877,1.3250837326049805,3.805899143218994,7.635570526123047,-3.4705309867858887,0.24287980794906616,1.1297980546951294,1.0183038711547852,24.79661750793457,-19.956092834472656,19.51102066040039,2.4190049171447754,0.5283727645874023,-0.9671370983123779,1.3868942260742188,7.1071977615356445,-2.5033938884735107
8_20251106_214554,1762436720099,8,0.2228480726480484,0.4648534059524536,0.6488747000694275,0.559653103351593,-0.3635921776294708,3.0821831226348877,1.3250837326049805,3.805899143218994,7.635570526123047,-3.4705309867858887,0.24287980794906616,1.1297980546951294,1.0183038711547852,23.752138137817383,-20.530906677246094,20.122055053710938,2.4190049171447754,0.5283727645874023,-0.9671370983123779,1.3868942260742188,7.1071977615356445,-2.5033938884735107
8_20251106_214554,1762436720120,8,0.21047809720039368,0.4648178219795227,0.647908627986908,0.5655596852302551,-0.2855505645275116,3.0573959350585938,1.2356188297271729,4.392453193664551,8.19698715209961,-3.7266995906829834,0.0015882505103945732,1.0638246536254883,0.7128715515136719,22.64078712463379,-20.997604370117188,20.746036529541016,1.9576497077941895,0.7424745559692383,-0.7693171501159668,2.4348034858703613,7.454512596130371,-2.9573824405670166
8_20251106_214554,1762436720139,8,0.1998087614774704,0.46403658390045166,0.6466720104217529,0.5714558959007263,-0.2855505645275116,3.0573959350585938,1.2356188297271729,4.392453193664551,8.19698715209961,-3.7266995906829834,-0.09004145115613937,1.0552725791931152,0.6181874871253967,22.64078712463379,-20.997604370117188,20.746036529541016,1.9576497077941895,0.7424745559692383,-0.7693171501159668,2.4348034858703613,7.454512596130371,-2.9573824405670166
8_20251106_214554,1762436720156,8,0.1900710016489029,0.46241962909698486,0.6452606916427612,0.5776501297950745,-0.19133223593235016,3.045478343963623,1.1483100652694702,5.2639055252075195,8.546525955200195,-3.683605909347534,-0.19816452264785767,0.9886884093284607,0.5540466904640198,21.592269897460938,-21.434547424316406,21.305416107177734,1.89030122756958,0.7274265289306641,-0.45386576652526855,3.3736042976379395,7.819099426269531,-3.2297401428222656
8_20251106_214554,1762436720175,8,0.18151140213012695,0.46052587032318115,0.6433312892913818,0.5840328335762024,-0.19133223593235016,3.045478343963623,1.1483100652694702,5.2639055252075195,8.546525955200195,-3.683605909347534,-0.24459025263786316,0.8359721899032593,0.47280165553092957,20.63690948486328,-21.72766876220703,21.857616424560547,1.89030122756958,0.7274265289306641,-0.45386576652526855,3.3736042976379395,7.819099426269531,-3.2297401428222656
8_20251106_214554,1762436720194,8,0.17447607219219208,0.4588773846626282,0.6411376595497131,0.5898576974868774,-0.08296846598386765,3.0476930141448975,1.065765380859375,5.822927474975586,9.625066757202148,-3.5531275272369385,-0.22504258155822754,0.6911972165107727,0.38056108355522156,19.71396255493164,-22.105224609375,22.301311492919922,1.6007013320922852,1.2523488998413086,-0.20505285263061523,4.222226142883301,8.37271785736084,-3.3480746746063232
8_20251106_214554,1762436720214,8,0.16878771781921387,0.45750752091407776,0.6391117572784424,0.5947551727294922,-0.02226068452000618,3.05529522895813,1.0246630907058716,5.927070617675781,9.797442436218262,-3.5399599075317383,-0.20305144786834717,0.5360376238822937,0.30481386184692383,18.806119918823242,-22.431625366210938,22.733036041259766,1.363875389099121,1.1397790908813477,-0.15350818634033203,4.56319522857666,8.657663345336914,-3.3864517211914062
8_20251106_214554,1762436720232,8,0.1643410176038742,0.4564818739891052,0.6373022198677063,0.5987170934677124,-0.02226068452000618,3.05529522895813,1.0246630907058716,5.927070617675781,9.797442436218262,-3.5399599075317383,-0.1865580976009369,0.3619411587715149,0.27182719111442566,18.05970001220703,-22.708816528320312,23.050281524658203,1.363875389099121,1.1397790908813477,-0.15350818634033203,4.56319522857666,8.657663345336914,-3.3864517211914062
8_20251106_214554,1762436720252,8,0.16116946935653687,0.45635372400283813,0.6353713870048523,0.6017216444015503,0.09696604311466217,3.077155590057373,0.9529175162315369,6.289776802062988,9.960241317749023,-3.1293721199035645,-0.21832306683063507,0.19395337998867035,0.21135154366493225,17.362110137939453,-22.994308471679688,23.261093139648438,1.1327838897705078,0.8786592483520508,0.20398569107055664,5.1569929122924805,9.081582069396973,-3.333357810974121
8_20251106_214554,1762436720270,8,0.15946604311466217,0.45676326751708984,0.6332331895828247,0.6041138768196106,0.15357597172260284,3.090724468231201,0.9235817790031433,6.220347881317139,10.142192840576172,-2.619428873062134,-0.25069889426231384,0.08949550241231918,0.057413648813962936,16.74065399169922,-23.224533081054688,23.448871612548828,0.8506836891174316,0.8484888076782227,0.5711431503295898,5.369664192199707,9.29370403289795,-3.1905720233917236
8_20251106_214554,1762436720290,8,0.1593760997056961,0.45671194791793823,0.6314200162887573,0.6060711145401001,0.21498538553714752,3.1077029705047607,0.8956698775291443,5.91390323638916,10.167330741882324,-2.1860971450805664,-0.274522602558136,0.13836467266082764,-0.15333469212055206,16.20217514038086,-23.498756408691406,23.57144546508789,0.4353909492492676,0.6989011764526367,0.8035798072814941,5.478512287139893,9.468429565429688,-2.9896769523620605
8_20251106_214554,1762436720310,8,0.16028515994548798,0.45493024587631226,0.6304663419723511,0.6081606149673462,0.21498538553714752,3.1077029705047607,0.8956698775291443,5.91390323638916,10.167330741882324,-2.1860971450805664,-0.274522602558136,0.13836467266082764,-0.15333469212055206,15.764188766479492,-23.727737426757812,23.57708740234375,0.4353909492492676,0.6989011764526367,0.8035798072814941,5.478512287139893,9.468429565429688,-2.9896769523620605
8_20251106_214554,1762436720329,8,0.16169913113117218,0.4513530731201172,0.63032066822052,0.6105977892875671,0.32258620858192444,3.140411615371704,0.8541854619979858,5.038860321044922,9.684919357299805,-1.8437410593032837,-0.2946811318397522,0.24037908017635345,-0.32865282893180847,15.463970184326172,-23.884925842285156,23.56241226196289,-0.3576054573059082,0.10695075988769531,0.7636603116989136,5.39646577835083,9.57796859741211,-2.6074013710021973
8_20251106_214554,1762436720346,8,0.16390661895275116,0.4467758536338806,0.6305991411209106,0.6130829453468323,0.3668433129787445,3.1547114849090576,0.8395981192588806,4.488217353820801,9.508953094482422,-1.6486220359802246,-0.32888954877853394,0.24404427409172058,-0.5479532480239868,15.250957489013672,-24.010765075683594,23.484119415283203,-0.7265987396240234,-0.05521202087402344,0.7670233249664307,5.214816093444824,9.564165115356445,-2.4156453609466553
8_20251106_214554,1762436720366,8,0.16676169633865356,0.44166800379753113,0.6312353014945984,0.6153551340103149,0.40968725085258484,3.169168710708618,0.827059805393219,3.9411654472351074,9.354534149169922,-1.4750498533248901,-0.31850486993789673,0.20983584225177765,-0.5711661577224731,15.102300643920898,-24.069984436035156,23.423114776611328,-1.0189204216003418,-0.16770458221435547,0.7524763345718384,4.960085868835449,9.522238731384277,-2.2275261878967285
8_20251106_214554,1762436720385,8,0.17001906037330627,0.43661075830459595,0.6319469809532166,0.6173390746116638,0.4439786672592163,3.1815197467803955,0.8182945251464844,3.365385055541992,9.268346786499023,-1.2978864908218384,-0.3044549822807312,0.16768617928028107,-0.5479532480239868,14.942373275756836,-24.105560302734375,23.429725646972656,-1.2757606506347656,-0.20311355590820312,0.7437118291854858,4.641145706176758,9.471460342407227,-2.041598320007324
8_20251106_214554,1762436720404,8,0.17326346039772034,0.4317575991153717,0.6326739192008972,0.6191033124923706,0.47189271450042725,3.192735433578491,0.8117813467979431,2.941629409790039,9.282711029052734,-1.3804829120635986,-0.3044549822807312,0.16768617928028107,-0.5479532480239868,15.00158405303955,-24.13872528076172,23.3773193359375,-1.3596129417419434,-0.1509990692138672,0.5288923978805542,4.301242351531982,9.433710098266602,-1.9093753099441528
8_20251106_214554,1762436720423,8,0.17624764144420624,0.4273413121700287,0.6333774924278259,0.6206038594245911,0.49369555711746216,3.203153371810913,0.8071926832199097,2.582514762878418,9.347352027893066,-1.3266156911849976,-0.23359468579292297,0.05834139883518219,-0.39035019278526306,15.0645170211792,-24.10883331298828,23.29920196533203,-1.3749821186065674,-0.06908607482910156,0.46620774269104004,3.9574968814849854,9.416438102722168,-1.7928234338760376
8_20251106_214554,1762436720443,8,0.17907312512397766,0.4241058826446533,0.6337210536003113,0.6216627955436707,0.5100216865539551,3.2128641605377197,0.8044935464859009,2.35866641998291,9.348548889160156,-1.187757968902588,-0.19327761232852936,0.023522108793258667,-0.25718167424201965,15.22805404663086,-24.021949768066406,23.185516357421875,-1.279064416885376,-0.05431175231933594,0.4840524196624756,3.637730836868286,9.402860641479492,-1.6718103885650635
8_20251106_214554,1762436720461,8,0.1811434030532837,0.42183536291122437,0.6337669491767883,0.6225603818893433,0.5221043825149536,3.2220847606658936,0.8032376766204834,2.3885927200317383,9.401219367980957,-1.1949403285980225,-0.13646718859672546,-0.005799395963549614,-0.11668280512094498,15.363609313964844,-23.98796844482422,23.177921295166016,-0.9993104934692383,-0.0013132095336914062,0.3814960718154907,3.3879032135009766,9.402532577514648,-1.5764364004135132
8_20251106_214554,1762436720481,8,0.1824018657207489,0.4206887483596802,0.6335068941116333,0.6232331395149231,0.531342089176178,3.2317380905151367,0.803159773349762,2.4520363807678223,9.544864654541016,-1.1889550685882568,-0.07476983964443207,-0.04245127737522125,-0.010392335243523121,15.548205375671387,-23.950401306152344,23.13174057006836,-0.7486934661865234,0.11386585235595703,0.3099851608276367,3.2007298469543457,9.430998802185059,-1.4989402294158936
8_20251106_214554,1762436720499,8,0.1829366683959961,0.4204530417919159,0.6331616640090942,0.6235861778259277,0.5375470519065857,3.2402102947235107,0.8041099309921265,2.5130858421325684,9.51972770690918,-1.0860087871551514,-0.04422660544514656,-0.027790527790784836,0.037865977734327316,15.682646751403809,-23.941123962402344,23.08306884765625,-0.5501151084899902,0.0709829330444336,0.33034515380859375,3.0632009506225586,9.448744773864746,-1.4163539409637451
8_20251106_214554,1762436720521,8,0.18300266563892365,0.42050760984420776,0.6328040361404419,0.6238929629325867,0.5375470519065857,3.2402102947235107,0.8041099309921265,2.5130858421325684,9.51972770690918,-1.0860087871551514,-0.04422660544514656,-0.027790527790784836,0.037865977734327316,15.682646751403809,-23.941123962402344,23.08306884765625,-0.5501151084899902,0.0709829330444336,0.33034515380859375,3.0632009506225586,9.448744773864746,-1.4163539409637451
8_20251106_214554,1762436720540,8,0.18260996043682098,0.4203353524208069,0.63254714012146,0.6243844628334045,0.5464301705360413,3.2584216594696045,0.8086951375007629,2.657928943634033,9.489800453186035,-1.1195261478424072,-0.033231038600206375,0.0833868533372879,0.0488615408539772,16.02010726928711,-24.005165100097656,22.932762145996094,-0.24807381629943848,0.017465591430664062,0.1882460117340088,2.9060027599334717,9.472334861755371,-1.307772159576416
8_20251106_214554,1762436720558,8,0.18188989162445068,0.41983574628829956,0.6323763132095337,0.6251033544540405,0.5494123101234436,3.266017198562622,0.8113902807235718,2.783618927001953,9.476633071899414,-1.1099498271942139,-0.03811795637011528,0.11026489734649658,0.054359324276447296,16.02010726928711,-24.005165100097656,22.932762145996094,-0.09790706634521484,0.0034389495849609375,0.15825796127319336,2.881525993347168,9.473194122314453,-1.2682077884674072
8_20251106_214554,1762436720576,8,0.1810070276260376,0.41924118995666504,0.632178544998169,0.6259580850601196,0.5522129535675049,3.2739388942718506,0.8146190643310547,2.8123481273651123,9.584367752075195,-1.076432466506958,-0.028954986482858658,0.11515182256698608,0.03969857469201088,16.00680923461914,-24.030670166015625,22.891193389892578,-0.05534243583679199,0.08893871307373047,0.1534203290939331,2.8676905632019043,9.495429039001465,-1.2298527956008911
8_20251106_214554,1762436720595,8,0.18010792136192322,0.4185435175895691,0.6321020722389221,0.6267610192298889,0.5547677278518677,3.2818562984466553,0.8179792165756226,2.8291068077087402,9.638235092163086,-1.1231173276901245,-0.0057421280071139336,0.13836468756198883,0.02687041461467743,16.065723419189453,-24.064231872558594,22.879337310791016,-0.03086709976196289,0.11424446105957031,0.0853884220123291,2.859973907470703,9.523990631103516,-1.2085057497024536
8_20251106_214554,1762436720615,8,0.1790589839220047,0.4176660180091858,0.63224858045578,0.6274988055229187,0.5577381253242493,3.2904558181762695,0.8212751150131226,2.9966936111450195,9.748363494873047,-1.2296547889709473,0.024190247058868408,0.10843230783939362,0.028092142194509506,16.051532745361328,-24.09095001220703,22.959415435791016,0.1093757152557373,0.17949867248535156,-0.016919255256652832,2.8873178958892822,9.568864822387695,-1.2127355337142944
8_20251106_214554,1762436720634,8,0.1780281811952591,0.4169935882091522,0.6325466632843018,0.6279387474060059,0.5605087876319885,3.2979791164398193,0.82445228099823,2.9811320304870605,9.638235092163086,-1.066856026649475,0.04251618683338165,0.06750436872243881,0.013431388884782791,15.976402282714844,-24.133255004882812,22.94216537475586,0.07505130767822266,0.0554962158203125,0.11670362949371338,2.906080722808838,9.582738876342773,-1.1835596561431885
8_20251106_214554,1762436720653,8,0.1772536337375641,0.41655370593070984,0.6329287886619568,0.628064751625061,0.5632976293563843,3.3060965538024902,0.8285101056098938,2.8614273071289062,9.640628814697266,-0.9519392848014832,0.0657290443778038,0.0937715545296669,-0.026885680854320526,15.877603530883789,-24.164588928222656,22.924198150634766,-0.03572273254394531,0.04631233215332031,0.18529635667800903,2.8971500396728516,9.594316482543945,-1.1372356414794922
8_20251106_214554,1762436720672,8,0.17657920718193054,0.41584721207618713,0.6335619688034058,0.6280844807624817,0.5632976293563843,3.3060965538024902,0.8285101056098938,2.8614273071289062,9.640628814697266,-0.9519392848014832,0.11276562511920929,0.16341012716293335,-0.05498545616865158,15.830591201782227,-24.1190185546875,23.071971893310547,-0.03572273254394531,0.04631233215332031,0.18529635667800903,2.8971500396728516,9.594316482543945,-1.1372356414794922
8_20251106_214554,1762436720690,8,0.17539602518081665,0.4145101308822632,0.6347609162330627,0.6280893087387085,0.567668080329895,3.320070743560791,0.8346142768859863,2.9500088691711426,9.520923614501953,-1.515749454498291,0.11520908027887344,0.1658535897731781,-0.03910297900438309,15.723130226135254,-24.088363647460938,23.054832458496094,0.05796194076538086,-0.06344318389892578,-0.29874956607818604,2.8920469284057617,9.584366798400879,-1.216999888420105
8_20251106_214554,1762436720710,8,0.1740603744983673,0.413236528635025,0.6359657645225525,0.6280812621116638,0.5704699158668518,3.326746702194214,0.8369442820549011,3.0649256706237793,9.523317337036133,-1.2871131896972656,0.048624832183122635,0.10354539006948471,-0.03299432992935181,15.664834976196289,-24.03076171875,23.17534637451172,0.13830304145812988,-0.048839569091796875,-0.056090593338012695,2.9266226291656494,9.57215690612793,-1.231022596359253
8_20251106_214554,1762436720730,8,0.17338711023330688,0.41242775321006775,0.6366026401519775,0.628153920173645,0.5731152892112732,3.3330318927764893,0.8397799730300903,2.9691615104675293,9.666963577270508,-0.9639097452163696,0.048624832183122635,0.10354539006948471,-0.03299432992935181,15.654269218444824,-23.99456024169922,23.243228912353516,0.03403115272521973,0.07584476470947266,0.21369028091430664,2.9351303577423096,9.591118812561035,-1.1776000261306763
8_20251106_214554,1762436720749,8,0.17294156551361084,0.4111960232257843,0.6372649669647217,0.6284126043319702,0.5757694840431213,3.339536666870117,0.843119740486145,2.9380383491516113,9.663372039794922,-1.011791706085205,0.07916807383298874,0.1658535897731781,-0.12767837941646576,15.617315292358398,-23.997482299804688,23.295822143554688,0.002326488494873047,0.05780315399169922,0.13264667987823486,2.9357118606567383,9.605568885803223,-1.14443838596344
8_20251106_214554,1762436720767,8,0.1723112314939499,0.4093812108039856,0.6385137438774109,0.6285030245780945,0.5777645111083984,3.3451404571533203,0.8457565307617188,2.8243188858032227,9.622673034667969,-1.233245849609375,0.07916807383298874,0.1658535897731781,-0.12767837941646576,15.54601764678955,-23.964981079101562,23.33422088623047,-0.08911442756652832,0.013683319091796875,-0.07104599475860596,2.913433313369751,9.608989715576172,-1.162199854850769
8_20251106_214554,1762436720786,8,0.17164097726345062,0.40737563371658325,0.6400651931762695,0.6284114718437195,0.5791231989860535,3.3504457473754883,0.8478477597236633,2.679475784301758,9.494588851928711,-1.3637242317199707,0.12192859500646591,0.16890792548656464,-0.13500875234603882,15.513899803161621,-23.880142211914062,23.402179718017578,-0.1871659755706787,-0.09152030944824219,-0.16121947765350342,2.8666417598724365,9.586109161376953,-1.2025047540664673
8_20251106_214554,1762436720805,8,0.17085173726081848,0.40555667877197266,0.6416507959365845,0.6281861066818237,0.5796180367469788,3.3552117347717285,0.8491194844245911,2.5765295028686523,9.486209869384766,-1.4630794525146484,0.13720020651817322,0.14936025440692902,-0.07147880643606186,15.515928268432617,-23.83099365234375,23.511363983154297,-0.23208999633789062,-0.07991981506347656,-0.208459734916687,2.808619499206543,9.566129684448242,-1.2546197175979614
8_20251106_214554,1762436720824,8,0.1697503626346588,0.40426552295684814,0.6430737376213074,0.627861738204956,0.5797731876373291,3.359589099884033,0.8496013879776001,2.6938400268554688,9.511346817016602,-1.5193407535552979,0.1433088481426239,0.11270835995674133,0.00732274167239666,15.4347562789917,-23.76134490966797,23.523029327392578,-0.09182357788085938,-0.04382610321044922,-0.2117767333984375,2.785663604736328,9.55517292022705,-1.3075640201568604
8_20251106_214554,1762436720843,8,0.1686120480298996,0.40324825048446655,0.6443636417388916,0.627500057220459,0.5797731876373291,3.359589099884033,0.8496013879776001,2.6938400268554688,9.511346817016602,-1.5193407535552979,0.14453057944774628,0.06689350306987762,0.054970189929008484,15.414329528808594,-23.67638397216797,23.6590576171875,-0.09182357788085938,-0.04382610321044922,-0.2117767333984375,2.785663604736328,9.55517292022705,-1.3075640201568604
8_20251106_214554,1762436720863,8,0.16736997663974762,0.4029468894004822,0.6453433632850647,0.6270191669464111,0.5804909467697144,3.367737054824829,0.8489490151405334,2.882974147796631,9.558032035827637,-1.5217347145080566,0.16102392971515656,0.05040016025304794,0.07879391312599182,15.36589527130127,-23.66754150390625,23.71142578125,0.07262134552001953,0.007958412170410156,-0.14147436618804932,2.8103528022766113,9.550073623657227,-1.3802603483200073
8_20251106_214554,1762436720882,8,0.16593299806118011,0.40300291776657104,0.646176278591156,0.626507043838501,0.5804909467697144,3.367737054824829,0.8489490151405334,2.882974147796631,9.558032035827637,-1.5217347145080566,0.17324122786521912,0.057119667530059814,0.09956331551074982,15.321195602416992,-23.584030151367188,23.832958221435547,0.07262134552001953,0.007958412170410156,-0.14147436618804932,2.8103528022766113,9.550073623657227,-1.3802603483200073
8_20251106_214554,1762436720901,8,0.1642778217792511,0.4032232165336609,0.6469666361808777,0.6259856224060059,0.5828346610069275,3.3742620944976807,0.8457343578338623,3.114004611968994,9.512544631958008,-1.6917157173156738,0.15002836287021637,0.025354702025651932,0.12277617305517197,15.302474975585938,-23.473548889160156,23.928966522216797,0.21674609184265137,-0.01750659942626953,-0.20124661922454834,2.8972585201263428,9.530051231384277,-1.4904690980911255
8_20251106_214554,1762436720921,8,0.1627236157655716,0.4040165841579437,0.6474854946136475,0.6253432631492615,0.5852444171905518,3.3775970935821533,0.8439024090766907,3.13435435295105,9.513742446899414,-1.4271678924560547,0.14086538553237915,-0.003966802731156349,0.12399790436029434,15.28244400024414,-23.388046264648438,24.01093292236328,0.18967652320861816,-0.013047218322753906,0.05064094066619873,2.9446778297424316,9.526789665222168,-1.4778088331222534
8_20251106_214554,1762436720940,8,0.1613531857728958,0.40513530373573303,0.6477620005607605,0.6246878504753113,0.5877031683921814,3.3801655769348145,0.8429067730903625,3.146324872970581,9.467057228088379,-1.2763396501541138,0.1738520860671997,0.013748274184763432,0.10811541974544525,15.261905670166016,-23.31482696533203,24.065601348876953,0.1613175868988037,-0.04778575897216797,0.16117537021636963,2.9850072860717773,9.514842987060547,-1.4375150203704834
8_20251106_214554,1762436720959,8,0.15974096953868866,0.40571829676628113,0.6481897830963135,0.6242799758911133,0.5909454226493835,3.3826441764831543,0.8416325449943542,3.1977977752685547,9.43832778930664,-1.5109612941741943,0.20928224921226501,0.028409026563167572,0.09162207692861557,15.180338859558105,-23.24571990966797,24.131332397460938,0.17023229598999023,-0.06121253967285156,-0.05875706672668457,3.0275654792785645,9.499540328979492,-1.4522042274475098
8_20251106_214554,1762436720979,8,0.15797895193099976,0.40599748492240906,0.6488053202629089,0.6239073276519775,0.5944302678108215,3.3847110271453857,0.8398831486701965,3.160689353942871,9.404809951782227,-1.6294692754745483,0.23432770371437073,-0.03389917314052582,0.08429169654846191,15.156585693359375,-23.22327423095703,24.239009857177734,0.10649919509887695,-0.07578468322753906,-0.14181196689605713,3.054190158843994,9.480594635009766,-1.4876573085784912
8_20251106_214554,1762436720997,8,0.15656022727489471,0.4069124460220337,0.6495888829231262,0.6228526830673218,0.5973625183105469,3.386068820953369,0.83805912733078,3.1080193519592285,9.338972091674805,-1.674957036972046,0.24898844957351685,-0.07299451529979706,0.089789479970932,15.156585693359375,-23.22327423095703,24.239009857177734,0.04306316375732422,-0.11329841613769531,-0.1498398780822754,3.0649561882019043,9.4522705078125,-1.5251171588897705
8_20251106_214554,1762436721016,8,0.15533842146396637,0.4081311821937561,0.6504708528518677,0.6214390993118286,0.6009743809700012,3.3869545459747314,0.8349754810333252,3.1750540733337402,9.244405746459961,-1.8688790798187256,0.24898844957351685,-0.07299451529979706,0.089789479970932,15.09737491607666,-23.19011688232422,24.29141616821289,0.08807826042175293,-0.1662921905517578,-0.2750096321105957,3.0869758129119873,9.410697937011719,-1.5938694477081299
8_20251106_214554,1762436721035,8,0.15409329533576965,0.4095124900341034,0.6513848900794983,0.6198810338973999,0.6048895716667175,3.387333869934082,0.8309091925621033,3.3258824348449707,9.257573127746582,-2.0616040229797363,0.2624274790287018,-0.08704440295696259,0.10811541974544525,15.039981842041016,-23.11968994140625,24.385162353515625,0.19112539291381836,-0.12249946594238281,-0.374187707901001,3.1347570419311523,9.380072593688965,-1.6874163150787354
8_20251106_214554,1762436721054,8,0.15280881524085999,0.41117578744888306,0.6523403525352478,0.6180905699729919,0.6092844605445862,3.38741397857666,0.8259243965148926,3.380946636199951,9.277923583984375,-2.096318244934082,0.20806050300598145,-0.060777220875024796,0.06168970465660095,15.006242752075195,-23.07184600830078,24.384746551513672,0.19695186614990234,-0.08171939849853516,-0.3271216154098511,3.183994770050049,9.35964298248291,-1.769196629524231
8_20251106_214554,1762436721073,8,0.15185491740703583,0.412686288356781,0.6530956625938416,0.6165193915367126,0.6137897372245789,3.387200117111206,0.8202387690544128,3.304335355758667,9.253981590270996,-2.115471124649048,0.15125009417533875,0.004585303366184235,-0.017111849039793015,14.949963569641113,-22.976707458496094,24.519569396972656,0.09627246856689453,-0.08452892303466797,-0.2770195007324219,3.2080628871917725,9.338510513305664,-1.838451623916626
8_20251106_214554,1762436721093,8,0.15115106105804443,0.41328853368759155,0.653879702091217,0.6154569983482361,0.6182201504707336,3.386554479598999,0.8131870031356812,3.1834335327148438,9.196523666381836,-2.287846326828003,0.15125009417533875,0.004585303366184235,-0.017111849039793015,14.918761253356934,-22.86742401123047,24.655635833740234,-0.019703388214111328,-0.11358928680419922,-0.3595157861709595,3.203136920928955,9.310112953186035,-1.9283305406570435
8_20251106_214554,1762436721111,8,0.15040521323680878,0.4130861759185791,0.6549303531646729,0.6146578788757324,0.6216825842857361,3.3857200145721436,0.8058627247810364,3.070910930633545,9.19532585144043,-2.4542362689971924,0.12559378147125244,0.050400156527757645,-0.0592615082859993,14.908814430236816,-22.80718231201172,24.832176208496094,-0.10578083992004395,-0.09182929992675781,-0.42072463035583496,3.176691770553589,9.287155151367188,-2.0335116386413574
8_20251106_214554,1762436721131,8,0.14980608224868774,0.41295126080513,0.6561052203178406,0.6136410236358643,0.6247974634170532,3.384523630142212,0.7966997027397156,2.9990878105163574,9.183355331420898,-2.504512310028076,0.09871574491262436,0.019856922328472137,-0.023220494389533997,14.91174602508545,-22.745208740234375,24.914592742919922,-0.14208316802978516,-0.08304023742675781,-0.376800537109375,3.1411709785461426,9.266395568847656,-2.127711772918701
8_20251106_214554,1762436721150,8,0.14941996335983276,0.4132067561149597,0.6570982336997986,0.6124996542930603,0.6271728277206421,3.3832027912139893,0.7874783873558044,2.9823291301727295,9.178567886352539,-2.474586009979248,0.09871574491262436,0.019856922328472137,-0.023220494389533997,14.956465721130371,-22.592544555664062,24.959781646728516,-0.1270735263824463,-0.07026195526123047,-0.2774994373321533,3.109402656555176,9.24882984161377,-2.1970865726470947
8_20251106_214554,1762436721169,8,0.14911286532878876,0.4139394462108612,0.6577021479606628,0.6114305853843689,0.6292778253555298,3.3816206455230713,0.7782490849494934,3.054152250289917,9.129488945007324,-2.368048667907715,0.04679224267601967,-0.035120900720357895,0.08245909959077835,14.996660232543945,-22.515625,25.043933868408203,-0.04420018196105957,-0.0954732894897461,-0.13676953315734863,3.0983524322509766,9.22496223449707,-2.231279134750366
8_20251106_214554,1762436721188,8,0.14879567921161652,0.41501376032829285,0.6579195857048035,0.6105450391769409,0.6313402652740479,3.379753828048706,0.7694114446640015,3.1211867332458496,9.09238052368164,-2.256722927093506,0.04740310460329056,-0.06810759752988815,0.10689369589090347,15.013273239135742,-22.43921661376953,25.01897430419922,0.018267393112182617,-0.10606575012207031,-0.0203549861907959,3.102919340133667,9.198446273803711,-2.23636794090271
8_20251106_214554,1762436721207,8,0.14845725893974304,0.41638827323913574,0.6578691601753235,0.6097453236579895,0.6334565877914429,3.3779304027557373,0.7615253329277039,3.208571434020996,9.14026165008545,-2.20884108543396,0.06939423829317093,-0.10598120838403702,0.11116974800825119,14.978842735290527,-22.392311096191406,25.113174438476562,0.08452153205871582,-0.046547889709472656,0.02202153205871582,3.1240499019622803,9.186809539794922,-2.230862617492676
8_20251106_214554,1762436721226,8,0.1482003927230835,0.41800644993782043,0.6577298641204834,0.6088502407073975,0.6359190940856934,3.3762762546539307,0.7536843419075012,3.2480740547180176,9.250391006469727,-2.206446886062622,0.08344412595033646,-0.1273614764213562,0.09589812904596329,14.969278335571289,-22.34314727783203,25.14077377319336,0.09921932220458984,0.05086517333984375,0.01953268051147461,3.1488547325134277,9.199525833129883,-2.2259795665740967
8_20251106_214554,1762436721245,8,0.14800381660461426,0.4195936322212219,0.6576386094093323,0.6079041957855225,0.6385558247566223,3.374831438064575,0.7458153963088989,3.206177234649658,9.268346786499023,-2.2351760864257812,0.07733547687530518,-0.1169767826795578,0.06168970465660095,14.97098445892334,-22.317626953125,25.100753784179688,0.045858144760131836,0.05505657196044922,-0.007357120513916016,3.1603190898895264,9.213290214538574,-2.2278189659118652
8_20251106_214554,1762436721264,8,0.14792393147945404,0.4207858443260193,0.657669186592102,0.6070659160614014,0.6409299373626709,3.3737244606018066,0.7386475205421448,3.1582953929901123,9.285104751586914,-2.251934766769409,0.03396408259868622,-0.06932932883501053,0.03603338450193405,14.997261047363281,-22.290252685546875,25.034683227539062,-0.0016188621520996094,0.05745124816894531,-0.019292593002319336,3.159914255142212,9.227653503417969,-2.23264217376709
8_20251106_214554,1762436721284,8,0.14793667197227478,0.42145034670829773,0.6576564311981201,0.6066154837608337,0.6435611248016357,3.3728904724121094,0.7315592765808105,3.24448299407959,9.317424774169922,-2.206446886062622,-0.022846341133117676,-0.014351502992212772,0.018929172307252884,15.003802299499512,-22.176971435546875,25.010025024414062,0.06765508651733398,0.07181739807128906,0.02095627784729004,3.176827907562256,9.245607376098633,-2.227403163909912
8_20251106_214554,1762436721301,8,0.14801684021949768,0.42159560322761536,0.6574921607971191,0.6066730618476868,0.6435611248016357,3.3728904724121094,0.7315592765808105,3.24448299407959,9.317424774169922,-2.206446886062622,-0.06988292187452316,0.01619173213839531,-0.012835794128477573,14.942575454711914,-22.18134307861328,25.04812240600586,0.06765508651733398,0.07181739807128906,0.02095627784729004,3.176827907562256,9.245607376098633,-2.227403163909912
8_20251106_214554,1762436721321,8,0.14818774163722992,0.42132672667503357,0.6571522355079651,0.6071862578392029,0.6488598585128784,3.3719799518585205,0.7208264470100403,3.28637957572937,9.270740509033203,-1.9586578607559204,-0.06682860106229782,0.024132974445819855,-0.030550871044397354,14.904311180114746,-22.209243774414062,25.086669921875,0.07011294364929199,0.004593849182128906,0.18923437595367432,3.216266632080078,9.266146659851074,-2.1478922367095947
8_20251106_214554,1762436721341,8,0.14829526841640472,0.4207553267478943,0.6568460464477539,0.6078870892524719,0.6517986059188843,3.371513843536377,0.7164316773414612,3.27201509475708,9.259967803955078,-1.9347169399261475,-0.022846341133117676,-0.0051885321736335754,-0.036659516394138336,14.903717994689941,-22.210052490234375,25.167766571044922,0.04459881782531738,-0.004942893981933594,0.17054033279418945,3.2274162769317627,9.264910697937012,-2.105257272720337
8_20251106_214554,1762436721359,8,0.14842060208320618,0.4203408360481262,0.6567002534866333,0.6083006858825684,0.6543502807617188,3.371070623397827,0.7128906846046448,3.243285894393921,9.24679946899414,-2.017313241958618,0.015027272514998913,-0.03328831121325493,-0.03421606123447418,14.9298095703125,-22.17133331298828,25.22360610961914,0.012695789337158203,-0.014489173889160156,0.07035517692565918,3.2305901050567627,9.2612886428833,-2.0876684188842773
8_20251106_214554,1762436721380,8,0.14856530725955963,0.4201391339302063,0.6567152738571167,0.6083884835243225,0.6570805311203003,3.3706231117248535,0.7091056108474731,3.2013893127441406,9.274332046508789,-2.0460424423217773,0.032131485641002655,-0.05283597856760025,-0.04460075870156288,14.965860366821289,-22.181236267089844,25.19778060913086,-0.023360729217529297,0.010435104370117188,0.03330087661743164,3.22475004196167,9.263896942138672,-2.079343318939209
8_20251106_214554,1762436721400,8,0.14882709085941315,0.42005154490470886,0.6569209694862366,0.6081628799438477,0.6570805311203003,3.3706231117248535,0.7091056108474731,3.2013893127441406,9.274332046508789,-2.0460424423217773,0.022968515753746033,-0.029012255370616913,-0.06598102301359177,14.98762321472168,-22.217994689941406,25.265552520751953,-0.023360729217529297,0.010435104370117188,0.03330087661743164,3.22475004196167,9.263896942138672,-2.079343318939209
8_20251106_214554,1762436721417,8,0.14918412268161774,0.41970497369766235,0.6572059988975525,0.6080066561698914,0.6593199968338013,3.3701236248016357,0.7053245902061462,3.0948517322540283,9.249194145202637,-2.083150863647461,0.014416408725082874,0.0027527092024683952,-0.08613955974578857,14.98762321472168,-22.217994689941406,25.265552520751953,-0.10391879081726074,-0.011761665344238281,-0.0030460357666015625,3.198770523071289,9.260955810546875,-2.0801048278808594
8_20251106_214554,1762436721436,8,0.14951996505260468,0.41893306374549866,0.6576942801475525,0.6079285740852356,0.660727322101593,3.3692095279693604,0.6989465355873108,2.8111510276794434,9.201311111450195,-2.273481607437134,0.005253436975181103,0.018024325370788574,-0.07514399290084839,14.963857650756836,-22.20716094970703,25.278350830078125,-0.270676851272583,-0.0448760986328125,-0.1321885585784912,3.0818278789520264,9.246187210083008,-2.1412930488586426
8_20251106_214554,1762436721455,8,0.1498883217573166,0.41816240549087524,0.6582672595977783,0.60774827003479,0.660727322101593,3.3692095279693604,0.6989465355873108,2.8111510276794434,9.201311111450195,-2.273481607437134,-0.006352992728352547,0.016802597790956497,-0.024442221969366074,15.00011920928955,-22.205184936523438,25.320369720458984,-0.270676851272583,-0.0448760986328125,-0.1321885585784912,3.0818278789520264,9.246187210083008,-2.1412930488586426
8_20251106_214554,1762436721475,8,0.15011492371559143,0.4176190197467804,0.6587055325508118,0.6075910329818726,0.6601414084434509,3.3685667514801025,0.6944901943206787,2.800377368927002,9.23243522644043,-2.317772626876831,-0.019792016595602036,-0.014962367713451385,0.0335899256169796,15.06174087524414,-22.200271606445312,25.228206634521484,-0.2251605987548828,-0.0110015869140625,-0.14118361473083496,3.0255379676818848,9.243436813354492,-2.176589012145996
8_20251106_214554,1762436721494,8,0.15034861862659454,0.4176979660987854,0.6587741374969482,0.6074045896530151,0.6591451168060303,3.367962598800659,0.6900217533111572,2.8722004890441895,9.236026763916016,-2.32016658782959,-0.043004874140024185,-0.04978165775537491,0.07818304747343063,15.148650169372559,-22.169326782226562,25.205135345458984,-0.12266993522644043,-0.00592803955078125,-0.11486196517944336,2.99487042427063,9.241954803466797,-2.2053046226501465
8_20251106_214554,1762436721513,8,0.1505536437034607,0.41827815771102905,0.6584416031837463,0.6073150634765625,0.6581651568412781,3.367664337158203,0.6863104701042175,2.942826271057129,9.33059310913086,-2.160959005355835,-0.05338957533240318,-0.05222511664032936,0.09345466643571854,15.149157524108887,-22.15703582763672,25.232433319091797,-0.04163551330566406,0.07091045379638672,0.0354764461517334,2.984461784362793,9.259682655334473,-2.1964354515075684
8_20251106_214554,1762436721532,8,0.15069356560707092,0.4188224673271179,0.6578460931777954,0.6075505614280701,0.6573296785354614,3.3677542209625244,0.6810336709022522,3.2480740547180176,9.377278327941895,-1.9251405000686646,-0.05338957533240318,-0.05222511664032936,0.09345466643571854,15.147734642028809,-22.193763732910156,25.137027740478516,0.19648337364196777,0.081390380859375,0.17879998683929443,3.05159068107605,9.29588794708252,-2.103940486907959
8_20251106_214554,1762436721550,8,0.15050002932548523,0.41908177733421326,0.6572972536087036,0.6080136299133301,0.6573296785354614,3.3677542209625244,0.6810336709022522,3.2480740547180176,9.377278327941895,-1.9251405000686646,-0.009407316334545612,-0.04184041544795036,0.05069413781166077,15.122249603271484,-22.220062255859375,25.094970703125,0.19648337364196777,0.081390380859375,0.17879998683929443,3.05159068107605,9.29588794708252,-2.103940486907959
8_20251106_214554,1762436721571,8,0.15036384761333466,0.4194159209728241,0.6567966341972351,0.6083577871322632,0.6592232584953308,3.3689582347869873,0.6775537133216858,3.3426408767700195,9.447903633117676,-2.035268783569336,-0.017348557710647583,-0.03939695656299591,0.02992473542690277,15.142181396484375,-22.305702209472656,25.02652359008789,0.19450807571411133,0.10820674896240234,0.03150057792663574,3.148132801055908,9.339696884155273,-2.0667693614959717
8_20251106_214554,1762436721590,8,0.15033544600009918,0.41967156529426575,0.6563334465026855,0.6086882948875427,0.660959780216217,3.370216131210327,0.6762506365776062,3.3486263751983643,9.532894134521484,-1.989781141281128,-0.03139844536781311,-0.04061868414282799,0.006711876951158047,15.190925598144531,-22.302528381347656,25.028484344482422,0.16039490699768066,0.1545581817626953,0.06159067153930664,3.1882314682006836,9.378335952758789,-2.0513718128204346
8_20251106_214554,1762436721609,8,0.150528684258461,0.4199084937572479,0.655876100063324,0.608970046043396,0.6629739999771118,3.371920585632324,0.6754050254821777,3.321094036102295,9.564018249511719,-1.9083818197250366,-0.019792016595602036,-0.024736203253269196,-0.029940005391836166,15.173805236816406,-22.391220092773438,25.026145935058594,0.10628986358642578,0.1485462188720703,0.11439192295074463,3.214804172515869,9.415472030639648,-2.0227737426757812
8_20251106_214554,1762436721628,8,0.15075229108333588,0.4197085499763489,0.655672550201416,0.6092716455459595,0.6648638844490051,3.373710870742798,0.6747972965240479,3.206177234649658,9.477829933166504,-1.9514755010604858,0.007696895860135555,-0.0003016144037246704,-0.07331139594316483,15.133524894714355,-22.45665740966797,25.05038833618164,-0.00690150260925293,0.04988670349121094,0.05703866481781006,3.213078737258911,9.427943229675293,-2.008514165878296
8_20251106_214554,1762436721646,8,0.15096132457256317,0.41900235414505005,0.6558254361152649,0.6095414161682129,0.6662559509277344,3.3751354217529297,0.6740989685058594,3.0876693725585938,9.352140426635742,-2.0699832439422607,0.021746784448623657,0.011915680021047592,-0.09285906702280045,15.070269584655762,-22.51018524169922,24.979297637939453,-0.1003274917602539,-0.060642242431640625,-0.049175262451171875,3.1879968643188477,9.412782669067383,-2.020807981491089
8_20251106_214554,1762436721666,8,0.15124395489692688,0.4181380271911621,0.6562363505363464,0.6096225380897522,0.6662559509277344,3.3751354217529297,0.6740989685058594,3.0876693725585938,9.352140426635742,-2.0699832439422607,0.008918625302612782,0.0033635739237070084,-0.08675042539834976,15.080835342407227,-22.54638671875,24.911415100097656,-0.1003274917602539,-0.060642242431640625,-0.049175262451171875,3.1879968643188477,9.412782669067383,-2.020807981491089
8_20251106_214554,1762436721684,8,0.1516939401626587,0.41745975613594055,0.6566516757011414,0.6095284223556519,0.6671569347381592,3.377016544342041,0.6720407009124756,2.9308557510375977,9.295878410339355,-2.0723772048950195,0.008918625302612782,0.0033635739237070084,-0.08675042539834976,15.119916915893555,-22.494178771972656,24.954490661621094,-0.16916728019714355,-0.07462692260742188,-0.025151729583740234,3.100023031234741,9.370505332946777,-2.0472254753112793
8_20251106_214554,1762436721703,8,0.1521545946598053,0.41690537333488464,0.6570111513137817,0.6094056367874146,0.6669058799743652,3.377659559249878,0.6710478067398071,2.957190990447998,9.332986831665039,-2.048436403274536,0.010751218535006046,-0.017405826598405838,-0.04276816546916962,15.168760299682617,-22.490867614746094,24.942935943603516,-0.11426544189453125,-0.030014991760253906,-0.0009686946868896484,3.0714564323425293,9.363001823425293,-2.0474677085876465
8_20251106_214554,1762436721723,8,0.15250028669834137,0.41644182801246643,0.6573755741119385,0.6092431545257568,0.6661618947982788,3.378138542175293,0.6699173450469971,2.909309148788452,9.309045791625977,-2.0927271842956543,0.03029889240860939,-0.03023398295044899,-0.04276816546916962,15.208335876464844,-22.43798828125,24.91843032836914,-0.12971782684326172,-0.04316520690917969,-0.03620767593383789,3.039026975631714,9.352210998535156,-2.0565195083618164
8_20251106_214554,1762436721742,8,0.15287742018699646,0.41613703966140747,0.6577513217926025,0.6089512705802917,0.6661618947982788,3.378138542175293,0.6699173450469971,2.909309148788452,9.309045791625977,-2.0927271842956543,0.03396407887339592,-0.0400078222155571,-0.023220494389533997,15.171172142028809,-22.452796936035156,24.903179168701172,-0.12971782684326172,-0.04316520690917969,-0.03620767593383789,3.039026975631714,9.352210998535156,-2.0565195083618164
8_20251106_214554,1762436721760,8,0.1532314568758011,0.4160403609275818,0.6580970287322998,0.6085547208786011,0.6635898947715759,3.3787121772766113,0.6669489145278931,2.8722004890441895,9.371293067932129,-2.1956734657287598,0.011972949840128422,-0.04245128110051155,0.01709657721221447,15.207025527954102,-22.462974548339844,24.904388427734375,-0.10408759117126465,0.02447032928466797,-0.08848404884338379,2.976288080215454,9.346822738647461,-2.107189416885376
8_20251106_214554,1762436721780,8,0.1534421294927597,0.41616448760032654,0.6582916378974915,0.6082062125205994,0.6635898947715759,3.3787121772766113,0.6669489145278931,2.8722004890441895,9.371293067932129,-2.1956734657287598,-0.003298669122159481,-0.04184041544795036,0.04275289550423622,15.267955780029297,-22.459007263183594,24.906841278076172,-0.10408759117126465,0.02447032928466797,-0.08848404884338379,2.976288080215454,9.346822738647461,-2.107189416885376
8_20251106_214554,1762436721799,8,0.15358884632587433,0.41641420125961304,0.6582719683647156,0.6080194711685181,0.6615452170372009,3.379660129547119,0.6642931699752808,3.1211867332458496,9.38446044921875,-1.9909781217575073,0.00464257225394249,-0.03389917314052582,0.031146466732025146,15.272396087646484,-22.371780395507812,24.976268768310547,0.10499286651611328,0.023512840270996094,0.08816516399383545,3.0161938667297363,9.360947608947754,-2.0791432857513428
8_20251106_214554,1762436721819,8,0.15360550582408905,0.4166681468486786,0.658118724822998,0.6080072522163391,0.6610949635505676,3.3800861835479736,0.6634864807128906,3.1223840713500977,9.346155166625977,-1.9921752214431763,0.016859866678714752,-0.013740637339651585,-0.001229364424943924,15.273002624511719,-22.359359741210938,24.990047454833984,0.08495235443115234,-0.011834144592285156,0.06957447528839111,3.0374317169189453,9.357989311218262,-2.0617496967315674
8_20251106_214554,1762436721839,8,0.15346060693264008,0.4165191054344177,0.6581475734710693,0.6081146597862244,0.6606518626213074,3.3804872035980225,0.6627457737922668,3.039787530899048,9.349745750427246,-2.0400569438934326,0.026022840291261673,-0.0051885321736335754,-0.03482692316174507,15.320732116699219,-22.380760192871094,24.937416076660156,0.0018846988677978516,-0.006594657897949219,0.017354249954223633,3.03790283203125,9.356340408325195,-2.0574111938476562
8_20251106_214554,1762436721857,8,0.15344056487083435,0.4161931574344635,0.6583428382873535,0.6081315279006958,0.6599681377410889,3.3807456493377686,0.6619377136230469,2.9344472885131836,9.318622589111328,-2.1082887649536133,0.03457494452595711,0.0027527092024683952,-0.049487676471471786,15.320732116699219,-22.380760192871094,24.937416076660156,-0.0827646255493164,-0.03017425537109375,-0.040702104568481445,3.0172119140625,9.348796844482422,-2.067586660385132
8_20251106_214554,1762436721876,8,0.15356720983982086,0.41578125953674316,0.6586947441101074,0.6080002188682556,0.6588025093078613,3.3808164596557617,0.6609401106834412,2.8291068077087402,9.285104751586914,-2.1513826847076416,0.032131485641002655,0.006417897529900074,-0.049487676471471786,15.342904090881348,-22.405364990234375,25.045997619628906,-0.1504840850830078,-0.05095386505126953,-0.06703686714172363,2.979590892791748,9.336058616638184,-2.084345817565918
8_20251106_214554,1762436721895,8,0.15367984771728516,0.4152313470840454,0.65920490026474,0.6077946424484253,0.6570950746536255,3.380579710006714,0.6599069833755493,2.7608752250671387,9.225252151489258,-2.115471124649048,0.011972949840128422,0.012526544742286205,-0.03177259862422943,15.357711791992188,-22.3546142578125,25.07457733154297,-0.1749725341796875,-0.08864498138427734,-0.024900197982788086,2.935847759246826,9.313897132873535,-2.0905709266662598
8_20251106_214554,1762436721915,8,0.1538466513156891,0.4147201478481293,0.6596091985702515,0.6076628565788269,0.65468829870224,3.3799242973327637,0.6589546799659729,2.705810546875,9.176173210144043,-2.063998222351074,0.008918625302612782,0.024743840098381042,-0.008559742011129856,15.383296012878418,-22.32817840576172,25.103118896484375,-0.18402981758117676,-0.11017894744873047,0.021258115768432617,2.8898403644561768,9.286352157592773,-2.085256338119507
8_20251106_214554,1762436721933,8,0.1537923961877823,0.4141486883163452,0.6599797606468201,0.6076639294624329,0.6523453593254089,3.3790719509124756,0.6578773856163025,2.7740426063537598,9.167794227600098,-2.192082405090332,0.022968515753746033,0.017413463443517685,0.024426952004432678,15.373534202575684,-22.279281616210938,25.15774917602539,-0.09263801574707031,-0.09484672546386719,-0.08546090126037598,2.86668062210083,9.262640953063965,-2.106621503829956
8_20251106_214554,1762436721956,8,0.15363477170467377,0.41383785009384155,0.660247802734375,0.6076244115829468,0.6523453593254089,3.3790719509124756,0.6578773856163025,2.7740426063537598,9.167794227600098,-2.192082405090332,0.038240134716033936,-0.04245128110051155,0.06046797335147858,15.3876371383667,-22.2410888671875,25.186065673828125,-0.09263801574707031,-0.09484672546386719,-0.08546090126037598,2.86668062210083,9.262640953063965,-2.106621503829956
8_20251106_214554,1762436721971,8,0.1534624993801117,0.4142411947250366,0.6604413390159607,0.6071826219558716,0.6476982831954956,3.3771941661834717,0.6552020907402039,2.908112049102783,9.297075271606445,-2.1370179653167725,0.038240134716033936,-0.04245128110051155,0.06046797335147858,15.471430778503418,-22.260780334472656,25.20248794555664,0.03551793098449707,0.033720970153808594,-0.011792421340942383,2.872594118118286,9.263354301452637,-2.12522554397583
8_20251106_214554,1762436721992,8,0.15318864583969116,0.4150148034095764,0.6604369282722473,0.6067281365394592,0.6463176012039185,3.3765883445739746,0.653677761554718,3.1391425132751465,9.34495735168457,-2.194476366043091,0.04984656348824501,-0.03023398667573929,0.10139591246843338,15.500823020935059,-22.182769775390625,25.096923828125,0.21323871612548828,0.06528282165527344,-0.05540060997009277,2.925903797149658,9.279674530029297,-2.139075756072998
8_20251106_214554,1762436722010,8,0.15264104306697845,0.4156477153301239,0.6603944897651672,0.6064790487289429,0.6463176012039185,3.3765883445739746,0.653677761554718,3.1391425132751465,9.34495735168457,-2.194476366043091,0.041905321180820465,-0.02351447567343712,0.08123736828565598,15.441612243652344,-22.14960479736328,25.149330139160156,0.21323871612548828,0.06528282165527344,-0.05540060997009277,2.925903797149658,9.279674530029297,-2.139075756072998
8_20251106_214554,1762436722029,8,0.1521081179380417,0.4164607524871826,0.6601977944374084,0.6062692403793335,0.6468884944915771,3.3760974407196045,0.6500599980354309,3.3462321758270264,9.415583610534668,-2.2794668674468994,0.03274235129356384,-0.027790527790784836,0.034811653196811676,15.41874885559082,-22.125946044921875,25.135360717773438,0.27552199363708496,0.10058021545410156,-0.09425544738769531,3.0707101821899414,9.315003395080566,-2.185211420059204
8_20251106_214554,1762436722048,8,0.15171876549720764,0.41717013716697693,0.6600632667541504,0.6060255765914917,0.6480860710144043,3.3763813972473145,0.6481930017471313,3.2456798553466797,9.44072151184082,-2.2004616260528564,0.010140354745090008,0.0039744386449456215,-0.033605191856622696,15.344025611877441,-22.156097412109375,25.158924102783203,0.13997554779052734,0.10057449340820312,-0.012200117111206055,3.1057043075561523,9.340147018432617,-2.1882615089416504
8_20251106_214554,1762436722067,8,0.1516074240207672,0.4172494411468506,0.6601095199584961,0.6059484481811523,0.6492815613746643,3.376690149307251,0.6463028192520142,3.1535072326660156,9.361716270446777,-2.273481845855713,0.0009773839265108109,0.05406534671783447,-0.0800309106707573,15.368087768554688,-22.166526794433594,25.105575561523438,0.038242340087890625,0.01725482940673828,-0.06817626953125,3.115264892578125,9.344461441040039,-2.205305576324463
8_20251106_214554,1762436722085,8,0.15154604613780975,0.4165111780166626,0.6604100465774536,0.6061441898345947,0.6502798795700073,3.37675142288208,0.6440955400466919,3.0421814918518066,9.253982543945312,-2.318969488143921,0.00464257225394249,0.03573940321803093,-0.07208967208862305,15.34280014038086,-22.19255828857422,25.036483764648438,-0.05846691131591797,-0.07238292694091797,-0.09093117713928223,3.1006484031677246,9.32636547088623,-2.2280383110046387
8_20251106_214554,1762436722105,8,0.15166941285133362,0.41603732109069824,0.6607270240783691,0.6060933470726013,0.6511296033859253,3.376756429672241,0.6419466137886047,3.0517578125,9.307848930358887,-2.208840847015381,-0.019792016595602036,-0.01312977448105812,-0.034216057509183884,15.306439399719238,-22.194671630859375,25.007980346679688,-0.03911256790161133,-0.014813423156738281,0.01535797119140625,3.0908703804016113,9.322662353515625,-2.224198818206787
8_20251106_214554,1762436722124,8,0.15200985968112946,0.415998637676239,0.660805881023407,0.6059486269950867,0.6518417000770569,3.3769304752349854,0.6408309936523438,3.070910930633545,9.38446044921875,-1.9239434003829956,-0.03750709444284439,-0.03206657990813255,-0.01955530419945717,15.284577369689941,-22.158050537109375,24.95372772216797,-0.015967607498168945,0.0494384765625,0.24020445346832275,3.086878538131714,9.33502197265625,-2.1641478538513184
8_20251106_214554,1762436722143,8,0.15245890617370605,0.41602760553359985,0.6606191992759705,0.6060194969177246,0.6518417000770569,3.3769304752349854,0.6408309936523438,3.070910930633545,9.38446044921875,-1.9239434003829956,-0.00696385744959116,-0.0009124791249632835,-0.03482692316174507,15.283885955810547,-22.15899658203125,25.04833984375,-0.015967607498168945,0.0494384765625,0.24020445346832275,3.086878538131714,9.33502197265625,-2.1641478538513184
8_20251106_214554,1762436722162,8,0.15260723233222961,0.4154840111732483,0.6605682373046875,0.6064104437828064,0.6527884602546692,3.3776073455810547,0.6412774324417114,2.960782289505005,9.390445709228516,-1.9071846008300781,0.030909758061170578,0.02901989221572876,-0.06170497089624405,15.330812454223633,-22.193084716796875,25.008960723876953,-0.09889674186706543,0.03757762908935547,0.14702749252319336,3.0596790313720703,9.35286808013916,-2.0542120933532715
8_20251106_214554,1762436722182,8,0.15250204503536224,0.4145069718360901,0.6608356237411499,0.6068141460418701,0.6525241136550903,3.3779165744781494,0.6416787505149841,2.878185749053955,9.324607849121094,-2.078362464904785,0.04557051137089729,0.03512853756546974,-0.05193113535642624,15.33181381225586,-22.18012237548828,24.968673706054688,-0.14519453048706055,-0.022607803344726562,-0.019320249557495117,3.0233802795410156,9.34721565246582,-2.05904221534729
8_20251106_214554,1762436722201,8,0.1524149626493454,0.4136328399181366,0.6612672805786133,0.6069622039794922,0.6519069075584412,3.378209114074707,0.6418171525001526,2.8853683471679688,9.352140426635742,-2.1406092643737793,0.032131485641002655,0.01924605667591095,-0.011003200896084309,15.418426513671875,-22.149581909179688,24.98615264892578,-0.11040949821472168,0.003939628601074219,-0.06525349617004395,2.9957778453826904,9.348200798034668,-2.0753557682037354
8_20251106_214554,1762436722219,8,0.15227824449539185,0.4131739139556885,0.6616169214248657,0.6069281101226807,0.6513624787330627,3.378452777862549,0.6418842077255249,3.0002849102020264,9.340168952941895,-2.09871244430542,0.026022840291261673,-0.010075449012219906,0.028703007847070694,15.442193031311035,-22.160415649414062,24.97335433959961,0.0036056041717529297,-0.0064258575439453125,-0.018685340881347656,2.9966793060302734,9.34659481048584,-2.0800271034240723
8_20251106_214554,1762436722239,8,0.15214088559150696,0.4131897985935211,0.6617563962936401,0.6067996621131897,0.6510899066925049,3.378835916519165,0.6419928073883057,3.0960488319396973,9.388051986694336,-2.067589282989502,0.05595520883798599,-0.04306214675307274,0.04275289550423622,15.442193031311035,-22.160415649414062,24.97335433959961,0.07949566841125488,0.033165931701660156,0.00995016098022461,3.0165531635284424,9.354886054992676,-2.0775394439697266
8_20251106_214554,1762436722259,8,0.1519814282655716,0.4136927127838135,0.6617932319641113,0.6064566969871521,0.6511563062667847,3.3792898654937744,0.6420716047286987,3.1235809326171875,9.38446044921875,-2.085545063018799,0.08405499160289764,-0.04367300868034363,0.02748127654194832,15.431824684143066,-22.123939514160156,25.014205932617188,0.08562231063842773,0.023659706115722656,-0.0064046382904052734,3.0379586219787598,9.360800743103027,-2.0791404247283936
8_20251106_214554,1762436722278,8,0.1516631841659546,0.41409891843795776,0.6620043516159058,0.6060285568237305,0.6515562534332275,3.379711866378784,0.6416982412338257,3.16188645362854,9.365306854248047,-2.241161346435547,0.08405499160289764,-0.0167949628084898,0.0006032297387719154,15.431824684143066,-22.123939514160156,25.014205932617188,0.09914231300354004,0.003604888916015625,-0.12961673736572266,3.062744140625,9.361701965332031,-2.111544609069824
8_20251106_214554,1762436722296,8,0.15130485594272614,0.41421258449554443,0.6623461842536926,0.6056668162345886,0.6519834995269775,3.3801212310791016,0.6410754323005676,3.0900635719299316,9.373686790466309,-2.227993965148926,0.06023126095533371,-0.010686314664781094,-0.04093556851148605,15.431119918823242,-22.136497497558594,25.01394271850586,0.021855592727661133,0.009587287902832031,-0.09315943717956543,3.0682079792022705,9.364099502563477,-2.1348345279693604
8_20251106_214554,1762436722315,8,0.151282399892807,0.41427433490753174,0.6627267599105835,0.6052137613296509,0.6521565914154053,3.3803510665893555,0.6403102874755859,2.975146770477295,9.298273086547852,-2.1860971450805664,0.06023126095533371,-0.010686314664781094,-0.04093556851148605,15.456098556518555,-22.12248992919922,25.028701782226562,-0.07444906234741211,-0.05266094207763672,-0.041010141372680664,3.049595832824707,9.350934028625488,-2.1450870037078857
