session_id,timestamp,label,quaternion_w,quaternion_x,quaternion_y,quaternion_z,position_x,position_y,position_z,accelerometer_x,accelerometer_y,accelerometer_z,gyroscope_x,gyroscope_y,gyroscope_z,magnetometer_x,magnetometer_y,magnetometer_z,linear_acceleration_x,linear_acceleration_y,linear_acceleration_z,gravity_x,gravity_y,gravity_z
5_20251106_144937,1762411739657,5,0.2018304467201233,0.33339816331863403,0.7416635155677795,0.545935332775116,1.3885951042175293,1.9669197797775269,-2.1695613861083984,0.5666834115982056,9.548456192016602,-2.6613259315490723,-0.03498345986008644,-0.027271291241049767,0.1748180240392685,20.210472106933594,-15.615966796875,28.419143676757812,0.1492309868335724,0.3660697937011719,0.008580207824707031,0.4174524247646332,9.18238639831543,-2.6699061393737793
5_20251106_144937,1762411739677,5,0.20137548446655273,0.33452481031417847,0.7406711578369141,0.5467607378959656,1.3755663633346558,1.9731894731521606,-2.154475450515747,0.6744178533554077,9.535287857055664,-2.81813907623291,-0.033761728554964066,-0.003447567578405142,0.16687677800655365,20.143890380859375,-15.732009887695312,28.3197021484375,0.20557236671447754,0.2823209762573242,-0.11858630180358887,0.4688454866409302,9.25296688079834,-2.6995527744293213
5_20251106_144937,1762411739696,5,0.20062397420406342,0.3354969024658203,0.7399677038192749,0.5473935008049011,1.3647332191467285,1.9795173406600952,-2.141103744506836,0.8060933351516724,9.49698257446289,-2.788212776184082,-0.033761728554964066,-0.003447567578405142,0.16687677800655365,20.143890380859375,-15.732009887695312,28.3197021484375,0.26979827880859375,0.19521236419677734,-0.07092809677124023,0.5362950563430786,9.301770210266113,-2.717284679412842
5_20251106_144937,1762411739716,5,0.19990219175815582,0.33645597100257874,0.7391841411590576,0.5481270551681519,1.354927659034729,1.9866751432418823,-2.1277401447296143,0.874325156211853,9.574790954589844,-2.7199809551239014,-0.03925951197743416,0.0038828090764582157,0.13205750286579132,19.997539520263672,-15.97784423828125,28.160614013671875,0.2704240679740906,0.2184162139892578,-0.002156972885131836,0.6039010882377625,9.356374740600586,-2.7178239822387695
5_20251106_144937,1762411739735,5,0.1992776244878769,0.3373630940914154,0.7384293675422668,0.5488138794898987,1.3472834825515747,1.9934184551239014,-2.116546630859375,0.9042513370513916,9.609506607055664,-2.8121538162231445,-0.03925951197743416,0.0038828090764582157,0.13205750286579132,19.997539520263672,-15.97784423828125,28.160614013671875,0.24028021097183228,0.20250511169433594,-0.07546377182006836,0.6639711260795593,9.407001495361328,-2.736690044403076
5_20251106_144937,1762411739755,5,0.19860200583934784,0.33783748745918274,0.7379297018051147,0.5494387149810791,1.3396124839782715,2.0015387535095215,-2.1048829555511475,0.9030543565750122,9.599929809570312,-2.958193778991699,-0.02887481078505516,0.04053469002246857,0.0868535116314888,19.951507568359375,-16.155487060546875,28.101383209228516,0.19126653671264648,0.1543426513671875,-0.17720293998718262,0.7117878198623657,9.445587158203125,-2.7809908390045166
5_20251106_144937,1762411739773,5,0.19793201982975006,0.3379042148590088,0.7376466989517212,0.5500190854072571,1.3338308334350586,2.008035898208618,-2.096583366394043,0.7653936147689819,9.560426712036133,-3.086278200149536,-0.027653083205223083,0.07779744267463684,0.017825795337557793,19.909099578857422,-16.27020263671875,28.029956817626953,0.04288458824157715,0.09187126159667969,-0.24422979354858398,0.7225090265274048,9.468555450439453,-2.842048406600952
5_20251106_144937,1762411739792,5,0.19730789959430695,0.3376248776912689,0.737554669380188,0.5505380034446716,1.3271827697753906,2.0153985023498535,-2.0883774757385254,0.6612503528594971,9.501770973205566,-3.1940126419067383,-0.05147680640220642,0.08879300951957703,0.03187568485736847,19.819061279296875,-16.363388061523438,27.997642517089844,-0.04900693893432617,0.026572227478027344,-0.2815713882446289,0.7102572917938232,9.475198745727539,-2.9124412536621094
5_20251106_144937,1762411739811,5,0.19672459363937378,0.3371922969818115,0.7374418377876282,0.5511627197265625,1.321212649345398,2.0223164558410645,-2.081803321838379,0.7211028337478638,9.574790954589844,-3.215559482574463,-0.06430496275424957,0.0594714991748333,0.0868535116314888,19.815536499023438,-16.426177978515625,27.996322631835938,0.008676409721374512,0.07967376708984375,-0.2424945831298828,0.7124264240264893,9.4951171875,-2.97306489944458
5_20251106_144937,1762411739831,5,0.19603942334651947,0.33696675300598145,0.7371296286582947,0.5519618391990662,1.3158148527145386,2.029473066329956,-2.0754640102386475,0.9006602168083191,9.573594093322754,-3.0503668785095215,-0.05941804498434067,0.0026610796339809895,0.12533798813819885,19.692562103271484,-16.458831787109375,27.95034408569336,0.1505870223045349,0.06278133392333984,-0.061841487884521484,0.7500731945037842,9.510812759399414,-2.988525390625
5_20251106_144937,1762411739849,5,0.19541563093662262,0.337399423122406,0.7365397810935974,0.5527056455612183,1.3116884231567383,2.035731792449951,-2.069992780685425,0.9485421776771545,9.567608833312988,-2.9677703380584717,-0.049644213169813156,-0.015053997747600079,0.12533798813819885,19.689247131347656,-16.509735107421875,28.016868591308594,0.1587752103805542,0.045436859130859375,0.016603946685791016,0.7897669672966003,9.522171974182129,-2.9843742847442627
5_20251106_144937,1762411739869,5,0.1949656456708908,0.3381944000720978,0.7358434796333313,0.5533058047294617,1.3077644109725952,2.0425236225128174,-2.064199924468994,0.9317834973335266,9.583170890808105,-2.978543758392334,-0.05147680640220642,-0.012610538862645626,0.10517945140600204,19.614818572998047,-16.53948974609375,27.999881744384766,0.11361318826675415,0.048798561096191406,0.004664421081542969,0.8181703090667725,9.534372329711914,-2.983208179473877
5_20251106_144937,1762411739888,5,0.1945500671863556,0.3389319181442261,0.7352039217948914,0.5538507103919983,1.3045052289962769,2.0489742755889893,-2.058640480041504,0.9210100173950195,9.65140151977539,-2.8624300956726074,-0.07896570861339569,0.004493673797696829,0.08624264597892761,19.551380157470703,-16.5816650390625,28.050701141357422,0.08227181434631348,0.09362316131591797,0.09662246704101562,0.838738203048706,9.557778358459473,-2.959052562713623
5_20251106_144937,1762411739906,5,0.19424617290496826,0.33930957317352295,0.7344931364059448,0.554668664932251,1.3017774820327759,2.0551106929779053,-2.053213357925415,0.9222071170806885,9.69210147857666,-2.787015914916992,-0.08996127545833588,0.03259345144033432,0.07402534782886505,19.454299926757812,-16.57586669921875,28.087589263916016,0.06677508354187012,0.10745906829833984,0.13762927055358887,0.8554320335388184,9.58464241027832,-2.924645185470581
5_20251106_144937,1762411739926,5,0.1939159482717514,0.3393147587776184,0.7337194085121155,0.5558038353919983,1.2993959188461304,2.0619618892669678,-2.046909809112549,1.0191680192947388,9.707664489746094,-2.7355427742004395,-0.08751782029867172,0.04297814890742302,0.0764688104391098,19.424697875976562,-16.665756225585938,28.125308990478516,0.13098877668380737,0.09841728210449219,0.15128183364868164,0.8881792426109314,9.609247207641602,-2.886824607849121
5_20251106_144937,1762411739946,5,0.19342081248760223,0.33890730142593384,0.7330342531204224,0.5571274161338806,1.2979137897491455,2.06892991065979,-2.0401923656463623,1.1448582410812378,9.760334014892578,-2.646961212158203,-0.07591138780117035,0.018543561920523643,0.0764688104391098,19.369510650634766,-16.782073974609375,28.13448715209961,0.20534324645996094,0.12086963653564453,0.19189071655273438,0.9395149946212769,9.639464378356934,-2.8388519287109375
5_20251106_144937,1762411739965,5,0.1930055171251297,0.33870577812194824,0.7322299480438232,0.5584501028060913,1.297217845916748,2.0747904777526855,-2.0340914726257324,1.167602300643921,9.74596881866455,-2.5308473110198975,-0.03803778067231178,-0.004058432299643755,0.0508124902844429,19.30333709716797,-16.885955810546875,28.07585906982422,0.18246984481811523,0.08520317077636719,0.24640393257141113,0.9851324558258057,9.660765647888184,-2.7772512435913086
5_20251106_144937,1762411739983,5,0.19267937541007996,0.33875906467437744,0.7314508557319641,0.559550404548645,1.2968419790267944,2.081559658050537,-2.02677845954895,1.1173261404037476,9.73280143737793,-2.614640712738037,-0.008716275915503502,0.013656644150614738,0.0007215831428766251,19.324382781982422,-16.946884155273438,28.04848861694336,0.10575497150421143,0.057628631591796875,0.13008832931518555,1.0115711688995361,9.675172805786133,-2.7447290420532227
5_20251106_144937,1762411740002,5,0.19241173565387726,0.3386176526546478,0.7308624386787415,0.5604961514472961,1.2964842319488525,2.0877315998077393,-2.019979238510132,1.0048035383224487,9.698087692260742,-2.6720991134643555,-0.01238146424293518,0.04236728698015213,-0.04936932027339935,19.285907745361328,-16.986663818359375,28.01919174194336,-0.005414128303527832,0.018331527709960938,0.05810403823852539,1.0102176666259766,9.679756164550781,-2.730203151702881
5_20251106_144937,1762411740021,5,0.19224318861961365,0.33800938725471497,0.7305608987808228,0.5613136291503906,1.2958502769470215,2.09344482421875,-2.0134623050689697,0.9030542969703674,9.625066757202148,-2.709207534790039,-0.01238146424293518,0.04236728698015213,-0.04936932027339935,19.233440399169922,-17.052902221679688,28.04294204711914,-0.0857306718826294,-0.04375171661376953,0.016796588897705078,0.9887849688529968,9.668818473815918,-2.726004123687744
5_20251106_144937,1762411740039,5,0.19218707084655762,0.33691972494125366,0.7305237650871277,0.5620357990264893,1.2948946952819824,2.098252058029175,-2.007467269897461,0.8324283957481384,9.532894134521484,-2.6732962131500244,-0.015435787849128246,0.06558015197515488,-0.0725821852684021,19.217418670654297,-17.128509521484375,27.986801147460938,-0.1250852346420288,-0.10873985290527344,0.04216623306274414,0.9575136303901672,9.641633987426758,-2.7154624462127686
5_20251106_144937,1762411740059,5,0.19217191636562347,0.3355804979801178,0.7306651473045349,0.5626581311225891,1.2932583093643188,2.1027956008911133,-2.0011894702911377,0.7510290145874023,9.467056274414062,-2.7319517135620117,0.013885718770325184,0.05275198817253113,-0.058532290160655975,19.203414916992188,-17.16656494140625,27.944969177246094,-0.16518771648406982,-0.1396617889404297,-0.013191461563110352,0.9162167310714722,9.606718063354492,-2.7187602519989014
5_20251106_144937,1762411740077,5,0.192087784409523,0.33428630232810974,0.7309411764144897,0.5630985498428345,1.2912195920944214,2.1062068939208984,-1.9961698055267334,0.6564621329307556,9.414386749267578,-2.8600358963012695,0.030989930033683777,0.0387020967900753,-0.029210785403847694,19.193836212158203,-17.129013061523438,27.877689361572266,-0.2078036665916443,-0.15386486053466797,-0.11302042007446289,0.8642657995223999,9.568251609802246,-2.7470154762268066
5_20251106_144937,1762411740098,5,0.19204573333263397,0.3332740068435669,0.7312869429588318,0.5632639527320862,1.28831946849823,2.1091396808624268,-1.9913276433944702,0.6181565523147583,9.348548889160156,-2.897144317626953,0.040763769298791885,0.02343047969043255,0.01904752478003502,19.243385314941406,-17.113143920898438,27.86640167236328,-0.19688737392425537,-0.17576217651367188,-0.1201028823852539,0.8150439262390137,9.524311065673828,-2.777041435241699
5_20251106_144937,1762411740117,5,0.19185443222522736,0.3325996994972229,0.73171466588974,0.5631722211837769,1.285158634185791,2.1114606857299805,-1.9871509075164795,0.6816002130508423,9.371292114257812,-2.916297197341919,0.024881284683942795,0.03625863790512085,0.07402534782886505,19.230297088623047,-17.12677001953125,27.892677307128906,-0.10675501823425293,-0.12241554260253906,-0.1114046573638916,0.7883552312850952,9.493707656860352,-2.8048925399780273
5_20251106_144937,1762411740136,5,0.19153834879398346,0.33240437507629395,0.7320268154144287,0.5629894733428955,1.285158634185791,2.1114606857299805,-1.9871509075164795,0.6816002130508423,9.371292114257812,-2.916297197341919,-0.003829358145594597,0.050308529287576675,0.10945551097393036,19.230297088623047,-17.12677001953125,27.892677307128906,-0.10675501823425293,-0.12241554260253906,-0.1114046573638916,0.7883552312850952,9.493707656860352,-2.8048925399780273
5_20251106_144937,1762411740156,5,0.19092920422554016,0.3324137330055237,0.73210209608078,0.5630930066108704,1.2804807424545288,2.1148359775543213,-1.9793850183486938,1.038320779800415,9.411992073059082,-2.7151927947998047,-0.008105411194264889,0.05824977159500122,0.10579031705856323,19.16616439819336,-17.169906616210938,28.03811264038086,0.18774950504302979,-0.04751014709472656,0.07215571403503418,0.8505712747573853,9.459502220153809,-2.787348508834839
5_20251106_144937,1762411740174,5,0.19011449813842773,0.33258411288261414,0.7319259643554688,0.5634968280792236,1.279475212097168,2.1158928871154785,-1.9759302139282227,1.1292966604232788,9.335381507873535,-2.77624249458313,-0.008105411194264889,0.05824977159500122,0.10579031705856323,19.16616439819336,-17.169906616210938,28.03811264038086,0.22298026084899902,-0.09929656982421875,0.008884906768798828,0.9063163995742798,9.434678077697754,-2.7851274013519287
5_20251106_144937,1762411740196,5,0.18915297091007233,0.33267873525619507,0.731691300868988,0.5640690326690674,1.2790334224700928,2.116830348968506,-1.9724383354187012,1.1101438999176025,9.376081466674805,-2.836094856262207,0.02365955337882042,0.024041345342993736,0.04897989332675934,19.141494750976562,-17.171905517578125,28.077682495117188,0.1630619764328003,-0.04687690734863281,-0.040773868560791016,0.9470819234848022,9.422958374023438,-2.795320987701416
5_20251106_144937,1762411740213,5,0.1883733868598938,0.33293476700782776,0.7314974665641785,0.5644301176071167,1.2790334224700928,2.116830348968506,-1.9724383354187012,1.1101438999176025,9.376081466674805,-2.836094856262207,0.04320722445845604,0.02220875211060047,0.019658390432596207,19.06839370727539,-17.165054321289062,28.16961669921875,0.1630619764328003,-0.04687690734863281,-0.040773868560791016,0.9470819234848022,9.422958374023438,-2.795320987701416
5_20251106_144937,1762411740232,5,0.18777883052825928,0.33321142196655273,0.7314994931221008,0.5644623637199402,1.278072714805603,2.1189165115356445,-1.9676342010498047,0.8300342559814453,9.43952465057373,-3.0778989791870117,0.031600795686244965,0.06374755501747131,-0.0023327404633164406,19.041202545166016,-17.216873168945312,28.167579650878906,-0.09693622589111328,0.001026153564453125,-0.2057485580444336,0.9269704818725586,9.438498497009277,-2.872150421142578
5_20251106_144937,1762411740250,5,0.18721604347229004,0.33302921056747437,0.7317750453948975,0.5643996596336365,1.2771868705749512,2.119492292404175,-1.9663232564926147,0.8001080751419067,9.300666809082031,-3.0623371601104736,-0.021544434130191803,0.09367992728948593,0.008051959797739983,18.992568969726562,-17.208297729492188,28.246978759765625,-0.10148990154266357,-0.11026573181152344,-0.15214943885803223,0.9015979766845703,9.410932540893555,-2.9101877212524414
5_20251106_144937,1762411740269,5,0.18670029938220978,0.33242732286453247,0.7321316003799438,0.5644629001617432,1.2762730121612549,2.1195766925811768,-1.9649925231933594,0.8922808170318604,9.231237411499023,-2.9043266773223877,-0.05086594074964523,0.08207350224256516,0.04836902767419815,18.943527221679688,-17.211883544921875,28.285564422607422,-0.0074536800384521484,-0.14375591278076172,0.00468897819519043,0.8997344970703125,9.374993324279785,-2.909015655517578
5_20251106_144937,1762411740289,5,0.18620872497558594,0.3318996727466583,0.7322845458984375,0.5647373795509338,1.2758022546768188,2.1194570064544678,-1.963323712348938,1.0455031394958496,9.307848930358887,-2.7977893352508545,-0.033761728554964066,0.05153025686740875,0.08929696679115295,18.916248321533203,-17.252227783203125,28.391921997070312,0.1166149377822876,-0.05371570587158203,0.08898115158081055,0.928888201713562,9.361564636230469,-2.886770486831665
5_20251106_144937,1762411740308,5,0.1856437772512436,0.3318248987197876,0.7321403622627258,0.5651540160179138,1.2762031555175781,2.119447946548462,-1.9617245197296143,1.2298487424850464,9.397627830505371,-2.852853536605835,0.006555342115461826,0.021597886458039284,0.09357301890850067,18.831043243408203,-17.257659912109375,28.37497329711914,0.2407684326171875,0.028850555419921875,0.027133703231811523,0.9890803098678589,9.36877727508545,-2.8799872398376465
5_20251106_144937,1762411740327,5,0.18491896986961365,0.3321349024772644,0.7318970561027527,0.5655245780944824,1.2762031555175781,2.119447946548462,-1.9617245197296143,1.2298487424850464,9.397627830505371,-2.852853536605835,0.024270419031381607,-0.007723619695752859,0.06913843005895615,18.746952056884766,-17.238372802734375,28.39910125732422,0.2407684326171875,0.028850555419921875,0.027133703231811523,0.9890803098678589,9.36877727508545,-2.8799872398376465
5_20251106_144937,1762411740346,5,0.18421857059001923,0.33271050453186035,0.7316555976867676,0.5657272338867188,1.2793148756027222,2.1199800968170166,-1.9598441123962402,1.228651762008667,9.501770973205566,-3.073110580444336,0.017550908029079437,-0.027882155030965805,0.026377901434898376,18.758533477783203,-17.25,28.38581085205078,0.13800358772277832,0.09890556335449219,-0.13509058952331543,1.0906481742858887,9.402865409851074,-2.9380199909210205
5_20251106_144937,1762411740366,5,0.18380828201770782,0.3335115909576416,0.7314809560775757,0.5656148195266724,1.2812819480895996,2.1208672523498535,-1.9595863819122314,1.1616170406341553,9.553243637084961,-3.0767016410827637,-0.019711840897798538,0.011824049986898899,-0.013328306376934052,18.757221221923828,-17.274978637695312,28.37176513671875,0.05677509307861328,0.12030220031738281,-0.11094546318054199,1.104841947555542,9.432941436767578,-2.9657561779022217
5_20251106_144937,1762411740384,5,0.18370221555233002,0.3341061472892761,0.7313842177391052,0.5654234886169434,1.2832921743392944,2.121886730194092,-1.9596009254455566,1.23822820186615,9.53887939453125,-3.0611400604248047,-0.09606992453336716,0.07291052490472794,-0.042038947343826294,18.73476791381836,-17.239166259765625,28.398609161376953,0.10670900344848633,0.08475017547607422,-0.07630705833435059,1.1315191984176636,9.454129219055176,-2.984833002090454
5_20251106_144937,1762411740405,5,0.1836499571800232,0.3337877094745636,0.7313016057014465,0.5657352805137634,1.2832921743392944,2.121886730194092,-1.9596009254455566,1.23822820186615,9.53887939453125,-3.0611400604248047,-0.15104776620864868,0.07718657702207565,-0.04020635038614273,18.693981170654297,-17.31689453125,28.395553588867188,0.10670900344848633,0.08475017547607422,-0.07630705833435059,1.1315191984176636,9.454129219055176,-2.984833002090454
5_20251106_144937,1762411740423,5,0.18363840878009796,0.3330601155757904,0.7309247851371765,0.5666540265083313,1.2882615327835083,2.1248281002044678,-1.9585157632827759,1.367509365081787,9.63823413848877,-2.667310953140259,-0.1449391096830368,0.08390609174966812,0.01538233645260334,18.61835479736328,-17.35986328125,28.445884704589844,0.16865432262420654,0.12836074829101562,0.23807215690612793,1.1988550424575806,9.509873390197754,-2.9053831100463867
5_20251106_144937,1762411740442,5,0.18360240757465363,0.3326284885406494,0.7302347421646118,0.5678077340126038,1.2935333251953125,2.127081871032715,-1.9571731090545654,1.9097727537155151,9.657388687133789,-2.7965922355651855,-0.1449391096830368,0.08390609174966812,0.01538233645260334,18.5938720703125,-17.373199462890625,28.363540649414062,0.5687341690063477,0.1180124282836914,0.08703279495239258,1.3410385847091675,9.539376258850098,-2.883625030517578
5_20251106_144937,1762411740461,5,0.18286240100860596,0.3323880732059479,0.7293378114700317,0.5693380832672119,1.3005273342132568,2.129084825515747,-1.9560282230377197,2.679475784301758,9.662176132202148,-2.8325037956237793,-0.09301559627056122,0.08940387517213821,0.19192224740982056,18.529205322265625,-17.45184326171875,28.29192352294922,1.0707497596740723,0.09823989868164062,0.04089689254760742,1.6087260246276855,9.563936233520508,-2.8734006881713867
5_20251106_144937,1762411740480,5,0.18133561313152313,0.3332103490829468,0.7281201481819153,0.5709022283554077,1.3159024715423584,2.1320977210998535,-1.955125331878662,3.747243642807007,9.761530876159668,-3.0048789978027344,-0.11378499865531921,0.1107841357588768,0.2359044849872589,18.513282775878906,-17.527297973632812,28.222267150878906,1.7108142375946045,0.15807533264160156,-0.10518264770507812,2.0364294052124023,9.603455543518066,-2.8996963500976562
5_20251106_144937,1762411740498,5,0.178943932056427,0.3356422185897827,0.7262380123138428,0.572627067565918,1.3351699113845825,2.1355180740356445,-1.954472303390503,4.776705741882324,9.996152877807617,-2.933055877685547,-0.11317414045333862,-0.018719187006354332,0.20230692625045776,18.44530487060547,-17.656845092773438,28.217174530029297,2.192221164703369,0.31415748596191406,-0.0266876220703125,2.584484577178955,9.681995391845703,-2.9063682556152344
5_20251106_144937,1762411740519,5,0.1762935370206833,0.33954861760139465,0.7235947847366333,0.5744892358779907,1.3629258871078491,2.1411991119384766,-1.9537231922149658,5.658931732177734,10.502504348754883,-2.872006416320801,-0.040481243282556534,-0.25573471188545227,0.15099430084228516,18.414390563964844,-17.771713256835938,28.24085235595703,2.4595580101013184,0.656407356262207,0.027489662170410156,3.199373722076416,9.846096992492676,-2.899496078491211
5_20251106_144937,1762411740537,5,0.17611896991729736,0.3419818580150604,0.7220190167427063,0.5750818252563477,1.4004151821136475,2.1496615409851074,-1.952701210975647,6.401102066040039,10.761066436767578,-2.8097598552703857,0.1171218603849411,-0.5904885530471802,0.08074486255645752,18.407032012939453,-17.9093017578125,28.183883666992188,2.56138277053833,0.7319755554199219,0.07178902626037598,3.839719295501709,10.029090881347656,-2.8815488815307617
5_20251106_144937,1762411740556,5,0.17781148850917816,0.3459487855434418,0.7206548452377319,0.573898196220398,1.442521333694458,2.1596157550811768,-1.95132577419281,6.85478401184082,10.873590469360352,-2.7163901329040527,0.257009893655777,-0.8452191352844238,-0.07380391657352448,18.407032012939453,-17.9093017578125,28.183883666992188,2.4120516777038574,0.6756000518798828,0.132127046585083,4.442732334136963,10.197990417480469,-2.8485171794891357
5_20251106_144937,1762411740576,5,0.1816248595714569,0.3514198660850525,0.7198718786239624,0.5703516602516174,1.4914469718933105,2.171503782272339,-1.950236439704895,6.685999870300293,10.834087371826172,-2.9426321983337402,0.2350187599658966,-0.8268932104110718,-0.39939478039741516,18.463424682617188,-17.992691040039062,28.13042449951172,1.7946138381958008,0.5088768005371094,-0.07529187202453613,4.891386032104492,10.325210571289062,-2.867340326309204
5_20251106_144937,1762411740596,5,0.1871648132801056,0.35610130429267883,0.7199221253395081,0.5655733942985535,1.4914469718933105,2.171503782272339,-1.950236439704895,6.685999870300293,10.834087371826172,-2.9426321983337402,0.07924824953079224,-0.7181593179702759,-0.8050090074539185,18.612056732177734,-17.956695556640625,28.00167465209961,1.7946138381958008,0.5088768005371094,-0.07529187202453613,4.891386032104492,10.325210571289062,-2.867340326309204
5_20251106_144937,1762411740616,5,0.1945473849773407,0.35747793316841125,0.7207949757575989,0.5610842108726501,1.5839320421218872,2.190854787826538,-1.9492684602737427,4.448714256286621,9.73160457611084,-2.995302438735962,-0.08079831302165985,-0.6210318207740784,-1.0768438577651978,18.908031463623047,-17.886459350585938,27.91988754272461,-0.49820423126220703,-0.45479583740234375,-0.08266162872314453,4.946918487548828,10.186400413513184,-2.9126408100128174
5_20251106_144937,1762411740634,5,0.20360000431537628,0.3553524315357208,0.7222342491149902,0.5573592782020569,1.6198705434799194,2.1965901851654053,-1.9487863779067993,3.1834335327148438,9.38446044921875,-2.8444743156433105,-0.20541471242904663,-0.6381360292434692,-1.1507583856582642,19.241371154785156,-17.8011474609375,27.82632064819336,-1.4107880592346191,-0.6415519714355469,0.05453324317932129,4.594221591949463,10.026012420654297,-2.899007558822632
5_20251106_144937,1762411740651,5,0.2138538658618927,0.35136887431144714,0.7235671877861023,0.5543076395988464,1.6448692083358765,2.199625015258789,-1.947891354560852,2.0677833557128906,9.188143730163574,-2.678084373474121,-0.20541471242904663,-0.6381360292434692,-1.1507583856582642,19.71367645263672,-17.630813598632812,27.64511489868164,-2.021150588989258,-0.6702947616577148,0.17673850059509277,4.088933944702148,9.858438491821289,-2.854822874069214
5_20251106_144937,1762411740671,5,0.22491145133972168,0.3474642038345337,0.724266767501831,0.5514717102050781,1.6651142835617065,2.2011938095092773,-1.9451128244400024,1.5578402280807495,9.258769989013672,-2.269890546798706,-0.24939697980880737,-0.9820529222488403,-0.754918098449707,20.30289077758789,-17.339111328125,27.349056243896484,-2.0248751640319824,-0.4797344207763672,0.46794581413269043,3.5827152729034424,9.738504409790039,-2.7378363609313965
5_20251106_144937,1762411740690,5,0.23623783886432648,0.34564000368118286,0.7237858176231384,0.548505961894989,1.6651142835617065,2.2011938095092773,-1.9451128244400024,1.5578402280807495,9.258769989013672,-2.269890546798706,-0.16937369108200073,-1.2459464073181152,-0.44093361496925354,20.98072052001953,-16.990936279296875,26.98990249633789,-2.0248751640319824,-0.4797344207763672,0.46794581413269043,3.5827152729034424,9.738504409790039,-2.7378363609313965
5_20251106_144937,1762411740710,5,0.2475762814283371,0.34714818000793457,0.7218239307403564,0.545127809047699,1.6854661703109741,2.202475070953369,-1.9297349452972412,1.5937517881393433,9.671751976013184,-1.1602258682250977,0.02671387419104576,-1.478685975074768,-0.22102230787277222,21.721397399902344,-16.601394653320312,26.661026000976562,-1.2616366147994995,-0.011502265930175781,1.077854871749878,2.8553884029388428,9.68325424194336,-2.2380807399749756
5_20251106_144937,1762411740728,5,0.2587604820728302,0.3520427346229553,0.7189120650291443,0.5406240224838257,1.6890989542007446,2.2027335166931152,-1.9192737340927124,1.6332544088363647,9.573593139648438,-1.3661184310913086,0.257009893655777,-1.6423976421356201,-0.09762763977050781,22.522472381591797,-16.243392944335938,26.117549896240234,-0.9777072668075562,-0.08772850036621094,0.6975698471069336,2.610961675643921,9.661321640014648,-2.063688278198242
5_20251106_144937,1762411740748,5,0.26955217123031616,0.35943466424942017,0.7159565091133118,0.5343731641769409,1.6890989542007446,2.2027335166931152,-1.9192737340927124,1.6332544088363647,9.573593139648438,-1.3661184310913086,0.3859023451805115,-1.7731226682662964,-0.054867103695869446,23.319908142089844,-15.959930419921875,25.491390228271484,-0.9777072668075562,-0.08772850036621094,0.6975698471069336,2.610961675643921,9.661321640014648,-2.063688278198242
5_20251106_144937,1762411740767,5,0.2802030146121979,0.3686622679233551,0.7130973935127258,0.5263711214065552,1.687454104423523,2.2019808292388916,-1.8976713418960571,1.305262804031372,9.358125686645508,-1.901199460029602,0.35169392824172974,-1.8745262622833252,-0.09212985634803772,24.06829071044922,-15.691665649414062,24.808940887451172,-0.8726122379302979,-0.2252645492553711,0.1085895299911499,2.17787504196167,9.583390235900879,-2.009788990020752
5_20251106_144937,1762411740786,5,0.2914799153804779,0.3786090612411499,0.7099211812019348,0.5174037218093872,1.687454104423523,2.2019808292388916,-1.8976713418960571,1.305262804031372,9.358125686645508,-1.901199460029602,0.2460143268108368,-1.8305439949035645,-0.18803562223911285,24.973472595214844,-15.4500732421875,24.064495086669922,-0.8726122379302979,-0.2252645492553711,0.1085895299911499,2.17787504196167,9.583390235900879,-2.009788990020752
5_20251106_144937,1762411740805,5,0.3035077154636383,0.3880036473274231,0.7062602043151855,0.5084611773490906,1.6703425645828247,2.197815179824829,-1.8746635913848877,0.08906073868274689,9.079212188720703,-1.5085673332214355,0.15743893384933472,-1.7266969680786133,-0.33158883452415466,25.852760314941406,-15.246917724609375,23.237178802490234,-1.452523946762085,-0.3598308563232422,0.3598536252975464,1.5415847301483154,9.439043045043945,-1.868420958518982
5_20251106_144937,1762411740828,5,0.3159213364124298,0.3956056237220764,0.7026326060295105,0.4999972879886627,1.6499314308166504,2.1922435760498047,-1.859325885772705,-0.48432594537734985,8.799102783203125,-1.3493597507476807,0.09329813718795776,-1.6161304712295532,-0.426883727312088,26.758312225341797,-15.02801513671875,22.248912811279297,-1.6207284927368164,-0.5119524002075195,0.4152489900588989,1.1364026069641113,9.311055183410645,-1.7646087408065796
5_20251106_144937,1762411740842,5,0.328441321849823,0.4014055132865906,0.6992920637130737,0.49192532896995544,1.6348743438720703,2.1879935264587402,-1.8496955633163452,-1.0481361150741577,8.620742797851562,-1.2535958290100098,0.056646253913640976,-1.586198091506958,-0.4568161070346832,27.661846160888672,-14.846633911132812,21.246337890625,-1.7476310729980469,-0.5522499084472656,0.4088103771209717,0.6994948983192444,9.172992706298828,-1.6624062061309814
5_20251106_144937,1762411740863,5,0.3410288989543915,0.40615275502204895,0.6959835886955261,0.4840930700302124,1.608689546585083,2.180276393890381,-1.8359606266021729,-1.7687599658966064,8.357391357421875,-1.1817727088928223,0.10001764446496964,-1.651560664176941,-0.417720764875412,28.549362182617188,-14.740859985351562,20.187625885009766,-1.9746038913726807,-0.6524810791015625,0.3845067024230957,0.205843985080719,9.009872436523438,-1.566279411315918
5_20251106_144937,1762411740881,5,0.3537198007106781,0.41083240509033203,0.6924141645431519,0.4760899841785431,1.5745514631271362,2.1706082820892334,-1.821886420249939,-2.4103784561157227,8.368165969848633,-1.454699993133545,0.20569723844528198,-1.7383034229278564,-0.366408109664917,29.479469299316406,-14.531707763671875,19.07843017578125,-2.092978000640869,-0.5133647918701172,0.0892634391784668,-0.3174004554748535,8.88153076171875,-1.5439634323120117
5_20251106_144937,1762411740899,5,0.3661617934703827,0.4161098897457123,0.6887752413749695,0.4672972857952118,1.539175033569336,2.160818576812744,-1.81003999710083,-2.83054256439209,8.262825012207031,-1.6198928356170654,0.1995885968208313,-1.7230318784713745,-0.3920644223690033,30.470508575439453,-14.318572998046875,17.971683502197266,-2.0105137825012207,-0.494964599609375,-0.06074357032775879,-0.8200288414955139,8.757789611816406,-1.5591492652893066
5_20251106_144937,1762411740918,5,0.3785784840583801,0.42191559076309204,0.6849819421768188,0.4576738178730011,1.496640682220459,2.1485304832458496,-1.7979167699813843,-3.393155813217163,7.857024669647217,-1.470261573791504,0.0810808464884758,-1.6088000535964966,-0.490413635969162,31.391544342041016,-14.0595703125,16.822505950927734,-2.058501720428467,-0.7206120491027832,0.07111024856567383,-1.3346542119979858,8.57763671875,-1.5413718223571777
5_20251106_144937,1762411740937,5,0.3912070691585541,0.42665573954582214,0.6811637282371521,0.4482609033584595,1.4486870765686035,2.134794235229492,-1.785813808441162,-4.085050582885742,7.825901508331299,-1.3278127908706665,-0.02520962432026863,-1.4982335567474365,-0.5973150134086609,32.254146575927734,-13.7779541015625,15.522721290588379,-2.200317144393921,-0.6013884544372559,0.17084717750549316,-1.8847334384918213,8.427289962768555,-1.4986599683761597
5_20251106_144937,1762411740957,5,0.4038904309272766,0.42961689829826355,0.6775506138801575,0.4395759403705597,1.3915371894836426,2.1190695762634277,-1.772379994392395,-4.909817695617676,7.773231506347656,-1.0608707666397095,-0.02520962432026863,-1.4982335567474365,-0.5973150134086609,33.13325119018555,-13.431671142578125,14.116618156433105,-2.420067548751831,-0.5232467651367188,0.350231409072876,-2.4897501468658447,8.296478271484375,-1.4111021757125854
5_20251106_144937,1762411740976,5,0.41664227843284607,0.43071866035461426,0.6744075417518616,0.4313526749610901,1.3307678699493408,2.1026313304901123,-1.7588845491409302,-5.8399248123168945,7.477560043334961,-0.9112396240234375,-0.17364975810050964,-1.0730715990066528,-0.8685389757156372,33.92818069458008,-13.05462646484375,12.843035697937012,-2.6801397800445557,-0.6551342010498047,0.39989006519317627,-3.159785032272339,8.132694244384766,-1.3111296892166138
5_20251106_144937,1762411740994,5,0.4289637506008148,0.4295862019062042,0.6722453236579895,0.42371225357055664,1.2666492462158203,2.085796356201172,-1.7457863092422485,-6.9878950119018555,7.303987503051758,-0.9244071841239929,-0.20969077944755554,-0.8672102689743042,-0.8679280281066895,33.92818069458008,-13.05462646484375,12.843035697937012,-3.062488079071045,-0.6629652976989746,0.30937808752059937,-3.9254069328308105,7.966952800750732,-1.2337852716445923
5_20251106_144937,1762411741015,5,0.4403206706047058,0.4266403019428253,0.6710512042045593,0.41687649488449097,1.1818737983703613,2.0649797916412354,-1.7303324937820435,-8.01616096496582,7.323141098022461,-0.9543333053588867,-0.20969077944755554,-0.8672102689743042,-0.8679280281066895,34.639923095703125,-12.645477294921875,11.566812515258789,-3.2726030349731445,-0.5150494575500488,0.22356152534484863,-4.743557929992676,7.83819055557251,-1.1778948307037354
5_20251106_144937,1762411741033,5,0.4505668580532074,0.42358747124671936,0.6699108481407166,0.41083166003227234,1.1034014225006104,2.0471882820129395,-1.7167177200317383,-8.577577590942383,7.496713161468506,-0.7592143416404724,-0.13699786365032196,-0.8299475312232971,-0.41527727246284485,35.346824645996094,-12.11114501953125,10.252189636230469,-3.067215919494629,-0.2731819152832031,0.3349444270133972,-5.510361671447754,7.769895076751709,-1.0941587686538696
5_20251106_144937,1762411741052,5,0.4596998393535614,0.42208606004714966,0.6679863929748535,0.40535613894462585,1.0149296522140503,2.0292186737060547,-1.7001953125,-9.075550079345703,7.722955703735352,-0.04816698282957077,-0.1095089465379715,-0.7725262641906738,-0.21002674102783203,35.954345703125,-11.597335815429688,9.095574378967285,-2.8521509170532227,-0.0375514030456543,0.8367934823036194,-6.2233991622924805,7.760507106781006,-0.8849604725837708
5_20251106_144937,1762411741071,5,0.46770787239074707,0.4222281575202942,0.6652145385742188,0.40057751536369324,0.9206949472427368,2.012468099594116,-1.6799339056015015,-9.936227798461914,7.877374649047852,0.778994083404541,-0.07224620133638382,-0.5367324948310852,-0.07685823738574982,36.427513122558594,-11.104278564453125,7.87923526763916,-2.9702630043029785,0.09349393844604492,1.3311636447906494,-6.9659647941589355,7.783880710601807,-0.5521696209907532
5_20251106_144937,1762411741090,5,0.47420674562454224,0.4228757619857788,0.6624038815498352,0.3968944251537323,0.8213445544242859,1.9979346990585327,-1.6568658351898193,-10.547920227050781,8.286766052246094,0.8400436639785767,-0.023987893015146255,-0.1158466711640358,0.056310273706912994,36.89506530761719,-10.688461303710938,6.850541114807129,-2.8655643463134766,0.40230846405029297,1.1137707233428955,-7.682355880737305,7.884457588195801,-0.2737269997596741
5_20251106_144937,1762411741109,5,0.47800663113594055,0.42305150628089905,0.6607785224914551,0.3948529064655304,0.7187449932098389,1.9859806299209595,-1.6319184303283691,-10.677202224731445,8.559693336486816,0.8316643238067627,-0.023987893015146255,-0.1158466711640358,0.056310273706912994,37.226890563964844,-10.283676147460938,6.046228408813477,-2.395876884460449,0.5401887893676758,0.8843131065368652,-8.281325340270996,8.01950454711914,-0.05264875292778015
5_20251106_144937,1762411741129,5,0.47852659225463867,0.4223081171512604,0.6605908274650574,0.39533260464668274,0.6099027395248413,1.9762436151504517,-1.6033620834350586,-10.334844589233398,8.74882698059082,1.1345176696777344,-0.08018743991851807,0.553661048412323,0.518123984336853,37.414432525634766,-10.040725708007812,5.476646423339844,-1.6428155899047852,0.5834579467773438,0.9497331380844116,-8.692028999328613,8.165369033813477,0.18478450179100037
5_20251106_144937,1762411741148,5,0.4762971103191376,0.42147096991539,0.6607990264892578,0.3985573351383209,0.5090965032577515,1.9698975086212158,-1.5747051239013672,-9.630979537963867,9.055272102355957,1.2362669706344604,0.06642008572816849,0.7161510586738586,0.796067476272583,37.560707092285156,-9.86456298828125,5.066468238830566,-0.7511606216430664,0.7119226455688477,0.841185986995697,-8.8798189163208,8.34334945678711,0.3950809836387634
5_20251106_144937,1762411741167,5,0.4711550772190094,0.4215368926525116,0.6612803339958191,0.40376707911491394,0.41413354873657227,1.9664722681045532,-1.5456722974777222,-8.587152481079102,9.292287826538086,1.0543155670166016,0.06642008572816849,0.7161510586738586,0.796067476272583,37.65776062011719,-9.893585205078125,4.8398237228393555,0.2341327667236328,0.759150505065918,0.5273876786231995,-8.821285247802734,8.533137321472168,0.5269278883934021
5_20251106_144937,1762411741186,5,0.4633556306362152,0.4235091209411621,0.6619690656661987,0.4095589220523834,0.3278256356716156,1.965080976486206,-1.5172582864761353,-7.3972859382629395,9.212084770202637,0.8304672837257385,0.41705644130706787,0.9953162670135498,1.1118844747543335,37.63629913330078,-10.069366455078125,4.75454044342041,1.1391997337341309,0.5431575775146484,0.2428315281867981,-8.53648567199707,8.668927192687988,0.5876357555389404
5_20251106_144937,1762411741206,5,0.45321500301361084,0.42680859565734863,0.663143515586853,0.4155372679233551,0.24836882948875427,1.964853286743164,-1.489030361175537,-6.282833099365234,9.051680564880371,0.5264167189598083,0.527012050151825,1.1962907314300537,1.0941693782806396,37.40361404418945,-10.488739013671875,5.143244743347168,1.802922248840332,0.30620288848876953,-0.048975229263305664,-8.085755348205566,8.745477676391602,0.575391948223114
5_20251106_144937,1762411741225,5,0.4410054385662079,0.43027958273887634,0.665298342704773,0.4216062128543854,0.24836882948875427,1.964853286743164,-1.489030361175537,-6.282833099365234,9.051680564880371,0.5264167189598083,0.5612204670906067,1.419256329536438,0.9921550154685974,37.12606430053711,-11.01458740234375,5.893305778503418,1.802922248840332,0.30620288848876953,-0.048975229263305664,-8.085755348205566,8.745477676391602,0.575391948223114
5_20251106_144937,1762411741244,5,0.42726844549179077,0.43304380774497986,0.6685978770256042,0.4276582896709442,0.1298189014196396,1.9666736125946045,-1.4444928169250488,-4.845176696777344,8.902050018310547,-0.5186073780059814,0.5386184453964233,1.684982419013977,0.857764720916748,36.72515869140625,-11.56201171875,6.746328353881836,2.1685853004455566,0.07051944732666016,-0.7915183901786804,-7.0137619972229,8.831530570983887,0.272911012172699
5_20251106_144937,1762411741263,5,0.41217589378356934,0.43385106325149536,0.6732850074768066,0.43424826860427856,0.1298189014196396,1.9666736125946045,-1.4444928169250488,-4.845176696777344,8.902050018310547,-0.5186073780059814,0.5654965043067932,1.8230379819869995,0.8363845348358154,36.284889221191406,-12.150436401367188,7.6917009353637695,2.1685853004455566,0.07051944732666016,-0.7915183901786804,-7.0137619972229,8.831530570983887,0.272911012172699
5_20251106_144937,1762411741281,5,0.3958134651184082,0.43305468559265137,0.6790211200714111,0.44127729535102844,0.05263897031545639,1.9649524688720703,-1.4199267625808716,-3.814517021179199,8.054537773132324,-1.8748643398284912,0.6571261882781982,1.7161365747451782,1.026363492012024,35.621192932128906,-12.78192138671875,8.992657661437988,2.1446213722229004,-0.5635442733764648,-1.4856624603271484,-5.9591383934021,8.618082046508789,-0.38920190930366516
5_20251106_144937,1762411741300,5,0.3786260783672333,0.4330397844314575,0.6844218373298645,0.4479794204235077,0.028340904042124748,1.9613821506500244,-1.4172848463058472,-2.73238468170166,7.945606231689453,-2.8001832962036133,0.7890729904174805,1.4821754693984985,1.2914787530899048,34.964168548583984,-13.489700317382812,10.468232154846191,2.5814027786254883,-0.5379810333251953,-1.9287852048873901,-5.313787460327148,8.483587265014648,-0.8713980913162231
5_20251106_144937,1762411741320,5,0.3605498671531677,0.4354742169380188,0.6886828541755676,0.453962504863739,0.01632712408900261,1.9569445848464966,-1.4216694831848145,-1.2791666984558105,8.102420806884766,-3.3843436241149902,0.8208379745483398,1.2622641324996948,1.4558013677597046,34.14016342163086,-14.145675659179688,11.924744606018066,3.227696418762207,-0.3049335479736328,-2.0103564262390137,-4.506863117218018,8.407354354858398,-1.3739871978759766
5_20251106_144937,1762411741339,5,0.3427344262599945,0.44131672382354736,0.6910004615783691,0.458575040102005,0.018128473311662674,1.9536179304122925,-1.4326168298721313,0.03758762776851654,8.772768020629883,-3.532777786254883,0.7347060441970825,1.1975125074386597,1.4020452499389648,33.21746826171875,-14.821243286132812,13.444649696350098,3.6355605125427246,0.2923307418823242,-1.7270325422286987,-3.597972869873047,8.480437278747559,-1.805745244026184
5_20251106_144937,1762411741359,5,0.3254649341106415,0.44827839732170105,0.6920702457427979,0.4627719223499298,0.034723758697509766,1.9530675411224365,-1.4481033086776733,1.2980806827545166,9.338972091674805,-3.478910446166992,0.5679399967193604,1.380160927772522,1.0972236394882202,32.250850677490234,-15.423828125,14.88308048248291,3.9168429374694824,0.6868276596069336,-1.3385322093963623,-2.618762254714966,8.652144432067871,-2.14037823677063
5_20251106_144937,1762411741377,5,0.30891716480255127,0.4533820152282715,0.693159282207489,0.4674881398677826,0.06083311885595322,1.9548128843307495,-1.4647403955459595,2.222202777862549,9.552047729492188,-3.5196099281311035,0.3895675241947174,1.6464980840682983,0.702605128288269,31.214122772216797,-15.9923095703125,16.197711944580078,3.872771978378296,0.7199230194091797,-1.1033854484558105,-1.650569200515747,8.832124710083008,-2.416224479675293
5_20251106_144937,1762411741397,5,0.29291823506355286,0.4542492926120758,0.6954795718193054,0.47346031665802,0.10244061797857285,1.9582797288894653,-1.4848846197128296,2.9703586101531982,9.366504669189453,-3.265835762023926,0.26434025168418884,1.806544542312622,0.40267059206962585,30.118282318115234,-16.527481079101562,17.55123519897461,3.696742296218872,0.4275035858154297,-0.6796889305114746,-0.7263837456703186,8.939001083374023,-2.586146831512451
5_20251106_144937,1762411741416,5,0.27753156423568726,0.45114538073539734,0.6990308165550232,0.480416476726532,0.1520911604166031,1.9619015455245972,-1.5056718587875366,3.683800220489502,9.118715286254883,-3.5363688468933105,0.1794300675392151,1.9177218675613403,0.292714923620224,28.9642333984375,-17.01654052734375,18.916873931884766,3.5281472206115723,0.14377117156982422,-0.7601776123046875,0.1556529998779297,8.974944114685059,-2.776191234588623
5_20251106_144937,1762411741435,5,0.26245447993278503,0.4456632733345032,0.7031103372573853,0.48799362778663635,0.2120393067598343,1.9656119346618652,-1.528589129447937,4.813814640045166,9.073226928710938,-3.9313950538635254,0.11773271858692169,1.8389204740524292,0.3800685703754425,28.9642333984375,-17.01654052734375,18.916873931884766,3.726529359817505,0.07862663269042969,-0.9241631031036377,1.0872852802276611,8.994600296020508,-3.0072319507598877
5_20251106_144937,1762411741455,5,0.24725380539894104,0.43966686725616455,0.7067127227783203,0.4961004853248596,0.28688597679138184,1.9693758487701416,-1.5539119243621826,5.988120079040527,9.012178421020508,-3.798522472381592,0.11773271858692169,1.8389204740524292,0.3800685703754425,27.851154327392578,-17.439208984375,20.16366195678711,3.920667886734009,0.014062881469726562,-0.6330323219299316,2.0674521923065186,8.998115539550781,-3.16549015045166
5_20251106_144937,1762411741473,5,0.23258689045906067,0.4351937770843506,0.7088127136230469,0.5040776133537292,0.3623262941837311,1.971871018409729,-1.575615406036377,6.715926170349121,8.704536437988281,-3.1868302822113037,0.034655120223760605,1.6458872556686401,0.4985763728618622,26.655780792236328,-17.82855224609375,21.28615951538086,3.7187790870666504,-0.23486328125,-0.017071962356567383,2.9971470832824707,8.939399719238281,-3.1697583198547363
5_20251106_144937,1762411741492,5,0.2191499024629593,0.43210387229919434,0.7093632221221924,0.511921226978302,0.4493580460548401,1.9730292558670044,-1.5970220565795898,7.14566707611084,8.449564933776855,-3.03959321975708,-0.033761732280254364,1.272648811340332,0.5676040649414062,25.524253845214844,-18.16357421875,22.398651123046875,3.3188161849975586,-0.39186763763427734,0.10413217544555664,3.8268508911132812,8.841432571411133,-3.1437253952026367
5_20251106_144937,1762411741512,5,0.20684297382831573,0.4299546480178833,0.708930492401123,0.5193963646888733,0.5470175743103027,1.9715951681137085,-1.618330478668213,7.3228302001953125,7.988700866699219,-3.1114163398742676,0.08046998083591461,1.0399093627929688,0.5468345880508423,24.431499481201172,-18.458404541015625,23.49988555908203,2.796783447265625,-0.682185173034668,0.025847196578979492,4.5260467529296875,8.670886039733887,-3.137263536453247
5_20251106_144937,1762411741530,5,0.19538618624210358,0.42900994420051575,0.7082192301750183,0.5255475044250488,0.5470175743103027,1.9715951681137085,-1.618330478668213,7.3228302001953125,7.988700866699219,-3.1114163398742676,0.1684345006942749,0.8823062181472778,0.42405083775520325,23.30609130859375,-18.703903198242188,24.452030181884766,2.796783447265625,-0.682185173034668,0.025847196578979492,4.5260467529296875,8.670886039733887,-3.137263536453247
5_20251106_144937,1762411741549,5,0.1852158010005951,0.428862601518631,0.7078651189804077,0.5298102498054504,0.7319227457046509,1.9583213329315186,-1.6577996015548706,6.680014610290527,6.6192755699157715,-3.85598087310791,0.1794300675392151,0.8047264218330383,0.2615608274936676,22.27141571044922,-18.855270385742188,25.341869354248047,1.3116960525512695,-1.445950984954834,-0.5356326103210449,5.368318557739258,8.065226554870605,-3.3203482627868652
5_20251106_144937,1762411741569,5,0.1762438267469406,0.42811456322669983,0.7082216143608093,0.5329897999763489,0.8245200514793396,1.9419922828674316,-1.6797771453857422,6.329278945922852,5.2678070068359375,-4.180381774902344,0.14399990439414978,0.6617840528488159,0.1644333153963089,21.287063598632812,-19.001296997070312,26.017414093017578,0.768768310546875,-2.2379355430603027,-0.6880269050598145,5.560510635375977,7.50574254989624,-3.4923548698425293
5_20251106_144937,1762411741587,5,0.16869433224201202,0.4269711673259735,0.7089261412620544,0.5354078412055969,0.9127575159072876,1.9178863763809204,-1.7021428346633911,5.658931732177734,4.373610973358154,-4.034341335296631,0.14399990439414978,0.6617840528488159,0.1644333153963089,20.457408905029297,-19.200057983398438,26.72504425048828,0.07873678207397461,-2.5057053565979004,-0.43358898162841797,5.58019495010376,6.879316329956055,-3.600752353668213
5_20251106_144937,1762411741606,5,0.16340017318725586,0.4262343645095825,0.7092546820640564,0.5371987223625183,0.9127575159072876,1.9178863763809204,-1.7021428346633911,5.658931732177734,4.373610973358154,-4.034341335296631,-0.008105411194264889,0.4412619471549988,0.03798433393239975,19.72833251953125,-19.36505126953125,27.207351684570312,0.07873678207397461,-2.5057053565979004,-0.43358898162841797,5.58019495010376,6.879316329956055,-3.600752353668213
5_20251106_144937,1762411741627,5,0.1607934683561325,0.4247283339500427,0.7090155482292175,0.5394888520240784,1.0008403062820435,1.8838480710983276,-1.726265549659729,4.217684268951416,4.275453090667725,-3.7913403511047363,-0.2634468674659729,0.47363775968551636,-0.1654336154460907,19.038829803466797,-19.4771728515625,27.66515350341797,-1.0900087356567383,-2.0830907821655273,-0.15247058868408203,5.307693004608154,6.358543872833252,-3.6388697624206543
5_20251106_144937,1762411741645,5,0.15917831659317017,0.42023518681526184,0.7086486220359802,0.5439502000808716,1.1273877620697021,1.8110785484313965,-1.7654842138290405,2.499918222427368,3.969008684158325,-3.623753547668457,-0.6238571405410767,0.9018539190292358,-0.37801453471183777,18.41345977783203,-19.546173095703125,27.977519989013672,-1.887568712234497,-1.5363895893096924,0.005843639373779297,4.387486934661865,5.505398273468018,-3.6295971870422363
5_20251106_144937,1762411741665,5,0.15751945972442627,0.4130416512489319,0.7083050012588501,0.5503528714179993,1.1811764240264893,1.7664790153503418,-1.7856281995773315,2.3502869606018066,3.64460825920105,-3.8176753520965576,-0.5896486639976501,0.7723506093025208,-0.23812651634216309,17.92666244506836,-19.530685424804688,28.256317138671875,-1.6297597885131836,-1.4886319637298584,-0.15046262741088867,3.9800467491149902,5.133240222930908,-3.667212724685669
5_20251106_144937,1762411741684,5,0.15540935099124908,0.4057326316833496,0.7076346278190613,0.557209312915802,1.2247698307037354,1.7221930027008057,-1.8040567636489868,2.1755177974700928,3.6625638008117676,-3.7578229904174805,-0.4858016073703766,0.35513001680374146,-0.013328304514288902,17.558090209960938,-19.581787109375,28.45733642578125,-1.4436233043670654,-1.1765408515930176,-0.07248830795288086,3.619141101837158,4.839104652404785,-3.6853346824645996
5_20251106_144937,1762411741703,5,0.1538720577955246,0.4014397859573364,0.706166684627533,0.5625816583633423,1.2606858015060425,1.6778063774108887,-1.8186821937561035,1.6152987480163574,3.9953436851501465,-2.634990692138672,-0.36912643909454346,-0.08896862715482712,0.08929696679115295,17.27501678466797,-19.627059936523438,28.63475799560547,-1.603074073791504,-0.6750087738037109,0.8402750492095947,3.2183728218078613,4.670352458953857,-3.4752657413482666
5_20251106_144937,1762411741721,5,0.15427948534488678,0.40117496252059937,0.703926146030426,0.5654594898223877,1.2871291637420654,1.636526346206665,-1.8273413181304932,0.8300342559814453,4.12941312789917,-1.6462278366088867,-0.3037639260292053,-0.028493018820881844,0.1283923089504242,17.01651382446289,-19.67047119140625,28.78612518310547,-1.9106707572937012,-0.4327516555786133,1.4632303714752197,2.7407050132751465,4.562164783477783,-3.1094582080841064
5_20251106_144937,1762411741740,5,0.15568122267723083,0.402662992477417,0.7015819549560547,0.5669291615486145,1.3067420721054077,1.5942234992980957,-1.8319507837295532,0.22432731091976166,4.231162071228027,-1.624680995941162,-0.4198282063007355,0.336804062128067,0.08379918336868286,16.810562133789062,-19.659133911132812,28.805347442626953,-2.0131020545959473,-0.2648019790649414,1.187821865081787,2.23742938041687,4.495964050292969,-2.812502861022949
5_20251106_144937,1762411741760,5,0.15526030957698822,0.4021102488040924,0.6996907591819763,0.5697669982910156,1.320045828819275,1.5507736206054688,-1.8361443281173706,0.16208073496818542,4.118639945983887,-2.675690174102783,-0.7044912576675415,0.719205379486084,0.19803088903427124,16.59524917602539,-19.811309814453125,28.84817123413086,-1.6602789163589478,-0.30185937881469727,0.1094503402709961,1.8223596811294556,4.420499324798584,-2.7851405143737793
5_20251106_144937,1762411741779,5,0.15292437374591827,0.3985593616962433,0.697346568107605,0.5757363438606262,1.320045828819275,1.5507736206054688,-1.8361443281173706,0.16208073496818542,4.118639945983887,-2.675690174102783,-0.9970954656600952,0.5756521821022034,0.5602736473083496,16.401885986328125,-20.011581420898438,28.83685302734375,-1.6602789163589478,-0.30185937881469727,0.1094503402709961,1.8223596811294556,4.420499324798584,-2.7851405143737793
5_20251106_144937,1762411741797,5,0.14944393932819366,0.39544638991355896,0.6926042437553406,0.5844553112983704,1.3363194465637207,1.475965976715088,-1.8422350883483887,1.316036343574524,4.732726097106934,-1.7767062187194824,-1.2389979362487793,0.15965330600738525,0.9787160158157349,16.19100570678711,-20.30108642578125,28.87726593017578,-0.23230516910552979,0.27777671813964844,0.8417141437530518,1.5483415126800537,4.454949378967285,-2.618420362472534
5_20251106_144937,1762411741818,5,0.146853506565094,0.39687681198120117,0.684197187423706,0.5939672589302063,1.3458372354507446,1.4438636302947998,-1.8362412452697754,2.1360151767730713,6.026736259460449,-0.11639878898859024,-1.394768476486206,0.01976529322564602,1.290867805480957,15.861583709716797,-20.760574340820312,28.869281768798828,0.4701390266418457,1.257429599761963,2.001617193222046,1.6658761501312256,4.769306659698486,-2.118016004562378
5_20251106_144937,1762411741837,5,0.1452101171016693,0.40239429473876953,0.6724691390991211,0.603968620300293,1.3458372354507446,1.4438636302947998,-1.8362412452697754,2.1360151767730713,6.026736259460449,-0.11639878898859024,-1.4326419830322266,0.2299027442932129,1.4545795917510986,15.861583709716797,-20.760574340820312,28.869281768798828,0.4701390266418457,1.257429599761963,2.001617193222046,1.6658761501312256,4.769306659698486,-2.118016004562378
5_20251106_144937,1762411741855,5,0.14166118204593658,0.4083942770957947,0.6590011119842529,0.6155190467834473,1.3806507587432861,1.41268789768219,-1.8107367753982544,5.004145622253418,9.074424743652344,-0.3474293053150177,-1.490063190460205,0.26288944482803345,1.4368644952774048,15.46304702758789,-21.397552490234375,28.62537384033203,2.3550257682800293,2.9728517532348633,1.1017650365829468,2.6491198539733887,6.1015729904174805,-1.449194312095642
5_20251106_144937,1762411741875,5,0.13673824071884155,0.41361990571022034,0.6449853181838989,0.6278655529022217,1.4103728532791138,1.417847752571106,-1.792377233505249,5.546408653259277,11.104619979858398,-0.09964010864496231,-1.6843183040618896,0.3471887707710266,1.2578811645507812,14.909507751464844,-22.206756591796875,28.318084716796875,2.317831039428711,4.002437591552734,1.0796433687210083,3.2285776138305664,7.102182388305664,-1.1792834997177124
5_20251106_144937,1762411741895,5,0.1327355057001114,0.4181644022464752,0.6302307844161987,0.640569269657135,1.448264241218567,1.4425007104873657,-1.7706199884414673,6.404693126678467,13.599270820617676,0.24032191932201385,-1.6843183040618896,0.3471887707710266,1.2578811645507812,14.360008239746094,-23.153839111328125,28.06244659423828,2.5408926010131836,5.197670936584473,1.1356842517852783,3.863800525665283,8.401599884033203,-0.895362377166748
5_20251106_144937,1762411741912,5,0.1296735256910324,0.4195477366447449,0.6149949431419373,0.6549394726753235,1.4869953393936157,1.4790300130844116,-1.7496154308319092,7.567028045654297,15.969429016113281,0.6688655614852905,-2.0416738986968994,0.7228705883026123,0.9579465985298157,13.694561004638672,-24.244171142578125,27.59674835205078,2.9625821113586426,6.054263114929199,1.2513823509216309,4.604445934295654,9.915165901184082,-0.5825168490409851
5_20251106_144937,1762411741932,5,0.12676739692687988,0.41780075430870056,0.5992708802223206,0.6710044145584106,1.5414471626281738,1.5444809198379517,-1.7179104089736938,8.276878356933594,18.015186309814453,2.1244776248931885,-2.0416738986968994,0.7228705883026123,0.9579465985298157,12.904914855957031,-25.403610229492188,26.962631225585938,2.93794584274292,6.480016708374023,2.165595531463623,5.338932514190674,11.53516960144043,-0.04111799597740173
5_20251106_144937,1762411741951,5,0.1248079165816307,0.4160710573196411,0.5832369923591614,0.6863981485366821,1.6010414361953735,1.6241271495819092,-1.680537223815918,9.148329734802246,19.035072326660156,3.151546001434326,-1.7026442289352417,0.5829825401306152,0.952448844909668,12.048080444335938,-26.691513061523438,26.215293884277344,3.047517776489258,5.999921798706055,2.554131269454956,6.100811958312988,13.035150527954102,0.5974147915840149
5_20251106_144937,1762411741972,5,0.12254739552736282,0.41451171040534973,0.5680583715438843,0.7003369927406311,1.6699745655059814,1.7171621322631836,-1.6361334323883057,10.590774536132812,19.366655349731445,3.8410463333129883,-1.2402195930480957,0.3019847869873047,1.0776761770248413,11.216100692749023,-27.98876953125,25.306476593017578,3.591970443725586,5.065203666687012,2.594905376434326,6.998804092407227,14.301451683044434,1.2461410760879517
5_20251106_144937,1762411741988,5,0.11870218813419342,0.4141301214694977,0.5546435117721558,0.7118824124336243,1.7440133094787598,1.812962293624878,-1.588097333908081,11.871617317199707,19.202659606933594,4.524560928344727,-0.5847617387771606,-0.20930898189544678,1.071567416191101,10.411706924438477,-29.233673095703125,24.345630645751953,3.8982505798339844,3.9209671020507812,2.6227359771728516,7.973366737365723,15.281692504882812,1.901824951171875
5_20251106_144937,1762411742009,5,0.11429417878389359,0.41795045137405396,0.5438671708106995,0.7186534404754639,1.834347128868103,1.923930287361145,-1.5302709341049194,11.980548858642578,18.520341873168945,4.244451999664307,0.11345668137073517,-0.5336781740188599,0.6726727485656738,9.614585876464844,-30.329498291015625,23.55014419555664,3.2057456970214844,2.5909194946289062,1.8741016387939453,8.774803161621094,15.929422378540039,2.3703503608703613
5_20251106_144937,1762411742028,5,0.11067941784858704,0.4248437285423279,0.5379268527030945,0.7196475267410278,1.9259576797485352,2.0325281620025635,-1.4733176231384277,10.680553436279297,16.974950790405273,3.0342352390289307,0.11345668137073517,-0.5336781740188599,0.6726727485656738,9.25694465637207,-30.728675842285156,22.78685188293457,1.5246000289916992,0.8364238739013672,0.5311079025268555,9.155953407287598,16.138526916503906,2.503127336502075
5_20251106_144937,1762411742047,5,0.10921592265367508,0.4302328824996948,0.5380704998970032,0.7165554165840149,2.0075249671936035,2.1268093585968018,-1.4241975545883179,8.750909805297852,14.779561996459961,1.6719928979873657,0.536175012588501,-0.45793092250823975,-0.015160905197262764,8.635566711425781,-31.50066375732422,22.044891357421875,-0.3240346908569336,-1.0871715545654297,-0.6649075746536255,9.074944496154785,15.86673355102539,2.336900472640991
5_20251106_144937,1762411742066,5,0.11018979549407959,0.4309271574020386,0.5430161356925964,0.7122454047203064,2.079375743865967,2.2080273628234863,-1.3822314739227295,7.019976615905762,12.823583602905273,0.6245747804641724,0.5978723764419556,0.01915442757308483,-0.7781309485435486,8.144336700439453,-32.09105682373047,21.527790069580078,-1.6439743041992188,-2.4345197677612305,-1.3698606491088867,8.66395092010498,15.258103370666504,1.994435429573059
5_20251106_144937,1762411742085,5,0.11245057731866837,0.4278295636177063,0.5499781370162964,0.7084072232246399,2.1402533054351807,2.2740089893341064,-1.3475539684295654,5.973755836486816,11.184822082519531,0.10266123712062836,0.5978723764419556,0.01915442757308483,-0.7781309485435486,7.971485137939453,-32.38776397705078,21.272050857543945,-2.152155876159668,-3.258625030517578,-1.5134193897247314,8.125911712646484,14.44344711303711,1.616080641746521
5_20251106_144937,1762411742105,5,0.11500989645719528,0.42454245686531067,0.5567752718925476,0.704654335975647,2.1933910846710205,2.327420711517334,-1.3161817789077759,5.579926013946533,10.308582305908203,0.5288107991218567,0.6736195683479309,-0.5324564576148987,-0.3511364758014679,7.919301986694336,-32.46520233154297,21.160375595092773,-2.0367884635925293,-3.307891845703125,-0.8698158860206604,7.6167144775390625,13.616474151611328,1.398626685142517
5_20251106_144937,1762411742123,5,0.11746677756309509,0.42475900053977966,0.5625388026237488,0.6995223164558411,2.1933910846710205,2.327420711517334,-1.3161817789077759,5.579926013946533,10.308582305908203,0.5288107991218567,0.8281683325767517,-0.7334309220314026,-0.18192696571350098,7.970075607299805,-32.412879943847656,21.271522521972656,-2.0367884635925293,-3.307891845703125,-0.8698158860206604,7.6167144775390625,13.616474151611328,1.398626685142517
5_20251106_144937,1762411742142,5,0.11956320703029633,0.4286595284938812,0.5677462220191956,0.6925459504127502,2.268794298171997,2.389317750930786,-1.266394019126892,5.459024429321289,9.024148941040039,0.6245747804641724,0.9570608139038086,-0.7322092056274414,-0.15077286958694458,8.16256332397461,-32.20221710205078,21.49936294555664,-1.3747930526733398,-3.0494089126586914,-0.5438498258590698,6.833817481994629,12.07355785369873,1.1684246063232422
5_20251106_144937,1762411742161,5,0.12070472538471222,0.4335091710090637,0.5733761787414551,0.6846458315849304,2.2971723079681396,2.4029929637908936,-1.2482599020004272,5.450644493103027,8.223321914672852,-0.21575386822223663,0.9937126636505127,-0.701055109500885,-0.1599358320236206,8.558906555175781,-31.80438995361328,21.87390899658203,-1.1065382957458496,-3.080188751220703,-1.1073428392410278,6.557182788848877,11.303510665893555,0.8915889263153076
5_20251106_144937,1762411742180,5,0.12136980891227722,0.43825340270996094,0.5794374942779541,0.6763545870780945,2.3235554695129395,2.4062154293060303,-1.2344642877578735,5.382412910461426,7.61522102355957,-0.8669487833976746,0.9191871881484985,-0.7364852428436279,-0.12633827328681946,8.990608215332031,-31.41741180419922,22.317243576049805,-0.9398155212402344,-2.950632095336914,-1.4068301916122437,6.32222843170166,10.565853118896484,0.5398814082145691
5_20251106_144937,1762411742199,5,0.12200421094894409,0.4431062340736389,0.585277259349823,0.6679987907409668,2.344090700149536,2.4006998538970947,-1.226755142211914,5.50092077255249,7.207026481628418,-1.1195261478424072,0.7762448787689209,-0.7658067941665649,-0.06891699135303497,9.47195816040039,-31.014427185058594,22.73577117919922,-0.657045841217041,-2.687061309814453,-1.3275260925292969,6.157966613769531,9.894087791442871,0.20799989998340607
5_20251106_144937,1762411742218,5,0.1229696124792099,0.4484366178512573,0.5900627374649048,0.6600068211555481,2.365687131881714,2.3859705924987793,-1.2225441932678223,6.131766319274902,6.96402645111084,-1.0836148262023926,0.6302481889724731,-0.8012368679046631,-0.034708574414253235,9.867708206176758,-30.617408752441406,23.19141387939453,-0.020960330963134766,-2.3440494537353516,-1.0332918167114258,6.152726650238037,9.308075904846191,-0.05032302439212799
5_20251106_144937,1762411742238,5,0.12435131520032883,0.45404359698295593,0.5935750007629395,0.6527249813079834,2.365687131881714,2.3859705924987793,-1.2225441932678223,6.131766319274902,6.96402645111084,-1.0836148262023926,0.5746594667434692,-0.9557856917381287,-0.031043382361531258,10.30142593383789,-30.192893981933594,23.64905548095703,-0.020960330963134766,-2.3440494537353516,-1.0332918167114258,6.152726650238037,9.308075904846191,-0.05032302439212799
5_20251106_144937,1762411742257,5,0.1265925168991089,0.4602348804473877,0.5960596203804016,0.6456555724143982,2.408756971359253,2.338949203491211,-1.2227952480316162,7.063070297241211,6.633640289306641,-0.9112395644187927,0.5746594667434692,-0.9557856917381287,-0.031043382361531258,10.770576477050781,-29.80231475830078,23.972213745117188,0.641993522644043,-1.6978483200073242,-0.5199590921401978,6.421076774597168,8.331488609313965,-0.39128047227859497
5_20251106_144937,1762411742276,5,0.129916250705719,0.4676739275455475,0.5980984568595886,0.6377155184745789,2.433232307434082,2.3085315227508545,-1.2261749505996704,7.222278118133545,6.809606552124023,-1.1662111282348633,0.5502249002456665,-1.2514442205429077,-0.1953659951686859,10.770576477050781,-29.80231475830078,23.972213745117188,0.6409611701965332,-1.2175054550170898,-0.6199445724487305,6.581316947937012,8.027112007141113,-0.5462665557861328
5_20251106_144937,1762411742296,5,0.1344490945339203,0.47555485367774963,0.6001105308532715,0.6289979219436646,2.4573733806610107,2.2764065265655518,-1.232401967048645,6.873936653137207,6.96522331237793,-1.5384935140609741,0.4524866044521332,-1.2984808683395386,-0.4329923391342163,11.227527618408203,-29.42414093017578,24.20000457763672,0.23409557342529297,-0.849510669708252,-0.793781578540802,6.639841079711914,7.814733982086182,-0.7447119355201721
5_20251106_144937,1762411742316,5,0.14073343575000763,0.4825024902820587,0.6023828983306885,0.6200969815254211,2.478693723678589,2.24379301071167,-1.2413930892944336,6.10902214050293,7.125627517700195,-1.7563564777374268,0.30404648184776306,-1.2764896154403687,-0.7036054730415344,11.705524444580078,-29.106895446777344,24.400423049926758,-0.4246549606323242,-0.5512847900390625,-0.8093156218528748,6.533677101135254,7.676912307739258,-0.947040855884552
5_20251106_144937,1762411742334,5,0.14924469590187073,0.48785048723220825,0.6049715876579285,0.6113405823707581,2.478693723678589,2.24379301071167,-1.2413930892944336,6.10902214050293,7.125627517700195,-1.7563564777374268,0.30404648184776306,-1.2764896154403687,-0.7036054730415344,12.331546783447266,-28.766090393066406,24.45831298828125,-0.4246549606323242,-0.5512847900390625,-0.8093156218528748,6.533677101135254,7.676912307739258,-0.947040855884552
5_20251106_144937,1762411742352,5,0.15957029163837433,0.4907900094985962,0.6080770492553711,0.603245198726654,2.5025312900543213,2.183356523513794,-1.2646552324295044,4.208107948303223,6.547452926635742,-2.6732962131500244,0.132393479347229,-1.0431393384933472,-1.0902827978134155,13.083236694335938,-28.365760803222656,24.387001037597656,-1.6254982948303223,-0.7839517593383789,-1.2239338159561157,5.833606243133545,7.331404685974121,-1.4493623971939087
5_20251106_144937,1762411742371,5,0.17062823474407196,0.49136269092559814,0.6118703484535217,0.5958719253540039,2.5046310424804688,2.1500890254974365,-1.282823085784912,3.289970874786377,6.382259845733643,-3.245485782623291,0.06031143292784691,-1.2056293487548828,-1.080509066581726,13.845802307128906,-27.98961639404297,24.302133560180664,-2.0349082946777344,-0.7593159675598145,-1.4368987083435059,5.324879169464111,7.141575813293457,-1.8085870742797852
5_20251106_144937,1762411742390,5,0.18249768018722534,0.49156492948532104,0.6155968904495239,0.5883017778396606,2.5046310424804688,2.1500890254974365,-1.282823085784912,3.289970874786377,6.382259845733643,-3.245485782623291,-0.05819631740450859,-1.4426449537277222,-0.9650555849075317,14.717914581298828,-27.629676818847656,24.045440673828125,-2.0349082946777344,-0.7593159675598145,-1.4368987083435059,5.324879169464111,7.141575813293457,-1.8085870742797852
5_20251106_144937,1762411742410,5,0.19591379165649414,0.4933483600616455,0.6179561018943787,0.5799615979194641,2.4828031063079834,2.0832579135894775,-1.3259034156799316,1.6296632289886475,6.89818811416626,-2.7487101554870605,-0.12844575941562653,-1.503731369972229,-0.8043981790542603,15.714176177978516,-27.24707794189453,23.577655792236328,-2.4767906665802,-0.10692882537841797,-0.5706512928009033,4.106453895568848,7.005116939544678,-2.1780588626861572
5_20251106_144937,1762411742428,5,0.20999450981616974,0.4963773488998413,0.6186856031417847,0.571611762046814,2.4625236988067627,2.0541203022003174,-1.3467272520065308,1.2873071432113647,6.829957008361816,-2.789409875869751,-0.12355883419513702,-1.5238898992538452,-0.6034235954284668,16.730777740478516,-26.937965393066406,23.08223533630371,-2.255317211151123,-0.14012813568115234,-0.48908066749572754,3.5426244735717773,6.970085144042969,-2.3003292083740234
5_20251106_144937,1762411742448,5,0.22346153855323792,0.5002704858779907,0.6182689666748047,0.5635049939155579,2.4343161582946777,2.022632360458374,-1.3704859018325806,1.3052629232406616,6.729404449462891,-2.885173797607422,-0.14921516180038452,-1.5984153747558594,-0.3877883851528168,17.848487854003906,-26.55957794189453,22.578542709350586,-1.7898892164230347,-0.19254493713378906,-0.46787571907043457,3.0951521396636963,6.92194938659668,-2.4172980785369873
5_20251106_144937,1762411742467,5,0.236006960272789,0.505470871925354,0.6166228652000427,0.5554962754249573,2.4040400981903076,1.99435293674469,-1.3928865194320679,1.338780164718628,6.972405433654785,-2.7666659355163574,-0.25550562143325806,-1.7236427068710327,-0.21552452445030212,18.979373931884766,-26.179054260253906,21.94017791748047,-1.405097484588623,0.040364742279052734,-0.2794942855834961,2.743877649307251,6.932040691375732,-2.4871716499328613
5_20251106_144937,1762411742487,5,0.24833525717258453,0.5121235847473145,0.6132754683494568,0.5476789474487305,2.4040400981903076,1.99435293674469,-1.3928865194320679,1.338780164718628,6.972405433654785,-2.7666659355163574,-0.3550765812397003,-1.7627379894256592,-0.14160990715026855,20.057571411132812,-25.88825225830078,21.162841796875,-1.405097484588623,0.040364742279052734,-0.2794942855834961,2.743877649307251,6.932040691375732,-2.4871716499328613
5_20251106_144937,1762411742505,5,0.2610904574394226,0.5196868777275085,0.6082203984260559,0.5402085781097412,2.3369863033294678,1.9433839321136475,-1.4335715770721436,1.2765337228775024,7.0286664962768555,-2.1645500659942627,-0.3550765812397003,-1.7627379894256592,-0.14160990715026855,21.070594787597656,-25.688392639160156,20.286590576171875,-0.9574869871139526,0.03770780563354492,0.24842238426208496,2.234020709991455,6.9909586906433105,-2.4129724502563477
5_20251106_144937,1762411742524,5,0.2738954424858093,0.5267804265022278,0.6026623845100403,0.5331807732582092,2.3012466430664062,1.9191937446594238,-1.4514576196670532,1.039517879486084,6.715039253234863,-2.2435555458068848,-0.4137195646762848,-1.4163776636123657,-0.2790544331073761,22.121177673339844,-25.473182678222656,19.37152671813965,-0.9556021690368652,-0.2207355499267578,0.13553357124328613,1.9951200485229492,6.935774803161621,-2.379089117050171
5_20251106_144937,1762411742544,5,0.2861042022705078,0.5322220921516418,0.5977280139923096,0.5268825888633728,2.2618086338043213,1.8935537338256836,-1.468800663948059,0.7785611152648926,6.458870887756348,-2.2004618644714355,-0.5004624128341675,-1.2514442205429077,-0.29066088795661926,23.08312225341797,-25.33765411376953,18.32979965209961,-0.9732471704483032,-0.38152313232421875,0.14290189743041992,1.7518082857131958,6.840394020080566,-2.3433637619018555
5_20251106_144937,1762411742562,5,0.2975040078163147,0.5359686017036438,0.5932765007019043,0.5217777490615845,2.2257604598999023,1.8710988759994507,-1.4827818870544434,0.8060932755470276,6.6240644454956055,-1.9993574619293213,-0.6171375513076782,-1.2044075727462769,-0.2472895085811615,23.869415283203125,-25.312904357910156,17.197996139526367,-0.7565720677375793,-0.1730637550354004,0.2752048969268799,1.562665343284607,6.797128200531006,-2.274562358856201
5_20251106_144937,1762411742582,5,0.30880093574523926,0.5390716195106506,0.5882318615913391,0.5177133083343506,2.187030553817749,1.8490756750106812,-1.4949235916137695,0.6217477321624756,6.977193832397461,-1.5899665355682373,-0.6800566911697388,-1.2868744134902954,-0.23934826254844666,24.634662628173828,-25.22722625732422,16.093564987182617,-0.7527341842651367,0.14405250549316406,0.5476768016815186,1.3744819164276123,6.833141326904297,-2.137643337249756
5_20251106_144937,1762411742601,5,0.3203842043876648,0.541868269443512,0.5825411081314087,0.5141776204109192,2.144280195236206,1.8271446228027344,-1.5035045146942139,0.05195219814777374,6.863473892211914,-0.9663038849830627,-0.6079745888710022,-1.3394087553024292,-0.26195022463798523,25.30956268310547,-25.24675750732422,14.902490615844727,-1.0580236911773682,0.02426624298095703,0.9370716214179993,1.1099759340286255,6.839207649230957,-1.903375506401062
5_20251106_144937,1762411742621,5,0.3326219320297241,0.5449966788291931,0.5763543248176575,0.5100558400154114,2.103682041168213,1.8075631856918335,-1.5080591440200806,-0.5334049463272095,6.501965045928955,-0.7735788822174072,-0.4448736608028412,-1.3033677339553833,-0.221633180975914,25.88646697998047,-25.28491973876953,13.680196762084961,-1.3147046566009521,-0.2697944641113281,0.9038373231887817,0.7812997698783875,6.771759510040283,-1.677416205406189
5_20251106_144937,1762411742639,5,0.34413012862205505,0.5482564568519592,0.5708205103874207,0.505126953125,2.0613341331481934,1.7881402969360352,-1.510198712348938,-0.7536619901657104,6.438521385192871,-0.789140522480011,-0.34835705161094666,-1.245335578918457,-0.03776289522647858,26.477458953857422,-25.29650115966797,12.391340255737305,-1.2279694080352783,-0.2665901184082031,0.7106205821037292,0.47430741786956787,6.705111503601074,-1.4997611045837402
5_20251106_144937,1762411742658,5,0.35413944721221924,0.5521189570426941,0.5654804706573486,0.49998176097869873,2.0141451358795166,1.7682143449783325,-1.510970115661621,-0.34427115321159363,6.894597053527832,-1.0105947256088257,-0.34835705161094666,-1.245335578918457,-0.03776289522647858,27.01931381225586,-25.311805725097656,11.154586791992188,-0.6548628807067871,0.15158843994140625,0.3913332223892212,0.3105916976928711,6.743008613586426,-1.4019279479980469
5_20251106_144937,1762411742678,5,0.36245647072792053,0.5569366216659546,0.559445858001709,0.49544650316238403,1.9681944847106934,1.7513757944107056,-1.5096763372421265,-0.05817636847496033,7.430874824523926,-0.7352733612060547,-0.38989582657814026,-1.1928011178970337,0.18214839696884155,27.40042495727539,-25.386985778808594,9.84282112121582,-0.2950144410133362,0.55029296875,0.5333236455917358,0.23683808743953705,6.880581855773926,-1.2685970067977905
5_20251106_144937,1762411742698,5,0.3702513873577118,0.5622966885566711,0.5525614619255066,0.4913371503353119,1.9207079410552979,1.7372061014175415,-1.5054187774658203,-0.25568947196006775,7.664299964904785,-0.3833407759666443,-0.5193992257118225,-1.1451537609100342,0.13450095057487488,27.40042495727539,-25.386985778808594,9.84282112121582,-0.39402204751968384,0.6269745826721191,0.7082050442695618,0.1383325755596161,7.037325382232666,-1.091545820236206
5_20251106_144937,1762411742716,5,0.3786093592643738,0.5670434236526489,0.5451880693435669,0.4877362847328186,1.9207079410552979,1.7372061014175415,-1.5054187774658203,-0.25568947196006775,7.664299964904785,-0.3833407759666443,-0.6366852521896362,-0.9429575204849243,0.08135572820901871,27.759498596191406,-25.40258026123047,8.693588256835938,-0.39402204751968384,0.6269745826721191,0.7082050442695618,0.1383325755596161,7.037325382232666,-1.091545820236206
5_20251106_144937,1762411742735,5,0.3873547613620758,0.5704339742660522,0.5377146005630493,0.4852055609226227,1.8395881652832031,1.7218290567398071,-1.4910662174224854,-0.22097504138946533,8.270008087158203,-0.1738571673631668,-0.7215954065322876,-0.6479098796844482,-0.009663118049502373,28.068309783935547,-25.458229064941406,7.46050500869751,-0.19643950462341309,0.8258819580078125,0.559932291507721,-0.024535544216632843,7.444126129150391,-0.7337894439697266
5_20251106_144937,1762411742755,5,0.39545387029647827,0.5715630054473877,0.5312561392784119,0.4844572842121124,1.7983427047729492,1.7183655500411987,-1.4815832376480103,-0.13957569003105164,8.369361877441406,-0.2899709641933441,-0.7215954065322876,-0.6479098796844482,-0.009663118049502373,28.303298950195312,-25.53119659423828,6.224215030670166,-0.09203211963176727,0.7401885986328125,0.3550547659397125,-0.04754357039928436,7.629173278808594,-0.6450257301330566
5_20251106_144937,1762411742773,5,0.40342429280281067,0.5707552433013916,0.5255814790725708,0.48502716422080994,1.7621378898620605,1.7169644832611084,-1.4720174074172974,-0.42926162481307983,8.262825012207031,-0.052955180406570435,-0.912796139717102,-0.5428411364555359,-0.09274071455001831,28.453590393066406,-25.59729766845703,4.99827241897583,-0.3053744435310364,0.5069212913513184,0.47365644574165344,-0.12388717383146286,7.755903720855713,-0.5266116261482239
5_20251106_144937,1762411742792,5,0.41216394305229187,0.5692934393882751,0.5195074677467346,0.48594018816947937,1.7621378898620605,1.7169644832611084,-1.4720174074172974,-0.42926162481307983,8.262825012207031,-0.052955180406570435,-0.8541530966758728,-0.5935429334640503,0.001943313516676426,28.475584030151367,-25.533721923828125,2.193272113800049,-0.3053744435310364,0.5069212913513184,0.47365644574165344,-0.12388717383146286,7.755903720855713,-0.5266116261482239
5_20251106_144937,1762411742811,5,0.4209689497947693,0.5684242248535156,0.5127279162406921,0.4866098165512085,1.6892732381820679,1.7205917835235596,-1.4465066194534302,-0.19703409075737,8.848182678222656,0.5838751196861267,-0.7460300326347351,-0.5581127405166626,0.04164952039718628,28.46919059753418,-25.5614013671875,1.1106882095336914,-0.00276261568069458,0.7593898773193359,0.7626156210899353,-0.19427147507667542,8.08879280090332,-0.1787405014038086
5_20251106_144937,1762411742830,5,0.4288330674171448,0.5681614875793457,0.5060197114944458,0.487071692943573,1.657143235206604,1.7269651889801025,-1.4310522079467773,0.3715643882751465,9.340169906616211,0.6940036416053772,-0.7460300326347351,-0.5581127405166626,0.04164952039718628,28.4905948638916,-25.52484130859375,0.04392099380493164,0.452668696641922,1.0011014938354492,0.6981953382492065,-0.08110431581735611,8.339068412780762,-0.004191681742668152
5_20251106_144937,1762411742849,5,0.435886949300766,0.5680071115493774,0.49961909651756287,0.48759743571281433,1.628886342048645,1.7378716468811035,-1.4144517183303833,0.7450437545776367,10.107478141784668,0.6952006816864014,-0.8352162837982178,-0.40600743889808655,-0.0365411639213562,28.4875431060791,-25.4783935546875,-0.9154329299926758,0.6609184741973877,1.4147281646728516,0.5595139265060425,0.08412528038024902,8.692749977111816,0.13568678498268127
5_20251106_144937,1762411742868,5,0.44277241826057434,0.5669253468513489,0.49347972869873047,0.48890283703804016,1.628886342048645,1.7378716468811035,-1.4144517183303833,0.7450437545776367,10.107478141784668,0.6952006816864014,-0.9024114608764648,-0.5196282863616943,-0.15688151121139526,28.475011825561523,-25.394256591796875,-1.955583095550537,0.6609184741973877,1.4147281646728516,0.5595139265060425,0.08412528038024902,8.692749977111816,0.13568678498268127
5_20251106_144937,1762411742888,5,0.45096656680107117,0.5650019645690918,0.48726147413253784,0.4898756444454193,1.6017544269561768,1.7539231777191162,-1.39406156539917,0.45416080951690674,10.385193824768066,1.3823070526123047,-0.8370488882064819,-0.5177956819534302,-0.242402583360672,28.39158821105957,-25.265472412109375,-2.91652250289917,0.2960284352302551,1.3539552688598633,0.9972962141036987,0.1581323742866516,9.031238555908203,0.38501083850860596
5_20251106_144937,1762411742906,5,0.45995503664016724,0.5629321932792664,0.4811609089374542,0.48993152379989624,1.5758928060531616,1.773582935333252,-1.3718446493148804,0.12976041436195374,10.482154846191406,1.3212575912475586,-0.8162795305252075,-0.48786330223083496,-0.2796653211116791,28.31178855895996,-25.073760986328125,-3.8896584510803223,-0.0226975679397583,1.1607332229614258,0.7489974498748779,0.15245798230171204,9.32142162322998,0.5722601413726807
5_20251106_144937,1762411742926,5,0.4688226580619812,0.5605955719947815,0.4758257269859314,0.4894157648086548,1.5268126726150513,1.8170198202133179,-1.3308117389678955,-0.8362584710121155,10.828102111816406,1.163246989250183,-0.9066874980926514,-0.4249442219734192,-0.23995912075042725,28.31719398498535,-24.876632690429688,-4.845844745635986,-0.7149440050125122,0.999516487121582,0.4228575825691223,-0.12131446599960327,9.828585624694824,0.7403894066810608
5_20251106_144937,1762411742946,5,0.4777159094810486,0.5578998923301697,0.47042083740234375,0.48912113904953003,1.4971669912338257,1.8439369201660156,-1.3057317733764648,-1.3869011402130127,10.9657621383667,1.9939992427825928,-0.9066874980926514,-0.4249442219734192,-0.23995912075042725,28.250497817993164,-24.659698486328125,-5.750380992889404,-1.0124692916870117,0.9097414016723633,1.0028878450393677,-0.3744317889213562,10.056020736694336,0.9911113977432251
5_20251106_144937,1762411742964,5,0.48653271794319153,0.5547658205032349,0.46460583806037903,0.4895530939102173,1.4679561853408813,1.8695420026779175,-1.2801977396011353,-1.9435290098190308,11.108211517333984,2.652376413345337,-0.9445610642433167,-0.3583599925041199,-0.18925735354423523,28.103544235229492,-24.348663330078125,-6.575140953063965,-1.2552777528762817,0.8417520523071289,1.3290120363235474,-0.688251256942749,10.266459465026855,1.3233643770217896
5_20251106_144937,1762411742983,5,0.4944970905780792,0.550947368144989,0.4594153165817261,0.490782231092453,1.4343334436416626,1.8958789110183716,-1.2528611421585083,-2.2667322158813477,10.507291793823242,1.9544967412948608,-0.6843327283859253,0.17492492496967316,-0.17826178669929504,27.908044815063477,-24.040542602539062,-7.428894996643066,-1.2627848386764526,0.19266510009765625,0.5049059391021729,-1.003947377204895,10.314626693725586,1.449590802192688
5_20251106_144937,1762411743002,5,0.5004419088363647,0.5460853576660156,0.45642852783203125,0.49297231435775757,1.3981784582138062,1.920790433883667,-1.2278083562850952,-2.5396595001220703,10.275064468383789,1.1153650283813477,-0.6843327283859253,0.17492492496967316,-0.17826178669929504,27.76069450378418,-23.730056762695312,-8.199589729309082,-1.228569746017456,-0.03164958953857422,-0.26738059520721436,-1.3110897541046143,10.306714057922363,1.382745623588562
5_20251106_144937,1762411743020,5,0.5038549900054932,0.5402768850326538,0.45562997460365295,0.49662095308303833,1.3622040748596191,1.9431240558624268,-1.2050409317016602,-2.7060494422912598,10.27147388458252,1.47208571434021,-0.8627052307128906,0.24578523635864258,0.24201315641403198,27.638635635375977,-23.393539428710938,-8.90119457244873,-1.1159677505493164,-0.028192520141601562,0.07147204875946045,-1.5900816917419434,10.299666404724121,1.4006136655807495
5_20251106_144937,1762411743039,5,0.5076209306716919,0.5356471538543701,0.45227721333503723,0.5008476972579956,1.3238627910614014,1.9658857583999634,-1.1805953979492188,-2.4163637161254883,10.433074951171875,1.989211082458496,-0.8627052307128906,0.24578523635864258,0.24201315641403198,27.439157485961914,-23.114044189453125,-9.404053688049316,-0.6610256433486938,0.10672664642333984,0.470878005027771,-1.7553380727767944,10.326348304748535,1.518333077430725
5_20251106_144937,1762411743059,5,0.5104728937149048,0.532021701335907,0.44672146439552307,0.5067645311355591,1.285688042640686,1.990332841873169,-1.153477430343628,-1.7005280256271362,10.88077163696289,2.3974051475524902,-0.8694247007369995,0.4039991796016693,0.6971073150634766,27.21259880065918,-22.874603271484375,-9.827588081359863,0.04384815692901611,0.4435386657714844,0.70325767993927,-1.7443761825561523,10.437232971191406,1.6941474676132202
5_20251106_144937,1762411743077,5,0.5117189288139343,0.5290223360061646,0.440322607755661,0.5141936540603638,1.25473952293396,2.013270616531372,-1.128129482269287,-1.0577125549316406,11.26382827758789,2.572174072265625,-0.8920267224311829,0.6281865239143372,0.6561794281005859,26.887056350708008,-22.6551513671875,-10.14717960357666,0.5493309497833252,0.6612758636474609,0.7024214267730713,-1.6070435047149658,10.60255241394043,1.8697526454925537
5_20251106_144937,1762411743097,5,0.5118112564086914,0.5250651836395264,0.4345892369747162,0.5229607820510864,1.2253319025039673,2.0408976078033447,-1.0994454622268677,-0.5346019268035889,11.725889205932617,2.5039424896240234,-0.9347872734069824,0.8041155338287354,0.5798213481903076,26.65045738220215,-22.568557739257812,-10.357620239257812,0.8579533100128174,0.8986692428588867,0.5073518753051758,-1.3925552368164062,10.82721996307373,1.9965906143188477
5_20251106_144937,1762411743118,5,0.5114569067955017,0.5194726586341858,0.4300086200237274,0.532590389251709,1.2015784978866577,2.070974111557007,-1.0713810920715332,-0.016279615461826324,12.087397575378418,2.2645325660705566,-0.965941309928894,0.820608913898468,0.5566084384918213,26.371267318725586,-22.585342407226562,-10.517580032348633,1.1010205745697021,1.0081415176391602,0.2143535614013672,-1.1173001527786255,11.079256057739258,2.0501790046691895
5_20251106_144937,1762411743135,5,0.5109833478927612,0.5129224061965942,0.4259110987186432,0.5425922870635986,1.1847262382507324,2.0997321605682373,-1.047356367111206,0.2865738868713379,12.314837455749512,2.0622310638427734,-0.9488371014595032,0.6495667695999146,0.5236217379570007,26.371267318725586,-22.585342407226562,-10.517580032348633,1.1230993270874023,0.9884653091430664,0.009641647338867188,-0.8365253806114197,11.326372146606445,2.0525894165039062
5_20251106_144937,1762411743156,5,0.5107011795043945,0.506618082523346,0.42146629095077515,0.5521671772003174,1.1706030368804932,2.133176326751709,-1.0202099084854126,0.36917027831077576,12.342369079589844,2.6404061317443848,-0.9158504009246826,0.460809588432312,0.417331337928772,26.125825881958008,-22.63836669921875,-10.582245826721191,0.9645565748214722,0.8127975463867188,0.47025346755981445,-0.595386266708374,11.529571533203125,2.1701526641845703
5_20251106_144937,1762411743174,5,0.5114383697509766,0.5014753937721252,0.41636690497398376,0.5599927306175232,1.160122275352478,2.1648409366607666,-0.9916087985038757,0.2303125560283661,12.069441795349121,3.6650800704956055,-0.9158504009246826,0.460809588432312,0.417331337928772,25.80645179748535,-22.720458984375,-10.73147964477539,0.6605590581893921,0.4318962097167969,1.1959419250488281,-0.4302465319633484,11.637545585632324,2.4691381454467773
5_20251106_144937,1762411743193,5,0.5131036639213562,0.4964047372341156,0.4114658832550049,0.566571056842804,1.160122275352478,2.1648409366607666,-0.9916087985038757,0.2303125560283661,12.069441795349121,3.6650800704956055,-0.9042440056800842,0.7864004969596863,0.19314396381378174,25.419225692749023,-22.908721923828125,-10.709566116333008,0.6605590581893921,0.4318962097167969,1.1959419250488281,-0.4302465319633484,11.637545585632324,2.4691381454467773
5_20251106_144937,1762411743212,5,0.5146178603172302,0.4896419644355774,0.4079907238483429,0.5735527873039246,1.150147795677185,2.1990067958831787,-0.955723762512207,-0.1228170245885849,11.911431312561035,4.215722560882568,-0.8718681931495667,1.0478506088256836,0.17848321795463562,25.09815788269043,-23.004714965820312,-10.723901748657227,0.24594362080097198,0.21910858154296875,1.3972675800323486,-0.3687606453895569,11.692322731018066,2.8184549808502197
5_20251106_144937,1762411743230,5,0.5150870084762573,0.48071178793907166,0.40644165873527527,0.5817273855209351,1.1350924968719482,2.251476526260376,-0.8928728103637695,-0.22935441136360168,11.490070343017578,3.812317371368408,-0.7680212259292603,1.1413129568099976,0.2578956186771393,24.834016799926758,-23.148590087890625,-10.574645042419434,0.10971346497535706,-0.16678905487060547,0.5973834991455078,-0.33906787633895874,11.656859397888184,3.2149338722229004
5_20251106_144937,1762411743250,5,0.5143644213676453,0.4711775779724121,0.40594640374183655,0.5904476642608643,1.1286576986312866,2.2785346508026123,-0.8572855591773987,0.10342532396316528,11.523587226867676,3.675853729248047,-0.7680212259292603,1.1413129568099976,0.2578956186771393,24.606233596801758,-23.29034423828125,-10.39688491821289,0.35399454832077026,-0.10661792755126953,0.36873579025268555,-0.250569224357605,11.630205154418945,3.3071179389953613
5_20251106_144937,1762411743269,5,0.5121346712112427,0.46222811937332153,0.4059646427631378,0.5993796586990356,1.1243042945861816,2.302964210510254,-0.8234174251556396,0.2793915867805481,11.633715629577637,3.945189952850342,-0.6721154451370239,1.1645258665084839,0.35196879506111145,24.320032119750977,-23.397857666015625,-10.274849891662598,0.42396867275238037,0.0028085708618164062,0.5104575157165527,-0.14457707107067108,11.63090705871582,3.434732437133789
5_20251106_144937,1762411743289,5,0.5090541839599609,0.4539259970188141,0.40597400069236755,0.6082763671875,1.1220580339431763,2.3251640796661377,-0.7908361554145813,0.5343630909919739,11.717510223388672,4.287545680999756,-0.5426120758056641,1.2439382076263428,0.40755751729011536,24.08168601989746,-23.50341796875,-10.029207229614258,0.5431521534919739,0.06928253173828125,0.6822504997253418,-0.008789047598838806,11.64822769165039,3.605295181274414
5_20251106_144937,1762411743307,5,0.5051952004432678,0.44577959179878235,0.40637195110321045,0.6171873807907104,1.1221460103988647,2.3485093116760254,-0.7540104985237122,0.8001080751419067,11.619352340698242,4.40605354309082,-0.4693082571029663,1.3545047044754028,0.4020597040653229,23.803369522094727,-23.662384033203125,-9.70499324798584,0.6471177339553833,-0.023100852966308594,0.6406068801879883,0.15299037098884583,11.64245319366455,3.765446662902832
5_20251106_144937,1762411743327,5,0.5006105303764343,0.4372078776359558,0.40769287943840027,0.6261189579963684,1.1221460103988647,2.3485093116760254,-0.7540104985237122,0.8001080751419067,11.619352340698242,4.40605354309082,-0.35813087224960327,1.4271975755691528,0.4613135755062103,23.534936904907227,-23.846893310546875,-9.259170532226562,0.6471177339553833,-0.023100852966308594,0.6406068801879883,0.15299037098884583,11.64245319366455,3.765446662902832
5_20251106_144937,1762411743346,5,0.49498385190963745,0.4284827411174774,0.40978023409843445,0.635195791721344,1.1257411241531372,2.372159719467163,-0.7137789130210876,1.1053556203842163,11.439793586730957,4.240860939025879,-0.21763202548027039,1.4113150835037231,0.5291195511817932,23.32753562927246,-24.027297973632812,-8.82441234588623,0.7618921995162964,-0.16212749481201172,0.38033127784729004,0.3434634208679199,11.601921081542969,3.860529661178589
5_20251106_144937,1762411743366,5,0.4880276620388031,0.420416921377182,0.41248849034309387,0.644152045249939,1.1403921842575073,2.4064950942993164,-0.6513479948043823,1.8547085523605347,11.132152557373047,3.6698684692382812,-0.13760873675346375,1.3642784357070923,0.527286946773529,23.07261848449707,-24.387359619140625,-8.24614143371582,1.0284857749938965,-0.3291893005371094,-0.1587963104248047,0.8262227177619934,11.461341857910156,3.828664779663086
5_20251106_144937,1762411743386,5,0.4803864061832428,0.41341733932495117,0.4154270589351654,0.6524839997291565,1.153541922569275,2.4216806888580322,-0.6206320524215698,2.1635475158691406,10.994491577148438,3.753662109375,-0.1705954372882843,1.3624459505081177,0.394729346036911,22.781343460083008,-24.749542236328125,-7.69637393951416,1.0698598623275757,-0.37348079681396484,-0.06000208854675293,1.093687653541565,11.367972373962402,3.813664197921753
5_20251106_144937,1762411743403,5,0.47294044494628906,0.406439870595932,0.4186176359653473,0.6602221131324768,1.153541922569275,2.4216806888580322,-0.6206320524215698,2.1635475158691406,10.994491577148438,3.753662109375,-0.24695351719856262,1.371608853340149,0.18092668056488037,22.416048049926758,-25.129318237304688,-7.122781276702881,1.0698598623275757,-0.37348079681396484,-0.06000208854675293,1.093687653541565,11.367972373962402,3.813664197921753
5_20251106_144937,1762411743422,5,0.4667404890060425,0.39827343821525574,0.4220220744609833,0.6674046516418457,1.1807056665420532,2.4421892166137695,-0.5700132846832275,1.5099583864212036,10.392375946044922,3.548966407775879,-0.24512092769145966,1.338011384010315,0.017825795337557793,22.135042190551758,-25.528106689453125,-6.600348472595215,0.1848224401473999,-0.6872034072875977,-0.2088613510131836,1.3251359462738037,11.07957935333252,3.7578277587890625
5_20251106_144937,1762411743442,5,0.4619024693965912,0.38913053274154663,0.42584851384162903,0.673703670501709,1.194573163986206,2.448967695236206,-0.5452049970626831,1.1975284814834595,10.220001220703125,3.481931686401367,-0.3043747842311859,1.3190745115280151,0.009273689240217209,21.865320205688477,-25.938919067382812,-6.050656318664551,-0.10208594799041748,-0.6876621246337891,-0.2207169532775879,1.299614429473877,10.907663345336914,3.702648639678955
5_20251106_144937,1762411743460,5,0.45748984813690186,0.37950965762138367,0.42996200919151306,0.6795646548271179,1.194573163986206,2.448967695236206,-0.5452049970626831,1.1975284814834595,10.220001220703125,3.481931686401367,-0.3886741101741791,1.3025811910629272,0.14122046530246735,21.571733474731445,-26.339035034179688,-5.474648475646973,-0.10208594799041748,-0.6876621246337891,-0.2207169532775879,1.299614429473877,10.907663345336914,3.702648639678955
5_20251106_144937,1762411743479,5,0.45331650972366333,0.3700235188007355,0.4329567849636078,0.6856640577316284,1.2178126573562622,2.4593005180358887,-0.4996170997619629,1.395041584968567,11.377548217773438,4.725666046142578,-0.39539363980293274,1.2860878705978394,0.251176118850708,21.318918228149414,-26.673049926757812,-4.990463733673096,0.10110270977020264,0.44992637634277344,0.7949297428131104,1.2939388751983643,10.927621841430664,3.9307363033294678
5_20251106_144937,1762411743499,5,0.44838276505470276,0.36094236373901367,0.4349733591079712,0.6924389600753784,1.2294604778289795,2.4668941497802734,-0.47271034121513367,1.4620764255523682,11.644489288330078,5.38883113861084,-0.2793293297290802,1.3477851152420044,0.28904974460601807,21.08805274963379,-27.055160522460938,-4.560419082641602,0.13451004028320312,0.5734939575195312,1.166475772857666,1.327566385269165,11.070995330810547,4.222355365753174
5_20251106_144937,1762411743518,5,0.4426027834415436,0.35203614830970764,0.4371128976345062,0.6993609070777893,1.2418302297592163,2.4757144451141357,-0.44270873069763184,1.565022587776184,11.474508285522461,5.240396976470947,-0.2793293297290802,1.3477851152420044,0.28904974460601807,21.08805274963379,-27.055160522460938,-4.560419082641602,0.18996500968933105,0.32281017303466797,0.8144330978393555,1.375057578086853,11.151698112487793,4.425963878631592
5_20251106_144937,1762411743538,5,0.4355427026748657,0.3436024487018585,0.4405830502510071,0.7057808041572571,1.2553744316101074,2.4848532676696777,-0.4130595922470093,1.9648370742797852,11.401488304138184,4.803473472595215,0.20630811154842377,1.4149802923202515,0.42893776297569275,20.70810890197754,-27.65203857421875,-3.626373767852783,0.47182369232177734,0.19983196258544922,0.30200767517089844,1.4930133819580078,11.201656341552734,4.501465797424316
5_20251106_144937,1762411743556,5,0.4268289804458618,0.3363177180290222,0.445616751909256,0.7114303112030029,1.2692837715148926,2.493161916732788,-0.38767626881599426,2.438868522644043,11.402685165405273,4.514985084533691,0.20630811154842377,1.4149802923202515,0.42893776297569275,20.70810890197754,-27.65203857421875,-3.626373767852783,0.7566841840744019,0.16082286834716797,0.010815620422363281,1.6821843385696411,11.241862297058105,4.504169464111328
5_20251106_144937,1762411743575,5,0.41705167293548584,0.329823762178421,0.45153144001960754,0.7165218591690063,1.2692837715148926,2.493161916732788,-0.38767626881599426,2.438868522644043,11.402685165405273,4.514985084533691,0.37735024094581604,1.3899348974227905,0.3696838915348053,20.530412673950195,-27.955352783203125,-3.219815969467163,0.7566841840744019,0.16082286834716797,0.010815620422363281,1.6821843385696411,11.241862297058105,4.504169464111328
5_20251106_144937,1762411743595,5,0.4072228968143463,0.3236920237541199,0.4578937590122223,0.7209204435348511,1.3053340911865234,2.509005069732666,-0.3378444314002991,2.662716865539551,11.02322006225586,4.334230422973633,0.37735024094581604,1.3899348974227905,0.3696838915348053,20.37831687927246,-28.220626831054688,-2.6898391246795654,0.6185390949249268,-0.1675119400024414,-0.11527299880981445,2.044177770614624,11.1907320022583,4.449503421783447
5_20251106_144937,1762411743614,5,0.39803794026374817,0.31766265630722046,0.46460583806037903,0.724429190158844,1.3235386610031128,2.51511287689209,-0.31595030426979065,2.3718340396881104,10.91907787322998,4.316274642944336,0.3889566957950592,1.4143694639205933,0.09418388456106186,20.248178482055664,-28.522384643554688,-2.119124412536621,0.26212501525878906,-0.21732425689697266,-0.1065831184387207,2.1097090244293213,11.136402130126953,4.422857761383057
5_20251106_144937,1762411743632,5,0.3896808326244354,0.31082436442375183,0.47176307439804077,0.7273078560829163,1.338686466217041,2.5190987586975098,-0.29714056849479675,1.9612458944320679,10.587494850158691,4.513788223266602,0.37246331572532654,1.402152180671692,0.05569940805435181,20.134553909301758,-28.74786376953125,-1.5598516464233398,-0.11877048015594482,-0.43912601470947266,0.07274436950683594,2.0800163745880127,11.026620864868164,4.441043853759766
5_20251106_144937,1762411743651,5,0.3819727897644043,0.30312609672546387,0.4790591597557068,0.7298723459243774,1.3545602560043335,2.5211997032165527,-0.2762388586997986,1.732609510421753,10.252321243286133,4.4012651443481445,0.4671473205089569,1.3502286672592163,0.1534377634525299,20.0765438079834,-29.04620361328125,-0.8510313034057617,-0.2779254913330078,-0.6194400787353516,-0.031823158264160156,2.0105350017547607,10.871761322021484,4.433088302612305
5_20251106_144937,1762411743670,5,0.3739747107028961,0.2958022654056549,0.4862930178642273,0.7322315573692322,1.3686262369155884,2.5212879180908203,-0.2573244273662567,1.9157581329345703,10.212818145751953,4.451541423797607,0.5483922958374023,1.2702053785324097,0.27438896894454956,19.999826431274414,-29.222442626953125,0.048675537109375,-0.0758213996887207,-0.5271549224853516,0.014762401580810547,1.991579532623291,10.739973068237305,4.436779022216797
5_20251106_144937,1762411743690,5,0.36507079005241394,0.28987234830856323,0.49359968304634094,0.7342048287391663,1.3834515810012817,2.519322395324707,-0.23838695883750916,2.2413554191589355,10.064384460449219,4.444358825683594,0.5691617131233215,1.2708162069320679,0.2878279983997345,19.987749099731445,-29.343276977539062,0.8302435874938965,0.19982075691223145,-0.540471076965332,0.006063938140869141,2.041534662246704,10.60485553741455,4.438294887542725
5_20251106_144937,1762411743709,5,0.35557201504707336,0.28462058305740356,0.5007304549217224,0.7360901236534119,1.396775484085083,2.5154738426208496,-0.22278475761413574,2.3047990798950195,9.724422454833984,4.1989641189575195,0.6198634505271912,1.2915855646133423,0.22307634353637695,19.985658645629883,-29.489501953125,1.7199044227600098,0.21061158180236816,-0.7043466567993164,-0.19146490097045898,2.0941874980926514,10.4287691116333,4.3904290199279785
5_20251106_144937,1762411743727,5,0.34611645340919495,0.27913862466812134,0.5081295371055603,0.7376241683959961,1.410313606262207,2.508204221725464,-0.20811116695404053,2.158759117126465,9.185749053955078,4.036165237426758,0.646741509437561,1.2476032972335815,0.22490893304347992,19.997671127319336,-29.5975341796875,2.637880325317383,0.05165719985961914,-0.9944162368774414,-0.28341102600097656,2.1071019172668457,10.18016529083252,4.319576263427734
5_20251106_144937,1762411743747,5,0.3368855118751526,0.2737267017364502,0.5157737731933594,0.7386198043823242,1.424234390258789,2.496783494949341,-0.19612593948841095,2.232976198196411,8.814664840698242,3.4352469444274902,0.6919455528259277,1.2140058279037476,0.32570162415504456,19.927804946899414,-29.648483276367188,3.567258834838867,0.10069942474365234,-1.0924005508422852,-0.707463264465332,2.132276773452759,9.907065391540527,4.142710208892822
5_20251106_144937,1762411743766,5,0.3272595703601837,0.2688467502593994,0.5232535600662231,0.7394784092903137,1.4379969835281372,2.4827566146850586,-0.18888910114765167,2.5693469047546387,8.551313400268555,2.837919235229492,0.7066062688827515,1.1199326515197754,0.4216074049472809,19.844457626342773,-29.713592529296875,4.5769805908203125,0.3496561050415039,-1.0846014022827148,-1.043832778930664,2.2196907997131348,9.63591480255127,3.8817520141601562
5_20251106_144937,1762411743785,5,0.31701600551605225,0.2651030421257019,0.5305094122886658,0.7401223182678223,1.453291893005371,2.466468572616577,-0.18567274510860443,3.0290141105651855,8.556102752685547,2.5482332706451416,0.7066062688827515,1.1199326515197754,0.4216074049472809,19.771501541137695,-29.791946411132812,5.735608100891113,0.647458553314209,-0.8638496398925781,-1.0668151378631592,2.3815555572509766,9.419952392578125,3.615048408508301
5_20251106_144937,1762411743805,5,0.3067389130592346,0.2624163031578064,0.5369489192962646,0.7407663464546204,1.47190523147583,2.448136806488037,-0.18525554239749908,3.4731192588806152,8.747629165649414,2.6942732334136963,0.6265829801559448,0.986153244972229,0.4735308885574341,19.570226669311523,-29.790054321289062,6.782558441162109,0.8732509613037109,-0.5378589630126953,-0.7366201877593994,2.5998682975769043,9.28548812866211,3.4308934211730957
5_20251106_144937,1762411743828,5,0.2973259687423706,0.2606714069843292,0.5421280860900879,0.7414477467536926,1.4941891431808472,2.4280200004577637,-0.18764926493167877,3.7089381217956543,8.739250183105469,2.5925240516662598,0.45920610427856445,0.7265357971191406,0.2872171401977539,19.375879287719727,-29.898895263671875,7.6789445877075195,0.8872556686401367,-0.43699073791503906,-0.6706955432891846,2.8216824531555176,9.176240921020508,3.2632195949554443
5_20251106_144937,1762411743843,5,0.28947508335113525,0.25915607810020447,0.5464262962341309,0.7419303059577942,1.5129677057266235,2.4112818241119385,-0.19142337143421173,3.5688834190368652,8.59919548034668,2.383040428161621,0.42805200815200806,0.6287974119186401,0.0819665864109993,19.07438087463379,-29.965057373046875,8.612521171569824,0.5977609157562256,-0.4616365432739258,-0.7041432857513428,2.9711225032806396,9.060832023620605,3.087183713912964
5_20251106_144937,1762411743862,5,0.283502995967865,0.25740504264831543,0.550532341003418,0.7418105006217957,1.532338261604309,2.3928720951080322,-0.19710388779640198,3.1666746139526367,8.422033309936523,2.321990966796875,0.35658082365989685,0.5451089143753052,-0.12633827328681946,18.789087295532227,-29.96697998046875,9.480326652526855,0.15644168853759766,-0.5110387802124023,-0.6121542453765869,3.010232925415039,8.933072090148926,2.934145212173462
5_20251106_144937,1762411743881,5,0.27952226996421814,0.25497889518737793,0.5546005368232727,0.7411283850669861,1.5520087480545044,2.3714566230773926,-0.20481538772583008,2.754889726638794,8.280780792236328,2.369873046875,0.25273382663726807,0.5005158185958862,-0.27050235867500305,18.55647087097168,-29.890777587890625,10.392227172851562,-0.20427465438842773,-0.5218334197998047,-0.4514179229736328,2.9591643810272217,8.802614212036133,2.821290969848633
5_20251106_144937,1762411743900,5,0.27755025029182434,0.2518184781074524,0.5582575798034668,0.7402039170265198,1.5665711164474487,2.3527204990386963,-0.21195504069328308,2.357469320297241,8.145514488220215,2.4057843685150146,0.18553870916366577,0.43881845474243164,-0.315706342458725,18.320825576782227,-29.876693725585938,11.235225677490234,-0.4813559055328369,-0.5256795883178711,-0.33240532875061035,2.838825225830078,8.671194076538086,2.738189697265625
5_20251106_144937,1762411743918,5,0.2766684889793396,0.2480960339307785,0.5613929033279419,0.7394192814826965,1.5806773900985718,2.330604076385498,-0.22093787789344788,2.125241756439209,8.284372329711914,2.4081783294677734,0.14033471047878265,0.3337497413158417,-0.2992129623889923,18.190183639526367,-29.75323486328125,11.827449798583984,-0.5708668231964111,-0.30945777893066406,-0.2640089988708496,2.69610857963562,8.593830108642578,2.672187328338623
5_20251106_144937,1762411743938,5,0.2763173580169678,0.24464672803878784,0.5640194416046143,0.7387007474899292,1.5917024612426758,2.3092751502990723,-0.23022685945034027,1.9145610332489014,8.489067077636719,2.4237399101257324,0.061533164232969284,0.26227855682373047,-0.3309779465198517,18.137876510620117,-29.548324584960938,12.289037704467773,-0.6252379417419434,-0.08381080627441406,-0.19875788688659668,2.5397989749908447,8.572877883911133,2.622497797012329
5_20251106_144937,1762411743958,5,0.2765478789806366,0.24171234667301178,0.5659767389297485,0.7380831241607666,1.5989025831222534,2.2900125980377197,-0.23920473456382751,1.5374904870986938,8.568072319030762,2.4057843685150146,-0.07163533568382263,0.30809342861175537,-0.4519291818141937,18.17841911315918,-29.424545288085938,12.712152481079102,-0.8018466234207153,-0.0038442611694335938,-0.1733708381652832,2.339337110519409,8.571916580200195,2.579155206680298
5_20251106_144937,1762411743976,5,0.27781039476394653,0.23817357420921326,0.5673357844352722,0.7377159595489502,1.5989025831222534,2.2900125980377197,-0.23920473456382751,1.5374904870986938,8.568072319030762,2.4057843685150146,-0.22312980890274048,0.4039992094039917,-0.5551652908325195,18.17841911315918,-29.424545288085938,12.712152481079102,-0.8018466234207153,-0.0038442611694335938,-0.1733708381652832,2.339337110519409,8.571916580200195,2.579155206680298
5_20251106_144937,1762411743996,5,0.2798250615596771,0.23291215300559998,0.5681544542312622,0.7380043268203735,1.6018604040145874,2.2539150714874268,-0.259874165058136,0.7163146138191223,8.679398536682129,2.113704204559326,-0.3361397683620453,0.4339315593242645,-0.5777673721313477,18.361093521118164,-28.905715942382812,13.364616394042969,-1.104811668395996,0.07644939422607422,-0.30306005477905273,1.8211262226104736,8.602949142456055,2.416764259338379
5_20251106_144937,1762411744016,5,0.28223997354507446,0.22633914649486542,0.5683897137641907,0.7389481067657471,1.5966908931732178,2.236957311630249,-0.2705918252468109,0.3105148673057556,8.605180740356445,2.290867805480957,-0.3617960810661316,0.3942253589630127,-0.4995766580104828,18.361093521118164,-28.905715942382812,13.364616394042969,-1.208488941192627,0.0017852783203125,-0.10071730613708496,1.5190038681030273,8.603395462036133,2.391585111618042
5_20251106_144937,1762411744034,5,0.28473085165023804,0.21978087723255157,0.5680482387542725,0.7402336597442627,1.5885169506072998,2.2224981784820557,-0.27969393134117126,-0.005506165325641632,8.619544982910156,2.416557788848877,-0.3269767761230469,0.33558231592178345,-0.33342140913009644,18.506738662719727,-28.672439575195312,13.523441314697266,-1.2196080684661865,0.012919425964355469,0.019978046417236328,1.2141019105911255,8.6066255569458,2.3965797424316406
5_20251106_144937,1762411744053,5,0.2864714562892914,0.21408827602863312,0.5674514770507812,0.7416867017745972,1.5776454210281372,2.209118127822876,-0.28802940249443054,-0.04740290343761444,8.751220703125,2.52309513092041,-0.259170800447464,0.2286810278892517,-0.108623206615448,18.712907791137695,-28.447341918945312,13.643905639648438,-1.0092037916183472,0.1156759262084961,0.1012122631072998,0.9618009328842163,8.635544776916504,2.4218828678131104
5_20251106_144937,1762411744072,5,0.28715091943740845,0.21014763414859772,0.5665337443351746,0.743250846862793,1.5643951892852783,2.1971383094787598,-0.2961530387401581,0.10581941902637482,9.159415245056152,2.507533550262451,-0.15776726603507996,0.09856684505939484,0.07402534782886505,18.943140029907227,-28.232666015625,13.711021423339844,-0.6847852468490601,0.4190969467163086,0.06852054595947266,0.7906046509742737,8.740318298339844,2.4390130043029785
5_20251106_144937,1762411744091,5,0.28678590059280396,0.20843996107578278,0.5654723644256592,0.7446795105934143,1.5496927499771118,2.1877169609069824,-0.3040792942047119,0.31290894746780396,9.5819730758667,2.5039424896240234,-0.07957658171653748,0.005104538518935442,0.12655971944332123,19.084951400756836,-28.074188232421875,13.814197540283203,-0.3821565508842468,0.6733236312866211,0.05194377899169922,0.6950654983520508,8.908649444580078,2.451998710632324
5_20251106_144937,1762411744110,5,0.28602486848831177,0.20859435200691223,0.5645397305488586,0.745635986328125,1.5355297327041626,2.1815543174743652,-0.31125444173812866,0.36917027831077576,9.761530876159668,2.444089889526367,-0.09118300676345825,-0.00955621525645256,0.08807523548603058,19.174074172973633,-28.00543212890625,13.778402328491211,-0.26071617007255554,0.6823053359985352,-0.006327152252197266,0.6298864483833313,9.079225540161133,2.4504170417785645
5_20251106_144937,1762411744128,5,0.2854556441307068,0.20917373895645142,0.5637449622154236,0.7462928891181946,1.5220850706100464,2.177929639816284,-0.3173356056213379,0.3464263379573822,9.859688758850098,2.603297472000122,-0.12539143860340118,-0.04193204268813133,0.03126481920480728,19.278005599975586,-27.88592529296875,13.771184921264648,-0.2267681062221527,0.6243705749511719,0.12230420112609863,0.5731944441795349,9.235318183898926,2.4809932708740234
5_20251106_144937,1762411744148,5,0.2854714095592499,0.20959939062595367,0.5627559423446655,0.7469135522842407,1.5069019794464111,2.176332950592041,-0.3225385546684265,0.24707123637199402,9.968620300292969,2.8810129165649414,-0.1192827820777893,-0.09813158959150314,-0.0365411639213562,19.3185977935791,-27.8084716796875,13.801271438598633,-0.26089856028556824,0.5866413116455078,0.32001566886901855,0.5079697966575623,9.381978988647461,2.560997247695923
5_20251106_144937,1762411744168,5,0.2862420678138733,0.21001876890659332,0.5616189241409302,0.7473565340042114,1.4927886724472046,2.176394462585449,-0.32621970772743225,0.04836105555295944,9.961437225341797,2.872633457183838,-0.08446349203586578,-0.0846925750374794,-0.10984493792057037,19.35625648498535,-27.792999267578125,13.748941421508789,-0.36768701672554016,0.46356678009033203,0.24930906295776367,0.4160480797290802,9.497870445251465,2.623324394226074
5_20251106_144937,1762411744187,5,0.28761622309684753,0.21026116609573364,0.5607131719589233,0.7474408745765686,1.4927886724472046,2.176394462585449,-0.32621970772743225,0.04836105555295944,9.961437225341797,2.872633457183838,-0.06919188052415848,-0.06758835911750793,-0.13244694471359253,19.379316329956055,-27.816390991210938,13.735877990722656,-0.36768701672554016,0.46356678009033203,0.24930906295776367,0.4160480797290802,9.497870445251465,2.623324394226074
5_20251106_144937,1762411744205,5,0.28909143805503845,0.2099546194076538,0.5602588653564453,0.7472985982894897,1.4585405588150024,2.1794230937957764,-0.3323442339897156,-0.45679375529289246,9.871660232543945,2.9755797386169434,-0.09057214856147766,-0.07675132900476456,-0.08663207292556763,19.401559829711914,-27.864089965820312,13.641189575195312,-0.5940514802932739,0.24363040924072266,0.2662386894226074,0.13725772500038147,9.628029823303223,2.709341049194336
5_20251106_144937,1762411744225,5,0.29052308201789856,0.2097117155790329,0.5597161650657654,0.7472182512283325,1.4390567541122437,2.18194580078125,-0.3335982859134674,-0.6088190078735352,9.847718238830566,3.0964818000793457,-0.040481243282556534,-0.052927613258361816,-0.019436953589320183,19.412927627563477,-27.887603759765625,13.560054779052734,-0.5968613624572754,0.175750732421875,0.30971264839172363,-0.011957615613937378,9.671967506408691,2.786769151687622
5_20251106_144937,1762411744244,5,0.2915576994419098,0.209738627076149,0.5590828657150269,0.7472818493843079,1.4390567541122437,2.18194580078125,-0.3335982859134674,-0.6088190078735352,9.847718238830566,3.0964818000793457,0.06214403733611107,0.0026610796339809895,0.0715818926692009,19.400827407836914,-27.899871826171875,13.451169967651367,-0.5968613624572754,0.175750732421875,0.30971264839172363,-0.011957615613937378,9.671967506408691,2.786769151687622
5_20251106_144937,1762411744263,5,0.29156604409217834,0.2099684476852417,0.5590656399726868,0.7472269535064697,1.400098204612732,2.1864771842956543,-0.3374173641204834,-0.4962964355945587,9.67294979095459,2.3974051475524902,0.10734802484512329,-0.028493020683526993,0.2053612470626831,19.42479133605957,-27.910430908203125,13.411338806152344,-0.285078227519989,-0.0014772415161132812,-0.28960537910461426,-0.2112182080745697,9.674427032470703,2.6870105266571045
5_20251106_144937,1762411744281,5,0.29048532247543335,0.21081164479255676,0.5595231056213379,0.7470680475234985,1.3825254440307617,2.1887621879577637,-0.33961886167526245,-0.24850718677043915,9.798640251159668,2.6547703742980957,0.12384137511253357,-0.10118591785430908,0.3281450569629669,19.364355087280273,-27.913726806640625,13.341304779052734,-0.029831185936927795,0.09937095642089844,-0.02579212188720703,-0.21867600083351135,9.69926929473877,2.6805624961853027
5_20251106_144937,1762411744301,5,0.2887886166572571,0.21309547126293182,0.5596572160720825,0.7469774484634399,1.36457359790802,2.191683769226074,-0.34181728959083557,-0.02226485311985016,9.866870880126953,2.7218055725097656,0.15988239645957947,-0.07675132900476456,0.34708186984062195,19.384286880493164,-27.999359130859375,13.272855758666992,0.1571289300918579,0.1340808868408203,0.03299450874328613,-0.17939378321170807,9.732789993286133,2.6888110637664795
5_20251106_144937,1762411744320,5,0.28655192255973816,0.2160126119852066,0.5597596764564514,0.746924102306366,1.3491381406784058,2.1942152976989746,-0.3441903591156006,0.09983417391777039,9.694496154785156,2.5470361709594727,0.17271053791046143,-0.02604955993592739,0.2988235652446747,19.372297286987305,-27.9998779296875,13.245332717895508,0.2233823835849762,-0.03063488006591797,-0.11342000961303711,-0.12354820221662521,9.725131034851074,2.6604561805725098
5_20251106_144937,1762411744339,5,0.2842596173286438,0.21861480176448822,0.5601904392242432,0.7467199563980103,1.3491381406784058,2.1942152976989746,-0.3441903591156006,0.09983417391777039,9.694496154785156,2.5470361709594727,0.14461076259613037,0.005104538518935442,0.25911736488342285,19.360620498657227,-27.988388061523438,13.272138595581055,0.2233823835849762,-0.03063488006591797,-0.11342000961303711,-0.12354820221662521,9.725131034851074,2.6604561805725098
5_20251106_144937,1762411744358,5,0.2821519076824188,0.2207052856683731,0.5607231855392456,0.7465044856071472,1.3233970403671265,2.1977450847625732,-0.3497658371925354,0.3260765075683594,9.552047729492188,2.4871835708618164,0.10734802484512329,0.01487837452441454,0.22429805994033813,19.198888778686523,-28.04962158203125,13.33228874206543,0.30308204889297485,-0.11536979675292969,-0.11568284034729004,0.022994454950094223,9.667417526245117,2.6028664112091064
5_20251106_144937,1762411744378,5,0.2802181839942932,0.22236213088035583,0.5611523985862732,0.7464186549186707,1.312322735786438,2.199167490005493,-0.35261592268943787,0.3212882876396179,9.63703727722168,2.622450351715088,0.05175933241844177,0.015489238314330578,0.1955874264240265,19.048738479614258,-28.122482299804688,13.379148483276367,0.23863506317138672,-0.02430438995361328,0.015666961669921875,0.0826532170176506,9.661341667175293,2.606783390045166
5_20251106_144937,1762411744397,5,0.2785990238189697,0.22374314069747925,0.5612974762916565,0.7465029954910278,1.3028678894042969,2.2003517150878906,-0.35483312606811523,0.2793915867805481,9.625066757202148,2.7361698150634766,0.05175933241844177,0.015489238314330578,0.1955874264240265,19.048738479614258,-28.122482299804688,13.379148483276367,0.15739069879055023,-0.029020309448242188,0.10350894927978516,0.12200088798999786,9.65408706665039,2.6326608657836914
5_20251106_144937,1762411744416,5,0.27714788913726807,0.22461946308612823,0.5612169504165649,0.7468404769897461,1.2941042184829712,2.2013282775878906,-0.35708242654800415,0.2015833705663681,9.599928855895996,2.5805535316467285,0.051148466765880585,0.05153025686740875,0.14977256953716278,18.934144973754883,-28.205917358398438,13.467763900756836,0.06366598606109619,-0.043326377868652344,-0.04168581962585449,0.1379173845052719,9.643255233764648,2.622239351272583
5_20251106_144937,1762411744436,5,0.2757650911808014,0.22509446740150452,0.5612440705299377,0.7471888661384583,1.2941042184829712,2.2013282775878906,-0.35708242654800415,0.2015833705663681,9.599928855895996,2.5805535316467285,0.051148466765880585,0.05153025686740875,0.14977256953716278,18.760831832885742,-28.255523681640625,13.541204452514648,0.06366598606109619,-0.043326377868652344,-0.04168581962585449,0.1379173845052719,9.643255233764648,2.622239351272583
5_20251106_144937,1762411744455,5,0.2742595076560974,0.22592365741729736,0.5615372061729431,0.7472724914550781,1.2773078680038452,2.203500509262085,-0.36349472403526306,0.1560955047607422,9.778289794921875,2.3160057067871094,0.09390900284051895,0.025263074785470963,0.1852027177810669,18.621767044067383,-28.340682983398438,13.642354965209961,0.017762884497642517,0.1076812744140625,-0.2059488296508789,0.13833262026309967,9.670608520507812,2.5219545364379883
5_20251106_144937,1762411744474,5,0.272525429725647,0.22715255618095398,0.5618317127227783,0.7473130226135254,1.2705459594726562,2.205012321472168,-0.3666653335094452,0.2853768467903137,9.839338302612305,2.476410388946533,0.08352430164813995,0.017321834340691566,0.22857412695884705,18.485013961791992,-28.387908935546875,13.717266082763672,0.11763538420200348,0.13498401641845703,-0.03643512725830078,0.16774146258831024,9.704354286193848,2.512845516204834
5_20251106_144937,1762411744493,5,0.270572304725647,0.22857394814491272,0.5619714856147766,0.7474842071533203,1.2640098333358765,2.206960439682007,-0.37026113271713257,0.36557912826538086,9.820186614990234,2.430922269821167,0.11345667392015457,0.005715403240174055,0.2621716856956482,18.359445571899414,-28.447296142578125,13.832952499389648,0.15827015042304993,0.0926656723022461,-0.06553864479064941,0.20730897784233093,9.727520942687988,2.4964609146118164
5_20251106_144937,1762411744512,5,0.2686476409435272,0.23012298345565796,0.5624916553497314,0.7473118901252747,1.2640098333358765,2.206960439682007,-0.37026113271713257,0.36557912826538086,9.820186614990234,2.430922269821167,0.12995001673698425,0.004493673797696829,0.23956969380378723,18.232961654663086,-28.5311279296875,13.880529403686523,0.15827015042304993,0.0926656723022461,-0.06553864479064941,0.20730897784233093,9.727520942687988,2.4964609146118164
5_20251106_144937,1762411744530,5,0.2666780650615692,0.23176513612270355,0.56307053565979,0.7470738291740417,1.2543543577194214,2.21071195602417,-0.3785385191440582,0.4601460099220276,9.760333061218262,2.178344964981079,0.09574159979820251,0.013045779429376125,0.19253310561180115,18.10727882385254,-28.602264404296875,13.914854049682617,0.1698598563671112,0.016211509704589844,-0.21068072319030762,0.2902861535549164,9.744121551513672,2.3890256881713867
5_20251106_144937,1762411744548,5,0.2649979591369629,0.23325657844543457,0.5637830495834351,0.7466700077056885,1.2509316205978394,2.212613105773926,-0.3822671175003052,0.5559099912643433,9.822580337524414,2.512321710586548,0.05786798521876335,-0.005280161742120981,0.14793998003005981,17.995195388793945,-28.647491455078125,13.950197219848633,0.21249908208847046,0.06276702880859375,0.09863686561584473,0.3434109091758728,9.75981330871582,2.413684844970703
5_20251106_144937,1762411744569,5,0.26379555463790894,0.2345748394727707,0.564412534236908,0.7462071180343628,1.2479305267333984,2.2148101329803467,-0.3856237232685089,0.579850971698761,9.78666877746582,2.6451942920684814,0.0761939287185669,-0.02604956179857254,0.10090339928865433,17.846960067749023,-28.682952880859375,14.024881362915039,0.18915203213691711,0.021484375,0.18520760536193848,0.39069893956184387,9.76518440246582,2.459986686706543
5_20251106_144937,1762411744588,5,0.26297932863235474,0.2356649786233902,0.5647299289703369,0.7459114789962769,1.245810866355896,2.216803550720215,-0.38825684785842896,0.5583040714263916,9.803426742553711,2.5518243312835693,0.10307197272777557,-0.03948858752846718,0.05142335593700409,17.753522872924805,-28.815567016601562,14.167488098144531,0.13408410549163818,0.0305938720703125,0.0734701156616211,0.4242199659347534,9.772832870483398,2.4783542156219482
5_20251106_144937,1762411744606,5,0.2623610198497772,0.23648317158222198,0.5650664567947388,0.7456154227256775,1.245810866355896,2.216803550720215,-0.38825684785842896,0.5583040714263916,9.803426742553711,2.5518243312835693,0.0963524580001831,-0.03154734522104263,-0.0011110110208392143,17.69029426574707,-28.845870971679688,14.286153793334961,0.13408410549163818,0.0305938720703125,0.0734701156616211,0.4242199659347534,9.772832870483398,2.4783542156219482
5_20251106_144937,1762411744626,5,0.2620881497859955,0.2370225042104721,0.565549373626709,0.7451738119125366,1.2417610883712769,2.2194442749023438,-0.39353305101394653,0.34882044792175293,9.572397232055664,2.3758580684661865,0.06275489926338196,-0.02971475012600422,-0.010273981839418411,17.554948806762695,-28.86798095703125,14.361593246459961,-0.06242874264717102,-0.1428356170654297,-0.07766389846801758,0.41124919056892395,9.715232849121094,2.453521966934204
5_20251106_144937,1762411744645,5,0.26214858889579773,0.23719768226146698,0.5661292672157288,0.7446563243865967,1.2396141290664673,2.2197628021240234,-0.3962220549583435,0.34882044792175293,9.473041534423828,2.4093754291534424,0.030989930033683777,-0.011999674141407013,0.008662823587656021,17.468137741088867,-28.898788452148438,14.371149063110352,-0.049943000078201294,-0.19375324249267578,-0.035317182540893555,0.3987634479999542,9.666794776916504,2.444692611694336
