session_id,timestamp,label,quaternion_w,quaternion_x,quaternion_y,quaternion_z,position_x,position_y,position_z,accelerometer_x,accelerometer_y,accelerometer_z,gyroscope_x,gyroscope_y,gyroscope_z,magnetometer_x,magnetometer_y,magnetometer_z,linear_acceleration_x,linear_acceleration_y,linear_acceleration_z,gravity_x,gravity_y,gravity_z
9_20251106_211231,1762434714011,9,0.3890983760356903,0.3068931996822357,0.6023913621902466,0.6257345080375671,-0.16658461093902588,3.1581051349639893,0.755460798740387,-0.6938095092773438,9.948270797729492,1.0579066276550293,0.09708549827337265,-0.12807925045490265,0.4758865237236023,24.345861434936523,-10.043121337890625,10.843133926391602,0.37688302993774414,0.11751747131347656,0.029036402702331543,-1.070692539215088,9.830753326416016,1.0288702249526978
9_20251106_211231,1762434714030,9,0.387199729681015,0.3102470636367798,0.6007831692695618,0.6268035769462585,-0.1606024205684662,3.1607115268707275,0.7573518753051758,-0.38257673382759094,10.029669761657715,1.0399508476257324,-0.0702914372086525,-0.018734458833932877,0.3616548180580139,24.27565574645996,-10.222084045410156,10.755887985229492,0.5504926443099976,0.1591329574584961,0.008864521980285645,-0.9330693483352661,9.870536804199219,1.0310863256454468
9_20251106_211231,1762434714050,9,0.3857092559337616,0.3124869763851166,0.599014401435852,0.6283008456230164,-0.15249550342559814,3.163907289505005,0.7593863606452942,-0.23414260149002075,10.064384460449219,1.078256368637085,-0.0702914372086525,-0.018734458833932877,0.3616548180580139,24.192163467407227,-10.414932250976562,10.721954345703125,0.5591413974761963,0.15507793426513672,0.03773605823516846,-0.793283998966217,9.909306526184082,1.0405203104019165
9_20251106_211231,1762434714070,9,0.3847334384918213,0.31358659267425537,0.5971322059631348,0.6301402449607849,-0.14278481900691986,3.1673309803009033,0.7619578838348389,-0.13239340484142303,10.03685188293457,1.25063157081604,-0.1631428748369217,0.030134718865156174,0.26697078347206116,24.060039520263672,-10.599212646484375,10.767419815063477,0.5287125110626221,0.1020364761352539,0.16808903217315674,-0.6611059308052063,9.934815406799316,1.0825425386428833
9_20251106_211231,1762434714091,9,0.3838738203048706,0.31362834572792053,0.5952640771865845,0.6324071884155273,-0.13096529245376587,3.17108416557312,0.7659810185432434,-0.024658948183059692,10.03565502166748,1.517573595046997,-0.2395009696483612,0.09732984006404877,0.1924452781677246,23.96455955505371,-10.792587280273438,10.705963134765625,0.509157657623291,0.08067131042480469,0.348024845123291,-0.5338165760040283,9.954983711242676,1.169548749923706
9_20251106_211231,1762434714107,9,0.38307303190231323,0.3135312795639038,0.5933956503868103,0.6346927285194397,-0.12115874886512756,3.1741836071014404,0.76966792345047,0.10941056907176971,10.151768684387207,1.5678496360778809,-0.16008855402469635,0.08389081805944443,0.223599374294281,23.84360694885254,-11.000648498535156,10.69732666015625,0.5145817399024963,0.15742778778076172,0.31864070892333984,-0.40517115592956543,9.994340896606445,1.249208927154541
9_20251106_211231,1762434714125,9,0.38198351860046387,0.3140179514884949,0.591790497303009,0.6366045475006104,-0.1089215949177742,3.177992820739746,0.773891806602478,0.3081207573413849,10.196060180664062,1.3643512725830078,-0.08983910828828812,0.07656043767929077,0.2504774332046509,23.658496856689453,-11.275062561035156,10.644369125366211,0.5706335306167603,0.1613750457763672,0.09211385250091553,-0.26251280307769775,10.034685134887695,1.2722374200820923
9_20251106_211231,1762434714145,9,0.3806506097316742,0.3150612711906433,0.5904384851455688,0.6381409764289856,-0.09373129159212112,3.182544231414795,0.7780627012252808,0.48528409004211426,10.209226608276367,1.1776115894317627,-0.055019818246364594,0.03746509552001953,0.23703840374946594,24.457326889038086,-12.594474792480469,10.29427719116211,0.5982375144958496,0.1396331787109375,-0.07570064067840576,-0.11295343190431595,10.06959342956543,1.2533122301101685
9_20251106_211231,1762434714163,9,0.3794577717781067,0.31641969084739685,0.5892220139503479,0.6393026113510132,-0.07909657061100006,3.1866941452026367,0.7815337777137756,0.5559099912643433,10.17451286315918,1.2147200107574463,-0.055019818246364594,0.03746509552001953,0.23703840374946594,24.322172164916992,-12.840866088867188,10.270841598510742,0.5350907444953918,0.08393573760986328,-0.030873775482177734,0.02081923931837082,10.090577125549316,1.245593786239624
9_20251106_211231,1762434714183,9,0.3789254426956177,0.3178628981113434,0.5882649421691895,0.6397835612297058,-0.07909657061100006,3.1866941452026367,0.7815337777137756,0.5559099912643433,10.17451286315918,1.2147200107574463,0.027446916326880455,-0.032173480838537216,0.005520693026483059,24.226099014282227,-13.035049438476562,10.290481567382812,0.5350907444953918,0.08393573760986328,-0.030873775482177734,0.02081923931837082,10.090577125549316,1.245593786239624
9_20251106_211231,1762434714201,9,0.3792787194252014,0.3187156021595001,0.5879853367805481,0.6394069790840149,-0.04702676832675934,3.194563388824463,0.7874707579612732,0.3296676278114319,9.88243293762207,1.0231921672821045,0.027446916326880455,-0.032173480838537216,0.005520693026483059,24.181873321533203,-13.187042236328125,10.177713394165039,0.17199823260307312,-0.16998577117919922,-0.1657034158706665,0.15766939520835876,10.05241870880127,1.188895583152771
9_20251106_211231,1762434714220,9,0.3806713819503784,0.3181949257850647,0.5885641574859619,0.6383051872253418,-0.03254075348377228,3.1960954666137695,0.7901046872138977,-0.0521911084651947,9.389248847961426,1.249434471130371,0.004234056919813156,0.03746509552001953,-0.4404105544090271,24.14310073852539,-13.22723388671875,10.188966751098633,-0.16788840293884277,-0.5305356979370117,0.04843103885650635,0.11569729447364807,9.919784545898438,1.2010034322738647
9_20251106_211231,1762434714240,9,0.3834480047225952,0.3160450756549835,0.5897722840309143,0.6365938782691956,-0.03254075348377228,3.1960954666137695,0.7901046872138977,-0.0521911084651947,9.389248847961426,1.249434471130371,-0.09839121997356415,0.16452495753765106,-0.6090092062950134,24.132930755615234,-13.19049072265625,10.202783584594727,-0.16788840293884277,-0.5305356979370117,0.04843103885650635,0.11569729447364807,9.919784545898438,1.2010034322738647
9_20251106_211231,1762434714259,9,0.386758029460907,0.31159019470214844,0.5913723707199097,0.6353018879890442,-0.019818905740976334,3.194826602935791,0.7936143279075623,-0.626774787902832,9.061256408691406,1.4230066537857056,-0.2859266698360443,0.3373996913433075,-0.612674355506897,24.122154235839844,-13.166168212890625,10.202821731567383,-0.593977689743042,-0.6868228912353516,0.1776026487350464,-0.032797105610370636,9.748079299926758,1.2454040050506592
9_20251106_211231,1762434714279,9,0.3897899389266968,0.30531615018844604,0.5924540758132935,0.6354872584342957,-0.007655241061002016,3.1875057220458984,0.8023104071617126,-1.336625099182129,9.08041000366211,1.7809244394302368,-0.40138012170791626,0.44246840476989746,-0.42208459973335266,24.14450454711914,-12.989173889160156,10.166458129882812,-0.8572417497634888,-0.4238605499267578,0.3821878433227539,-0.47938334941864014,9.504270553588867,1.398736596107483
9_20251106_211231,1762434714300,9,0.3914238512516022,0.2989215850830078,0.5926980972290039,0.6372928619384766,-0.005036457441747189,3.181735038757324,0.8088911175727844,-1.054121494293213,8.891275405883789,2.100536823272705,-0.28959187865257263,0.3935992419719696,-0.11787399649620056,24.236953735351562,-12.85791015625,10.159013748168945,-0.45979052782058716,-0.49039649963378906,0.561440110206604,-0.5943309664726257,9.381671905517578,1.539096713066101
9_20251106_211231,1762434714316,9,0.3912353813648224,0.2949676811695099,0.5925067067146301,0.6394253373146057,-0.002762389834970236,3.1749653816223145,0.8159545063972473,-0.627971887588501,8.741643905639648,2.002378463745117,-0.28959187865257263,0.3935992419719696,-0.11787399649620056,24.236953735351562,-12.85791015625,10.159013748168945,-0.02691274881362915,-0.5120220184326172,0.37062549591064453,-0.6010591387748718,9.253665924072266,1.6317529678344727
9_20251106_211231,1762434714336,9,0.38875600695610046,0.2946178615093231,0.5924497842788696,0.6411492228507996,0.00117556843906641,3.166954517364502,0.8224664330482483,-0.09528489410877228,8.969084739685059,1.321257472038269,-0.028141772374510765,0.28853049874305725,0.23215149343013763,24.330629348754883,-12.690185546875,10.274007797241211,0.40461939573287964,-0.22766494750976562,-0.2483963966369629,-0.4999043047428131,9.196749687194824,1.569653868675232
9_20251106_211231,1762434714355,9,0.38427385687828064,0.29738062620162964,0.5927237272262573,0.6423215270042419,0.00760988611727953,3.1593825817108154,0.8258523344993591,0.5499247312545776,9.072031021118164,0.6616833209991455,0.32432717084884644,0.12481875717639923,0.6237157583236694,24.349468231201172,-12.564361572265625,10.33120346069336,0.8398632407188416,-0.09977531433105469,-0.7263764142990112,-0.2899385094642639,9.171806335449219,1.3880597352981567
9_20251106_211231,1762434714374,9,0.3789512813091278,0.3015539050102234,0.5932127237319946,0.6430861949920654,0.017261605709791183,3.151862859725952,0.8255882859230042,1.0000152587890625,9.052877426147461,0.11941992491483688,0.3090555667877197,0.10771454125642776,0.5192579030990601,24.32843589782715,-12.4918212890625,10.453453063964844,1.0319629907608032,-0.09514331817626953,-1.0149117708206177,-0.03194776177406311,9.14802074432373,1.1343317031860352
9_20251106_211231,1762434714393,9,0.37430810928344727,0.3053601086139679,0.5938517451286316,0.6434195637702942,0.017261605709791183,3.151862859725952,0.8255882859230042,1.0000152587890625,9.052877426147461,0.11941992491483688,0.1563393771648407,0.09427551925182343,0.24070359766483307,24.26730728149414,-12.496063232421875,10.478033065795898,1.0319629907608032,-0.09514331817626953,-1.0149117708206177,-0.03194776177406311,9.14802074432373,1.1343317031860352
9_20251106_211231,1762434714413,9,0.3720099627971649,0.30742961168289185,0.594244122505188,0.6434046626091003,0.04355619475245476,3.1414389610290527,0.8136451840400696,0.7234969139099121,10.057201385498047,-0.2791975140571594,-0.1264909952878952,0.1828508973121643,-0.09282854199409485,24.129961013793945,-12.544090270996094,10.634040832519531,0.43119749426841736,0.6797466278076172,-0.9029350280761719,0.29229941964149475,9.37745475769043,0.6237375140190125
9_20251106_211231,1762434714431,9,0.3717038929462433,0.30580034852027893,0.5944157838821411,0.6441988945007324,0.05546323210000992,3.1400232315063477,0.805622935295105,0.29255911707878113,10.162542343139648,0.02485303208231926,-0.4520818889141083,0.38199278712272644,-0.3359526991844177,24.013362884521484,-12.653450012207031,10.803226470947266,0.00020775198936462402,0.6280698776245117,-0.4791075885295868,0.2923513650894165,9.534472465515137,0.5039606094360352
9_20251106_211231,1762434714450,9,0.3729844093322754,0.30060797929763794,0.5939146876335144,0.6463611721992493,0.06638909131288528,3.140352964401245,0.7977057099342346,-0.0773291289806366,10.172119140625,0.5503576993942261,-0.4520818889141083,0.38199278712272644,-0.3359526991844177,23.953466415405273,-12.834175109863281,10.97327995300293,-0.2957444190979004,0.5101175308227539,0.03711766004562378,0.2184152752161026,9.662001609802246,0.5132400393486023
9_20251106_211231,1762434714469,9,0.3748818635940552,0.2930872440338135,0.592953085899353,0.6495922207832336,0.07502781599760056,3.142496109008789,0.79197758436203,-0.4160940945148468,10.32893180847168,1.1668381690979004,-0.6707714796066284,0.5334872007369995,-0.476451575756073,23.84774398803711,-12.967720031738281,11.128911972045898,-0.5076075196266174,0.5335445404052734,0.5228785276412964,0.09151341021060944,9.795387268066406,0.643959641456604
9_20251106_211231,1762434714489,9,0.3767435550689697,0.2850588262081146,0.5919958353042603,0.652952253818512,0.08094073086977005,3.1467487812042236,0.7885704636573792,-0.805135190486908,10.489336967468262,1.407444953918457,-0.5785309076309204,0.5145503878593445,-0.40742385387420654,23.68470001220703,-13.053924560546875,11.175016403198242,-0.7173188924789429,0.5551595687866211,0.6107882261276245,-0.08781629800796509,9.93417739868164,0.7966567277908325
9_20251106_211231,1762434714509,9,0.3782002627849579,0.27787917852401733,0.5912030935287476,0.6559166312217712,0.08094073086977005,3.1467487812042236,0.7885704636573792,-0.805135190486908,10.489336967468262,1.407444953918457,-0.5785309076309204,0.5145503878593445,-0.40742385387420654,23.634262084960938,-13.071006774902344,11.307954788208008,-0.7173188924789429,0.5551595687866211,0.6107882261276245,-0.08781629800796509,9.93417739868164,0.7966567277908325
9_20251106_211231,1762434714528,9,0.37922728061676025,0.27261611819267273,0.5906363129615784,0.658039391040802,0.08269909769296646,3.158419132232666,0.7893271446228027,-1.32106351852417,10.212818145751953,1.9078116416931152,-0.4190951883792877,0.3899340331554413,-0.291359543800354,23.635387420654297,-13.034683227539062,11.443910598754883,-0.8139853477478027,0.12374401092529297,0.7622771263122559,-0.5070781707763672,10.08907413482666,1.1455345153808594
9_20251106_211231,1762434714546,9,0.3798407316207886,0.26935866475105286,0.5906575918197632,0.65900719165802,0.07973230630159378,3.162834882736206,0.7931454181671143,-1.4024628400802612,9.664569854736328,1.959284782409668,-0.021422259509563446,0.1834617704153061,-0.177127867937088,23.64960289001465,-12.9847412109375,11.553586959838867,-0.7163077592849731,-0.3396034240722656,0.6510002613067627,-0.6861550807952881,10.004173278808594,1.3082845211029053
9_20251106_211231,1762434714565,9,0.38031700253486633,0.2672998011112213,0.5915079116821289,0.658808171749115,0.07439027726650238,3.164764642715454,0.796966016292572,-1.6059612035751343,9.178567886352539,1.3787157535552979,0.09647463262081146,0.11993183195590973,-0.23271656036376953,23.725650787353516,-12.917999267578125,11.638948440551758,-0.7358448505401611,-0.6604843139648438,0.05634498596191406,-0.8701163530349731,9.839052200317383,1.3223707675933838
9_20251106_211231,1762434714584,9,0.38123470544815063,0.2657376229763031,0.592984139919281,0.6575815081596375,0.06638675183057785,3.1658761501312256,0.7990587949752808,-1.9375438690185547,9.57598876953125,0.7622354626655579,0.09647463262081146,0.11993183195590973,-0.23271656036376953,23.795040130615234,-12.763343811035156,11.644567489624023,-0.8539420366287231,-0.2104511260986328,-0.4481082558631897,-1.0836018323898315,9.786439895629883,1.2103437185287476
9_20251106_211231,1762434714603,9,0.384031742811203,0.264358788728714,0.5933011174201965,0.656222403049469,0.055540651082992554,3.1684532165527344,0.8013676404953003,-2.265535354614258,10.340902328491211,1.3272427320480347,-0.454525351524353,-0.06943622976541519,-0.4098673164844513,23.937458038330078,-12.592445373535156,11.76152229309082,-0.9455468654632568,0.4435701370239258,0.09351921081542969,-1.319988489151001,9.897332191467285,1.233723521232605
9_20251106_211231,1762434714623,9,0.3885258138179779,0.2610374689102173,0.5912949442863464,0.6567171216011047,0.055540651082992554,3.1684532165527344,0.8013676404953003,-2.265535354614258,10.340902328491211,1.3272427320480347,-0.888239324092865,0.22866575419902802,-0.3628307282924652,24.04189682006836,-12.460655212402344,11.78160285949707,-0.9455468654632568,0.4435701370239258,0.09351921081542969,-1.319988489151001,9.897332191467285,1.233723521232605
9_20251106_211231,1762434714642,9,0.39210230112075806,0.2543987035751343,0.5875098705291748,0.6605824828147888,0.03007284179329872,3.18442440032959,0.8186101317405701,-1.3785218000411987,11.636110305786133,3.6459274291992188,-1.0776073932647705,0.5322654843330383,-0.18384738266468048,24.160634994506836,-12.290397644042969,11.80296516418457,0.08664882183074951,1.1968984603881836,1.732082486152649,-1.4651706218719482,10.43921184539795,1.9138449430465698
9_20251106_211231,1762434714660,9,0.3932930827140808,0.24609866738319397,0.5830140709877014,0.6669712066650391,0.022496875375509262,3.195591688156128,0.8363347053527832,-0.18865473568439484,11.425429344177246,4.992607593536377,-0.9377193450927734,0.6171756386756897,0.09776125848293304,24.227092742919922,-12.197715759277344,11.726167678833008,1.0212126970291138,0.7889738082885742,2.463010311126709,-1.2098674774169922,10.636455535888672,2.529597282409668
9_20251106_211231,1762434714680,9,0.3916141092777252,0.23925119638442993,0.5788435339927673,0.6740455627441406,0.022496875375509262,3.195591688156128,0.8363347053527832,-0.18865473568439484,11.425429344177246,4.992607593536377,-0.4661318063735962,0.5133286714553833,0.4496193528175354,24.21681022644043,-12.172721862792969,11.658624649047852,1.0212126970291138,0.7889738082885742,2.463010311126709,-1.2098674774169922,10.636455535888672,2.529597282409668
9_20251106_211231,1762434714699,9,0.3870876431465149,0.23685970902442932,0.5761511921882629,0.6797870993614197,0.034921638667583466,3.2239983081817627,0.8976079225540161,4.002215385437012,11.988042831420898,5.496565818786621,0.14228948950767517,0.3850471079349518,0.6243267059326172,24.189815521240234,-12.224266052246094,11.629556655883789,3.7452197074890137,1.0061712265014648,1.8488712310791016,0.2569955587387085,10.981871604919434,3.6476945877075195
9_20251106_211231,1762434714719,9,0.38059476017951965,0.23867692053318024,0.5762326717376709,0.682742178440094,0.034921638667583466,3.2239983081817627,0.8976079225540161,4.002215385437012,11.988042831420898,5.496565818786621,0.14228948950767517,0.3850471079349518,0.6243267059326172,24.189815521240234,-12.224266052246094,11.629556655883789,3.7452197074890137,1.0061712265014648,1.8488712310791016,0.2569955587387085,10.981871604919434,3.6476945877075195
9_20251106_211231,1762434714737,9,0.3753244876861572,0.24184353649616241,0.5800122618675232,0.6813434958457947,0.06714025884866714,3.2447290420532227,0.9349524974822998,5.924675941467285,12.386659622192383,4.658631324768066,0.9791741371154785,0.2763132154941559,-0.3994826078414917,24.020132064819336,-12.42388916015625,11.713834762573242,4.534144401550293,1.1238298416137695,0.8087494373321533,1.3905315399169922,11.262829780578613,3.849881887435913
9_20251106_211231,1762434714756,9,0.37361863255500793,0.2427576184272766,0.5871896147727966,0.6757856607437134,0.15072070062160492,3.28102970123291,0.984635055065155,5.725966453552246,11.40747356414795,1.1021974086761475,0.974898099899292,0.20606376230716705,-1.1099183559417725,24.020132064819336,-12.42388916015625,11.713834762573242,2.6609108448028564,0.0033197402954101562,-2.092351198196411,3.0650556087493896,11.404153823852539,3.1945486068725586
9_20251106_211231,1762434714776,9,0.37671032547950745,0.24033483862876892,0.595806360244751,0.6673404574394226,0.19995459914207458,3.298131227493286,0.9956996440887451,4.592360496520996,11.17165470123291,-0.41207003593444824,0.6658005118370056,0.039297692477703094,-1.5882253646850586,23.986827850341797,-12.340660095214844,11.943986892700195,1.221843957901001,-0.18599987030029297,-2.8852951526641846,3.370516538619995,11.357654571533203,2.4732251167297363
9_20251106_211231,1762434714794,9,0.3845217823982239,0.23529782891273499,0.603143036365509,0.6580246090888977,0.24673572182655334,3.314639091491699,0.9959466457366943,3.3737642765045166,11.452960968017578,-1.2679603099822998,0.16061542928218842,-0.20077215135097504,-1.803249716758728,25.46323013305664,-13.3377685546875,11.176435470581055,0.0025980472564697266,0.07624530792236328,-2.992948532104492,3.371166229248047,11.376715660095215,1.7249881029129028
9_20251106_211231,1762434714813,9,0.3961518704891205,0.22862523794174194,0.6070711016654968,0.6498144865036011,0.28755584359169006,3.3315982818603516,0.9897696375846863,2.0510246753692627,11.842002868652344,-0.611977219581604,-0.3952714800834656,-0.5507976412773132,-1.8087475299835205,25.634178161621094,-13.066841125488281,11.499227523803711,-1.0561132431030273,0.37222957611083984,-1.8695722818374634,3.10713791847229,11.469773292541504,1.2575950622558594
9_20251106_211231,1762434714832,9,0.410958856344223,0.22183917462825775,0.6063205003738403,0.6436424851417542,0.3188197910785675,3.350356340408325,0.9838823676109314,0.3679732382297516,12.434541702270508,1.25063157081604,-0.7941661477088928,-0.8702799081802368,-1.690239667892456,25.927188873291016,-12.563148498535156,11.871732711791992,-2.191331624984741,0.771815299987793,-0.005570888519287109,2.55930495262146,11.662726402282715,1.2562024593353271
9_20251106_211231,1762434714852,9,0.4274229109287262,0.21556852757930756,0.6015392541885376,0.6395235657691956,0.3188197910785675,3.350356340408325,0.9838823676109314,0.3679732382297516,12.434541702270508,1.25063157081604,-0.9334433078765869,-1.0113896131515503,-1.4495590925216675,26.526119232177734,-11.836509704589844,11.962873458862305,-2.191331624984741,0.771815299987793,-0.005570888519287109,2.55930495262146,11.662726402282715,1.2562024593353271
9_20251106_211231,1762434714871,9,0.4436170756816864,0.21055392920970917,0.5944777131080627,0.6367630362510681,0.34514883160591125,3.402057647705078,0.9933798909187317,-2.6043004989624023,13.996691703796387,4.728059768676758,-0.7697315812110901,-1.1396712064743042,-1.121524691581726,28.284767150878906,-13.469612121582031,13.465385437011719,-3.5435428619384766,1.5745630264282227,2.4292218685150146,0.9392424821853638,12.422128677368164,2.298837900161743
9_20251106_211231,1762434714890,9,0.45840197801589966,0.20859190821647644,0.5867795944213867,0.6340715885162354,0.33748432993888855,3.4304401874542236,1.010335922241211,-4.413042068481445,13.965567588806152,5.950247287750244,-0.37205860018730164,-1.414560317993164,-0.6780369281768799,29.188514709472656,-12.533126831054688,13.328964233398438,-4.281827926635742,1.234750747680664,2.9211275577545166,-0.13121438026428223,12.730816841125488,3.0291197299957275
9_20251106_211231,1762434714909,9,0.4712764024734497,0.21211637556552887,0.5791990756988525,0.6304234266281128,0.33748432993888855,3.4304401874542236,1.010335922241211,-4.413042068481445,13.965567588806152,5.950247287750244,-0.37205860018730164,-1.414560317993164,-0.6780369281768799,30.147621154785156,-11.503273010253906,12.966575622558594,-4.281827926635742,1.234750747680664,2.9211275577545166,-0.13121438026428223,12.730816841125488,3.0291197299957275
9_20251106_211231,1762434714929,9,0.4810349941253662,0.22217579185962677,0.5724190473556519,0.6257632970809937,0.2704452574253082,3.4991044998168945,1.0777697563171387,-6.465981483459473,14.163082122802734,6.891128063201904,0.6047140955924988,-1.669901728630066,0.4190760850906372,31.135269165039062,-10.667503356933594,12.155399322509766,-4.124924659729004,0.9720020294189453,2.482602596282959,-2.3410568237304688,13.191080093383789,4.408525466918945
9_20251106_211231,1762434714948,9,0.48685988783836365,0.23661072552204132,0.5669882893562317,0.6208921670913696,0.22669783234596252,3.532362222671509,1.1146315336227417,-6.03983211517334,14.462343215942383,6.341682434082031,0.8521142601966858,-1.5691090822219849,0.7012956142425537,33.25691604614258,-11.238052368164062,11.821342468261719,-2.9590201377868652,1.0170106887817383,1.546525478363037,-3.0808119773864746,13.445332527160645,4.795156955718994
9_20251106_211231,1762434714966,9,0.489940881729126,0.25302746891975403,0.5626847743988037,0.6158903241157532,0.17509150505065918,3.568354845046997,1.1566991806030273,-5.900974273681641,14.408475875854492,6.655309677124023,0.9272506237030029,-1.5019140243530273,0.6609785556793213,34.138484954833984,-10.807243347167969,10.754993438720703,-2.256129741668701,0.7705144882202148,1.4881219863891602,-3.6448445320129395,13.637961387634277,5.167187690734863
9_20251106_211231,1762434714985,9,0.4925345778465271,0.2692064642906189,0.5591052770614624,0.6101957559585571,0.1201251670718193,3.603472948074341,1.2016724348068237,-5.809998512268066,13.97514533996582,6.992877006530762,0.9895588755607605,-1.1891511678695679,0.39647412300109863,34.90935516357422,-10.632720947265625,9.557796478271484,-1.7321233749389648,0.2697477340698242,1.4605512619018555,-4.077875137329102,13.705397605895996,5.532325744628906
9_20251106_211231,1762434715004,9,0.4947105944156647,0.28227195143699646,0.5578288435935974,0.6036646366119385,0.1201251670718193,3.603472948074341,1.2016724348068237,-5.809998512268066,13.97514533996582,6.992877006530762,1.2186330556869507,-0.7609351277351379,0.014683662913739681,35.5005989074707,-10.597579956054688,8.621417999267578,-1.7321233749389648,0.2697477340698242,1.4605512619018555,-4.077875137329102,13.705397605895996,5.532325744628906
9_20251106_211231,1762434715023,9,0.4964853823184967,0.2921006977558136,0.5605397820472717,0.5949576497077942,0.0026484914124011993,3.659480333328247,1.2915818691253662,-6.7053914070129395,11.735466003417969,5.961020469665527,1.5442240238189697,-0.4329007565975189,-0.35550034046173096,35.955074310302734,-10.621269226074219,7.665073394775391,-1.8208513259887695,-1.4427070617675781,0.1741952896118164,-4.88454008102417,13.178173065185547,5.786825180053711
9_20251106_211231,1762434715043,9,0.4975874722003937,0.29949575662612915,0.5675724148750305,0.5835842490196228,-0.06710673868656158,3.6762611865997314,1.3325023651123047,-7.980249404907227,10.565947532653809,4.757986068725586,1.846601963043213,-0.0639384463429451,-0.5992354154586792,36.37159729003906,-10.660842895507812,6.801607131958008,-2.476567268371582,-2.089780807495117,-0.8230714797973633,-5.5036821365356445,12.655728340148926,5.581057548522949
9_20251106_211231,1762434715061,9,0.4968515634536743,0.30443698167800903,0.5788146257400513,0.5704649686813354,-0.13555167615413666,3.6815366744995117,1.3609497547149658,-9.079140663146973,8.971478462219238,2.9253036975860596,2.0292506217956543,0.25676554441452026,-0.6145069599151611,36.748863220214844,-10.729667663574219,6.111852645874023,-2.8603668212890625,-2.9474000930786133,-2.124603033065796,-6.21877384185791,11.918878555297852,5.0499067306518555
9_20251106_211231,1762434715080,9,0.4938608407974243,0.30819591879844666,0.592591404914856,0.5567334890365601,-0.21284234523773193,3.67419171333313,1.3804811239242554,-9.373614311218262,7.313564300537109,1.771347999572754,2.075676441192627,0.3538930118083954,-0.4361345171928406,37.008453369140625,-10.684776306152344,5.811805725097656,-2.5238723754882812,-3.6842517852783203,-2.622847080230713,-6.8497419357299805,10.99781608581543,4.394195079803467
9_20251106_211231,1762434715100,9,0.48915717005729675,0.312541663646698,0.6065593361854553,0.5432575345039368,-0.2980348467826843,3.6518619060516357,1.390161395072937,-9.449028015136719,6.068633079528809,1.1536705493927002,2.075676441192627,0.3538930118083954,-0.4361345171928406,37.29467010498047,-10.565643310546875,5.784648895263672,-2.0794291496276855,-3.9433469772338867,-2.5924196243286133,-7.369598865509033,10.011980056762695,3.7460901737213135
9_20251106_211231,1762434715120,9,0.48361292481422424,0.317289263010025,0.6196925044059753,0.5304971933364868,-0.38032078742980957,3.6178228855133057,1.3913780450820923,-9.337703704833984,4.950589179992676,1.0052365064620972,1.8331630229949951,0.5047765970230103,-0.15574760735034943,37.513431549072266,-10.327598571777344,5.946416854858398,-1.574483871459961,-4.0491132736206055,-2.1926827430725098,-7.763219833374023,8.999702453613281,3.1979193687438965
9_20251106_211231,1762434715139,9,0.4773408770561218,0.3215726315975189,0.6317874193191528,0.5192123055458069,-0.4662104547023773,3.568748950958252,1.3851901292800903,-8.948661804199219,4.053998947143555,0.7622354626655579,1.5411696434020996,0.8175392746925354,-0.02257908508181572,37.664642333984375,-9.97076416015625,6.310625076293945,-0.9483537673950195,-3.9565629959106445,-1.948547124862671,-8.0003080368042,8.0105619430542,2.710782527923584
9_20251106_211231,1762434715159,9,0.46926406025886536,0.32364267110824585,0.6432662606239319,0.511131227016449,-0.5482832193374634,3.5074005126953125,1.37445068359375,-8.1574125289917,3.1657886505126953,1.11177396774292,1.2620043754577637,1.0973154306411743,0.1570151448249817,37.72857666015625,-9.6221923828125,6.9417266845703125,-0.12568378448486328,-3.8758187294006348,-1.2792069911956787,-8.031728744506836,7.04160737991333,2.3909809589385986
9_20251106_211231,1762434715176,9,0.4593888819217682,0.3242713510990143,0.6538572311401367,0.5062416791915894,-0.6126113533973694,3.447981595993042,1.362795352935791,-7.145905494689941,2.543322801589966,1.0327686071395874,1.114786148071289,1.400915265083313,0.39036548137664795,37.72857666015625,-9.6221923828125,6.9417266845703125,0.7086586952209473,-3.598627805709839,-1.086569905281067,-7.854564189910889,6.141950607299805,2.1193385124206543
9_20251106_211231,1762434715196,9,0.4466635286808014,0.3240283727645874,0.6641644835472107,0.5043637752532959,-0.6126113533973694,3.447981595993042,1.362795352935791,-7.145905494689941,2.543322801589966,1.0327686071395874,1.083631992340088,1.579898476600647,0.6334896087646484,38.22752380371094,-10.425361633300781,7.393510818481445,0.7086586952209473,-3.598627805709839,-1.086569905281067,-7.854564189910889,6.141950607299805,2.1193385124206543
9_20251106_211231,1762434715215,9,0.43123355507850647,0.3240186870098114,0.6742401123046875,0.5044301152229309,-0.6821043491363525,3.3646740913391113,1.3429361581802368,-6.064970016479492,2.0908379554748535,0.2750363349914551,1.0158259868621826,1.5798985958099365,0.8778355121612549,38.03803253173828,-10.21026611328125,8.471981048583984,1.4316754341125488,-3.2408900260925293,-1.4754416942596436,-7.496645450592041,5.331727981567383,1.7504780292510986
9_20251106_211231,1762434715234,9,0.4145084321498871,0.3254115581512451,0.6830278038978577,0.5057302713394165,-0.7349514961242676,3.2831923961639404,1.3184096813201904,-4.987626075744629,1.7317231893539429,-0.9675008654594421,0.8020233511924744,1.4485626220703125,1.0323842763900757,37.77132034301758,-10.051918029785156,9.722164154052734,2.0072154998779297,-2.8800034523010254,-2.1743831634521484,-6.994841575622559,4.611726760864258,1.2068822383880615
9_20251106_211231,1762434715253,9,0.39822229743003845,0.32781416177749634,0.6896174550056458,0.5083154439926147,-0.8076068758964539,3.116028070449829,1.2532570362091064,-3.281830310821533,1.911280632019043,-1.5265228748321533,0.8020233511924744,1.4485626220703125,1.0323842763900757,37.265438079833984,-10.247993469238281,11.064521789550781,2.5048422813415527,-1.7187092304229736,-1.7177772521972656,-5.786672592163086,3.6299898624420166,0.19125431776046753
9_20251106_211231,1762434715272,9,0.3827158510684967,0.32942625880241394,0.6940726041793823,0.5130985379219055,-0.8291747570037842,3.0289061069488525,1.2155357599258423,-2.5588126182556152,1.786787509918213,-1.2835218906402588,0.08486819267272949,1.704514980316162,1.0274972915649414,36.737117767333984,-10.543655395507812,12.466917037963867,2.5822882652282715,-1.4745619297027588,-1.1798210144042969,-5.141100883483887,3.2613494396209717,-0.1037009060382843
9_20251106_211231,1762434715292,9,0.36634981632232666,0.3277539610862732,0.6977177262306213,0.5211095213890076,-0.8413413763046265,2.941953420639038,1.1764209270477295,-2.107524871826172,1.7353143692016602,-1.2990835905075073,-0.1784144937992096,1.9616891145706177,0.9144874215126038,35.95579528808594,-10.8831787109375,13.836393356323242,2.426860809326172,-1.2208280563354492,-0.9563061594963074,-4.534385681152344,2.9561424255371094,-0.34277743101119995
9_20251106_211231,1762434715311,9,0.3499205708503723,0.32371097803115845,0.7006757855415344,0.5308673977851868,-0.8451623320579529,2.8518388271331787,1.1344934701919556,-1.7891098260879517,1.9160689115524292,-1.2679603099822998,-0.4044344425201416,2.1889305114746094,0.8350750207901001,35.15333557128906,-11.374855041503906,15.269792556762695,2.196220874786377,-0.8320587873458862,-0.740146279335022,-3.985330581665039,2.7481276988983154,-0.5278140306472778
9_20251106_211231,1762434715329,9,0.3326265811920166,0.31683292984962463,0.7033005952835083,0.5425354242324829,-0.841789186000824,2.772780418395996,1.0964869260787964,-1.2887431383132935,1.9316306114196777,-1.4044239521026611,-0.5962459444999695,2.287890672683716,0.8344640731811523,34.07372283935547,-12.047111511230469,16.67545509338379,2.1572699546813965,-0.6531977653503418,-0.7012879848480225,-3.4460132122039795,2.5848283767700195,-0.7031359672546387
9_20251106_211231,1762434715349,9,0.3150586187839508,0.3087248206138611,0.7048460841178894,0.5555348992347717,-0.830360472202301,2.6874241828918457,1.0536730289459229,-0.8578053116798401,1.957965612411499,-1.5899665355682373,-0.5962459444999695,2.287890672683716,0.8344640731811523,32.920875549316406,-12.735877990722656,17.99681282043457,2.070566415786743,-0.5014903545379639,-0.7094644904136658,-2.9283716678619385,2.459455966949463,-0.8805020451545715
9_20251106_211231,1762434715369,9,0.2982049882411957,0.30164259672164917,0.7050544023513794,0.568316638469696,-0.8136525750160217,2.6097071170806885,1.0134613513946533,-0.5980455875396729,2.210543155670166,-1.4535030126571655,-0.674436628818512,1.7625471353530884,1.0378820896148682,31.69037628173828,-13.516769409179688,19.25931739807129,1.8642609119415283,-0.19913029670715332,-0.4584007263183594,-2.462306499481201,2.4096734523773193,-0.9951022863388062
9_20251106_211231,1762434715387,9,0.28298425674438477,0.2975179851055145,0.7033135890960693,0.5803042054176331,-0.7931170463562012,2.540353298187256,0.9767493009567261,-0.2293543964624405,2.649860382080078,-1.2069108486175537,-0.6793236136436462,1.4253498315811157,1.3201016187667847,30.470935821533203,-14.33319091796875,20.3863582611084,1.7863616943359375,0.19214963912963867,-0.16944682598114014,-2.015716075897217,2.4577107429504395,-1.0374640226364136
9_20251106_211231,1762434715405,9,0.2682654857635498,0.29693832993507385,0.6995707154273987,0.5919983983039856,-0.7652719020843506,2.4722962379455566,0.9408004879951477,0.6277329921722412,3.0005955696105957,-0.7221058011054993,-0.6133502125740051,1.0820437669754028,1.6566879749298096,29.087919235229492,-15.271331787109375,21.342451095581055,2.1147594451904297,0.4343078136444092,0.2522866129875183,-1.487026333808899,2.5662877559661865,-0.9743924140930176
9_20251106_211231,1762434715425,9,0.2536981999874115,0.3007062077522278,0.6940030455589294,0.6029699444770813,-0.7282395362854004,2.4086053371429443,0.9072525501251221,1.5350964069366455,4.002525806427002,-0.1846306174993515,-0.5620375275611877,0.8627433180809021,1.839336633682251,27.893753051757812,-16.189102172851562,22.34968376159668,2.417698383331299,1.1489903926849365,0.6318094730377197,-0.8826018571853638,2.8535354137420654,-0.8164401054382324
9_20251106_211231,1762434715444,9,0.2389681190252304,0.3067585825920105,0.687383770942688,0.6134305000305176,-0.6860597133636475,2.3569107055664062,0.8803970813751221,2.3095874786376953,4.962559700012207,0.43065276741981506,-0.5357703566551208,0.8383087515830994,1.8918709754943848,26.529739379882812,-17.248939514160156,23.074342727661133,2.5537514686584473,1.6872196197509766,0.9976743459701538,-0.24416404962539673,3.2753400802612305,-0.5670215487480164
9_20251106_211231,1762434715463,9,0.223839670419693,0.3132952153682709,0.680266797542572,0.6236817836761475,-0.6360266208648682,2.3136579990386963,0.8583703637123108,3.386931896209717,5.4102559089660645,0.7035800218582153,-0.5156118273735046,0.9415448307991028,1.9731159210205078,25.105079650878906,-18.323959350585938,23.661123275756836,2.904876708984375,1.707932472229004,1.0164812803268433,0.48205509781837463,3.7023234367370605,-0.31290125846862793
9_20251106_211231,1762434715483,9,0.20737464725971222,0.3196878135204315,0.6727854609489441,0.6341570615768433,-0.5733307600021362,2.2768747806549072,0.8398013114929199,4.647424697875977,5.83042049407959,0.8244820237159729,-0.5156118273735046,0.9415448307991028,1.9731159210205078,23.592670440673828,-19.477455139160156,23.99959373474121,3.3322956562042236,1.7024774551391602,0.9099066257476807,1.315129041671753,4.12794303894043,-0.08542460203170776
9_20251106_211231,1762434715501,9,0.19078774750232697,0.3259761333465576,0.6642835736274719,0.645032525062561,-0.5095779299736023,2.2511088848114014,0.826047420501709,5.436280250549316,6.436127185821533,0.7766000628471375,-0.6878756880760193,0.9006169438362122,1.8711016178131104,22.378013610839844,-20.728759765625,24.48574447631836,3.2969210147857666,1.8465471267700195,0.6896197199821472,2.13935923576355,4.589580059051514,0.08698032051324844
9_20251106_211231,1762434715521,9,0.17534887790679932,0.3316532075405121,0.6551076173782349,0.6558147072792053,-0.5095779299736023,2.2511088848114014,0.826047420501709,5.436280250549316,6.436127185821533,0.7766000628471375,-0.6878756880760193,0.9006169438362122,1.8711016178131104,20.877552032470703,-21.91656494140625,24.56710433959961,3.2969210147857666,1.8465471267700195,0.6896197199821472,2.13935923576355,4.589580059051514,0.08698032051324844
9_20251106_211231,1762434715540,9,0.16053009033203125,0.3361586332321167,0.6460651159286499,0.6662036776542664,-0.3523823618888855,2.2187469005584717,0.8010962009429932,6.987656593322754,7.074154853820801,-0.26124176383018494,-0.6884865164756775,0.98980313539505,1.6976159811019897,19.25088882446289,-23.19940948486328,24.56061553955078,3.258622646331787,1.6201982498168945,-0.3534841537475586,3.729033946990967,5.453956604003906,0.09224239736795425
9_20251106_211231,1762434715560,9,0.1454465687274933,0.34006282687187195,0.6369827389717102,0.6763545870780945,-0.3523823618888855,2.2187469005584717,0.8010962009429932,6.987656593322754,7.074154853820801,-0.26124176383018494,-0.7471296191215515,0.9384905099868774,1.7354896068572998,17.586448669433594,-24.296531677246094,24.502056121826172,3.258622646331787,1.6201982498168945,-0.3534841537475586,3.729033946990967,5.453956604003906,0.09224239736795425
9_20251106_211231,1762434715579,9,0.1305479109287262,0.3445780277252197,0.6270853877067566,0.6862850189208984,-0.14726459980010986,2.216095447540283,0.7621721625328064,10.31186294555664,8.82783317565918,-2.164550304412842,-0.9481040239334106,0.6226734519004822,1.6579097509384155,15.913434982299805,-25.3431396484375,24.335933685302734,4.505282402038574,2.317866325378418,-1.5784168243408203,5.806580543518066,6.509966850280762,-0.5861334204673767
9_20251106_211231,1762434715597,9,0.11842077970504761,0.3504905104637146,0.6156083941459656,0.6958155035972595,-0.04046853631734848,2.227269411087036,0.7398651838302612,11.64417839050293,9.967422485351562,-2.0460424423217773,-0.9481040239334106,0.6226734519004822,1.6579097509384155,15.913434982299805,-25.3431396484375,24.335933685302734,4.670078277587891,2.7659645080566406,-1.1679272651672363,6.974100112915039,7.201457977294922,-0.878115177154541
9_20251106_211231,1762434715616,9,0.11131903529167175,0.35787233710289,0.6021999716758728,0.7049047350883484,0.0814141109585762,2.2491307258605957,0.7178618311882019,12.364801406860352,11.085468292236328,-0.7448498010635376,-1.5669100284576416,-0.08531871438026428,1.0433799028396606,14.218656539916992,-26.352996826171875,24.102039337158203,4.31256103515625,3.107208251953125,0.10661232471466064,8.052240371704102,7.978260040283203,-0.8514621257781982
9_20251106_211231,1762434715635,9,0.10943140089511871,0.3645669221878052,0.5873458981513977,0.7142412066459656,0.21079492568969727,2.280456781387329,0.702427089214325,13.006420135498047,11.826440811157227,1.141700029373169,-1.8833379745483398,0.049071524292230606,0.5607967376708984,12.576430320739746,-27.30809783935547,23.736000061035156,3.963343620300293,3.0785446166992188,1.5945297479629517,9.043076515197754,8.747896194458008,-0.4528297185897827
9_20251106_211231,1762434715654,9,0.11120572686195374,0.36707693338394165,0.571813702583313,0.7252013087272644,0.21079492568969727,2.280456781387329,0.702427089214325,13.006420135498047,11.826440811157227,1.141700029373169,-2.182661771774292,0.36672118306159973,-0.0183030366897583,11.211533546447754,-28.105575561523438,23.180912017822266,3.963343620300293,3.0785446166992188,1.5945297479629517,9.043076515197754,8.747896194458008,-0.4528297185897827
9_20251106_211231,1762434715673,9,0.1162719875574112,0.36363646388053894,0.5561507940292358,0.7382043600082397,0.48113805055618286,2.3650219440460205,0.6998109817504883,12.568300247192383,12.166402816772461,3.734508991241455,-2.285897731781006,0.36488857865333557,-0.5124925971031189,9.92082691192627,-28.908416748046875,22.385208129882812,2.146780014038086,2.1740541458129883,2.861656665802002,10.421520233154297,9.992348670959473,0.8728522062301636
9_20251106_211231,1762434715693,9,0.12516798079013824,0.3572380542755127,0.5410844087600708,0.7509604692459106,0.6123266220092773,2.4147145748138428,0.7142853140830994,11.392797470092773,12.53988265991211,4.853750228881836,-2.102027416229248,0.11443405598402023,-0.7666122913360596,8.878973007202148,-29.607208251953125,21.574127197265625,0.7770214080810547,2.038027763366699,3.184718608856201,10.615776062011719,10.50185489654541,1.6690317392349243
9_20251106_211231,1762434715712,9,0.1366005390882492,0.35122254490852356,0.5276126265525818,0.7613198757171631,0.7428351044654846,2.4720802307128906,0.7410321831703186,10.392065048217773,13.025884628295898,5.706048965454102,-1.6829743385314941,-0.2019938975572586,-0.8057076930999756,8.035198211669922,-30.25426483154297,20.636524200439453,-0.1789693832397461,2.019223213195801,3.229613780975342,10.57103443145752,11.006661415100098,2.4764351844787598
9_20251106_211231,1762434715731,9,0.14837463200092316,0.3472653031349182,0.5168544054031372,0.7682794332504272,0.8579899668693542,2.5290050506591797,0.7732635140419006,9.612785339355469,12.884632110595703,5.425939559936523,-1.6829743385314941,-0.2019938975572586,-0.8057076930999756,7.718611717224121,-30.839630126953125,19.477245330810547,-0.7665996551513672,1.5023765563964844,2.3596036434173584,10.379384994506836,11.382255554199219,3.066335916519165
9_20251106_211231,1762434715750,9,0.15880119800567627,0.34634146094322205,0.509695291519165,0.7713886499404907,0.9632541537284851,2.5877606868743896,0.8088529109954834,8.873008728027344,13.086933135986328,4.877691268920898,-0.6267892122268677,-0.8873841166496277,-0.6053440570831299,7.586423397064209,-31.3876953125,18.298816680908203,-1.2051010131835938,1.3637418746948242,1.4490842819213867,10.078109741210938,11.723191261291504,3.4286069869995117
9_20251106_211231,1762434715770,9,0.16916154325008392,0.3495138883590698,0.5049595832824707,0.770869791507721,1.0625113248825073,2.6511752605438232,0.8481888771057129,8.1021089553833,13.255718231201172,4.661025047302246,-0.39710405468940735,-1.144558072090149,-0.6029005646705627,7.716696262359619,-31.794189453125,17.200908660888672,-1.5808000564575195,1.2260208129882812,0.9859344959259033,9.68290901184082,12.02969741821289,3.6750905513763428
9_20251106_211231,1762434715789,9,0.18002775311470032,0.35483768582344055,0.501589834690094,0.7681717872619629,1.1414380073547363,2.7084872722625732,0.8830993175506592,7.27135705947876,13.28564453125,4.194175720214844,-0.2706550657749176,-1.1164582967758179,-0.6810912489891052,7.9956254959106445,-32.141456604003906,16.16400909423828,-1.92924165725708,1.0047569274902344,0.4152679443359375,9.20059871673584,12.280887603759766,3.7789077758789062
9_20251106_211231,1762434715807,9,0.19092893600463867,0.3596135973930359,0.49950987100601196,0.7646660208702087,1.2132678031921387,2.7678382396698,0.9175481200218201,6.533974647521973,12.966032028198242,3.5753016471862793,-0.2566051781177521,-1.0113896131515503,-0.7281278371810913,8.596339225769043,-32.368560791015625,15.236583709716797,-2.133298873901367,0.5481157302856445,-0.16288495063781738,8.66727352142334,12.417916297912598,3.7381865978240967
9_20251106_211231,1762434715827,9,0.20165374875068665,0.36328309774398804,0.4979603588581085,0.7611810564994812,1.2768146991729736,2.8282952308654785,0.9514799118041992,5.94263219833374,12.781686782836914,3.5681190490722656,-0.3121938705444336,-1.1225669384002686,-0.7128561735153198,9.286398887634277,-32.50341796875,14.436088562011719,-2.1797127723693848,0.2910165786743164,-0.13605403900146484,8.122344970703125,12.490670204162598,3.7041730880737305
9_20251106_211231,1762434715845,9,0.21308979392051697,0.36769676208496094,0.4957461357116699,0.7573820948600769,1.2768146991729736,2.8282952308654785,0.9514799118041992,5.94263219833374,12.781686782836914,3.5681190490722656,-0.342737078666687,-1.3669129610061646,-0.6664304733276367,10.039207458496094,-32.59703826904297,13.679386138916016,-2.1797127723693848,0.2910165786743164,-0.13605403900146484,8.122344970703125,12.490670204162598,3.7041730880737305
9_20251106_211231,1762434715864,9,0.22541289031505585,0.373841792345047,0.4926126301288605,0.7528373599052429,1.327042579650879,2.883941650390625,0.9847778081893921,5.526059150695801,12.88582992553711,4.678980827331543,-0.19979475438594818,-1.4860315322875977,-0.6994171738624573,10.844818115234375,-32.58917999267578,13.143016815185547,-2.077028751373291,0.3161277770996094,0.77984619140625,7.603087902069092,12.5697021484375,3.899134635925293
9_20251106_211231,1762434715884,9,0.23794496059417725,0.380634069442749,0.4901794195175171,0.7471439242362976,1.400477409362793,2.99064564704895,1.0600388050079346,4.951475143432617,13.570541381835938,6.382382392883301,0.10685932636260986,-1.5410093069076538,-0.845413863658905,11.714387893676758,-32.51524353027344,12.678001403808594,-1.7587041854858398,0.6719474792480469,1.680063247680664,6.710179328918457,12.89859390258789,4.702319145202637
9_20251106_211231,1762434715902,9,0.25042763352394104,0.3873915374279022,0.49019691348075867,0.7395409345626831,1.4256865978240967,3.043992519378662,1.1038095951080322,4.226063251495361,13.471187591552734,6.631368637084961,0.4190112352371216,-1.5349006652832031,-1.0225646495819092,12.710963249206543,-32.333580017089844,12.287582397460938,-1.987292766571045,0.45807456970214844,1.5432395935058594,6.213356018066406,13.013113021850586,5.088129043579102
9_20251106_211231,1762434715922,9,0.2631329596042633,0.39388060569763184,0.49278539419174194,0.7299189567565918,1.4256865978240967,3.043992519378662,1.1038095951080322,4.226063251495361,13.471187591552734,6.631368637084961,0.6523615121841431,-1.423112392425537,-1.1691721677780151,13.683464050292969,-32.153099060058594,11.855632781982422,-1.987292766571045,0.45807456970214844,1.5432395935058594,6.213356018066406,13.013113021850586,5.088129043579102
9_20251106_211231,1762434715940,9,0.27544042468070984,0.3992108404636383,0.4976550340652466,0.7190985679626465,1.447898507118225,3.1408467292785645,1.1933882236480713,2.250931739807129,12.126899719238281,5.659364700317383,0.873494565486908,-1.337591290473938,-1.2834038734436035,14.721221923828125,-31.893173217773438,11.414203643798828,-2.7062196731567383,-0.7004804611206055,0.2523975372314453,4.957151412963867,12.827380180358887,5.4069671630859375
9_20251106_211231,1762434715959,9,0.2872721552848816,0.4037708044052124,0.5045561790466309,0.7070126533508301,1.4430055618286133,3.1792311668395996,1.2340999841690063,1.0622618198394775,10.944215774536133,5.023730754852295,1.0653059482574463,-1.2606223821640015,-1.333494782447815,15.839862823486328,-31.478736877441406,11.073497772216797,-3.1159117221832275,-1.5065317153930664,-0.30658912658691406,4.178173542022705,12.4507474899292,5.330319881439209
9_20251106_211231,1762434715978,9,0.298382043838501,0.4079587757587433,0.513002336025238,0.6938057541847229,1.4264881610870361,3.207871675491333,1.26884126663208,-0.1479550451040268,9.598731994628906,3.8961105346679688,1.1422749757766724,-1.088969349861145,-1.28767991065979,16.999797821044922,-30.974288940429688,10.763143539428711,-3.460902690887451,-2.2816123962402344,-1.1473674774169922,3.3129477500915527,11.88034439086914,5.043478012084961
9_20251106_211231,1762434715999,9,0.30813467502593994,0.4113196134567261,0.5220945477485657,0.6806515455245972,1.394917368888855,3.22509765625,1.2974419593811035,-0.9320223331451416,8.047355651855469,2.6930761337280273,1.1624335050582886,-1.0016157627105713,-1.1453484296798706,18.18744659423828,-30.394119262695312,10.577001571655273,-3.3959760665893555,-3.0663909912109375,-1.8803215026855469,2.463953733444214,11.113746643066406,4.573397636413574
9_20251106_211231,1762434716019,9,0.31647828221321106,0.414789617061615,0.5309553742408752,0.667740523815155,1.3542464971542358,3.2275474071502686,1.3145203590393066,-1.5185766220092773,6.792847633361816,1.6791752576828003,1.1044013500213623,-1.0065027475357056,-0.9455956816673279,19.413654327392578,-29.78564453125,10.311759948730469,-3.1860241889953613,-3.456719398498535,-2.315377712249756,1.6674476861953735,10.249567031860352,3.9945530891418457
9_20251106_211231,1762434716037,9,0.3237190842628479,0.4190782904624939,0.5386144518852234,0.6553425192832947,1.3106991052627563,3.2196033000946045,1.3223363161087036,-1.8956471681594849,6.172776222229004,1.2386610507965088,0.9278615117073059,-1.0138330459594727,-0.7232409119606018,19.413654327392578,-29.78564453125,10.311759948730469,-2.850475788116455,-3.261432647705078,-2.2047135829925537,0.9548287391662598,9.434208869934082,3.4433746337890625
9_20251106_211231,1762434716056,9,0.33032530546188354,0.42405664920806885,0.5441791415214539,0.6441507339477539,1.2587405443191528,3.2016184329986572,1.324082374572754,-2.0668253898620605,5.782538414001465,1.2230994701385498,0.9278615117073059,-1.0138330459594727,-0.7232409119606018,20.63172149658203,-29.091278076171875,10.16952133178711,-2.417323350906372,-2.9213361740112305,-1.7762200832366943,0.3504979610443115,8.703874588012695,2.999319553375244
9_20251106_211231,1762434716074,9,0.3356877863407135,0.428240031003952,0.5479390025138855,0.6353636980056763,1.2587405443191528,3.2016184329986572,1.324082374572754,-2.0668253898620605,5.782538414001465,1.2230994701385498,0.5136951804161072,-0.6485360264778137,-0.32923316955566406,22.87223243713379,-28.342140197753906,11.545598983764648,-2.417323350906372,-2.9213361740112305,-1.7762200832366943,0.3504979610443115,8.703874588012695,2.999319553375244
9_20251106_211231,1762434716093,9,0.3395657539367676,0.431585431098938,0.5504469275474548,0.628838062286377,1.1496652364730835,3.1467297077178955,1.3128167390823364,-1.5760349035263062,5.653256893157959,0.9393987655639648,0.5136951804161072,-0.6485360264778137,-0.32923316955566406,23.893814086914062,-27.68573760986328,11.408502578735352,-1.1837583780288696,-1.934967041015625,-1.3311817646026611,-0.39227649569511414,7.588223934173584,2.270580530166626
9_20251106_211231,1762434716112,9,0.3425084352493286,0.4360247552394867,0.552273690700531,0.6225465536117554,1.1496652364730835,3.1467297077178955,1.3128167390823364,-1.5760349035263062,5.653256893157959,0.9393987655639648,0.5350754857063293,-0.667472779750824,-0.17163008451461792,24.812591552734375,-27.112510681152344,11.41457748413086,-1.1837583780288696,-1.934967041015625,-1.3311817646026611,-0.39227649569511414,7.588223934173584,2.270580530166626
9_20251106_211231,1762434716131,9,0.3444443345069885,0.44201570749282837,0.5544466376304626,0.6152797341346741,1.0900615453720093,3.1113715171813965,1.2996307611465454,-1.3928864002227783,6.073421478271484,0.5347960591316223,0.7134479880332947,-0.7554373145103455,-0.0751134529709816,25.502758026123047,-26.716957092285156,11.42190933227539,-0.8004879355430603,-1.2118415832519531,-1.388627529144287,-0.592398464679718,7.2852630615234375,1.9234236478805542
9_20251106_211231,1762434716150,9,0.345775842666626,0.44838738441467285,0.5571543574333191,0.6074264049530029,0.9838366508483887,3.0486984252929688,1.2621065378189087,-1.105594515800476,7.424890518188477,-0.3582027554512024,0.7232218384742737,-0.6723597645759583,-0.1471954882144928,26.128271102905273,-26.388427734375,11.452503204345703,-0.31714534759521484,0.1925954818725586,-1.5102298259735107,-0.7884491682052612,7.232295036315918,1.1520270109176636
9_20251106_211231,1762434716170,9,0.34753960371017456,0.4536304175853729,0.5598886609077454,0.5999670028686523,0.9838366508483887,3.0486984252929688,1.2621065378189087,-1.105594515800476,7.424890518188477,-0.3582027554512024,0.5387406945228577,-0.44206371903419495,-0.2956356108188629,26.728694915771484,-26.085662841796875,11.386974334716797,-0.31714534759521484,0.1925954818725586,-1.5102298259735107,-0.7884491682052612,7.232295036315918,1.1520270109176636
9_20251106_211231,1762434716189,9,0.34969455003738403,0.45615923404693604,0.5629401206970215,0.5939115285873413,0.8779203295707703,2.996952772140503,1.2081608772277832,-1.3880982398986816,8.34781551361084,-0.5353660583496094,0.5387406945228577,-0.44206371903419495,-0.2956356108188629,27.205650329589844,-25.81622314453125,11.34304428100586,-0.41269612312316895,0.7644968032836914,-1.0837621688842773,-0.9754021167755127,7.583318710327148,0.548396110534668
9_20251106_211231,1762434716210,9,0.3520823121070862,0.45565739274024963,0.5660058856010437,0.5899590849876404,0.8253392577171326,2.9770615100860596,1.177369475364685,-1.4994237422943115,8.661442756652832,-0.5198044180870056,0.09342031180858612,0.04784979671239853,-0.43246930837631226,27.557544708251953,-25.59387969970703,11.442096710205078,-0.4192173480987549,0.8624992370605469,-0.8545604348182678,-1.0802063941955566,7.798943519592285,0.3347560167312622
9_20251106_211231,1762434716227,9,0.3543640673160553,0.4531656801700592,0.5687412023544312,0.5878778696060181,0.7792027592658997,2.9626352787017822,1.1495310068130493,-1.5592763423919678,8.84698486328125,-0.2791975140571594,0.033555567264556885,0.11321231722831726,-0.37016111612319946,27.907424926757812,-25.409072875976562,11.52684211730957,-0.3832559585571289,0.8384332656860352,-0.49116283655166626,-1.1760203838348389,8.008551597595215,0.21196532249450684
9_20251106_211231,1762434716246,9,0.35611703991889954,0.4503295123577118,0.5711550712585449,0.5866565108299255,0.7322675585746765,2.9510998725891113,1.1205008029937744,-1.4204185009002686,9.076818466186523,-0.19420701265335083,0.05982275307178497,0.16880100965499878,-0.22599704563617706,28.183494567871094,-25.22997283935547,11.703258514404297,-0.19551849365234375,0.8546133041381836,-0.3249378800392151,-1.2249000072479248,8.22220516204834,0.13073086738586426
9_20251106_211231,1762434716265,9,0.3566875159740448,0.44803544878959656,0.573233425617218,0.5860390067100525,0.6880393028259277,2.9430606365203857,1.0923196077346802,-1.0936241149902344,9.28630256652832,-0.08886666595935822,0.11113537847995758,0.177963986992836,-0.06656134873628616,28.499521255493164,-25.009063720703125,11.706226348876953,0.10502076148986816,0.8512783050537109,-0.17567802965641022,-1.1986448764801025,8.43502426147461,0.086811363697052
9_20251106_211231,1762434716285,9,0.35603559017181396,0.44669416546821594,0.5749504566192627,0.585777223110199,0.6451019048690796,2.9374382495880127,1.0635133981704712,-0.7740118503570557,9.23004150390625,-0.11879287660121918,0.19543470442295074,0.19995512068271637,0.06966148316860199,28.733783721923828,-24.719322204589844,11.801958084106445,0.3397064208984375,0.6360139846801758,-0.16448339819908142,-1.1137182712554932,8.594027519226074,0.04569051414728165
9_20251106_211231,1762434716304,9,0.35424530506134033,0.4464236795902252,0.5764721632003784,0.5855732560157776,0.6100965142250061,2.934082269668579,1.0381135940551758,-0.42088231444358826,9.183355331420898,-0.2672269940376282,0.2852318286895752,0.23049835860729218,0.17595194280147552,28.867738723754883,-24.486160278320312,11.892711639404297,0.5542688369750977,0.4714622497558594,-0.2503340244293213,-0.9751511216163635,8.711893081665039,-0.01689298450946808
9_20251106_211231,1762434716323,9,0.3511720895767212,0.44682076573371887,0.5781744122505188,0.5854431986808777,0.576155960559845,2.9319658279418945,1.0096791982650757,0.014843679964542389,9.180961608886719,-0.5509276986122131,0.3469291925430298,0.2793675363063812,0.2633056044578552,28.922752380371094,-24.346878051757812,12.100320816040039,0.7919958829879761,0.37525463104248047,-0.42722779512405396,-0.7771521806716919,8.805706977844238,-0.12369991838932037
9_20251106_211231,1762434716342,9,0.34704843163490295,0.44771572947502136,0.5799548029899597,0.585457444190979,0.5486729145050049,2.9311411380767822,0.9821224808692932,0.3703673481941223,9.201312065124512,-0.8142786026000977,0.3884679675102234,0.2909739315509796,0.30728787183761597,28.950180053710938,-24.25994873046875,12.35995864868164,0.9180156588554382,0.3164844512939453,-0.5524629354476929,-0.5476483106613159,8.884827613830566,-0.2618156671524048
9_20251106_211231,1762434716360,9,0.34234070777893066,0.4489841163158417,0.5817984342575073,0.5854286551475525,0.5271596312522888,2.9308393001556396,0.9556987285614014,0.7606054544448853,9.063650131225586,-0.9208160042762756,0.38052672147750854,0.3105216324329376,0.3378311097621918,28.867626190185547,-24.19219207763672,12.560853958129883,1.0466029644012451,0.14305782318115234,-0.5272002816200256,-0.28599756956100464,8.920592308044434,-0.39361572265625
9_20251106_211231,1762434716380,9,0.337322860956192,0.450344979763031,0.5835014581680298,0.5856011509895325,0.5086517333984375,2.9300529956817627,0.9254655838012695,1.0957791805267334,8.766782760620117,-1.163817048072815,0.3811376094818115,0.35511475801467896,0.3414962887763977,28.758398056030273,-24.15234375,12.881885528564453,1.1054214239120483,-0.1230478286743164,-0.616161048412323,-0.009642243385314941,8.889830589294434,-0.5476559996604919
9_20251106_211231,1762434716399,9,0.33196499943733215,0.4515188932418823,0.5852861404418945,0.5859778523445129,0.4952538013458252,2.9282963275909424,0.8957310318946838,1.1951344013214111,8.508220672607422,-1.4403353929519653,0.39579835534095764,0.35511472821235657,0.2584186792373657,28.58561897277832,-24.166427612304688,13.17237663269043,0.9638213515281677,-0.30528831481933594,-0.7141435146331787,0.2313130646944046,8.813508987426758,-0.7261918783187866
9_20251106_211231,1762434716419,9,0.32691577076911926,0.45231449604034424,0.5874940752983093,0.5859934687614441,0.4844508767127991,2.9250640869140625,0.86528080701828,0.9329805374145508,8.243672370910645,-1.5289170742034912,0.3719746470451355,0.3630559742450714,0.11608719825744629,28.275985717773438,-24.227867126464844,13.55129623413086,0.5613340139389038,-0.4558696746826172,-0.6421801447868347,0.37164655327796936,8.699542045593262,-0.8867369294166565
9_20251106_211231,1762434716439,9,0.3227090537548065,0.4522567391395569,0.5901839733123779,0.5856667757034302,0.4844508767127991,2.9250640869140625,0.86528080701828,0.9329805374145508,8.243672370910645,-1.5289170742034912,0.30844467878341675,0.5053874850273132,-0.01585957407951355,28.001800537109375,-24.311630249023438,13.890609741210938,0.5613340139389038,-0.4558696746826172,-0.6421801447868347,0.37164655327796936,8.699542045593262,-0.8867369294166565
9_20251106_211231,1762434716458,9,0.31876760721206665,0.45046454668045044,0.5935167670249939,0.5858384966850281,0.46493783593177795,2.9101428985595703,0.8002229332923889,0.3356528878211975,7.208224296569824,-1.9466872215270996,0.22231276333332062,0.7075836658477783,-0.08061123639345169,28.001800537109375,-24.311630249023438,13.890609741210938,-0.060383886098861694,-1.045419692993164,-0.7228026390075684,0.3960367739200592,8.253643989562988,-1.2238845825195312
9_20251106_211231,1762434716477,9,0.31442809104919434,0.4468695819377899,0.5972943305969238,0.5870962738990784,0.4548583924770355,2.8968324661254883,0.7647902369499207,0.1525043398141861,6.806015491485596,-2.33333420753479,0.089755117893219,0.8413630127906799,-0.08122210204601288,27.755212783813477,-24.33142852783203,14.272773742675781,-0.1948259323835373,-1.1581029891967773,-0.8875596523284912,0.3473302721977234,7.964118480682373,-1.4457745552062988
9_20251106_211231,1762434716495,9,0.30989959836006165,0.442142516374588,0.6007401943206787,0.5895621180534363,0.4457155466079712,2.8831751346588135,0.7339606881141663,-0.10964947938919067,6.639625549316406,-2.4554331302642822,-0.12588012218475342,0.8627433180809021,-0.03479637950658798,27.510047912597656,-24.314498901367188,14.750343322753906,-0.3655838072299957,-1.0595946311950684,-0.8077268600463867,0.25593432784080505,7.699220180511475,-1.6477062702178955
9_20251106_211231,1762434716514,9,0.30578306317329407,0.4368467628955841,0.6029336452484131,0.5934076905250549,0.434604287147522,2.865570068359375,0.7002917528152466,-0.25568950176239014,6.567802429199219,-1.988584041595459,-0.4319233298301697,0.8181502223014832,0.06233111023902893,27.23334503173828,-24.223526000976562,15.119895935058594,-0.4092990756034851,-0.9051342010498047,-0.2727022171020508,0.15360957384109497,7.472936630249023,-1.7158818244934082
9_20251106_211231,1762434716533,9,0.3027309775352478,0.4315048158168793,0.6028129458427429,0.5989775657653809,0.434604287147522,2.865570068359375,0.7002917528152466,-0.25568950176239014,6.567802429199219,-1.988584041595459,-0.4319233298301697,0.8181502223014832,0.06233111023902893,26.9207763671875,-24.133995056152344,15.393360137939453,-0.4092990756034851,-0.9051342010498047,-0.2727022171020508,0.15360957384109497,7.472936630249023,-1.7158818244934082
9_20251106_211231,1762434716552,9,0.30002057552337646,0.42644932866096497,0.6002293229103088,0.6065092086791992,0.410940021276474,2.8236916065216064,0.6412487030029297,0.02561710774898529,6.6348371505737305,-0.6454945802688599,-0.8699133992195129,0.7851634621620178,0.4813843369483948,26.543556213378906,-24.111488342285156,15.690086364746094,-0.0359484925866127,-0.4844794273376465,0.7928780317306519,0.06156560033559799,7.119316577911377,-1.4383726119995117
9_20251106_211231,1762434716571,9,0.2964079678058624,0.4220552146434784,0.5956860780715942,0.6157676577568054,0.40156370401382446,2.8033199310302734,0.6195793151855469,0.5535159111022949,6.875444412231445,-0.13315749168395996,-0.9022892117500305,0.7723353505134583,0.7183998227119446,26.273597717285156,-24.119911193847656,16.030982971191406,0.3935602605342865,-0.1950974464416504,1.0441720485687256,0.15995565056800842,7.070541858673096,-1.1773295402526855
9_20251106_211231,1762434716590,9,0.29159048199653625,0.41889771819114685,0.5897694826126099,0.6258367300033569,0.39528942108154297,2.7842559814453125,0.603523313999176,1.119720220565796,7.175903797149658,0.47374653816223145,-0.8137138485908508,0.6043475270271301,0.9126547574996948,25.978267669677734,-24.14288330078125,16.41118621826172,0.76781165599823,0.08428955078125,1.3208608627319336,0.3519085645675659,7.091614246368408,-0.8471143245697021
9_20251106_211231,1762434716610,9,0.2860908508300781,0.41799381375312805,0.5829662084579468,0.6352822780609131,0.3929176926612854,2.7663726806640625,0.5937280058860779,1.6356486082077026,7.479954719543457,1.2123260498046875,-0.8137138485908508,0.6043475270271301,0.9126547574996948,25.452987670898438,-24.391738891601562,16.588844299316406,1.0269920825958252,0.3106722831726074,1.647552251815796,0.6086565256118774,7.16928243637085,-0.4352262616157532
9_20251106_211231,1762434716629,9,0.2800551652908325,0.42044273018836975,0.5754072666168213,0.6431978940963745,0.3947049379348755,2.7510523796081543,0.5913883447647095,2.0402512550354004,7.467983722686768,1.934146761894226,-0.35495439171791077,0.04968239367008209,1.3372057676315308,24.89981460571289,-24.70496368408203,16.764202117919922,1.1452758312225342,0.23896121978759766,1.895498514175415,0.8949754238128662,7.22902250289917,0.03864830732345581
9_20251106_211231,1762434716648,9,0.2730039060115814,0.4262552261352539,0.567837655544281,0.6491038203239441,0.3947049379348755,2.7510523796081543,0.5913883447647095,2.0402512550354004,7.467983722686768,1.934146761894226,-0.05013290047645569,0.1468098759651184,1.4496049880981445,24.19605255126953,-25.126426696777344,16.75585174560547,1.1452758312225342,0.23896121978759766,1.895498514175415,0.8949754238128662,7.22902250289917,0.03864830732345581
9_20251106_211231,1762434716667,9,0.26334866881370544,0.4326448142528534,0.5617984533309937,0.6541012525558472,0.4127929210662842,2.7284557819366455,0.597865104675293,3.2995471954345703,8.110799789428711,0.81490558385849,-0.05013290047645569,0.1468098759651184,1.4496049880981445,23.52512550354004,-25.608558654785156,16.77468490600586,1.6484798192977905,0.5919175148010254,0.3441569209098816,1.6510673761367798,7.5188822746276855,0.4707486629486084
9_20251106_211231,1762434716686,9,0.2516838014125824,0.43698394298553467,0.5579596161842346,0.6590761542320251,0.4285116195678711,2.720766305923462,0.6001397371292114,3.762805461883545,8.035385131835938,0.022458918392658234,0.00606665201485157,0.6904794573783875,1.1521137952804565,22.60324478149414,-26.220809936523438,16.90298080444336,1.6893904209136963,0.41320228576660156,-0.35863178968429565,2.0734150409698486,7.622182846069336,0.3810907006263733
9_20251106_211231,1762434716705,9,0.24067991971969604,0.43876248598098755,0.5546034574508667,0.6648125052452087,0.4503084719181061,2.7149975299835205,0.6015450954437256,3.7855491638183594,8.394500732421875,0.05358220636844635,-0.43681028485298157,0.8138741254806519,0.962745726108551,21.69304656982422,-26.813636779785156,16.959957122802734,1.3697073459625244,0.617854118347168,-0.26200681924819946,2.415841817855835,7.776646614074707,0.3155890107154846
9_20251106_211231,1762434716725,9,0.23188303411006927,0.43776935338974,0.5495471358299255,0.6727452278137207,0.4743620455265045,2.712806463241577,0.6044067144393921,4.012988567352295,8.875714302062988,0.8963049650192261,-1.063557505607605,0.9690337777137756,0.8491249084472656,20.666709899902344,-27.356338500976562,16.950260162353516,1.2777175903320312,0.8792543411254883,0.4645727872848511,2.7352709770202637,7.9964599609375,0.431732177734375
9_20251106_211231,1762434716743,9,0.22561736404895782,0.4337030053138733,0.5412139892578125,0.6841681003570557,0.5011816024780273,2.7129435539245605,0.611664354801178,4.181772232055664,8.80508804321289,2.086172103881836,-1.4050309658050537,1.1077001094818115,0.7391692399978638,19.614887237548828,-27.925338745117188,16.89850616455078,1.157200813293457,0.6469020843505859,1.323551893234253,3.024571418762207,8.158185958862305,0.7626201510429382
9_20251106_211231,1762434716762,9,0.22071178257465363,0.42719635367393494,0.5311985611915588,0.6975798606872559,0.5301995873451233,2.713137626647949,0.6240591406822205,4.314645290374756,8.181426048278809,2.7672932147979736,-1.2455952167510986,1.1981080770492554,0.6542590260505676,18.624603271484375,-28.477951049804688,16.86298370361328,1.0320591926574707,0.018591880798339844,1.6037384271621704,3.282586097717285,8.162834167480469,1.1635547876358032
9_20251106_211231,1762434716782,9,0.2151166945695877,0.41967296600341797,0.5225353240966797,0.7103212475776672,0.5621185302734375,2.7117068767547607,0.6405796408653259,4.2368364334106445,7.628388404846191,2.5207009315490723,-0.9151173233985901,1.251253366470337,0.6041681170463562,17.598388671875,-29.02819061279297,16.872814178466797,0.7634003162384033,-0.42755603790283203,1.085716962814331,3.473436117172241,8.055944442749023,1.4349839687347412
9_20251106_211231,1762434716801,9,0.20818974077701569,0.41208240389823914,0.5161616802215576,0.7214030027389526,0.591200590133667,2.7095751762390137,0.6554238796234131,4.200924873352051,7.687044143676758,1.7270572185516357,-0.7923335433006287,1.2353708744049072,0.6206614971160889,16.612825393676758,-29.504783630371094,16.77129364013672,0.5819909572601318,-0.2951202392578125,0.2336585521697998,3.618933916091919,7.98216438293457,1.493398666381836
9_20251106_211231,1762434716819,9,0.20051783323287964,0.4047863185405731,0.5105332732200623,0.7316395044326782,0.6220225691795349,2.7076592445373535,0.6710752248764038,4.223669052124023,8.062917709350586,1.7725450992584229,-0.9945297837257385,1.082654595375061,0.704349935054779,15.60198974609375,-29.99578857421875,16.695560455322266,0.48378825187683105,0.06460285186767578,0.22331714630126953,3.7398808002471924,7.99831485748291,1.5492279529571533
9_20251106_211231,1762434716840,9,0.19387194514274597,0.3987005650997162,0.5028305053710938,0.7420330047607422,0.6545808911323547,2.70559024810791,0.6903348565101624,4.311054229736328,7.948000907897949,2.7361698150634766,-1.2730841636657715,1.0435593128204346,0.7886492609977722,14.725568771362305,-30.500747680664062,16.38140106201172,0.4569387435913086,-0.04025125503540039,0.9495534896850586,3.8541154861450195,7.98825216293335,1.786616325378418
9_20251106_211231,1762434716859,9,0.18780188262462616,0.3926405608654022,0.4927208721637726,0.7535184025764465,0.6853957772254944,2.702387571334839,0.7122727036476135,4.375694751739502,7.501501083374023,3.4472174644470215,-1.4355741739273071,1.1522932052612305,0.8588987588882446,14.012556076049805,-31.406570434570312,16.58157730102539,0.4172635078430176,-0.3894004821777344,1.3284809589385986,3.9584312438964844,7.890901565551758,2.118736505508423
9_20251106_211231,1762434716878,9,0.1812867671251297,0.385627418756485,0.4810987710952759,0.7661400437355042,0.7179522514343262,2.6975643634796143,0.7390788197517395,4.53131103515625,7.357854843139648,3.720144748687744,-1.5265929698944092,1.2616380453109741,0.9505283832550049,13.09823989868164,-31.962120056152344,16.062149047851562,0.45830392837524414,-0.4264373779296875,1.2811264991760254,4.073007106781006,7.784292221069336,2.4390182495117188
9_20251106_211231,1762434716896,9,0.17375853657722473,0.37782883644104004,0.4684218466281891,0.7795090079307556,0.7479747533798218,2.692054510116577,0.7657009363174438,4.961051940917969,7.221391677856445,3.942795753479004,-1.7513911724090576,1.343493938446045,1.0048954486846924,13.09823989868164,-31.962120056152344,16.062149047851562,0.7104358673095703,-0.4503202438354492,1.2030220031738281,4.250616073608398,7.6717119216918945,2.739773750305176
9_20251106_211231,1762434716915,9,0.1662784069776535,0.36920565366744995,0.4537234902381897,0.7938348054885864,0.7811004519462585,2.6850080490112305,0.7970704436302185,5.351289749145508,7.11724853515625,4.443161964416504,-1.7513911724090576,1.343493938446045,1.0048954486846924,12.250479698181152,-32.42485046386719,15.452404022216797,0.8805389404296875,-0.443570613861084,1.36271071434021,4.47075080871582,7.560819149017334,3.080451250076294
9_20251106_211231,1762434716934,9,0.15959030389785767,0.35971981287002563,0.4364739954471588,0.8090878129005432,0.8161975741386414,2.677461624145508,0.8322096467018127,5.793001174926758,7.250121116638184,5.026124954223633,-2.0531582832336426,1.3856436014175415,1.0085605382919312,11.315290451049805,-32.94242858886719,14.74355697631836,1.05780029296875,-0.24855852127075195,1.5565390586853027,4.735200881958008,7.4986796379089355,3.46958589553833
9_20251106_211231,1762434716953,9,0.15385058522224426,0.34932804107666016,0.4170396029949188,0.8248502016067505,0.8161975741386414,2.677461624145508,0.8322096467018127,5.793001174926758,7.250121116638184,5.026124954223633,-2.5699498653411865,1.3612090349197388,0.8735594749450684,10.38953971862793,-33.53253173828125,13.830873489379883,1.05780029296875,-0.24855852127075195,1.5565390586853027,4.735200881958008,7.4986796379089355,3.46958589553833
9_20251106_211231,1762434716972,9,0.14981839060783386,0.3383197486400604,0.39548832178115845,0.8406444787979126,0.8911647796630859,2.6641194820404053,0.9227434992790222,5.72117805480957,7.441648483276367,8.171971321105957,-2.78680682182312,1.1981080770492554,0.851568341255188,9.429221153259277,-34.11071014404297,12.741270065307617,0.5576701164245605,-0.07040023803710938,3.3337831497192383,5.16350793838501,7.512048721313477,4.838188171386719
9_20251106_211231,1762434716991,9,0.14730282127857208,0.3279702663421631,0.3716220259666443,0.8559406995773315,0.928016185760498,2.656768798828125,0.9836167693138123,5.627808094024658,7.123233318328857,9.7520751953125,-2.5613977909088135,1.0563875436782837,1.0928599834442139,8.469383239746094,-34.6998291015625,11.489208221435547,0.37143993377685547,-0.3110527992248535,3.9311094284057617,5.256368160247803,7.434286117553711,5.820965766906738
9_20251106_211231,1762434717010,9,0.1421757936477661,0.31919699907302856,0.34834206104278564,0.8698028922080994,0.9652888178825378,2.650055408477783,1.053006887435913,6.081490516662598,7.5326247215271,10.03458023071289,-1.9877958297729492,0.9378796815872192,1.3207124471664429,7.46710729598999,-35.213951110839844,9.952926635742188,0.660097599029541,0.07867097854614258,3.370891571044922,5.421392917633057,7.453953742980957,6.663688659667969
9_20251106_211231,1762434717030,9,0.13363458216190338,0.31250661611557007,0.3286231458187103,0.8811857104301453,1.0055252313613892,2.6447384357452393,1.1307376623153687,6.3963141441345215,7.913286209106445,9.407325744628906,-1.5864577293395996,0.8755714297294617,1.3775229454040527,6.476002216339111,-35.751853942871094,8.362541198730469,0.7799372673034668,0.3674659729003906,2.1949095726013184,5.616376876831055,7.545820236206055,7.212416172027588
9_20251106_211231,1762434717050,9,0.12377408891916275,0.3070298433303833,0.3118906617164612,0.8905823230743408,1.0463318824768066,2.6407063007354736,1.209987998008728,6.465743064880371,7.880965709686279,8.990753173828125,-1.5864577293395996,0.8755714297294617,1.3775229454040527,5.464345932006836,-36.2281494140625,6.73194694519043,0.6794929504394531,0.26811647415161133,1.4226694107055664,5.786250114440918,7.612849235534668,7.568083763122559
9_20251106_211231,1762434717069,9,0.11440599709749222,0.30201464891433716,0.2962566614151001,0.8988494873046875,1.0851751565933228,2.6362855434417725,1.2859106063842773,6.520807266235352,7.3279290199279785,9.171506881713867,-1.417248249053955,0.8126524090766907,1.2156436443328857,4.4293317794799805,-36.68146514892578,5.154964447021484,0.5876455307006836,-0.2279362678527832,1.2827386856079102,5.933161735534668,7.555865287780762,7.888768196105957
9_20251106_211231,1762434717087,9,0.10576094686985016,0.29687368869781494,0.2814308702945709,0.9063538312911987,1.0851751565933228,2.6362855434417725,1.2859106063842773,6.520807266235352,7.3279290199279785,9.171506881713867,-1.229712724685669,0.8395304679870605,1.1637201309204102,3.4672183990478516,-36.92894744873047,3.4900436401367188,0.5876455307006836,-0.2279362678527832,1.2827386856079102,5.933161735534668,7.555865287780762,7.888768196105957
9_20251106_211231,1762434717106,9,0.09689509868621826,0.29145902395248413,0.26828134059906006,0.9130651950836182,1.1605865955352783,2.62190842628479,1.4272953271865845,6.761414051055908,6.638428688049316,7.942137718200684,-1.0336251258850098,0.7735570073127747,1.1502811908721924,2.5232391357421875,-37.06316375732422,1.8820533752441406,0.5521063804626465,-0.5936717987060547,-0.10010433197021484,6.209307670593262,7.232100486755371,8.042242050170898
9_20251106_211231,1762434717126,9,0.08788297325372696,0.2868274748325348,0.25668761134147644,0.9187589883804321,1.2001192569732666,2.613280773162842,1.493470549583435,7.235445499420166,6.928114891052246,7.743427276611328,-1.059281587600708,0.675818681716919,1.0531537532806396,1.6255073547363281,-37.220802307128906,0.4241771697998047,0.8209099769592285,-0.24318838119506836,-0.23905181884765625,6.4145355224609375,7.1713032722473145,7.982479095458984
9_20251106_211231,1762434717145,9,0.08012079447507858,0.28289833664894104,0.24511262774467468,0.9238338470458984,1.2001192569732666,2.613280773162842,1.493470549583435,7.235445499420166,6.928114891052246,7.743427276611328,-1.1930608749389648,0.612288773059845,0.7965905070304871,0.6949520111083984,-37.30615234375,-0.9660053253173828,0.8209099769592285,-0.24318838119506836,-0.23905181884765625,6.4145355224609375,7.1713032722473145,7.982479095458984
9_20251106_211231,1762434717165,9,0.0752456858754158,0.27892816066741943,0.23304612934589386,0.9285616278648376,1.2833607196807861,2.5953927040100098,1.622813105583191,7.375500679016113,6.896990776062012,8.80999755859375,-1.2345997095108032,0.6257278323173523,0.4942125082015991,-0.07442569732666016,-37.296241760253906,-2.0506067276000977,0.6039094924926758,-0.19739437103271484,0.6261415481567383,6.7715911865234375,7.094385147094727,8.183856010437012
9_20251106_211231,1762434717183,9,0.07309966534376144,0.27407702803611755,0.221432164311409,0.933009147644043,1.322806477546692,2.5857882499694824,1.6843981742858887,7.098981857299805,6.655187606811523,8.994343757629395,-1.1716806888580322,0.659936249256134,0.23337322473526,-0.7683744430541992,-37.243629455566406,-3.158506393432617,0.26191234588623047,-0.35135793685913086,0.6483907699584961,6.837069511413574,7.006545543670654,8.345952987670898
9_20251106_211231,1762434717203,9,0.07302269339561462,0.26830703020095825,0.21104057133197784,0.9370917081832886,1.3621277809143066,2.5743186473846436,1.7480634450912476,6.796128273010254,6.393033504486084,9.030255317687988,-1.1716806888580322,0.659936249256134,0.23337322473526,-1.383864402770996,-37.08619689941406,-4.220803260803223,-0.03275299072265625,-0.49080991744995117,0.5474414825439453,6.82888126373291,6.883843421936035,8.482813835144043
9_20251106_211231,1762434717221,9,0.07422907650470734,0.2625483274459839,0.2019558846950531,0.9406233429908752,1.3949800729751587,2.5628085136413574,1.8036919832229614,6.517215728759766,6.191928863525391,8.968008995056152,-1.0684444904327393,0.6190083026885986,0.06599629670381546,-1.843644142150879,-36.95691680908203,-5.196418762207031,-0.24933242797851562,-0.5535316467285156,0.3881559371948242,6.766548156738281,6.745460510253906,8.579853057861328
9_20251106_211231,1762434717240,9,0.07617814093828201,0.2573644816875458,0.19400547444820404,0.9435688853263855,1.3949800729751587,2.5628085136413574,1.8036919832229614,6.517215728759766,6.191928863525391,8.968008995056152,-0.8888501524925232,0.4614051878452301,-0.10138063877820969,-2.132200241088867,-36.79248046875,-6.056509971618652,-0.24933242797851562,-0.5535316467285156,0.3881559371948242,6.766548156738281,6.745460510253906,8.579853057861328
9_20251106_211231,1762434717260,9,0.07869028300046921,0.2527150809764862,0.1868329644203186,0.9460636377334595,1.429464340209961,2.547297477722168,1.8665556907653809,6.1916184425354,5.923789978027344,8.94047737121582,-0.8216550946235657,0.3893231749534607,-0.13314560055732727,-2.3097705841064453,-36.595916748046875,-6.8981428146362305,-0.4599437713623047,-0.6573362350463867,0.2884998321533203,6.651562213897705,6.5811262130737305,8.6519775390625
9_20251106_211231,1762434717280,9,0.08152544498443604,0.24866563081741333,0.18025285005569458,0.9481708407402039,1.4796812534332275,2.5149264335632324,1.971734881401062,5.652946472167969,5.5191874504089355,9.143974304199219,-0.7727858424186707,0.3111325204372406,-0.13986513018608093,-2.4021377563476562,-36.39392852783203,-7.72282600402832,-0.6755046844482422,-0.6995596885681152,0.3493528366088867,6.328451156616211,6.218747138977051,8.794621467590332
9_20251106_211231,1762434717303,9,0.0844212993979454,0.2452869415283203,0.1740494668483734,0.9499548077583313,1.4796812534332275,2.5149264335632324,1.971734881401062,5.652946472167969,5.5191874504089355,9.143974304199219,-0.7019255757331848,0.3013586699962616,-0.16979749500751495,-2.346750259399414,-36.145545959472656,-8.459734916687012,-0.6755046844482422,-0.6995596885681152,0.3493528366088867,6.328451156616211,6.218747138977051,8.794621467590332
9_20251106_211231,1762434717319,9,0.08741597086191177,0.24193386733531952,0.16854432225227356,0.9515352249145508,1.519424557685852,2.473855495452881,2.081730365753174,5.378822326660156,5.29414176940918,9.409719467163086,-0.7019255757331848,0.3013586699962616,-0.16979749500751495,-2.346750259399414,-36.145545959472656,-8.459734916687012,-0.6328525543212891,-0.6187529563903809,0.3894491195678711,6.011674880981445,5.9128947257995605,9.020270347595215
9_20251106_211231,1762434717336,9,0.09074346721172333,0.23805361986160278,0.16416151821613312,0.9529675245285034,1.531995415687561,2.454927921295166,2.125445604324341,5.084347724914551,5.0176239013671875,9.087713241577148,-0.4807925224304199,0.33923229575157166,-0.3005225360393524,-2.216231346130371,-35.8548583984375,-9.17939281463623,-0.7418618202209473,-0.7162165641784668,0.053954124450683594,5.826209545135498,5.733840465545654,9.033759117126465
9_20251106_211231,1762434717356,9,0.094399593770504,0.23428280651569366,0.16095343232154846,0.9540934562683105,1.531995415687561,2.454927921295166,2.125445604324341,5.084347724914551,5.0176239013671875,9.087713241577148,-0.4807925224304199,0.33923229575157166,-0.3005225360393524,-1.983469009399414,-35.67152404785156,-9.748332977294922,-0.7418618202209473,-0.7162165641784668,0.053954124450683594,5.826209545135498,5.733840465545654,9.033759117126465
9_20251106_211231,1762434717374,9,0.09794791042804718,0.23102349042892456,0.1583734154701233,0.954961895942688,1.5493886470794678,2.4079833030700684,2.2146732807159424,4.561237335205078,4.681252956390381,8.7513427734375,-0.384886771440506,0.25798729062080383,-0.25226423144340515,-1.7285480499267578,-35.52440643310547,-10.303567886352539,-0.8392696380615234,-0.6864886283874512,-0.19951629638671875,5.400506973266602,5.367741584777832,8.950859069824219
9_20251106_211231,1762434717393,9,0.1010437086224556,0.22809183597564697,0.15582646429538727,0.9557627439498901,1.5534915924072266,2.3828864097595215,2.2554848194122314,4.473852157592773,4.53042459487915,8.934491157531738,-0.384886771440506,0.25798729062080383,-0.25226423144340515,-1.5209617614746094,-35.3553466796875,-10.860237121582031,-0.7413234710693359,-0.669853687286377,-0.013094902038574219,5.215175628662109,5.200278282165527,8.947586059570312
9_20251106_211231,1762434717412,9,0.10328730940818787,0.22578567266464233,0.15336324274539948,0.9564686417579651,1.5553325414657593,2.3567304611206055,2.294558048248291,4.465473175048828,4.3568525314331055,9.057787895202637,-0.2498856782913208,0.15475113689899445,-0.0647287517786026,-1.2880744934082031,-35.148651123046875,-11.252937316894531,-0.599761962890625,-0.6747403144836426,0.08816146850585938,5.065235137939453,5.031592845916748,8.969626426696777
9_20251106_211231,1762434717432,9,0.10428493469953537,0.22411422431468964,0.15157179534435272,0.9570388793945312,1.5556485652923584,2.3282175064086914,2.333670139312744,4.563631057739258,4.25629997253418,8.982373237609863,-0.13565397262573242,0.11382319033145905,0.047670356929302216,-1.0975828170776367,-35.04505920410156,-11.622188568115234,-0.40128326416015625,-0.620234489440918,0.010197639465332031,4.964914321899414,4.876534461975098,8.972175598144531
9_20251106_211231,1762434717451,9,0.10420618206262589,0.22310420870780945,0.15046769380569458,0.9574576020240784,1.5552926063537598,2.300694227218628,2.3683366775512695,4.731218338012695,4.223979949951172,8.741765975952148,-0.13565397262573242,0.11382319033145905,0.047670356929302216,-0.8913669586181641,-34.86627960205078,-11.894752502441406,-0.18695688247680664,-0.5220437049865723,-0.1843280792236328,4.918175220489502,4.746023654937744,8.926094055175781
9_20251106_211231,1762434717471,9,0.10334589332342148,0.2228119969367981,0.1498461365699768,0.9577163457870483,1.554415225982666,2.273144483566284,2.400704860687256,4.721641540527344,4.234753608703613,8.720218658447266,-0.03730474412441254,0.00020234892144799232,0.12158498913049698,-0.7512130737304688,-34.779640197753906,-12.144582748413086,-0.1572270393371582,-0.40901613235473633,-0.16470050811767578,4.878868579864502,4.64376974105835,8.884919166564941
9_20251106_211231,1762434717489,9,0.1026168093085289,0.22314666211605072,0.14933867752552032,0.9577960968017578,1.554415225982666,2.273144483566284,2.400704860687256,4.721641540527344,4.234753608703613,8.720218658447266,-0.055019818246364594,0.0185282900929451,0.056833330541849136,-0.6415519714355469,-34.78410339355469,-12.23504638671875,-0.1572270393371582,-0.40901613235473633,-0.16470050811767578,4.878868579864502,4.64376974105835,8.884919166564941
9_20251106_211231,1762434717509,9,0.102472223341465,0.22320011258125305,0.1488366574048996,0.9578772187232971,1.5495370626449585,2.2192039489746094,2.459244728088379,4.289506912231445,4.2299652099609375,8.521509170532227,-0.055019818246364594,0.07228438556194305,-0.003031414933502674,-0.5711879730224609,-34.63970947265625,-12.459466934204102,-0.41453981399536133,-0.2769012451171875,-0.2678232192993164,4.704046726226807,4.506866455078125,8.789332389831543
9_20251106_211231,1762434717527,9,0.10274418443441391,0.2226240336894989,0.14855439960956573,0.9580259919166565,1.5451266765594482,2.1933071613311768,2.484468460083008,4.166211128234863,4.3089704513549805,8.295267105102539,-0.05685241520404816,0.06373228132724762,0.002466367557644844,-0.528904914855957,-34.54834747314453,-12.564278602600098,-0.4302682876586914,-0.15831708908081055,-0.3952522277832031,4.596479415893555,4.467287540435791,8.690519332885742
9_20251106_211231,1762434717546,9,0.10311196744441986,0.22212548553943634,0.14821554720401764,0.9581546783447266,1.5398352146148682,2.1684482097625732,2.507878541946411,4.194940090179443,4.373610973358154,8.489189147949219,-0.05685241520404816,0.06373228132724762,0.002466367557644844,-0.5275077819824219,-34.53485107421875,-12.658628463745117,-0.3212313652038574,-0.07494115829467773,-0.16106414794921875,4.516171455383301,4.448552131652832,8.650253295898438
9_20251106_211231,1762434717566,9,0.10300249606370926,0.2220073640346527,0.1480221003293991,0.9582237005233765,1.5340293645858765,2.143317699432373,2.5306098461151123,4.346965312957764,4.359246730804443,8.426942825317383,-0.03241782635450363,0.03074558451771736,0.04889208823442459,-0.5172519683837891,-34.58306884765625,-12.780839920043945,-0.13536500930786133,-0.07144403457641602,-0.1786479949951172,4.482330322265625,4.430690765380859,8.6055908203125
9_20251106_211231,1762434717585,9,0.10247357189655304,0.2221783995628357,0.14852295815944672,0.9581632614135742,1.5285003185272217,2.120211601257324,2.5505623817443848,4.376891613006592,4.275453090667725,8.40060806274414,0.12640699744224548,-0.08592957258224487,0.0482812225818634,-0.5401153564453125,-34.559410095214844,-12.794809341430664,-0.0843510627746582,-0.12418985366821289,-0.1639862060546875,4.46124267578125,4.3996429443359375,8.564594268798828
9_20251106_211231,1762434717604,9,0.10225003957748413,0.22331106662750244,0.14964407682418823,0.9577493071556091,1.523127794265747,2.0990042686462402,2.5685434341430664,4.300280570983887,4.232359409332275,8.574179649353027,0.12640699744224548,-0.10975329577922821,-0.00608573853969574,-0.5763769149780273,-34.56138610839844,-12.836830139160156,-0.1287698745727539,-0.13382673263549805,0.007668495178222656,4.429050445556641,4.366186141967773,8.566511154174805
9_20251106_211231,1762434717622,9,0.10244512557983398,0.224569633603096,0.1508566439151764,0.957243800163269,1.5172359943389893,2.076963424682617,2.5873310565948486,4.245216369628906,4.083925247192383,8.842318534851074,0.0586010217666626,-0.05782979726791382,-0.0903850719332695,-0.6129350662231445,-34.56376647949219,-12.838301658630371,-0.14706707000732422,-0.22580862045288086,0.22064590454101562,4.3922834396362305,4.309733867645264,8.621672630310059
9_20251106_211231,1762434717642,9,0.10350961238145828,0.22513264417648315,0.15164968371391296,0.9568716883659363,1.5105332136154175,2.053602933883667,2.6074881553649902,4.125511169433594,3.875638961791992,9.072151184082031,0.01889481209218502,-0.0175127275288105,-0.17957133054733276,-0.576080322265625,-34.56098175048828,-12.877379417419434,-0.21341800689697266,-0.3472757339477539,0.3603830337524414,4.338929176330566,4.222914695739746,8.71176815032959
9_20251106_211231,1762434717661,9,0.10530998557806015,0.225102961063385,0.1522793471813202,0.9565821886062622,1.5035173892974854,2.0311174392700195,2.6270265579223633,3.9866535663604736,3.7116432189941406,9.202630996704102,0.009120974689722061,0.00814359076321125,-0.24859902262687683,-0.5549230575561523,-34.61016082763672,-12.823389053344727,-0.28182053565979004,-0.40901708602905273,0.39269065856933594,4.268474102020264,4.120660305023193,8.809940338134766
9_20251106_211231,1762434717680,9,0.10776031017303467,0.22468693554401398,0.15291954576969147,0.9563049077987671,1.5035173892974854,2.0311174392700195,2.6270265579223633,3.9866535663604736,3.7116432189941406,9.202630996704102,0.004844921641051769,0.039297692477703094,-0.2852509021759033,-0.4821033477783203,-34.605796813964844,-12.779897689819336,-0.28182053565979004,-0.40901708602905273,0.39269065856933594,4.268474102020264,4.120660305023193,8.809940338134766
9_20251106_211231,1762434717699,9,0.11048346757888794,0.2238849401473999,0.153589129447937,0.9560749530792236,1.4860033988952637,1.9856680631637573,2.6664295196533203,3.512622117996216,3.65777587890625,9.154748916625977,0.03233383595943451,0.05823449790477753,-0.2754770815372467,-0.3835020065307617,-34.574737548828125,-12.73489761352539,-0.5224339962005615,-0.29260730743408203,0.20727062225341797,4.035056114196777,3.950383186340332,8.947478294372559
9_20251106_211231,1762434717719,9,0.11301437020301819,0.22290091216564178,0.15449588000774384,0.9558629393577576,1.4744172096252441,1.96211576461792,2.685814142227173,3.321094036102295,3.6338348388671875,8.908156394958496,0.10441586375236511,0.05762363225221634,-0.2027841955423355,-0.2725038528442383,-34.53099822998047,-12.621561050415039,-0.5711698532104492,-0.2532386779785156,-0.03145790100097656,3.892263889312744,3.887073516845703,8.939614295959473
9_20251106_211231,1762434717741,9,0.11464374512434006,0.22205330431461334,0.15593908727169037,0.9556317925453186,1.4614338874816895,1.938629150390625,2.7035152912139893,3.242088794708252,3.5213122367858887,8.704657554626465,0.1508415937423706,0.044184610247612,-0.0800003707408905,-0.12677860260009766,-34.53375244140625,-12.642972946166992,-0.5201401710510254,-0.29260921478271484,-0.18796539306640625,3.7622289657592773,3.8139214515686035,8.892622947692871
9_20251106_211231,1762434717756,9,0.11512821167707443,0.22155581414699554,0.15753145515918732,0.9554278254508972,1.4500387907028198,1.9191051721572876,2.717298746109009,3.3474292755126953,3.559617757797241,8.660367965698242,0.16244801878929138,0.04723893478512764,0.05011381581425667,-0.12677860260009766,-34.53375244140625,-12.642972946166992,-0.33183979988098145,-0.20344281196594238,-0.1858043670654297,3.6792690753936768,3.7630605697631836,8.846172332763672
9_20251106_211231,1762434717776,9,0.11441435664892197,0.22124582529067993,0.15893904864788055,0.9553523063659668,1.4371166229248047,1.8968331813812256,2.7323646545410156,3.61796236038208,3.614682197570801,8.73458480834961,0.16366975009441376,0.04723893105983734,0.1362457424402237,0.015929222106933594,-34.587005615234375,-12.638406753540039,-0.049045562744140625,-0.11870265007019043,-0.08927059173583984,3.6670079231262207,3.733384847640991,8.82385540008545
9_20251106_211231,1762434717795,9,0.11293946951627731,0.22109992802143097,0.16017058491706848,0.9553558826446533,1.4260621070861816,1.876239538192749,2.7454376220703125,3.888495445251465,3.5536324977874756,8.632835388183594,0.2021542191505432,0.02463693730533123,0.17900626361370087,0.19761943817138672,-34.58818817138672,-12.577249526977539,0.17719006538391113,-0.14380192756652832,-0.1528158187866211,3.7113053798675537,3.697434425354004,8.785651206970215
9_20251106_211231,1762434717813,9,0.11103257536888123,0.22131796181201935,0.161624014377594,0.9552841782569885,1.417035698890686,1.8575397729873657,2.7567150592803955,4.086008548736572,3.6302437782287598,8.587347030639648,0.1978781670331955,-0.023010510951280594,0.17839539051055908,0.24577045440673828,-34.58582305908203,-12.494190216064453,0.299762487411499,-0.05375242233276367,-0.1586437225341797,3.7862460613250732,3.6839962005615234,8.745990753173828
9_20251106_211231,1762434717833,9,0.10914942622184753,0.2220199704170227,0.1629767119884491,0.9551084637641907,1.4085719585418701,1.8380634784698486,2.768336772918701,4.136284828186035,3.770298480987549,8.65318489074707,0.16733494400978088,-0.03095175325870514,0.12402844429016113,0.2410602569580078,-34.65022277832031,-12.333314895629883,0.2800309658050537,0.06904172897338867,-0.07424449920654297,3.8562538623809814,3.70125675201416,8.727429389953613
9_20251106_211231,1762434717852,9,0.10772006213665009,0.22270092368125916,0.16419026255607605,0.954904317855835,1.4017870426177979,1.8208234310150146,2.7783522605895996,4.167407989501953,3.8241658210754395,8.55502700805664,0.13373737037181854,0.022193478420376778,0.027511820197105408,0.2250661849975586,-34.70259094238281,-12.199698448181152,0.24892330169677734,0.0983271598815918,-0.1379222869873047,3.918484687805176,3.7258386611938477,8.692949295043945
9_20251106_211231,1762434717871,9,0.10725582391023636,0.2227308601140976,0.16535386443138123,0.954748809337616,1.3956762552261353,1.8045016527175903,2.7872982025146484,4.040520668029785,3.7463574409484863,8.485597610473633,0.09342031180858612,0.049071528017520905,-0.060452695935964584,0.1846017837524414,-34.756683349609375,-12.053546905517578,0.09762883186340332,0.016415119171142578,-0.16588115692138672,3.942891836166382,3.7299423217773438,8.65147876739502
9_20251106_211231,1762434717890,9,0.10771927982568741,0.22236885130405426,0.16635754704475403,0.9546066522598267,1.3897874355316162,1.7889589071273804,2.7951183319091797,3.9124364852905273,3.716431140899658,8.40419864654541,0.0842573344707489,0.042352013289928436,-0.0958828553557396,0.09467506408691406,-34.83812713623047,-12.004497528076172,-0.024364471435546875,-0.010808944702148438,-0.19782447814941406,3.936800956726074,3.7272400856018066,8.602023124694824
9_20251106_211231,1762434717909,9,0.10843890905380249,0.22196686267852783,0.16735680401325226,0.9544440507888794,1.3897874355316162,1.7889589071273804,2.7951183319091797,3.9124364852905273,3.716431140899658,8.40419864654541,0.08242474496364594,0.039297692477703094,-0.11726312339305878,0.0034637451171875,-34.92132568359375,-11.779738426208496,-0.024364471435546875,-0.010808944702148438,-0.19782447814941406,3.936800956726074,3.7272400856018066,8.602023124694824
9_20251106_211231,1762434717929,9,0.10942117124795914,0.2215493619441986,0.16836760938167572,0.9542511105537415,1.3769787549972534,1.7599825859069824,2.8073313236236572,3.6287357807159424,3.845712661743164,8.227035522460938,0.06593139469623566,0.04051942005753517,-0.13253474235534668,-0.06126117706298828,-34.96525573730469,-11.553205490112305,-0.22263479232788086,0.08501577377319336,-0.24956798553466797,3.8513705730438232,3.7606968879699707,8.476603507995605
9_20251106_211231,1762434717949,9,0.11051100492477417,0.22107693552970886,0.16948270797729492,0.9540376663208008,1.369300127029419,1.7463781833648682,2.812060832977295,3.4527695178985596,3.751145839691162,8.276114463806152,0.07448349893093109,0.04113028571009636,-0.13558906316757202,-0.08793258666992188,-34.99317169189453,-11.43306827545166,-0.3188807964324951,-0.007640838623046875,-0.16039085388183594,3.7716503143310547,3.758786678314209,8.436505317687988
9_20251106_211231,1762434717967,9,0.11160166561603546,0.22042442858219147,0.17081573605537415,0.9538239240646362,1.369300127029419,1.7463781833648682,2.812060832977295,3.4527695178985596,3.751145839691162,8.276114463806152,0.09708549827337265,0.05640190467238426,-0.10015890747308731,-0.04391193389892578,-35.066009521484375,-11.365108489990234,-0.3188807964324951,-0.007640838623046875,-0.16039085388183594,3.7716503143310547,3.758786678314209,8.436505317687988
9_20251106_211231,1762434717986,9,0.1122162714600563,0.21942850947380066,0.17215673625469208,0.9537403583526611,1.3530633449554443,1.721632957458496,2.8189382553100586,3.3641879558563232,3.5261006355285645,8.300054550170898,0.06776399165391922,0.055791039019823074,-0.04151589050889015,0.04099464416503906,-35.06098937988281,-11.307610511779785,-0.25771164894104004,-0.15849542617797852,-0.0792837142944336,3.6218996047973633,3.684596061706543,8.379338264465332
9_20251106_211231,1762434718005,9,0.11224523186683655,0.21836768090724945,0.17290054261684418,0.9538458585739136,1.3443833589553833,1.7094969749450684,2.822157382965088,3.416858196258545,3.6326379776000977,8.410183906555176,0.028057781979441643,0.058845363557338715,0.003077232278883457,0.08803272247314453,-35.08332824707031,-11.26562786102295,-0.1640331745147705,-0.04156637191772461,0.02467632293701172,3.5808913707733154,3.6742043495178223,8.385507583618164
9_20251106_211231,1762434718024,9,0.11188645660877228,0.21732550859451294,0.17307226359844208,0.9540948867797852,1.335913896560669,1.6983366012573242,2.8252437114715576,3.4994544982910156,3.8086042404174805,8.395818710327148,0.028057781979441643,0.058845363557338715,0.003077232278883457,0.1725311279296875,-35.09046173095703,-11.248942375183105,-0.06514954566955566,0.10752010345458984,0.008249282836914062,3.5646040439605713,3.7010841369628906,8.387569427490234
9_20251106_211231,1762434718043,9,0.11148160696029663,0.2161310464143753,0.1728915125131607,0.9544463157653809,1.3279716968536377,1.6884496212005615,2.828474283218384,3.602400779724121,3.9618263244628906,8.496371269226074,-0.018367938697338104,0.07900390028953552,0.020792309194803238,0.2543354034423828,-35.12445831298828,-11.057073593139648,0.030237197875976562,0.20859384536743164,0.08704090118408203,3.5721635818481445,3.753232479095459,8.409330368041992
9_20251106_211231,1762434718063,9,0.11125694215297699,0.21516121923923492,0.1726708710193634,0.9547315239906311,1.3204233646392822,1.6794078350067139,2.832275152206421,3.7017557621002197,4.03125524520874,8.596923828125,-0.03852647542953491,0.09244292974472046,0.008575014770030975,0.3526277542114258,-35.10541534423828,-11.066402435302734,0.10367369651794434,0.22241806983947754,0.15007495880126953,3.5980820655822754,3.8088371753692627,8.44684886932373
9_20251106_211231,1762434718081,9,0.11116039752960205,0.21413123607635498,0.17272056639194489,0.954965353012085,1.3142454624176025,1.6722453832626343,2.8356616497039795,3.710134983062744,4.039634704589844,8.50235652923584,-0.01714620739221573,0.08694514632225037,-0.012194384820759296,0.41365623474121094,-35.10131072998047,-11.077466011047363,0.08964252471923828,0.18463802337646484,0.04440593719482422,3.620492458343506,3.854996681213379,8.457950592041016
9_20251106_211231,1762434718101,9,0.11134868860244751,0.21328136324882507,0.17298030853271484,0.9550865888595581,1.3079895973205566,1.665297269821167,2.839524030685425,3.7077412605285645,4.056393146514893,8.552633285522461,-0.01714620739221573,0.08694514632225037,-0.012194384820759296,0.3997640609741211,-35.12762451171875,-11.037935256958008,0.06979894638061523,0.1611170768737793,0.0757455825805664,3.637942314147949,3.8952760696411133,8.476887702941895
9_20251106_211231,1762434718120,9,0.11168281733989716,0.21280927956104279,0.17339551448822021,0.955077588558197,1.3027617931365967,1.6595277786254883,2.843644618988037,3.790337562561035,4.077939987182617,8.708248138427734,-0.013481019996106625,0.07106265425682068,-0.040905024856328964,0.3639106750488281,-35.11744689941406,-11.039142608642578,0.12191629409790039,0.14613103866577148,0.1850881576538086,3.6684212684631348,3.9318089485168457,8.523159980773926
9_20251106_211231,1762434718140,9,0.11212446540594101,0.2121402472257614,0.17376452684402466,0.955107569694519,1.3027617931365967,1.6595277786254883,2.843644618988037,3.790337562561035,4.077939987182617,8.708248138427734,-0.013481019996106625,0.07106265425682068,-0.040905024856328964,0.38918495178222656,-35.10303497314453,-11.064929962158203,0.12191629409790039,0.14613103866577148,0.1850881576538086,3.6684212684631348,3.9318089485168457,8.523159980773926
9_20251106_211231,1762434718160,9,0.11294474452733994,0.21123816072940826,0.17421893775463104,0.9551280736923218,1.293805480003357,1.648295283317566,2.853421211242676,3.7999138832092285,3.816983222961426,8.69627857208252,0.010953569784760475,0.08327995240688324,-0.1307021528482437,0.42423439025878906,-35.12590026855469,-11.050470352172852,0.08013343811035156,-0.10164308547973633,0.1031351089477539,3.719780445098877,3.918626308441162,8.593143463134766
9_20251106_211231,1762434718177,9,0.11419586837291718,0.21047236025333405,0.1746920943260193,0.9550619721412659,1.293805480003357,1.648295283317566,2.853421211242676,3.7999138832092285,3.816983222961426,8.69627857208252,-0.00859410222619772,0.05334758013486862,-0.14475204050540924,0.42423439025878906,-35.12590026855469,-11.050470352172852,0.08013343811035156,-0.10164308547973633,0.1031351089477539,3.719780445098877,3.918626308441162,8.593143463134766
9_20251106_211231,1762434718196,9,0.11555971205234528,0.20993450284004211,0.1747494339942932,0.9550058245658875,1.2861994504928589,1.6380205154418945,2.8622257709503174,3.615568161010742,3.8253626823425293,8.70944595336914,-0.03363955765962601,0.042962878942489624,-0.13009127974510193,0.4836559295654297,-35.147178649902344,-11.035030364990234,-0.07090950012207031,-0.053368568420410156,0.08362674713134766,3.6864776611328125,3.8787312507629395,8.625819206237793
9_20251106_211231,1762434718216,9,0.1167917251586914,0.20928657054901123,0.17458456754684448,0.9550282955169678,1.281978726387024,1.632635474205017,2.866983413696289,3.621553659439087,3.8720476627349854,8.65797233581543,-0.025087449699640274,0.026469532400369644,-0.10932187736034393,0.5223159790039062,-35.118736267089844,-11.127645492553711,-0.05193924903869629,-0.005347013473510742,0.025722503662109375,3.673492908477783,3.877394676208496,8.63224983215332
9_20251106_211231,1762434718234,9,0.11779829859733582,0.20876966416835785,0.17448489367961884,0.9550360441207886,1.281978726387024,1.632635474205017,2.866983413696289,3.621553659439087,3.8720476627349854,8.65797233581543,-0.013481019996106625,0.00753272557631135,-0.09282852709293365,0.5731744766235352,-35.07788848876953,-11.12489128112793,-0.05193924903869629,-0.005347013473510742,0.025722503662109375,3.673492908477783,3.877394676208496,8.63224983215332
9_20251106_211231,1762434718253,9,0.11872626096010208,0.2085360586643219,0.1745145469903946,0.9549667239189148,1.277738332748413,1.627663493156433,2.87150502204895,3.5976123809814453,3.924717903137207,8.632835388183594,-0.028752638027071953,0.016084831207990646,-0.08366556465625763,0.6741867065429688,-35.008750915527344,-11.119647979736328,-0.06070446968078613,0.03785848617553711,0.00046825408935546875,3.6583168506622314,3.88685941696167,8.632367134094238
9_20251106_211231,1762434718273,9,0.11967344582080841,0.2082345336675644,0.17447783052921295,0.9549210071563721,1.2735116481781006,1.6233031749725342,2.875439405441284,3.5126218795776367,3.9330973625183105,8.578967094421387,-0.028752638027071953,0.016084831207990646,-0.08366556465625763,0.7845659255981445,-34.989044189453125,-11.114970207214355,-0.11655616760253906,0.03699040412902832,-0.04271984100341797,3.629178047180176,3.8961069583892822,8.621686935424805
9_20251106_211231,1762434718292,9,0.12026949971914291,0.20774126052856445,0.17443543672561646,0.9549612998962402,1.2691173553466797,1.619518518447876,2.878931760787964,3.491075038909912,4.0264668464660645,8.532282829284668,-0.037915609776973724,0.02830212563276291,-0.06228528544306755,0.9305019378662109,-34.97991943359375,-11.068536758422852,-0.11048245429992676,0.10428786277770996,-0.07152366638183594,3.601557493209839,3.9221789836883545,8.603806495666504
9_20251106_211231,1762434718311,9,0.1206476241350174,0.20753337442874908,0.17472398281097412,0.9549060463905334,1.2611565589904785,1.6130290031433105,2.883380889892578,3.684997081756592,3.924717903137207,8.179153442382812,0.0011797333136200905,-0.0431690476834774,0.001855502836406231,0.9900226593017578,-35.001060485839844,-11.066612243652344,0.07312870025634766,-0.008909225463867188,-0.3102750778198242,3.611868381500244,3.933627128601074,8.489428520202637
9_20251106_211231,1762434718329,9,0.12092090398073196,0.20806188881397247,0.17491765320301056,0.9547210335731506,1.2581539154052734,1.609655737876892,2.883458375930786,3.7999138832092285,3.7535400390625,7.901437759399414,-0.025087449699640274,-0.13418789207935333,0.02629009261727333,1.050445556640625,-35.009376525878906,-11.091456413269043,0.1504364013671875,-0.14406967163085938,-0.47039222717285156,3.649477481842041,3.8976097106933594,8.371829986572266
9_20251106_211231,1762434718350,9,0.12129955738782883,0.2097526341676712,0.174674391746521,0.9543474912643433,1.2557554244995117,1.6050529479980469,2.881141185760498,3.9268012046813965,3.639820098876953,7.654845237731934,-0.07090230286121368,-0.2380349040031433,0.047670356929302216,1.1233510971069336,-35.01649475097656,-11.15635871887207,0.22185897827148438,-0.20623159408569336,-0.5735874176025391,3.704942226409912,3.8460516929626465,8.228432655334473
9_20251106_211231,1762434718368,9,0.12185386568307877,0.21266357600688934,0.1736869364976883,0.9538127183914185,1.2545757293701172,1.6014899015426636,2.8786022663116455,4.0189738273620605,3.921126365661621,7.963684558868408,-0.18146881461143494,-0.30278655886650085,0.003077233210206032,1.1733932495117188,-34.99995422363281,-11.235231399536133,0.25122547149658203,0.06005978584289551,-0.21179819107055664,3.7677483558654785,3.8610665798187256,8.175482749938965
9_20251106_211231,1762434718387,9,0.12336168438196182,0.21625691652297974,0.171609565615654,0.9531867504119873,1.2543151378631592,1.5990866422653198,2.876762628555298,4.103964328765869,4.287423610687256,8.432928085327148,-0.32502201199531555,-0.19832868874073029,-0.14475204050540924,1.2100505828857422,-34.9974365234375,-11.247276306152344,0.26897287368774414,0.34108543395996094,0.20595645904541016,3.834991455078125,3.946338176727295,8.226971626281738
9_20251106_211231,1762434718406,9,0.12635324895381927,0.2183690220117569,0.16895318031311035,0.9527878165245056,1.2543151378631592,1.5990866422653198,2.876762628555298,4.103964328765869,4.287423610687256,8.432928085327148,-0.32502201199531555,-0.19832868874073029,-0.14475204050540924,1.162393569946289,-34.99913024902344,-11.397916793823242,0.26897287368774414,0.34108543395996094,0.20595645904541016,3.834991455078125,3.946338176727295,8.226971626281738
9_20251106_211231,1762434718426,9,0.13114431500434875,0.21848151087760925,0.16653896868228912,0.9525396227836609,1.2549293041229248,1.59861159324646,2.87886381149292,3.795125722885132,4.431069374084473,9.207418441772461,-0.40626704692840576,-0.04622337222099304,-0.35672205686569214,1.1780776977539062,-34.958778381347656,-11.585862159729004,-0.06650114059448242,0.30448198318481445,0.692988395690918,3.8616268634796143,4.126587390899658,8.514430046081543
9_20251106_211231,1762434718445,9,0.1371842920780182,0.21700386703014374,0.1646782010793686,0.9523501992225647,1.2549293041229248,1.59861159324646,2.87886381149292,3.795125722885132,4.431069374084473,9.207418441772461,-0.3134155869483948,0.09977330267429352,-0.5735790729522705,1.2579069137573242,-34.863685607910156,-11.82436466217041,-0.06650114059448242,0.30448198318481445,0.692988395690918,3.8616268634796143,4.126587390899658,8.514430046081543
9_20251106_211231,1762434718464,9,0.1430758833885193,0.21466906368732452,0.1637958139181137,0.9521645903587341,1.2520431280136108,1.5987467765808105,2.8888063430786133,3.27201509475708,3.9043679237365723,9.203827857971191,-0.14848211407661438,0.016695694997906685,-0.49966442584991455,1.3747024536132812,-34.754058837890625,-12.020583152770996,-0.417189359664917,-0.1805262565612793,0.42416858673095703,3.689204454421997,4.084894180297852,8.779659271240234
9_20251106_211231,1762434718483,9,0.1478336751461029,0.21295590698719025,0.16376841068267822,0.9518271088600159,1.2484893798828125,1.5981680154800415,2.895113706588745,3.133157253265381,3.960629463195801,9.146369934082031,-0.14848211407661438,0.016695694997906685,-0.49966442584991455,1.6052045822143555,-34.56221008300781,-12.183771133422852,-0.4448378086090088,-0.0994119644165039,0.2933683395385742,3.5779950618743896,4.060041427612305,8.853001594543457
9_20251106_211231,1762434718501,9,0.15098322927951813,0.21216371655464172,0.16393351554870605,0.9514811635017395,1.2484893798828125,1.5981680154800415,2.895113706588745,3.133157253265381,3.960629463195801,9.146369934082031,-0.051354631781578064,-0.1207488626241684,-0.24676644802093506,1.7966251373291016,-34.422569274902344,-12.390035629272461,-0.4448378086090088,-0.0994119644165039,0.2933683395385742,3.5779950618743896,4.060041427612305,8.853001594543457
9_20251106_211231,1762434718521,9,0.153277188539505,0.21176736056804657,0.1640242487192154,0.951187014579773,1.2393914461135864,1.5969278812408447,2.9113447666168213,3.3163058757781982,4.065969467163086,9.607233047485352,-0.055019818246364594,-0.08531871438026428,-0.21011456847190857,2.081515312194824,-34.34003448486328,-12.526114463806152,-0.14947748184204102,0.010879993438720703,0.5208225250244141,3.4657833576202393,4.055089473724365,9.086410522460938
9_20251106_211231,1762434718540,9,0.1551814079284668,0.2110997885465622,0.16399610042572021,0.951031506061554,1.2345635890960693,1.596362590789795,2.9209556579589844,3.3318676948547363,4.051605224609375,9.534213066101074,-0.021422261372208595,-0.008349757641553879,-0.2082819640636444,2.3692121505737305,-34.21888732910156,-12.75601577758789,-0.1071324348449707,-0.0027875900268554688,0.3582420349121094,3.439000129699707,4.0543928146362305,9.175971031188965
9_20251106_211231,1762434718559,9,0.1568906307220459,0.2098631113767624,0.1642533540725708,0.9509803652763367,1.2345635890960693,1.596362590789795,2.9209556579589844,3.3318676948547363,4.051605224609375,9.534213066101074,-0.021422261372208595,-0.008349757641553879,-0.2082819640636444,2.7004356384277344,-34.17124938964844,-12.85037612915039,-0.1071324348449707,-0.0027875900268554688,0.3582420349121094,3.439000129699707,4.0543928146362305,9.175971031188965
9_20251106_211231,1762434718580,9,0.1586594432592392,0.20922920107841492,0.1648263931274414,0.9507274031639099,1.2242940664291382,1.5936006307601929,2.939342975616455,3.323488235473633,3.7008697986602783,9.00032901763916,0.08853339403867722,-0.003462838474661112,-0.11726312339305878,2.9455528259277344,-34.14186096191406,-12.934917449951172,-0.06894803047180176,-0.2609212398529053,-0.15837764739990234,3.3924362659454346,3.9617910385131836,9.158706665039062
9_20251106_211231,1762434718600,9,0.159694105386734,0.20913225412368774,0.1658075600862503,0.9504048228263855,1.2242940664291382,1.5936006307601929,2.939342975616455,3.323488235473633,3.7008697986602783,9.00032901763916,0.14961984753608704,-0.07310141623020172,-0.02257908508181572,3.154125213623047,-34.103240966796875,-12.92605209350586,-0.06894803047180176,-0.2609212398529053,-0.15837764739990234,3.3924362659454346,3.9617910385131836,9.158706665039062
9_20251106_211231,1762434718616,9,0.1597912758588791,0.20992732048034668,0.16702570021152496,0.9499998092651367,1.2156587839126587,1.5884777307510376,2.9512476921081543,3.5688834190368652,3.814589023590088,8.495174407958984,0.15023072063922882,-0.10364465415477753,0.02934441715478897,3.154125213623047,-34.103240966796875,-12.92605209350586,0.13667559623718262,-0.07352423667907715,-0.466796875,3.4322078227996826,3.888113260269165,8.961971282958984
9_20251106_211231,1762434718636,9,0.15956702828407288,0.21114031970500946,0.16807855665683746,0.9495829343795776,1.2124022245407104,1.58599054813385,2.954683542251587,3.6562678813934326,3.9043679237365723,8.423351287841797,0.08486820757389069,-0.09203822910785675,0.012851067818701267,3.3247299194335938,-34.09211730957031,-12.919185638427734,0.17924809455871582,0.013003826141357422,-0.4308958053588867,3.477019786834717,3.891364097595215,8.854247093200684
9_20251106_211231,1762434718655,9,0.15960438549518585,0.21217727661132812,0.16862551867961884,0.9492484927177429,1.2124022245407104,1.58599054813385,2.954683542251587,3.6562678813934326,3.9043679237365723,8.423351287841797,-0.012259290553629398,-0.05049942061305046,-0.030520323663949966,3.3819379806518555,-34.15119934082031,-12.891021728515625,0.17924809455871582,0.013003826141357422,-0.4308958053588867,3.477019786834717,3.891364097595215,8.854247093200684
9_20251106_211231,1762434718674,9,0.16015876829624176,0.21264450252056122,0.16846397519111633,0.9490792155265808,1.2076492309570312,1.5809390544891357,2.9586100578308105,3.669435501098633,3.8361363410949707,8.61607551574707,-0.06906970590353012,-0.01140408031642437,-0.0543440505862236,3.4283695220947266,-34.18595886230469,-12.862818717956543,0.12601900100708008,-0.039176225662231445,-0.1338510513305664,3.5434165000915527,3.875312566757202,8.749926567077637
9_20251106_211231,1762434718693,9,0.16100627183914185,0.21262767910957336,0.16787618398666382,0.9490437507629395,1.2062346935272217,1.5783966779708862,2.959723472595215,3.72928786277771,3.800224781036377,8.594529151916504,-0.06906970590353012,-0.01140408031642437,-0.0543440505862236,3.4513444900512695,-34.19786834716797,-12.767488479614258,0.1486971378326416,-0.060070037841796875,-0.12431812286376953,3.5805907249450684,3.860294818878174,8.718847274780273
9_20251106_211231,1762434718712,9,0.1616894006729126,0.21267150342464447,0.16727708280086517,0.9490235447883606,1.205285668373108,1.5758986473083496,2.9604368209838867,3.7244997024536133,3.830151081085205,8.593332290649414,-0.03608301281929016,-0.09142735600471497,-0.04823540523648262,3.4611196517944336,-34.23515319824219,-12.727240562438965,0.1151270866394043,-0.02411508560180664,-0.10041236877441406,3.609372615814209,3.8542661666870117,8.693744659423828
9_20251106_211231,1762434718732,9,0.16247239708900452,0.21343286335468292,0.16684506833553314,0.948794960975647,1.2043590545654297,1.5737640857696533,2.960848569869995,3.616765260696411,3.973796844482422,8.594529151916504,-0.03608301281929016,-0.09142735600471497,-0.04823540523648262,3.48691463470459,-34.19683837890625,-12.630853652954102,0.005913972854614258,0.09562468528747559,-0.07937240600585938,3.610851287841797,3.8781721591949463,8.673901557922363
9_20251106_211231,1762434718750,9,0.16347093880176544,0.21461032330989838,0.16644875705242157,0.9484273791313171,1.2043590545654297,1.5737640857696533,2.960848569869995,3.616765260696411,3.973796844482422,8.594529151916504,-0.0263091791421175,-0.13724221289157867,-0.0598418302834034,3.4883241653442383,-34.171722412109375,-12.630325317382812,0.005913972854614258,0.09562468528747559,-0.07937240600585938,3.610851287841797,3.8781721591949463,8.673901557922363
9_20251106_211231,1762434718770,9,0.1645810455083847,0.21549850702285767,0.16609551012516022,0.9480958580970764,1.203180193901062,1.5720195770263672,2.960932970046997,3.5126218795776367,3.971402645111084,8.572982788085938,-0.05563068389892578,-0.07982093095779419,-0.06289616227149963,3.475644111633301,-34.173187255859375,-12.563234329223633,-0.0785837173461914,0.0745842456817627,-0.0807352066040039,3.591205596923828,3.8968183994293213,8.653717994689941
9_20251106_211231,1762434718789,9,0.16551947593688965,0.21604466438293457,0.16559123992919922,0.9478963613510132,1.2007651329040527,1.5691251754760742,2.959547996520996,3.574868679046631,3.9199295043945312,8.537071228027344,-0.08800651133060455,-0.10364465415477753,-0.03479637950658798,3.4760398864746094,-34.172645568847656,-12.617300033569336,-0.001837015151977539,0.016897916793823242,-0.05301094055175781,3.5767056941986084,3.903031587600708,8.590082168579102
9_20251106_211231,1762434718813,9,0.16629140079021454,0.21681146323680878,0.16470234096050262,0.9477410316467285,1.1998094320297241,1.5677299499511719,2.9594943523406982,3.6897854804992676,3.972599983215332,8.79204273223877,-0.10816504806280136,-0.1152510866522789,-0.02929859608411789,3.504739761352539,-34.0955810546875,-12.628252029418945,0.09046387672424316,0.05565476417541504,0.16156864166259766,3.5993216037750244,3.916945219039917,8.630474090576172
9_20251106_211231,1762434718827,9,0.16712099313735962,0.21766285598278046,0.1635834276676178,0.9475937485694885,1.1998094320297241,1.5677299499511719,2.9594943523406982,3.6897854804992676,3.972599983215332,8.79204273223877,-0.08128699660301208,-0.11830540001392365,-0.04151589050889015,3.532623291015625,-34.042823791503906,-12.720829010009766,0.09046387672424316,0.05565476417541504,0.16156864166259766,3.5993216037750244,3.916945219039917,8.630474090576172
9_20251106_211231,1762434718846,9,0.16799895465373993,0.21856018900871277,0.16271905601024628,0.947380781173706,1.199284553527832,1.565657615661621,2.9601218700408936,3.7029528617858887,3.8576831817626953,8.65438175201416,-0.06968057155609131,-0.12869010865688324,-0.04212675616145134,3.5233421325683594,-34.00486755371094,-12.828657150268555,0.060961246490478516,-0.03965139389038086,-0.013045310974121094,3.64199161529541,3.897334575653076,8.667427062988281
9_20251106_211231,1762434718865,9,0.168905571103096,0.21955277025699615,0.1618064045906067,0.9471463561058044,1.1992034912109375,1.564447045326233,2.9604451656341553,3.682602882385254,3.8804268836975098,8.669942855834961,-0.07701094448566437,-0.14029653370380402,-0.027466002851724625,3.534823417663574,-34.016632080078125,-12.828431129455566,0.03248906135559082,-0.013526201248168945,0.0020122528076171875,3.650113821029663,3.8939530849456787,8.667930603027344
9_20251106_211231,1762434718883,9,0.1696672886610031,0.22068874537944794,0.16090010106563568,0.9469005465507507,1.1992311477661133,1.5632888078689575,2.9605553150177,3.6909823417663574,3.866062641143799,8.594529151916504,-0.08373045921325684,-0.13663135468959808,-0.031131189316511154,3.5231313705444336,-34.016754150390625,-12.896503448486328,0.03269481658935547,-0.022312402725219727,-0.05872154235839844,3.658287525177002,3.8883750438690186,8.653250694274902
9_20251106_211231,1762434718904,9,0.17043738067150116,0.22169870138168335,0.16001562774181366,0.9466761946678162,1.199137806892395,1.561678171157837,2.960580587387085,3.61796236038208,3.7607221603393555,8.623258590698242,-0.08373045921325684,-0.13663135468959808,-0.031131189316511154,3.5388288497924805,-33.96479034423828,-12.989570617675781,-0.03225994110107422,-0.10212230682373047,-0.023993492126464844,3.6502223014831543,3.862844467163086,8.647252082824707
9_20251106_211231,1762434718922,9,0.17141257226467133,0.222647026181221,0.1591370850801468,0.9464256167411804,1.1989978551864624,1.5598721504211426,2.9605538845062256,3.6299328804016113,3.734386920928955,8.629243850708008,-0.13809742033481598,-0.10914243757724762,-0.05128972604870796,3.5184621810913086,-33.91453552246094,-13.151691436767578,-0.016231536865234375,-0.10276603698730469,-0.014406204223632812,3.6461644172668457,3.8371529579162598,8.64365005493164
9_20251106_211231,1762434718941,9,0.17241699993610382,0.22316603362560272,0.1577797383069992,0.9463481903076172,1.1987875699996948,1.5577857494354248,2.9606993198394775,3.61796236038208,3.7020668983459473,8.705854415893555,-0.12954531610012054,-0.16473113000392914,-0.037239838391542435,3.5465431213378906,-33.86150360107422,-13.27130126953125,-0.02256155014038086,-0.10806894302368164,0.04976367950439453,3.640523910522461,3.810135841369629,8.65609073638916
9_20251106_211231,1762434718960,9,0.1733188033103943,0.2241964191198349,0.15637774765491486,0.9461725950241089,1.198732852935791,1.555402159690857,2.9612300395965576,3.6933765411376953,3.6637611389160156,8.799224853515625,-0.08250872790813446,-0.21604375541210175,0.0036880967672914267,3.5198326110839844,-33.92425537109375,-13.435796737670898,0.0422821044921875,-0.11709976196289062,0.11450672149658203,3.651094436645508,3.7808609008789062,8.684718132019043
9_20251106_211231,1762434718980,9,0.17383334040641785,0.22570492327213287,0.1551809161901474,0.9459165334701538,1.1991996765136719,1.5527098178863525,2.962021589279175,3.822657823562622,3.6793227195739746,8.77049446105957,-0.04341339319944382,-0.24536526203155518,0.02934441715478897,3.509662628173828,-33.88751220703125,-13.421978950500488,0.13725066184997559,-0.08123064041137695,0.06862163543701172,3.6854071617126465,3.7605533599853516,8.701872825622559
9_20251106_211231,1762434718999,9,0.17393597960472107,0.22753842175006866,0.15415939688682556,0.9456254243850708,1.2003686428070068,1.5500308275222778,2.962881565093994,3.9579243659973145,3.6697463989257812,8.754934310913086,-0.01592447981238365,-0.2496413141489029,0.025068361312150955,3.450735092163086,-33.865562438964844,-13.505001068115234,0.21801376342773438,-0.07264542579650879,0.042448997497558594,3.73991060256958,3.74239182472229,8.712485313415527
