session_id,timestamp,label,quaternion_w,quaternion_x,quaternion_y,quaternion_z,position_x,position_y,position_z,accelerometer_x,accelerometer_y,accelerometer_z,gyroscope_x,gyroscope_y,gyroscope_z,magnetometer_x,magnetometer_y,magnetometer_z,linear_acceleration_x,linear_acceleration_y,linear_acceleration_z,gravity_x,gravity_y,gravity_z
9_20251106_211237,1762434720125,9,0.29473623633384705,0.3134225606918335,0.7083751559257507,0.5595547556877136,0.4397675395011902,2.2850873470306396,1.1573607921600342,-0.42806461453437805,9.306652069091797,-2.0759685039520264,-0.30425262451171875,0.023415207862854004,-0.10626755654811859,29.99771499633789,-17.576194763183594,25.08203887939453,-0.2046971619129181,0.2494068145751953,-0.07136368751525879,-0.22336745262145996,9.057245254516602,-2.0046048164367676
9_20251106_211237,1762434720145,9,0.29629266262054443,0.3121667206287384,0.7069944143295288,0.5611786842346191,0.42233121395111084,2.3215572834014893,1.0999089479446411,-0.5944545269012451,9.353336334228516,-1.8712730407714844,-0.3311306834220886,0.029523856937885284,-0.06717221438884735,30.02276611328125,-17.58527374267578,24.89352798461914,-0.2968696653842926,0.23687267303466797,0.10666537284851074,-0.2975848615169525,9.116463661193848,-1.9779384136199951
9_20251106_211237,1762434720163,9,0.297702431678772,0.31107836961746216,0.7053442597389221,0.5631100535392761,0.42233121395111084,2.3215572834014893,1.0999089479446411,-0.5944545269012451,9.353336334228516,-1.8712730407714844,-0.3311306834220886,0.029523856937885284,-0.06717221438884735,30.01296615600586,-17.57122039794922,24.663524627685547,-0.2968696653842926,0.23687267303466797,0.10666537284851074,-0.2975848615169525,9.116463661193848,-1.9779384136199951
9_20251106_211237,1762434720182,9,0.29882368445396423,0.3110139071941376,0.7034741044044495,0.5648884773254395,0.38758066296577454,2.3914055824279785,0.9946146011352539,-0.5166462659835815,9.550849914550781,-1.8892289400100708,-0.2865375280380249,-0.032784346491098404,0.034842196851968765,30.07094955444336,-17.640838623046875,24.48868179321289,-0.11721596121788025,0.3124828338623047,0.038004279136657715,-0.3994303047657013,9.238367080688477,-1.9272332191467285
9_20251106_211237,1762434720202,9,0.2997104525566101,0.3124665319919586,0.701257586479187,0.566370964050293,0.38758066296577454,2.3914055824279785,0.9946146011352539,-0.5166462659835815,9.550849914550781,-1.8892289400100708,-0.21140119433403015,-0.21726550161838531,0.24620138108730316,30.164085388183594,-17.733192443847656,24.314781188964844,-0.11721596121788025,0.3124828338623047,0.038004279136657715,-0.3994303047657013,9.238367080688477,-1.9272332191467285
9_20251106_211237,1762434720221,9,0.30068743228912354,0.3150267004966736,0.6986307501792908,0.567679762840271,0.37110191583633423,2.427689790725708,0.943397581577301,-0.19104881584644318,9.815397262573242,-1.9454903602600098,-0.21140119433403015,-0.21726550161838531,0.24620138108730316,30.146839141845703,-17.845252990722656,24.13620376586914,0.1667052060365677,0.4616241455078125,-0.01460576057434082,-0.35775402188301086,9.35377311706543,-1.930884599685669
9_20251106_211237,1762434720240,9,0.30202749371528625,0.31807687878608704,0.6955985426902771,0.5689895749092102,0.3464775085449219,2.498507022857666,0.8554072380065918,0.40508174896240234,10.389982223510742,-1.50258207321167,-0.25843778252601624,-0.28751492500305176,0.2339840829372406,30.103504180908203,-17.99603271484375,23.90178680419922,0.5341815948486328,0.69171142578125,0.3103123903274536,-0.12909984588623047,9.698270797729492,-1.8128944635391235
9_20251106_211237,1762434720259,9,0.3036366403102875,0.3209175765514374,0.6924326419830322,0.5703978538513184,0.337924987077713,2.5343165397644043,0.816759467124939,0.5822451114654541,10.38279914855957,-1.2452163696289062,-0.25843778252601624,-0.28751492500305176,0.2339840829372406,30.0721435546875,-18.15789794921875,23.600017547607422,0.5690760016441345,0.5476226806640625,0.4541424512863159,0.01316913217306137,9.835176467895508,-1.6993588209152222
9_20251106_211237,1762434720279,9,0.30528077483177185,0.3230911195278168,0.689446210861206,0.5719088315963745,0.3317456543445587,2.570012092590332,0.7816808819770813,0.7222998142242432,10.446243286132812,-1.1027674674987793,-0.2908135652542114,-0.17022891342639923,0.08310051262378693,30.010221481323242,-18.39898681640625,23.364654541015625,0.5673045516014099,0.48885345458984375,0.4772731065750122,0.15499524772167206,9.957389831542969,-1.5800405740737915
9_20251106_211237,1762434720298,9,0.3070303201675415,0.3242619037628174,0.686779797077179,0.5735155940055847,0.3317456543445587,2.570012092590332,0.7816808819770813,0.7222998142242432,10.446243286132812,-1.1027674674987793,-0.2908135652542114,-0.17022891342639923,0.08310051262378693,30.010221481323242,-18.39898681640625,23.364654541015625,0.5673045516014099,0.48885345458984375,0.4772731065750122,0.15499524772167206,9.957389831542969,-1.5800405740737915
9_20251106_211237,1762434720317,9,0.3089849650859833,0.324101984500885,0.6847236752510071,0.575012743473053,0.32442569732666016,2.6420469284057617,0.71937495470047,0.5966096520423889,10.470184326171875,-1.1051616668701172,-0.27370935678482056,-0.023621374741196632,-0.19484294950962067,29.988128662109375,-18.61042022705078,23.075836181640625,0.25696849822998047,0.3308696746826172,0.28400373458862305,0.33964115381240845,10.139314651489258,-1.3891654014587402
9_20251106_211237,1762434720336,9,0.3111788332462311,0.3226590156555176,0.6834167838096619,0.5761947631835938,0.32136040925979614,2.6760692596435547,0.6921981573104858,0.26382994651794434,10.51806640625,-1.250004529953003,-0.2749311327934265,-0.052332017570734024,-0.28341832756996155,30.051746368408203,-18.80413818359375,22.831260681152344,-0.060648977756500244,0.30300140380859375,0.1113286018371582,0.3244789242744446,10.215065002441406,-1.3613331317901611
9_20251106_211237,1762434720355,9,0.31406545639038086,0.32080021500587463,0.6823102831840515,0.5769773125648499,0.32136040925979614,2.6760692596435547,0.6921981573104858,0.26382994651794434,10.51806640625,-1.250004529953003,-0.2749311327934265,-0.052332017570734024,-0.28341832756996155,30.072851181030273,-18.89977264404297,22.5057373046875,-0.060648977756500244,0.30300140380859375,0.1113286018371582,0.3244789242744446,10.215065002441406,-1.3613331317901611
9_20251106_211237,1762434720374,9,0.3177422285079956,0.31998103857040405,0.6809771060943604,0.5769941210746765,0.3127368688583374,2.741133689880371,0.6445959806442261,-0.13119634985923767,10.530036926269531,-0.985456645488739,-0.11488457024097443,-0.3253885507583618,-0.17101922631263733,30.115732192993164,-19.020545959472656,22.342864990234375,-0.3081035912036896,0.21537113189697266,0.24209314584732056,0.1769072413444519,10.314665794372559,-1.2275497913360596
9_20251106_211237,1762434720394,9,0.3212776482105255,0.32062873244285583,0.6796577572822571,0.5762319564819336,0.3127368688583374,2.741133689880371,0.6445959806442261,-0.13119634985923767,10.530036926269531,-0.985456645488739,0.008510110899806023,-0.4390093982219696,-0.009750925935804844,30.161222457885742,-19.10297393798828,22.113201141357422,-0.3081035912036896,0.21537113189697266,0.24209314584732056,0.1769072413444519,10.314665794372559,-1.2275497913360596
9_20251106_211237,1762434720413,9,0.32432299852371216,0.32334104180336,0.6781513690948486,0.5747833251953125,0.3068747818470001,2.7779500484466553,0.6190552115440369,-0.0007179826498031616,10.744308471679688,-1.3721035718917847,0.02622518502175808,-0.5483542084693909,0.14785216748714447,30.183961868286133,-19.149993896484375,21.950931549072266,-0.14210017025470734,0.34371376037597656,-0.11564302444458008,0.14138218760490417,10.400594711303711,-1.2564605474472046
9_20251106_211237,1762434720431,9,0.32690295577049255,0.32753878831863403,0.676051676273346,0.5734168887138367,0.3007776439189911,2.839176893234253,0.5792196393013,0.924601137638092,11.877914428710938,-1.5504639148712158,-0.03730474412441254,-0.604553759098053,0.22176679968833923,30.268545150756836,-19.168601989746094,21.859222412109375,0.5901290774345398,1.041823387145996,-0.1808840036392212,0.33447206020355225,10.836091041564941,-1.3695799112319946
9_20251106_211237,1762434720451,9,0.3296597898006439,0.3325040340423584,0.6731106042861938,0.5724400281906128,0.3007776439189911,2.839176893234253,0.5792196393013,0.924601137638092,11.877914428710938,-1.5504639148712158,-0.11549542844295502,-0.5886712670326233,0.16801069676876068,30.393001556396484,-19.133926391601562,21.70246124267578,0.5901290774345398,1.041823387145996,-0.1808840036392212,0.33447206020355225,10.836091041564941,-1.3695799112319946
9_20251106_211237,1762434720471,9,0.3328201174736023,0.3369222581386566,0.6698472499847412,0.5718556046485901,0.3015773892402649,2.8819830417633057,0.5567814707756042,1.2310458421707153,12.310049057006836,-1.0955852270126343,-0.15031471848487854,-0.5324717164039612,0.054389867931604385,30.481096267700195,-19.101364135742188,21.517192840576172,0.7172590494155884,1.1791667938232422,0.21919572353363037,0.513786792755127,11.130882263183594,-1.3147809505462646
9_20251106_211237,1762434720492,9,0.3363097608089447,0.340167760848999,0.6668370366096497,0.5714104771614075,0.308136910200119,2.9652554988861084,0.5272279381752014,1.0251532793045044,13.005535125732422,-0.19779814779758453,-0.053798094391822815,-0.5184218287467957,-0.07572431862354279,30.506345748901367,-19.11017608642578,21.301651000976562,0.2916504144668579,1.2614507675170898,0.7637086510658264,0.7335028648376465,11.744084358215332,-0.9615067839622498
9_20251106_211237,1762434720509,9,0.34007781744003296,0.34269216656684875,0.6647505164146423,0.5701016783714294,0.308136910200119,2.9652554988861084,0.5272279381752014,1.0251532793045044,13.005535125732422,-0.19779814779758453,0.0787595584988594,-0.5532410740852356,-0.1881234347820282,30.567461013793945,-19.11754608154297,21.182193756103516,0.2916504144668579,1.2614507675170898,0.7637086510658264,0.7335028648376465,11.744084358215332,-0.9615067839622498
9_20251106_211237,1762434720529,9,0.3442234992980957,0.3449833393096924,0.6636239886283875,0.5675384998321533,0.31079936027526855,3.0068860054016113,0.5182399153709412,0.48528409004211426,13.38140869140625,0.009291388094425201,0.23636266589164734,-0.6570881009101868,-0.22844050824642181,30.64214515686035,-19.122238159179688,20.87399673461914,-0.19857501983642578,1.309859275817871,0.7766385674476624,0.68385910987854,12.071549415588379,-0.7673471570014954
9_20251106_211237,1762434720547,9,0.34870627522468567,0.34787318110466003,0.6631755232810974,0.5635480880737305,0.30733704566955566,3.0984854698181152,0.5069865584373474,-0.9930717945098877,13.953598022460938,0.15652845799922943,0.23636266589164734,-0.6570881009101868,-0.22844050824642181,30.813823699951172,-19.121246337890625,20.637306213378906,-1.1877695322036743,1.2512435913085938,0.6167536377906799,0.19469769299030304,12.702354431152344,-0.4602251648902893
9_20251106_211237,1762434720565,9,0.3533744812011719,0.35171136260032654,0.6631826758384705,0.5582243204116821,0.30023694038391113,3.1452128887176514,0.5050154328346252,-1.319866418838501,14.18582534790039,0.41030293703079224,0.42023295164108276,-0.7328353524208069,-0.21133629977703094,31.02939224243164,-19.003509521484375,20.269298553466797,-1.21165132522583,1.186777114868164,0.6964224576950073,-0.10821510851383209,12.999048233032227,-0.2861195504665375
9_20251106_211237,1762434720584,9,0.357803612947464,0.3554414212703705,0.6633967757225037,0.5527591109275818,0.30023694038391113,3.1452128887176514,0.5050154328346252,-1.319866418838501,14.18582534790039,0.41030293703079224,0.45138704776763916,-0.7041246891021729,-0.2394360601902008,31.25615882873535,-18.886329650878906,20.036945343017578,-1.21165132522583,1.186777114868164,0.6964224576950073,-0.10821510851383209,12.999048233032227,-0.2861195504665375
9_20251106_211237,1762434720604,9,0.36210402846336365,0.3588184714317322,0.6639162302017212,0.5471245050430298,0.2728172838687897,3.2468302249908447,0.51287841796875,-1.9459232091903687,13.746508598327637,1.5534851551055908,0.45138704776763916,-0.7041246891021729,-0.2394360601902008,31.53207778930664,-18.753822326660156,19.847366333007812,-1.2234406471252441,0.43144989013671875,1.2627685070037842,-0.7224825620651245,13.315058708190918,0.29071667790412903
9_20251106_211237,1762434720622,9,0.3658750057220459,0.3618145287036896,0.6652398705482483,0.5410006046295166,0.2554195523262024,3.2904090881347656,0.5225517749786377,-2.2392001152038574,13.134815216064453,2.0311076641082764,0.5570666193962097,-0.6564772725105286,-0.27425533533096313,31.8236083984375,-18.55786895751953,19.673114776611328,-1.2133740186691284,-0.1441946029663086,1.39231276512146,-1.025826096534729,13.279009819030762,0.6387948393821716
9_20251106_211237,1762434720642,9,0.3691786825656891,0.36483386158943176,0.6675410270690918,0.5338467359542847,0.2322348803281784,3.3334743976593018,0.5377666354179382,-2.611482620239258,12.313640594482422,2.2848823070526123,0.936413586139679,-0.5709561705589294,-0.39276307821273804,32.19671630859375,-18.206466674804688,19.504974365234375,-1.268525242805481,-0.7722949981689453,1.3168699741363525,-1.3429573774337769,13.085935592651367,0.9680123329162598
9_20251106_211237,1762434720660,9,0.3717329800128937,0.36761486530303955,0.6713569164276123,0.5253130793571472,0.20785583555698395,3.365549087524414,0.5531308054924011,-3.1932485103607178,11.158487319946289,1.9245703220367432,1.1044013500213623,-0.377312034368515,-0.46484512090682983,32.6107177734375,-17.765586853027344,19.421249389648438,-1.4802329540252686,-1.5419588088989258,0.7652463912963867,-1.7130155563354492,12.700446128845215,1.1593239307403564
9_20251106_211237,1762434720680,9,0.3728577792644501,0.36942315101623535,0.6768699884414673,0.5160916447639465,0.20785583555698395,3.365549087524414,0.5531308054924011,-3.1932485103607178,11.158487319946289,1.9245703220367432,1.2082483768463135,-0.22459585964679718,-0.4562930464744568,33.00379180908203,-17.252029418945312,19.446258544921875,-1.4802329540252686,-1.5419588088989258,0.7652463912963867,-1.7130155563354492,12.700446128845215,1.1593239307403564
9_20251106_211237,1762434720699,9,0.3725552558898926,0.37071943283081055,0.6834518313407898,0.5066194534301758,0.1399175375699997,3.402956962585449,0.5812410712242126,-4.472894668579102,8.34661865234375,0.30017438530921936,1.2161896228790283,-0.15434642136096954,-0.3518351912498474,33.33755111694336,-16.7054443359375,19.537185668945312,-1.8592135906219482,-3.0227956771850586,-0.6754980087280273,-2.6136810779571533,11.369414329528809,0.9756723642349243
9_20251106_211237,1762434720721,9,0.37130793929100037,0.37236201763153076,0.6899930238723755,0.49737972021102905,0.09528833627700806,3.4021823406219482,0.5901715159416199,-4.782930374145508,7.286031723022461,-0.15590143203735352,1.0934057235717773,-0.032784346491098404,-0.20461678504943848,33.695796966552734,-16.145523071289062,19.71045684814453,-1.7353992462158203,-3.2667064666748047,-0.9052590727806091,-3.0475311279296875,10.552738189697266,0.7493576407432556
9_20251106_211237,1762434720738,9,0.36903396248817444,0.37396278977394104,0.6959069967269897,0.4895704388618469,0.054273296147584915,3.3913471698760986,0.5944331884384155,-4.9457292556762695,6.408595085144043,-0.47311949729919434,1.0934057235717773,-0.032784346491098404,-0.20461678504943848,33.695796966552734,-16.145523071289062,19.71045684814453,-1.5185585021972656,-3.3153152465820312,-0.977981686592102,-3.427170753479004,9.723910331726074,0.5048621892929077
9_20251106_211237,1762434720756,9,0.3653915524482727,0.37561675906181335,0.7015078663825989,0.4829987585544586,0.01138695701956749,3.37062931060791,0.5950272083282471,-5.019946098327637,5.490458011627197,-0.8980720043182373,1.0573647022247314,0.24393735826015472,0.09104175120592117,33.984771728515625,-15.503952026367188,20.03131103515625,-1.2742204666137695,-3.3867621421813965,-1.122347354888916,-3.745725631713867,8.877220153808594,0.2242753505706787
9_20251106_211237,1762434720775,9,0.35993069410324097,0.3775844871997833,0.7072482109069824,0.4771580398082733,-0.03480902686715126,3.338594675064087,0.590937614440918,-4.908620357513428,4.773426055908203,-1.483429193496704,1.0579755306243896,0.35022783279418945,0.28774017095565796,34.26531219482422,-14.776893615722656,20.515716552734375,-0.9303157329559326,-3.2830352783203125,-1.3661636114120483,-3.978304624557495,8.056461334228516,-0.11726553738117218
9_20251106_211237,1762434720795,9,0.35279586911201477,0.38034695386886597,0.7126675248146057,0.4722036123275757,-0.08295252919197083,3.2958590984344482,0.5806716084480286,-4.618934631347656,4.536409378051758,-2.1489884853363037,1.0640842914581299,0.4082599878311157,0.4850494861602783,34.510406494140625,-14.027511596679688,21.039730072021484,-0.5125041007995605,-2.8160414695739746,-1.6253783702850342,-4.106430530548096,7.352450847625732,-0.5236101150512695
9_20251106_211237,1762434720813,9,0.3443329930305481,0.384324312210083,0.717534065246582,0.4678402245044708,-0.08295252919197083,3.2958590984344482,0.5806716084480286,-4.618934631347656,4.536409378051758,-2.1489884853363037,1.075690746307373,0.4290293753147125,0.6206614971160889,34.67634582519531,-13.383888244628906,21.612754821777344,-0.5125041007995605,-2.8160414695739746,-1.6253783702850342,-4.106430530548096,7.352450847625732,-0.5236101150512695
9_20251106_211237,1762434720833,9,0.33503130078315735,0.3893267810344696,0.7219148278236389,0.46369993686676025,-0.16815665364265442,3.1955015659332275,0.5482107996940613,-3.925842761993408,3.7272045612335205,-2.5416207313537598,1.1172294616699219,0.5145503878593445,0.72450852394104,34.70091247558594,-12.863365173339844,22.31317138671875,0.1695871353149414,-2.3990671634674072,-1.3221713304519653,-4.09542989730835,6.126271724700928,-1.2194494009017944
9_20251106_211237,1762434720852,9,0.32432517409324646,0.3946361243724823,0.7263402342796326,0.45989710092544556,-0.16815665364265442,3.1955015659332275,0.5482107996940613,-3.925842761993408,3.7272045612335205,-2.5416207313537598,1.1208946704864502,0.6605470776557922,0.841794490814209,34.62970733642578,-12.312065124511719,23.06452178955078,0.1695871353149414,-2.3990671634674072,-1.3221713304519653,-4.09542989730835,6.126271724700928,-1.2194494009017944
9_20251106_211237,1762434720871,9,0.31222444772720337,0.4005134105682373,0.730446457862854,0.4566759169101715,-0.23917703330516815,3.0769872665405273,0.497505247592926,-3.005311965942383,3.393228054046631,-3.890695571899414,1.0158259868621826,0.7650049328804016,0.9755738973617554,34.49445343017578,-11.81536865234375,23.85291290283203,0.7836716175079346,-1.778069019317627,-1.810532808303833,-3.7889835834503174,5.171297073364258,-2.080162763595581
9_20251106_211237,1762434720890,9,0.29891806840896606,0.4063638746738434,0.7338961958885193,0.4548766613006592,-0.2668517231941223,3.01511287689209,0.46558842062950134,-2.3984079360961914,3.625455379486084,-4.095391273498535,0.8405078053474426,0.7863852381706238,1.098968505859375,34.32548141479492,-11.472160339355469,24.758800506591797,1.1124603748321533,-1.236673355102539,-1.612182855606079,-3.5108683109283447,4.862128734588623,-2.483208417892456
9_20251106_211237,1762434720910,9,0.2854941785335541,0.41262292861938477,0.7359696626663208,0.4545152485370636,-0.2890739142894745,2.9495081901550293,0.4294619858264923,-1.7172868251800537,3.6350321769714355,-3.8679513931274414,0.6914568543434143,0.8419739007949829,1.2113676071166992,34.041690826416016,-11.235877990722656,25.59058380126953,1.4348652362823486,-0.9816770553588867,-1.1077942848205566,-3.1521520614624023,4.616709232330322,-2.7601571083068848
9_20251106_211237,1762434720929,9,0.27165886759757996,0.4190436899662018,0.7368796467781067,0.455644816160202,-0.3029233515262604,2.887573719024658,0.3937922716140747,-0.890125572681427,3.623061180114746,-3.877527952194214,0.6914568543434143,0.8419739007949829,1.2113676071166992,33.64158630371094,-11.120162963867188,26.45612335205078,1.8096210956573486,-0.7949185371398926,-0.8938965797424316,-2.699746608734131,4.417979717254639,-2.9836313724517822
9_20251106_211237,1762434720949,9,0.25692254304885864,0.4253981113433838,0.73679119348526,0.45843857526779175,-0.30886250734329224,2.8249003887176514,0.3559764325618744,-0.09767896682024002,4.174901008605957,-3.6895909309387207,0.5595100522041321,0.9452100396156311,1.3323187828063965,33.17451477050781,-11.109420776367188,27.371166229248047,2.0816543102264404,-0.19446277618408203,-0.564767599105835,-2.179333209991455,4.369363784790039,-3.1248233318328857
9_20251106_211237,1762434720967,9,0.2417537122964859,0.43146541714668274,0.7358590364456177,0.4624978303909302,-0.3073260486125946,2.771183490753174,0.32266882061958313,0.5068309307098389,4.316152572631836,-3.5208072662353516,0.4342828392982483,1.1089218854904175,1.3640837669372559,32.65660095214844,-11.127914428710938,28.378334045410156,2.1489315032958984,-0.04256916046142578,-0.3167872428894043,-1.64210045337677,4.358721733093262,-3.2040200233459473
9_20251106_211237,1762434720987,9,0.2258983850479126,0.4368703067302704,0.7349438071250916,0.4668746292591095,-0.298267126083374,2.716780424118042,0.2870990037918091,1.0981733798980713,4.162930488586426,-3.9948387145996094,0.5277451276779175,1.216434121131897,1.356142520904541,32.033329010009766,-11.302635192871094,29.29730987548828,2.1922192573547363,-0.1566329002380371,-0.632655143737793,-1.0940457582473755,4.319563388824463,-3.3621835708618164
9_20251106_211237,1762434721004,9,0.20880496501922607,0.4418288767337799,0.7344268560409546,0.47096168994903564,-0.28264084458351135,2.6668365001678467,0.2524995803833008,1.9408961534500122,3.9211268424987793,-4.412609100341797,0.5277451276779175,1.216434121131897,1.356142520904541,31.3532657623291,-11.619064331054688,30.251972198486328,2.4279534816741943,-0.31874942779541016,-0.8403406143188477,-0.4870574176311493,4.2398762702941895,-3.572268486022949
9_20251106_211237,1762434721024,9,0.1913566291332245,0.44708120822906494,0.7336181998252869,0.4746634364128113,-0.2564692497253418,2.614011287689209,0.21210238337516785,2.6962342262268066,4.204827308654785,-4.847138404846191,0.5026996731758118,1.1571801900863647,1.3817989826202393,30.644514083862305,-12.000946044921875,31.312461853027344,2.546633243560791,-0.028038978576660156,-1.0198960304260254,0.14960086345672607,4.232866287231445,-3.827242374420166
9_20251106_211237,1762434721043,9,0.17436979711055756,0.45251092314720154,0.7321831583976746,0.4782644808292389,-0.22446992993354797,2.567596197128296,0.1722709834575653,3.2037832736968994,4.692026138305664,-5.056621551513672,0.5026996731758118,1.1571801900863647,1.3817989826202393,29.886512756347656,-12.398292541503906,32.343692779541016,2.4433460235595703,0.3673276901245117,-0.9835033416748047,0.7604373097419739,4.324698448181152,-4.073118209838867
9_20251106_211237,1762434721063,9,0.1584206521511078,0.45715150237083435,0.7303961515426636,0.48211705684661865,-0.18339799344539642,2.52239990234375,0.13008292019367218,3.744849681854248,4.72554349899292,-4.848335266113281,0.202765092253685,1.1791713237762451,1.1368422508239746,28.962339401245117,-12.944091796875,33.36564636230469,2.3875298500061035,0.320676326751709,-0.620173454284668,1.3573198318481445,4.404867172241211,-4.228161811828613
9_20251106_211237,1762434721081,9,0.143558070063591,0.460226446390152,0.7281311750411987,0.48724496364593506,-0.14071935415267944,2.48429012298584,0.09272082149982452,4.4283647537231445,4.621400356292725,-4.752571105957031,-0.011037560179829597,1.3459373712539673,1.054375410079956,27.982074737548828,-13.619049072265625,34.423545837402344,2.456835985183716,0.17322635650634766,-0.419527530670166,1.9715287685394287,4.448173999786377,-4.333043575286865
9_20251106_211237,1762434721100,9,0.12875056266784668,0.4615166187286377,0.7252426147460938,0.494417667388916,-0.08886948227882385,2.4472427368164062,0.05374922975897789,5.271087646484375,4.8739776611328125,-4.881852626800537,-0.24377700686454773,1.493155837059021,1.0384929180145264,26.97197723388672,-14.412338256835938,35.47087478637695,2.6396470069885254,0.34064292907714844,-0.43904733657836914,2.6314406394958496,4.533334732055664,-4.442805290222168
9_20251106_211237,1762434721120,9,0.11390159279108047,0.4616450369358063,0.7212388515472412,0.5037109851837158,-0.08886948227882385,2.4472427368164062,0.05374922975897789,5.271087646484375,4.8739776611328125,-4.881852626800537,-0.4459732174873352,1.468110203742981,1.10996413230896,25.83289337158203,-15.322715759277344,36.50462341308594,2.6396470069885254,0.34064292907714844,-0.43904733657836914,2.6314406394958496,4.533334732055664,-4.442805290222168
9_20251106_211237,1762434721139,9,0.09972671419382095,0.4621959626674652,0.7155654430389404,0.514194130897522,-0.02206554263830185,2.4107325077056885,0.010210104286670685,6.319703102111816,5.246260166168213,-5.224208831787109,-0.5540962815284729,1.202384114265442,1.1343986988067627,24.43566131591797,-16.310806274414062,37.35103988647461,2.9506099224090576,0.570340633392334,-0.6251230239868164,3.369093179702759,4.675919532775879,-4.599085807800293
9_20251106_211237,1762434721160,9,0.08764126896858215,0.4641478359699249,0.708673357963562,0.52408766746521,0.12307175248861313,2.357088327407837,-0.06750363111495972,7.468870162963867,5.9752631187438965,-4.580196380615234,-0.6029655337333679,0.9940792918205261,1.0836968421936035,22.901947021484375,-17.368934631347656,38.04206466674805,2.7021923065185547,0.8672041893005371,0.10134124755859375,4.7666778564453125,5.108058929443359,-4.681537628173828
9_20251106_211237,1762434721179,9,0.07738091051578522,0.4666097164154053,0.7013665437698364,0.5332659482955933,0.19729453325271606,2.3382201194763184,-0.10067836195230484,7.96444845199585,6.175169944763184,-4.746585845947266,-0.6982603669166565,1.0166813135147095,1.0122257471084595,21.258235931396484,-18.457847595214844,38.5794677734375,2.5582165718078613,0.8536887168884277,-0.05203866958618164,5.406231880187988,5.321481227874756,-4.694547176361084
9_20251106_211237,1762434721196,9,0.06772208213806152,0.46824437379837036,0.6936792731285095,0.5431113839149475,0.19729453325271606,2.3382201194763184,-0.10067836195230484,7.96444845199585,6.175169944763184,-4.746585845947266,-0.859528660774231,0.9849162697792053,0.8931071758270264,21.258235931396484,-18.457847595214844,38.5794677734375,2.5582165718078613,0.8536887168884277,-0.05203866958618164,5.406231880187988,5.321481227874756,-4.694547176361084
9_20251106_211237,1762434721215,9,0.05957600101828575,0.46907928586006165,0.6855016350746155,0.5536269545555115,0.28419655561447144,2.322150707244873,-0.1368878185749054,8.220617294311523,6.586955547332764,-5.0865478515625,-1.0782183408737183,0.9342144727706909,0.665865421295166,19.49344253540039,-19.565231323242188,38.908958435058594,2.2515087127685547,1.0123796463012695,-0.3136005401611328,5.969108581542969,5.574575901031494,-4.772947311401367
9_20251106_211237,1762434721234,9,0.0540110245347023,0.46854156255722046,0.677004337310791,0.5649926662445068,0.44282588362693787,2.305405378341675,-0.1967175155878067,7.790876388549805,6.876641273498535,-4.470067501068115,-1.2119977474212646,0.8859561681747437,0.47344309091567993,17.72175407409668,-20.61981201171875,38.90110778808594,1.128392219543457,0.792335033416748,0.24364042282104492,6.662484169006348,6.084306240081787,-4.71370792388916
9_20251106_211237,1762434721254,9,0.05048702657222748,0.4667372703552246,0.6685184836387634,0.5767931938171387,0.44282588362693787,2.305405378341675,-0.1967175155878067,7.790876388549805,6.876641273498535,-4.470067501068115,-1.2651429176330566,0.7118597030639648,0.4459541440010071,16.003814697265625,-21.606414794921875,38.69379425048828,1.128392219543457,0.792335033416748,0.24364042282104492,6.662484169006348,6.084306240081787,-4.71370792388916
9_20251106_211237,1762434721272,9,0.048451200127601624,0.4655347168445587,0.6596887707710266,0.5879971385002136,0.6071335077285767,2.295738697052002,-0.2524155080318451,8.117671012878418,6.788059711456299,-4.76813268661499,-1.2651429176330566,0.7118597030639648,0.4459541440010071,14.386666297912598,-22.54737091064453,38.329002380371094,0.9797759056091309,0.49541139602661133,-0.0650930404663086,7.137895107269287,6.2926483154296875,-4.703039646148682
9_20251106_211237,1762434721292,9,0.04837235435843468,0.46658241748809814,0.6492939591407776,0.5986470580101013,0.693892240524292,2.294804811477661,-0.2791513502597809,8.857446670532227,7.2477264404296875,-4.558649063110352,-1.5400320291519165,0.16513581573963165,0.6371548175811768,12.847837448120117,-23.418479919433594,37.73869323730469,1.3756413459777832,0.7640628814697266,0.11551237106323242,7.481805324554443,6.483663558959961,-4.674161434173584
9_20251106_211237,1762434721311,9,0.04989100247621536,0.4694800078868866,0.6375536322593689,0.6087896227836609,0.7779071927070618,2.2964096069335938,-0.30142322182655334,9.564903259277344,7.375810623168945,-3.9972329139709473,-1.626774787902832,-0.161065936088562,0.6414308547973633,11.708514213562012,-24.324951171875,37.041603088378906,1.666478157043457,0.7137174606323242,0.5415425300598145,7.898425102233887,6.662093162536621,-4.538775444030762
9_20251106_211237,1762434721331,9,0.053700242191553116,0.47416454553604126,0.62491774559021,0.6178690195083618,0.7779071927070618,2.2964096069335938,-0.30142322182655334,9.564903259277344,7.375810623168945,-3.9972329139709473,-1.626774787902832,-0.161065936088562,0.6414308547973633,10.798683166503906,-25.277099609375,36.1497688293457,1.666478157043457,0.7137174606323242,0.5415425300598145,7.898425102233887,6.662093162536621,-4.538775444030762
9_20251106_211237,1762434721350,9,0.05977299064397812,0.4793720543384552,0.6115071177482605,0.6266487240791321,0.9502755999565125,2.306699514389038,-0.3309149742126465,10.177793502807617,7.8917388916015625,-2.4231128692626953,-1.940759301185608,-0.3571535050868988,0.3726503849029541,10.057019233703613,-26.27942657470703,35.114803314208984,1.4940366744995117,0.8494110107421875,1.4817728996276855,8.683756828308105,7.042327880859375,-3.904885768890381
9_20251106_211237,1762434721369,9,0.06783287972211838,0.4833153486251831,0.5974224209785461,0.6363107562065125,1.0407642126083374,2.317544937133789,-0.3365899324417114,10.048511505126953,8.480688095092773,-1.9035935401916504,-2.1618921756744385,-0.2960670292377472,0.13991092145442963,9.459150314331055,-27.333526611328125,33.93572235107422,1.0918035507202148,1.1506881713867188,1.6010339260101318,8.956707954406738,7.329999923706055,-3.5046274662017822
9_20251106_211237,1762434721388,9,0.07792524248361588,0.4851120412349701,0.5828525424003601,0.6472069621086121,1.1241612434387207,2.332279920578003,-0.3350725769996643,9.587648391723633,9.133079528808594,-1.0848116874694824,-2.32865834236145,-0.3357732594013214,-0.056787509471178055,9.12541675567627,-28.46832275390625,32.53554153442383,0.5047521591186523,1.4424638748168945,1.9358527660369873,9.08289623260498,7.690615653991699,-3.0206644535064697
9_20251106_211237,1762434721406,9,0.09027079492807388,0.485640287399292,0.5678848028182983,0.6584159731864929,1.1989493370056152,2.349977731704712,-0.3257213234901428,8.97356128692627,9.492195129394531,0.22236615419387817,-2.4355595111846924,-0.4756612777709961,-0.1258152425289154,8.927013397216797,-29.592620849609375,30.965045928955078,-0.08746814727783203,1.441263198852539,2.5944244861602783,9.061029434204102,8.050931930541992,-2.372058391571045
9_20251106_211237,1762434721425,9,0.1044972762465477,0.48626816272735596,0.552094042301178,0.6691904067993164,1.2723981142044067,2.371997356414795,-0.30555427074432373,8.497136116027832,9.608308792114258,1.5606672763824463,-2.3579797744750977,-0.7584916353225708,-0.05251145735383034,8.828510284423828,-30.67249298095703,29.358715057373047,-0.4511146545410156,1.245901107788086,3.1461806297302246,8.948250770568848,8.362407684326172,-1.5855133533477783
9_20251106_211237,1762434721445,9,0.11929309368133545,0.4885459542274475,0.535961389541626,0.6781131029129028,1.3435548543930054,2.400300979614258,-0.2719326913356781,8.194282531738281,10.429484367370605,2.840313196182251,-2.3579797744750977,-0.7584916353225708,-0.05251145735383034,8.780332565307617,-31.747032165527344,27.5380859375,-0.6031742095947266,1.6536617279052734,3.540661334991455,8.797456741333008,8.775822639465332,-0.7003480792045593
9_20251106_211237,1762434721463,9,0.133453831076622,0.4933030903339386,0.5201224684715271,0.6843352913856506,1.3435548543930054,2.400300979614258,-0.2719326913356781,8.194282531738281,10.429484367370605,2.840313196182251,-1.8650121688842773,-1.2148076295852661,0.24009272456169128,8.879257202148438,-32.6094970703125,25.483783721923828,-0.6031742095947266,1.6536617279052734,3.540661334991455,8.797456741333008,8.775822639465332,-0.7003480792045593
9_20251106_211237,1762434721482,9,0.14620085060596466,0.49947354197502136,0.5048549771308899,0.688674807548523,1.4635816812515259,2.4706637859344482,-0.18187245726585388,8.675496101379395,12.398630142211914,4.032574653625488,-1.6243313550949097,-1.2196944952011108,0.20405171811580658,8.983736038208008,-33.360023498535156,23.53998565673828,-0.04032325744628906,2.4607105255126953,3.082890033721924,8.715819358825684,9.937919616699219,0.9496846199035645
9_20251106_211237,1762434721502,9,0.15819913148880005,0.5055742263793945,0.4910295903682709,0.691561758518219,1.5235636234283447,2.519775152206421,-0.1217983216047287,8.728166580200195,13.13601303100586,4.164249420166016,-1.6243313550949097,-1.2196944952011108,0.20405171811580658,9.204034805297852,-33.99065399169922,21.630008697509766,0.009877204895019531,2.558474540710449,2.5716519355773926,8.718289375305176,10.57753849029541,1.592597484588623
9_20251106_211237,1762434721522,9,0.17031815648078918,0.5104250311851501,0.47929197549819946,0.6933521628379822,1.5795830488204956,2.576504945755005,-0.055065080523490906,8.401371002197266,13.891351699829102,4.771153450012207,-1.4502348899841309,-1.1732687950134277,0.009796741418540478,9.478829383850098,-34.50590515136719,19.805469512939453,-0.25353527069091797,2.651050567626953,2.542844772338867,8.654906272888184,11.240301132202148,2.22830867767334
9_20251106_211237,1762434721540,9,0.1837090700864792,0.5134984850883484,0.46929827332496643,0.6944993734359741,1.6251486539840698,2.6321146488189697,0.010213501751422882,7.708280086517334,14.125972747802734,5.5671916007995605,-1.3970897197723389,-1.1158474683761597,-0.269368439912796,9.893123626708984,-34.90061950683594,18.110347747802734,-0.757300853729248,2.308537483215332,2.6711063385009766,8.465580940246582,11.817435264587402,2.896085262298584
9_20251106_211237,1762434721559,9,0.19810868799686432,0.5143879652023315,0.46172454953193665,0.694959282875061,1.6653803586959839,2.6934406757354736,0.08338283002376556,6.475318908691406,13.844666481018066,5.706048965454102,-0.9303889870643616,-0.9887877106666565,-0.9254371523857117,10.347514152526855,-35.21855163574219,16.512893676757812,-1.592209815979004,1.6217851638793945,2.2479710578918457,8.06752872467041,12.222881317138672,3.458077907562256
9_20251106_211237,1762434721579,9,0.21310031414031982,0.5140520930290222,0.4580081105232239,0.693229615688324,1.6946218013763428,2.7584633827209473,0.16259267926216125,4.452305793762207,13.438867568969727,5.44509220123291,-0.509503185749054,-1.0767520666122437,-1.184443712234497,10.852367401123047,-35.49617004394531,14.972259521484375,-2.8921780586242676,0.9727888107299805,1.589611530303955,7.344483852386475,12.466078758239746,3.855480670928955
9_20251106_211237,1762434721600,9,0.2280595451593399,0.5137277245521545,0.45819005370140076,0.6885742545127869,1.7068175077438354,2.818997383117676,0.2372158169746399,2.170729637145996,13.140801429748535,4.998593330383301,-0.16619719564914703,-1.0559827089309692,-1.3011189699172974,11.568157196044922,-35.650779724121094,13.793758392333984,-4.139003276824951,0.5397777557373047,0.9144902229309082,6.309732913970947,12.60102367401123,4.084103107452393
9_20251106_211237,1762434721617,9,0.2421257197856903,0.5132278203964233,0.4613182842731476,0.6820247769355774,1.7016713619232178,2.876520872116089,0.30887287855148315,0.21115975081920624,12.606917381286621,4.362959861755371,-0.16619719564914703,-1.0559827089309692,-1.3011189699172974,11.568157196044922,-35.650779724121094,13.793758392333984,-4.87885856628418,0.0047149658203125,0.2230854034423828,5.090018272399902,12.602202415466309,4.139874458312988
9_20251106_211237,1762434721636,9,0.25474366545677185,0.511633574962616,0.46629974246025085,0.6752046346664429,1.6797349452972412,2.929105520248413,0.3761567771434784,-1.1235501766204834,11.850381851196289,3.8518199920654297,0.07081831246614456,-0.6515902876853943,-1.1691721677780151,12.447635650634766,-35.67192077636719,12.86756706237793,-4.970854759216309,-0.6014566421508789,-0.23044347763061523,3.8473048210144043,12.451838493347168,4.082263469696045
9_20251106_211237,1762434721654,9,0.26535388827323914,0.5092191696166992,0.47148364782333374,0.6693178415298462,1.6465198993682861,2.9730641841888428,0.4344882667064667,-1.6239168643951416,11.084270477294922,3.1790781021118164,0.11235710978507996,-0.4915437400341034,-0.8136489391326904,13.4534273147583,-35.586280822753906,12.110588073730469,-4.376977443695068,-1.0940542221069336,-0.722548246383667,2.7530605792999268,12.178324699401855,3.9016263484954834
9_20251106_211237,1762434721674,9,0.2728591561317444,0.5074057579040527,0.4756438434123993,0.6647181510925293,1.598168134689331,3.0140466690063477,0.49401307106018066,-1.619128704071045,10.395967483520508,3.2281570434570312,0.11235710978507996,-0.4915437400341034,-0.8136489391326904,14.412601470947266,-35.45452880859375,11.447317123413086,-3.4977517127990723,-1.4258852005004883,-0.5387754440307617,1.8786228895187378,11.821852684020996,3.766932487487793
9_20251106_211237,1762434721693,9,0.27782291173934937,0.5082249045372009,0.4782930910587311,0.660119354724884,1.598168134689331,3.0140466690063477,0.49401307106018066,-1.619128704071045,10.395967483520508,3.2281570434570312,0.41168081760406494,-0.6497577428817749,-0.10871101915836334,15.409658432006836,-35.28380584716797,10.894439697265625,-3.4977517127990723,-1.4258852005004883,-0.5387754440307617,1.8786228895187378,11.821852684020996,3.766932487487793
9_20251106_211237,1762434721712,9,0.28015008568763733,0.5115082263946533,0.48037105798721313,0.6550716757774353,1.5421720743179321,3.046520233154297,0.5501537322998047,-1.4311919212341309,9.696889877319336,3.6327600479125977,0.6584701538085938,-0.503150224685669,0.11791978776454926,16.324371337890625,-35.03343963623047,10.610301971435547,-2.6478519439697266,-1.6999702453613281,-0.10733795166015625,1.2166600227355957,11.396860122680664,3.740097999572754
9_20251106_211237,1762434721731,9,0.2790047526359558,0.5154365301132202,0.4832380414009094,0.6503556966781616,1.4294878244400024,3.083590507507324,0.6428871750831604,-0.9020960927009583,8.360982894897461,2.7241995334625244,0.6584701538085938,-0.503150224685669,0.11791978776454926,17.150985717773438,-34.815635681152344,10.511430740356445,-1.3069727420806885,-2.0511741638183594,-0.7777326107025146,0.404876708984375,10.41215705871582,3.501932144165039
9_20251106_211237,1762434721751,9,0.27464696764945984,0.518726646900177,0.4869772493839264,0.6467958688735962,1.3714591264724731,3.0901308059692383,0.6808551549911499,-0.46277904510498047,7.592477321624756,1.746209979057312,0.8209601640701294,-0.19466350972652435,0.2804098129272461,17.83057975769043,-34.608436584472656,10.51480484008789,-0.6941246390342712,-2.255744457244873,-1.4045778512954712,0.23134557902812958,9.848221778869629,3.150787830352783
9_20251106_211237,1762434721771,9,0.26777857542037964,0.5210298299789429,0.4908720552921295,0.6448776125907898,1.3105214834213257,3.088157892227173,0.7128845453262329,0.22911551594734192,7.210618019104004,0.8125115036964417,0.7781996130943298,0.3276258409023285,0.6017246842384338,18.300697326660156,-34.45268249511719,10.536081314086914,-0.0017840415239334106,-2.11008358001709,-1.8706212043762207,0.23089955747127533,9.320701599121094,2.6831326484680176
9_20251106_211237,1762434721790,9,0.2591068744659424,0.5229215621948242,0.49391812086105347,0.6445630788803101,1.3105214834213257,3.088157892227173,0.7128845453262329,0.22911551594734192,7.210618019104004,0.8125115036964417,0.7421585917472839,0.4204772710800171,0.8253011703491211,18.415937423706055,-34.321983337402344,10.745878219604492,-0.0017840415239334106,-2.11008358001709,-1.8706212043762207,0.23089955747127533,9.320701599121094,2.6831326484680176
9_20251106_211237,1762434721809,9,0.2488395720720291,0.5255261063575745,0.4956354796886444,0.6451718211174011,1.2209265232086182,3.0682899951934814,0.7440532445907593,2.5310416221618652,7.060986518859863,-0.907648503780365,0.7727018594741821,0.40276220440864563,1.0580406188964844,18.295427322387695,-34.270103454589844,11.039651870727539,1.6816225051879883,-1.4381742477416992,-2.450939178466797,0.849419116973877,8.499160766601562,1.5432907342910767
9_20251106_211237,1762434721827,9,0.23695334792137146,0.5296064019203186,0.4961562156677246,0.6459096074104309,1.1905649900436401,3.0533199310302734,0.7454019784927368,4.2847185134887695,7.323140621185303,-1.9131698608398438,0.7696475386619568,0.21339412033557892,1.29322350025177,18.047134399414062,-34.31541442871094,11.461835861206055,2.748239517211914,-0.9408164024353027,-2.7651686668395996,1.5364789962768555,8.263957023620605,0.8519986867904663
9_20251106_211237,1762434721848,9,0.22434623539447784,0.5361430644989014,0.49486610293388367,0.6460084319114685,1.1746525764465332,3.0375092029571533,0.7364872097969055,6.3005499839782715,8.236489295959473,-2.2303879261016846,0.6822938919067383,-0.030340883880853653,1.3964595794677734,17.64919662475586,-34.421295166015625,11.958175659179688,3.8112568855285645,-0.021973609924316406,-2.465909242630005,2.489293098449707,8.258462905883789,0.23552140593528748
9_20251106_211237,1762434721866,9,0.21251849830150604,0.5447012186050415,0.4917239546775818,0.645247220993042,1.1756725311279297,3.026691198348999,0.7242053747177124,8.165553092956543,9.09357738494873,-1.8042384386062622,0.6822938919067383,-0.030340883880853653,1.3964595794677734,16.93988037109375,-34.64897155761719,12.588823318481445,4.541007995605469,0.6680917739868164,-1.6318079233169556,3.624545097351074,8.425485610961914,-0.17243053019046783
9_20251106_211237,1762434721884,9,0.20271171629428864,0.5528000593185425,0.4881216883659363,0.6442493796348572,1.1908977031707764,3.0192558765411377,0.7089409232139587,9.41407585144043,9.57957935333252,-1.6330604553222656,0.49964529275894165,-0.06027325615286827,0.7800971269607544,16.233470916748047,-34.83789825439453,13.112131118774414,4.631624698638916,0.9232749938964844,-1.168503999710083,4.782451152801514,8.656304359436035,-0.4645565152168274
9_20251106_211237,1762434721904,9,0.19535931944847107,0.5582340955734253,0.4865516722202301,0.6430217027664185,1.2215145826339722,3.015742540359497,0.6889814734458923,9.56729793548584,10.082340240478516,-1.7300212383270264,0.47215643525123596,0.04357374459505081,0.18328233063220978,15.489909172058105,-35.03002166748047,13.715065002441406,3.8278775215148926,1.140829086303711,-1.0123717784881592,5.739420413970947,8.941511154174805,-0.7176494598388672
9_20251106_211237,1762434721922,9,0.19125382602214813,0.5602346658706665,0.4879927933216095,0.6414219737052917,1.2527416944503784,3.0154035091400146,0.6706695556640625,8.700634002685547,10.07874870300293,-1.7168538570404053,0.3976309299468994,0.06495401263237,-0.32068106532096863,14.756715774536133,-35.25861358642578,14.277149200439453,2.3689708709716797,0.9097900390625,-0.7993634939193726,6.331663131713867,9.16895866394043,-0.9174903631210327
9_20251106_211237,1762434721942,9,0.1904558688402176,0.5595220327377319,0.49178919196128845,0.6393786668777466,1.2905975580215454,3.0155813694000244,0.6484609842300415,7.303677082061768,9.352140426635742,-1.4906115531921387,0.3976309299468994,0.06495401263237,-0.32068106532096863,14.198343276977539,-35.41236114501953,14.7528076171875,0.777611255645752,0.14654541015625,-0.4584970474243164,6.526065826416016,9.205595016479492,-1.0321145057678223
9_20251106_211237,1762434721961,9,0.19172310829162598,0.5578960180282593,0.4970528185367584,0.6363433003425598,1.3237208127975464,3.015624523162842,0.6270279884338379,5.591897010803223,9.164203643798828,-1.1422700881958008,0.4342828392982483,-0.18000273406505585,-0.5870180726051331,13.785795211791992,-35.5687255859375,15.193538665771484,-0.7473354339599609,-0.03311347961425781,-0.08812439441680908,6.339232444763184,9.197317123413086,-1.0541456937789917
9_20251106_211237,1762434721980,9,0.1936921775341034,0.5572412610054016,0.5021932721138,0.6322716474533081,1.3237208127975464,3.015624523162842,0.6270279884338379,5.591897010803223,9.164203643798828,-1.1422700881958008,0.522858202457428,-0.29240185022354126,-0.38237839937210083,13.52449893951416,-35.639137268066406,15.533607482910156,-0.7473354339599609,-0.03311347961425781,-0.08812439441680908,6.339232444763184,9.197317123413086,-1.0541456937789917
9_20251106_211237,1762434721999,9,0.19461478292942047,0.5581105351448059,0.5067728161811829,0.6275500655174255,1.3641284704208374,3.0144174098968506,0.5912144780158997,3.385734796524048,8.908035278320312,-0.7508349418640137,0.6425877213478088,-0.3272211253643036,-0.08549816161394119,13.52449893951416,-35.639137268066406,15.533607482910156,-2.0304367542266846,-0.21367835998535156,0.2050359845161438,5.416171550750732,9.121713638305664,-0.9558709263801575
9_20251106_211237,1762434722020,9,0.19346632063388824,0.5606411099433899,0.5105140805244446,0.6225975751876831,1.3641284704208374,3.0144174098968506,0.5912144780158997,3.385734796524048,8.908035278320312,-0.7508349418640137,0.7201674580574036,-0.25086304545402527,0.26208388805389404,13.433965682983398,-35.427284240722656,16.318378448486328,-2.0304367542266846,-0.21367835998535156,0.2050359845161438,5.416171550750732,9.121713638305664,-0.9558709263801575
9_20251106_211237,1762434722038,9,0.18948908150196075,0.5643583536148071,0.5131311416625977,0.6182959675788879,1.377809762954712,3.005906343460083,0.5582798719406128,3.717317581176758,7.892936706542969,-1.1506495475769043,0.7042850255966187,-0.12197059392929077,0.5644619464874268,13.433965682983398,-35.427284240722656,16.318378448486328,-1.0006957054138184,-0.8758602142333984,-0.1570265293121338,4.718013286590576,8.768796920776367,-0.9936230182647705
9_20251106_211237,1762434722056,9,0.1831398457288742,0.5687236189842224,0.5142755508422852,0.6152511239051819,1.377809762954712,3.005906343460083,0.5582798719406128,3.717317581176758,7.892936706542969,-1.1506495475769043,0.6028814911842346,0.05090412124991417,0.7269519567489624,13.511969566345215,-35.288299560546875,16.716197967529297,-1.0006957054138184,-0.8758602142333984,-0.1570265293121338,4.718013286590576,8.768796920776367,-0.9936230182647705
9_20251106_211237,1762434722076,9,0.17549355328083038,0.5728147625923157,0.5140637755393982,0.6138596534729004,1.3880088329315186,2.983734607696533,0.52744460105896,5.645764350891113,6.922129154205322,-1.1482553482055664,0.5057539343833923,0.1724662035703659,0.7642146348953247,13.652003288269043,-35.13224792480469,17.062667846679688,0.7774362564086914,-1.2515835762023926,-0.08938825130462646,4.868328094482422,8.173712730407715,-1.05886709690094
9_20251106_211237,1762434722094,9,0.16745822131633759,0.5763031244277954,0.513095498085022,0.613649308681488,1.398016095161438,2.9685375690460205,0.5128702521324158,6.616571426391602,6.754542350769043,-1.4295618534088135,0.5057539343833923,0.1724662035703659,0.7642146348953247,13.68327808380127,-34.95890808105469,17.47283172607422,1.398594856262207,-1.1353363990783691,-0.296555757522583,5.2179765701293945,7.889878749847412,-1.1330060958862305
9_20251106_211237,1762434722114,9,0.1601082682609558,0.5791780352592468,0.512669563293457,0.6132601499557495,1.4136680364608765,2.949415922164917,0.4955329895019531,6.891892433166504,6.876641273498535,-1.775509238243103,0.5075865387916565,0.15414026379585266,0.33355504274368286,13.572370529174805,-34.921356201171875,18.023639678955078,1.3391327857971191,-0.8105897903442383,-0.5140024423599243,5.552759647369385,7.687231063842773,-1.2615067958831787
9_20251106_211237,1762434722132,9,0.15432383120059967,0.5808075666427612,0.5137574672698975,0.6122907400131226,1.4299647808074951,2.9307732582092285,0.47808218002319336,6.736275672912598,6.755739212036133,-2.3285460472106934,0.44161319732666016,0.25737640261650085,0.031177006661891937,13.46473503112793,-34.84545135498047,18.414867401123047,0.946812629699707,-0.7451934814453125,-0.8536313772201538,5.789463043212891,7.500932693481445,-1.4749146699905396
9_20251106_211237,1762434722152,9,0.15016818046569824,0.5803114771842957,0.5162442922592163,0.6117025017738342,1.4299647808074951,2.9307732582092285,0.47808218002319336,6.736275672912598,6.755739212036133,-2.3285460472106934,0.31821852922439575,0.3569473326206207,-0.1569693386554718,13.185225486755371,-34.79309844970703,18.878238677978516,0.946812629699707,-0.7451934814453125,-0.8536313772201538,5.789463043212891,7.500932693481445,-1.4749146699905396
9_20251106_211237,1762434722171,9,0.14738315343856812,0.5782577991485596,0.5191590189933777,0.6118578910827637,1.4498803615570068,2.9068751335144043,0.4532318711280823,6.342446804046631,6.535482406616211,-3.118598461151123,0.18382827937602997,0.28364357352256775,-0.15635846555233002,12.916394233703613,-34.76519775390625,19.355091094970703,0.44238710403442383,-0.7723603248596191,-1.3149471282958984,5.900059700012207,7.30784273147583,-1.8036513328552246
9_20251106_211237,1762434722190,9,0.14581166207790375,0.5766144394874573,0.5211776494979858,0.6120690703392029,1.481339931488037,2.8617732524871826,0.3994191586971283,5.583517074584961,6.443309783935547,-3.744655132293701,0.0738726407289505,0.1425338238477707,0.028122685849666595,12.647141456604004,-34.76106262207031,19.696250915527344,-0.2435746192932129,-0.5578980445861816,-1.2663750648498535,5.827091693878174,7.0012078285217285,-2.4782800674438477
9_20251106_211237,1762434722209,9,0.14447717368602753,0.5765434503555298,0.5214782953262329,0.6121963858604431,1.496730089187622,2.8388423919677734,0.36903586983680725,6.134160041809082,6.782074451446533,-3.4860925674438477,-0.025698313489556313,-0.07249055057764053,0.31400737166404724,12.388368606567383,-34.781654357910156,20.077922821044922,0.24565458297729492,-0.1753067970275879,-0.8062500953674316,5.888505458831787,6.957381248474121,-2.679842472076416
9_20251106_211237,1762434722228,9,0.14317192137241364,0.5790441036224365,0.5193246603012085,0.6119735836982727,1.5140806436538696,2.817227363586426,0.33932924270629883,6.883513450622559,7.01909065246582,-2.9869232177734375,-0.03363955765962601,-0.31866905093193054,0.5076514482498169,12.107633590698242,-34.76575469970703,20.41885757446289,0.7960062026977539,0.049367427825927734,-0.2456645965576172,6.087507247924805,6.969723224639893,-2.7412586212158203
9_20251106_211237,1762434722248,9,0.14191599190235138,0.5838328003883362,0.5156992077827454,0.6107810735702515,1.5140806436538696,2.817227363586426,0.33932924270629883,6.883513450622559,7.01909065246582,-2.9869232177734375,0.00301232747733593,-0.45794621109962463,0.5149818658828735,11.948845863342285,-34.753395080566406,20.65630340576172,0.7960062026977539,0.049367427825927734,-0.2456645965576172,6.087507247924805,6.969723224639893,-2.7412586212158203
9_20251106_211237,1762434722267,9,0.14096689224243164,0.5893838405609131,0.511996865272522,0.6087809205055237,1.5596647262573242,2.7807211875915527,0.2855318486690521,8.302017211914062,7.513471603393555,-2.5942909717559814,0.043940261006355286,-0.4915437400341034,0.3671526312828064,11.788734436035156,-34.777626037597656,20.784828186035156,1.5245418548583984,0.36255550384521484,0.08544063568115234,6.777475357055664,7.15091609954834,-2.679731607437134
9_20251106_211237,1762434722286,9,0.1407511681318283,0.5943651795387268,0.5092180371284485,0.6063135862350464,1.5596647262573242,2.7807211875915527,0.2855318486690521,8.302017211914062,7.513471603393555,-2.5942909717559814,0.043940261006355286,-0.4915437400341034,0.3671526312828064,11.677156448364258,-34.81056213378906,20.847469329833984,1.5245418548583984,0.36255550384521484,0.08544063568115234,6.777475357055664,7.15091609954834,-2.679731607437134
9_20251106_211237,1762434722305,9,0.14197713136672974,0.597942590713501,0.5082712769508362,0.6032971143722534,1.6206095218658447,2.751352071762085,0.23696714639663696,8.804777145385742,7.4224958419799805,-2.881582736968994,0.04210767149925232,-0.3889184892177582,-0.36588507890701294,11.59126091003418,-34.816932678222656,20.925132751464844,1.3137531280517578,0.1651921272277832,-0.16423416137695312,7.491024017333984,7.257303714752197,-2.717348575592041
9_20251106_211237,1762434722323,9,0.14536219835281372,0.5988286137580872,0.5096227526664734,0.6004654169082642,1.6526471376419067,2.7372405529022217,0.2136588990688324,8.12605094909668,6.955646514892578,-2.943829298019409,-0.08373045921325684,-0.2435326874256134,-0.8875634670257568,11.54050064086914,-34.857643127441406,20.908863067626953,0.508021354675293,-0.24132537841796875,-0.1811845302581787,7.618029594421387,7.196971893310547,-2.7626447677612305
9_20251106_211237,1762434722342,9,0.1516852080821991,0.5961981415748596,0.5133968591690063,0.5983000993728638,1.681084156036377,2.7213826179504395,0.19161342084407806,6.889498233795166,6.3032546043396,-2.727163314819336,-0.28837013244628906,-0.09631428122520447,-1.3499881029129028,11.685323715209961,-34.87322998046875,20.91421890258789,-0.5828251838684082,-0.7149739265441895,0.028385162353515625,7.472323417663574,7.018228530883789,-2.7555484771728516
9_20251106_211237,1762434722361,9,0.161088228225708,0.5901449918746948,0.5188046097755432,0.5971777439117432,1.681084156036377,2.7213826179504395,0.19161342084407806,6.889498233795166,6.3032546043396,-2.727163314819336,-0.46429917216300964,0.009365320205688477,-1.6786333322525024,11.911200523376465,-34.75726318359375,20.803512573242188,-0.5828251838684082,-0.7149739265441895,0.028385162353515625,7.472323417663574,7.018228530883789,-2.7555484771728516
9_20251106_211237,1762434722382,9,0.17286568880081177,0.5814481973648071,0.5251802802085876,0.5968426465988159,1.7141799926757812,2.680630922317505,0.15345709025859833,3.6287357807159424,5.3755412101745605,-2.0400571823120117,-0.5467659831047058,0.02524780109524727,-1.8374581336975098,12.365680694580078,-34.68817901611328,20.619705200195312,-2.7423999309539795,-1.1281228065490723,0.5128829479217529,6.371135711669922,6.503664016723633,-2.5529401302337646
9_20251106_211237,1762434722400,9,0.18597374856472015,0.5714471936225891,0.5319762825965881,0.5965426564216614,1.7121827602386475,2.656100034713745,0.1399236023426056,1.9145609140396118,4.94699764251709,-1.5444786548614502,-0.5467659831047058,0.02524780109524727,-1.8374581336975098,12.947562217712402,-34.510833740234375,20.456432342529297,-3.5652599334716797,-1.245333194732666,0.8067691326141357,5.479820728302002,6.192330837249756,-2.351247787475586
9_20251106_211237,1762434722420,9,0.19910621643066406,0.561931848526001,0.5377961993217468,0.5961246490478516,1.6951040029525757,2.6287693977355957,0.13031286001205444,0.5188014507293701,5.271398067474365,-1.0608707666397095,-0.6445042490959167,-0.09570340812206268,-1.3524315357208252,13.8656005859375,-34.19794464111328,20.200645446777344,-3.968815565109253,-0.7367463111877441,1.0323015451431274,4.487617015838623,6.008144378662109,-2.093172311782837
9_20251106_211237,1762434722440,9,0.2107696831226349,0.5542188286781311,0.5412741899490356,0.5961878299713135,1.6670905351638794,2.6040592193603516,0.12547636032104492,-0.10486125946044922,5.992021560668945,-0.6945736408233643,-0.6164045333862305,-0.07615573704242706,-0.827698826789856,14.811832427978516,-33.820281982421875,19.906612396240234,-3.673982620239258,-0.012898445129394531,1.118878960609436,3.5691213607788086,6.00492000579834,-1.8134526014328003
9_20251106_211237,1762434722459,9,0.21938224136829376,0.5488549470901489,0.5422361493110657,0.5971680283546448,1.6304601430892944,2.58273983001709,0.12405653297901154,-0.08211734890937805,6.790453910827637,-0.6562680602073669,-0.528439998626709,-0.03706039860844612,-0.31457242369651794,15.828458786010742,-33.487945556640625,19.600948333740234,-2.9209909439086914,0.6284270286560059,0.9257476925849915,2.8388736248016357,6.162026882171631,-1.5820157527923584
9_20251106_211237,1762434722477,9,0.2244698703289032,0.5458504557609558,0.5411877632141113,0.5989794135093689,1.5887868404388428,2.5653469562530518,0.12526728212833405,0.33325880765914917,7.204632759094238,-0.6490857601165771,-0.3909953832626343,-0.02423224039375782,0.1154763400554657,15.828458786010742,-33.487945556640625,19.600948333740234,-2.0044918060302734,0.8340845108032227,0.7463439702987671,2.3377506732940674,6.370548248291016,-1.3954297304153442
9_20251106_211237,1762434722496,9,0.2263457477092743,0.5452018976211548,0.538740873336792,0.6010663509368896,1.5479073524475098,2.5537102222442627,0.12809748947620392,0.9676949977874756,8.001867294311523,-0.6885883808135986,-0.3909953832626343,-0.02423224039375782,0.1154763400554657,16.79552459716797,-33.18309020996094,19.21169662475586,-1.0960445404052734,1.3050551414489746,0.5654730796813965,2.063739538192749,6.696812152862549,-1.2540614604949951
9_20251106_211237,1762434722515,9,0.22563663125038147,0.5461808443069458,0.5353584289550781,0.6034616231918335,1.5479073524475098,2.5537102222442627,0.12809748947620392,0.9676949977874756,8.001867294311523,-0.6885883808135986,-0.1729167103767395,0.058845359832048416,0.5595749616622925,17.52794075012207,-32.94396209716797,18.852619171142578,-1.0960445404052734,1.3050551414489746,0.5654730796813965,2.063739538192749,6.696812152862549,-1.2540614604949951
9_20251106_211237,1762434722534,9,0.22333481907844543,0.5478020906448364,0.5319573879241943,0.6058512926101685,1.464189887046814,2.547393798828125,0.1369783729314804,2.266493558883667,9.195326805114746,-1.0105946063995361,-0.1729167103767395,0.058845359832048416,0.5595749616622925,18.118852615356445,-32.851295471191406,18.44469451904297,0.21211934089660645,1.685619831085205,0.12345051765441895,2.0543742179870605,7.509706974029541,-1.134045124053955
9_20251106_211237,1762434722553,9,0.220320463180542,0.5495405793190002,0.5293641090393066,0.6076493263244629,1.4277851581573486,2.5519473552703857,0.14075110852718353,2.3706369400024414,9.171384811401367,-1.2895071506500244,0.06959658861160278,0.177963986992836,0.4764974117279053,18.528606414794922,-32.72193145751953,18.192665100097656,0.25301027297973633,1.3293423652648926,-0.12436962127685547,2.117626667022705,7.842042446136475,-1.165137529373169
9_20251106_211237,1762434722571,9,0.21655382215976715,0.5506318211555481,0.5279554724693298,0.6092389225959778,1.3958325386047363,2.557957172393799,0.14338049292564392,2.4472479820251465,8.618349075317383,-1.4762468338012695,0.06959658861160278,0.177963986992836,0.4764974117279053,18.726364135742188,-32.69383239746094,17.916934967041016,0.26369714736938477,0.6210451126098633,-0.2488875389099121,2.1835508346557617,7.9973039627075195,-1.2273592948913574
9_20251106_211237,1762434722591,9,0.21223104000091553,0.5514354705810547,0.5269253849983215,0.6109226942062378,1.3958325386047363,2.557957172393799,0.14338049292564392,2.4472479820251465,8.618349075317383,-1.4762468338012695,0.04210767149925232,0.28303271532058716,0.5143710374832153,18.527738571166992,-32.792686462402344,17.731529235839844,0.26369714736938477,0.6210451126098633,-0.2488875389099121,2.1835508346557617,7.9973039627075195,-1.2273592948913574
9_20251106_211237,1762434722610,9,0.2078809142112732,0.5522207021713257,0.5252768993377686,0.6131247878074646,1.3324038982391357,2.5735936164855957,0.1483278125524521,2.1455917358398438,8.432806015014648,-0.9615157246589661,-0.08739565312862396,0.3832145035266876,0.5314751863479614,18.27484130859375,-32.983428955078125,17.6234130859375,-0.05704522132873535,0.2789125442504883,0.23774927854537964,2.202636957168579,8.15389347076416,-1.1992650032043457
9_20251106_211237,1762434722630,9,0.20361018180847168,0.5522096753120422,0.522980809211731,0.6165212988853455,1.3030670881271362,2.5823583602905273,0.15233585238456726,1.9361079931259155,8.615954399108887,-0.6945736408233643,-0.20101648569107056,0.5854107737541199,0.5730140209197998,17.915512084960938,-33.107322692871094,17.647628784179688,-0.21322309970855713,0.36964893341064453,0.4037531614303589,2.1493310928344727,8.246305465698242,-1.0983268022537231
9_20251106_211237,1762434722649,9,0.19869890809059143,0.5508601665496826,0.5201995372772217,0.6216624975204468,1.2736788988113403,2.5921523571014404,0.15717099606990814,2.1324238777160645,8.584831237792969,-0.8262491226196289,-0.29325705766677856,0.7613397240638733,0.7171781063079834,17.505828857421875,-33.25978088378906,17.69638442993164,-0.013525724411010742,0.27082061767578125,0.21766209602355957,2.145949602127075,8.314010620117188,-1.0439112186431885
9_20251106_211237,1762434722668,9,0.19244655966758728,0.5487682819366455,0.5165714025497437,0.6284677386283875,1.2736788988113403,2.5921523571014404,0.15717099606990814,2.1324238777160645,8.584831237792969,-0.8262491226196289,-0.3781672716140747,0.7924938797950745,1.0042845010757446,16.95071792602539,-33.40907287597656,17.72600555419922,-0.013525724411010742,0.27082061767578125,0.21766209602355957,2.145949602127075,8.314010620117188,-1.0439112186431885
9_20251106_211237,1762434722687,9,0.18479947745800018,0.5477877259254456,0.5108702778816223,0.6362305283546448,1.2486629486083984,2.602487325668335,0.1610250473022461,3.100836992263794,8.65306282043457,-1.2871131896972656,-0.4453623592853546,0.630614697933197,1.2358022928237915,16.321687698364258,-33.575828552246094,17.765933990478516,0.7639100551605225,0.2712421417236328,-0.19456160068511963,2.3369269371032715,8.381820678710938,-1.092551589012146
9_20251106_211237,1762434722706,9,0.1767660230398178,0.5488840341567993,0.5031264424324036,0.6436954736709595,1.2320507764816284,2.6125128269195557,0.16455741226673126,4.510961055755615,8.63630485534668,-1.0728412866592407,-0.42886900901794434,0.4204772710800171,1.3109385967254639,15.625370025634766,-33.871177673339844,17.706157684326172,1.739227294921875,0.20358753204345703,0.01576817035675049,2.7717337608337402,8.432717323303223,-1.0886094570159912
9_20251106_211237,1762434722725,9,0.1690988391637802,0.551731526851654,0.4944130480289459,0.6500412821769714,1.226502776145935,2.631451368331909,0.17458228766918182,6.688394069671631,8.460338592529297,-0.3689762353897095,-0.2822614908218384,0.28303271532058716,1.1502811908721924,14.881718635559082,-34.14459228515625,17.644947052001953,2.6319217681884766,-0.0041561126708984375,0.5120863318443298,4.056472301483154,8.464494705200195,-0.8810625672340393
9_20251106_211237,1762434722744,9,0.16216515004634857,0.5549111366271973,0.4869585335254669,0.6547117233276367,1.226502776145935,2.631451368331909,0.17458228766918182,6.688394069671631,8.460338592529297,-0.3689762353897095,-0.1325996369123459,0.3215171992778778,0.8259119987487793,14.08016586303711,-34.35987091064453,17.650184631347656,2.6319217681884766,-0.0041561126708984375,0.5120863318443298,4.056472301483154,8.464494705200195,-0.8810625672340393
9_20251106_211237,1762434722764,9,0.15617848932743073,0.5565308928489685,0.4820699691772461,0.6583997011184692,1.2370818853378296,2.6398236751556396,0.18179787695407867,6.968503475189209,8.106011390686035,-0.44439029693603516,-0.1313779056072235,0.49927881360054016,0.4606149196624756,13.216360092163086,-34.61570739746094,17.544048309326172,2.329624652862549,-0.2867870330810547,0.3493378162384033,4.63887882232666,8.39279842376709,-0.7937281131744385
9_20251106_211237,1762434722782,9,0.15150976181030273,0.555319607257843,0.4794091582298279,0.6624438166618347,1.2714920043945312,2.6483209133148193,0.19328032433986664,6.711137771606445,7.3267316818237305,-1.1183291673660278,-0.3225785493850708,0.7002533078193665,0.09592866897583008,12.299568176269531,-34.96167755126953,17.339488983154297,1.2877488136291504,-0.7408895492553711,-0.25351983308792114,5.423388957977295,8.067621231079102,-0.8648093342781067
9_20251106_211237,1762434722801,9,0.149350106716156,0.5510810017585754,0.47762975096702576,0.6677380800247192,1.2900774478912354,2.6492714881896973,0.19757899641990662,5.892355918884277,7.362643241882324,-1.0572795867919922,-0.6261783242225647,0.7918829917907715,-0.2033950388431549,11.43313980102539,-35.267478942871094,17.205265045166016,0.37517356872558594,-0.5639824867248535,-0.1539762020111084,5.517182350158691,7.926625728607178,-0.9033033847808838
9_20251106_211237,1762434722821,9,0.15025030076503754,0.5444959998130798,0.47562822699546814,0.6743342876434326,1.2900774478912354,2.6492714881896973,0.19757899641990662,5.892355918884277,7.362643241882324,-1.0572795867919922,-0.888239324092865,0.8089872002601624,-0.3286222815513611,10.776483535766602,-35.52143096923828,17.012588500976562,0.37517356872558594,-0.5639824867248535,-0.1539762020111084,5.517182350158691,7.926625728607178,-0.9033033847808838
9_20251106_211237,1762434722840,9,0.15329067409038544,0.5367127060890198,0.47269847989082336,0.6819072961807251,1.3099108934402466,2.646090269088745,0.20568053424358368,5.042450904846191,6.761724472045898,-0.057743385434150696,-0.888239324092865,0.8089872002601624,-0.3286222815513611,10.22062873840332,-35.71812438964844,16.757308959960938,-0.37978506088256836,-0.9319210052490234,0.6764480471611023,5.42223596572876,7.693645477294922,-0.7341914176940918
9_20251106_211237,1762434722860,9,0.155522421002388,0.5286051630973816,0.46840229630470276,0.6906436681747437,1.3352155685424805,2.6312172412872314,0.22733545303344727,4.740794658660889,6.264948844909668,0.6556980609893799,-0.9218369126319885,0.8224262595176697,0.12402843683958054,9.720975875854492,-35.77391815185547,16.547447204589844,-0.41352224349975586,-0.9287304878234863,0.9234297275543213,5.1543169021606445,7.193679332733154,-0.2677316665649414
9_20251106_211237,1762434722880,9,0.15568624436855316,0.5222994089126587,0.4628466069698334,0.6990981101989746,1.3473339080810547,2.6192452907562256,0.2441316694021225,5.031677722930908,6.442112445831299,0.8651816844940186,-0.8014965653419495,0.612288773059845,0.44656503200531006,9.300886154174805,-35.92474365234375,16.352420806884766,-0.09811162948608398,-0.6012535095214844,0.9063307046890259,5.129789352416992,7.043365955352783,-0.041149020195007324
9_20251106_211237,1762434722898,9,0.15388692915439606,0.5188750624656677,0.4561678469181061,0.7063981890678406,1.3574423789978027,2.609508991241455,0.2596572935581207,5.488950729370117,6.802424430847168,1.1464881896972656,-0.7312471270561218,0.4522422254085541,0.6988521814346313,9.300886154174805,-35.92474365234375,16.352420806884766,0.28732872009277344,-0.19275283813476562,0.9501097798347473,5.201622009277344,6.995177268981934,0.1963784098625183
9_20251106_211237,1762434722915,9,0.1506950706243515,0.5176587104797363,0.448428213596344,0.7129043340682983,1.3696058988571167,2.6001546382904053,0.2785363793373108,6.01206111907959,7.17350959777832,1.5211646556854248,-0.7251384258270264,0.4100925624370575,0.8124729990959167,8.990446090698242,-36.091644287109375,15.972053527832031,0.6483511924743652,0.14266586303710938,1.0598289966583252,5.363709926605225,7.030843734741211,0.4613356590270996
9_20251106_211237,1762434722936,9,0.1469067484140396,0.5171781182289124,0.4400087296962738,0.7192617654800415,1.3696058988571167,2.6001546382904053,0.2785363793373108,6.01206111907959,7.17350959777832,1.5211646556854248,-0.7404100298881531,0.4858398139476776,0.7745994329452515,8.621387481689453,-36.224578857421875,15.562992095947266,0.6483511924743652,0.14266586303710938,1.0598289966583252,5.363709926605225,7.030843734741211,0.4613356590270996
9_20251106_211237,1762434722955,9,0.14313915371894836,0.5159273147583008,0.43167760968208313,0.7259370684623718,1.4038136005401611,2.585571765899658,0.32785913348197937,6.577068328857422,7.675073623657227,1.7126926183700562,-0.8021073937416077,0.5860216021537781,0.6884674429893494,8.287576675415039,-36.38011169433594,15.141357421875,0.8087263107299805,0.4324173927307129,0.8083380460739136,5.768342018127441,7.242656230926514,0.9043545722961426
9_20251106_211237,1762434722974,9,0.13981322944164276,0.5134565234184265,0.42347395420074463,0.7331333160400391,1.4215985536575317,2.581015110015869,0.3524765074253082,6.6788177490234375,7.563747882843018,2.03948712348938,-0.8912936449050903,0.5628087520599365,0.6585350632667542,7.866236209869385,-36.59062194824219,14.634136199951172,0.7283806800842285,0.25687360763549805,0.9081060886383057,5.950437068939209,7.3068742752075195,1.1313810348510742
9_20251106_211237,1762434722992,9,0.1372367888689041,0.5108751654624939,0.41471266746520996,0.7403958439826965,1.441421389579773,2.576500177383423,0.38108566403388977,6.675226211547852,7.3267316818237305,2.561400890350342,-0.9224477410316467,0.4546857178211212,0.7287845015525818,7.350523948669434,-36.75685119628906,14.083499908447266,0.5798311233520508,0.01588582992553711,1.144015908241272,6.095395088195801,7.310845851898193,1.4173849821090698
9_20251106_211237,1762434723011,9,0.13472402095794678,0.5092030763626099,0.40517282485961914,0.7472594380378723,1.4619851112365723,2.572103500366211,0.41267406940460205,6.7266998291015625,7.27166748046875,3.0246589183807373,-0.9224477410316467,0.4546857178211212,0.7287845015525818,6.804714679718018,-37.013648986816406,13.638164520263672,0.5050439834594727,-0.031342506408691406,1.2858190536499023,6.22165584564209,7.303009986877441,1.738839864730835
9_20251106_211237,1762434723030,9,0.13098680973052979,0.5091756582260132,0.39531922340393066,0.7531967163085938,1.4840985536575317,2.5684516429901123,0.44649985432624817,7.161228179931641,7.494318962097168,3.1299991607666016,-0.6567215919494629,0.2750914990901947,1.0281082391738892,6.1850714683532715,-37.29938507080078,13.094745635986328,0.7516574859619141,0.1530470848083496,1.1129274368286133,6.409570693969727,7.341271877288818,2.0170717239379883
9_20251106_211237,1762434723050,9,0.1255902796983719,0.5099223256111145,0.38592052459716797,0.7584666609764099,1.510367512702942,2.5654542446136475,0.4832576811313629,7.7765116691589355,7.556565284729004,2.981564998626709,-0.6567215919494629,0.2750914990901947,1.0281082391738892,5.508615493774414,-37.52549743652344,12.469095230102539,1.093553066253662,0.17223453521728516,0.771594762802124,6.682958602905273,7.384330749511719,2.209970235824585
9_20251106_211237,1762434723070,9,0.1196264773607254,0.5100449323654175,0.3773716390132904,0.7636322975158691,1.5402158498764038,2.562981128692627,0.5198209285736084,8.292440414428711,7.507486343383789,2.7505345344543457,-0.5870830416679382,0.48278549313545227,0.8552335500717163,4.687856674194336,-37.712120056152344,11.960262298583984,1.2875852584838867,0.09852457046508789,0.4324514865875244,7.004855155944824,7.408961772918701,2.3180830478668213
9_20251106_211237,1762434723089,9,0.1144576221704483,0.5087827444076538,0.3693995773792267,0.7691446542739868,1.5402158498764038,2.562981128692627,0.5198209285736084,8.292440414428711,7.507486343383789,2.7505345344543457,-0.684821367263794,0.5218808054924011,0.6725850105285645,3.9860401153564453,-37.94116973876953,11.468793869018555,1.2875852584838867,0.09852457046508789,0.4324514865875244,7.004855155944824,7.408961772918701,2.3180830478668213
9_20251106_211237,1762434723107,9,0.11083938181400299,0.5065011978149414,0.36165469884872437,0.7748400568962097,1.6018092632293701,2.560692310333252,0.5850511193275452,8.343913078308105,7.773231506347656,2.8774218559265137,-0.7532382011413574,0.46812471747398376,0.5033754706382751,3.2518815994262695,-38.10887145996094,10.882560729980469,0.8370780944824219,0.2547750473022461,0.4089233875274658,7.506834983825684,7.51845645904541,2.468498468399048
9_20251106_211237,1762434723127,9,0.10912327468395233,0.5040330290794373,0.3541018068790436,0.7801632881164551,1.6339102983474731,2.560624599456787,0.6187790036201477,8.066197395324707,7.739713668823242,3.2437188625335693,-0.7080342173576355,0.4406358301639557,0.40869140625,2.554788589477539,-38.26190185546875,10.325096130371094,0.44749021530151367,0.17700576782226562,0.6201763153076172,7.618707180023193,7.562707901000977,2.623542547225952
9_20251106_211237,1762434723146,9,0.10799245536327362,0.5013822317123413,0.34733641147613525,0.7850546836853027,1.6339102983474731,2.560624599456787,0.6187790036201477,8.066197395324707,7.739713668823242,3.2437188625335693,-0.5577614903450012,0.45835089683532715,0.4129674434661865,1.8666534423828125,-38.47651672363281,9.726253509521484,0.44749021530151367,0.17700576782226562,0.6201763153076172,7.618707180023193,7.562707901000977,2.623542547225952
9_20251106_211237,1762434723165,9,0.10601859539747238,0.4986300766468048,0.34173014760017395,0.7895243167877197,1.668707013130188,2.559802770614624,0.656324028968811,7.944098949432373,7.338702201843262,3.2592806816101074,-0.46918606758117676,0.4724007844924927,0.48932552337646484,1.208542823791504,-38.577476501464844,9.225379943847656,0.2603135108947754,-0.17920494079589844,0.5085904598236084,7.683785438537598,7.51790714263916,2.750690221786499
9_20251106_211237,1762434723183,9,0.10307209938764572,0.4961404800415039,0.3363440930843353,0.7937842607498169,1.7274894714355469,2.554306745529175,0.7184301614761353,8.357080459594727,6.913749694824219,3.09049654006958,-0.5046162605285645,0.4571291506290436,0.5314752459526062,0.5966663360595703,-38.713470458984375,8.779741287231445,0.47055530548095703,-0.3845539093017578,0.21460318565368652,7.8865251541137695,7.298303604125977,2.8758933544158936
9_20251106_211237,1762434723203,9,0.09992755949497223,0.49389898777008057,0.330447256565094,0.7980494499206543,1.7274894714355469,2.554306745529175,0.7184301614761353,8.357080459594727,6.913749694824219,3.09049654006958,-0.5046162605285645,0.4571291506290436,0.5314752459526062,0.03615570068359375,-38.79632568359375,8.364152908325195,0.47055530548095703,-0.3845539093017578,0.21460318565368652,7.8865251541137695,7.298303604125977,2.8758933544158936
9_20251106_211237,1762434723221,9,0.09787002205848694,0.49121424555778503,0.32404422760009766,0.8025742173194885,1.789504051208496,2.5450387001037598,0.7833371162414551,8.316381454467773,6.873049736022949,3.813514471054077,-0.7178080677986145,0.5072200894355774,0.2907945215702057,-0.40714550018310547,-38.97034454345703,7.816194534301758,0.24561309814453125,-0.2851862907409668,0.6650054454803467,8.070768356323242,7.158236026763916,3.1485090255737305
9_20251106_211237,1762434723241,9,0.09740111231803894,0.4876018464565277,0.3176550567150116,0.8073739409446716,1.8194469213485718,2.538761854171753,0.8194221258163452,7.884246349334717,6.732995510101318,4.285151481628418,-0.7178080677986145,0.5072200894355774,0.2907945215702057,-0.7843713760375977,-39.040611267089844,7.340381622314453,-0.14921808242797852,-0.3401923179626465,0.9093141555786133,8.033464431762695,7.073187828063965,3.3758373260498047
9_20251106_211237,1762434723261,9,0.09805640578269958,0.48309391736984253,0.3116336762905121,0.8123359084129333,1.8456897735595703,2.531782627105713,0.8554130792617798,7.748979568481445,6.594137668609619,4.6239166259765625,-0.7471295595169067,0.6293929815292358,0.10448077321052551,-1.0873680114746094,-39.08140563964844,6.908588409423828,-0.22758769989013672,-0.3832402229309082,0.9984633922576904,7.976567268371582,6.977377891540527,3.625453233718872
9_20251106_211237,1762434723280,9,0.09876363724470139,0.4776938557624817,0.30597344040870667,0.8175784945487976,1.87043297290802,2.5226657390594482,0.8918184041976929,7.908187389373779,6.071026802062988,4.432388782501221,-0.5895264744758606,0.6263386607170105,0.16556723415851593,-1.3162603378295898,-39.11608123779297,6.344573974609375,-0.054703712463378906,-0.7250809669494629,0.6455483436584473,7.962891101837158,6.796107769012451,3.7868404388427734
9_20251106_211237,1762434723299,9,0.0982179120182991,0.47254690527915955,0.30125316977500916,0.8223741054534912,1.8957048654556274,2.5117595195770264,0.9288979768753052,8.136823654174805,6.20749044418335,4.008633136749268,-0.4832359552383423,0.47973117232322693,0.2553643584251404,-1.5773696899414062,-39.06605529785156,5.862033843994141,0.1391458511352539,-0.47089385986328125,0.17743420600891113,7.997677803039551,6.678384304046631,3.8311989307403564
9_20251106_211237,1762434723318,9,0.09706241637468338,0.4690597653388977,0.2966228425502777,0.8261820077896118,1.8957048654556274,2.5117595195770264,0.9288979768753052,8.136823654174805,6.20749044418335,4.008633136749268,-0.5498202443122864,0.3477843701839447,0.23703841865062714,-1.5773696899414062,-39.06605529785156,5.862033843994141,0.1391458511352539,-0.47089385986328125,0.17743420600891113,7.997677803039551,6.678384304046631,3.8311989307403564
9_20251106_211237,1762434723337,9,0.09674718976020813,0.46659770607948303,0.29146692156791687,0.8294417262077332,1.9387900829315186,2.4927446842193604,0.9959190487861633,7.715462684631348,6.631246566772461,4.692148208618164,-0.6182370781898499,0.37038636207580566,0.12280671298503876,-1.7812833786010742,-39.08672332763672,5.312782287597656,-0.23558616638183594,-0.031891822814941406,0.6425576210021973,7.951048851013184,6.663138389587402,4.049590587615967
9_20251106_211237,1762434723355,9,0.09763602167367935,0.46352726221084595,0.28637707233428955,0.832825243473053,1.9574226140975952,2.482728958129883,1.0310347080230713,7.431761741638184,6.318816184997559,4.883676528930664,-0.6182370781898499,0.37038636207580566,0.12280671298503876,-2.0073556900024414,-39.07117462158203,4.749824523925781,-0.41543006896972656,-0.27545738220214844,0.6672687530517578,7.84719181060791,6.594273567199707,4.216407775878906
9_20251106_211237,1762434723375,9,0.09884852916002274,0.4587922692298889,0.28171035647392273,0.8368858098983765,1.9745484590530396,2.4706969261169434,1.0679314136505127,7.351559638977051,5.930972099304199,4.802276611328125,-0.6286217570304871,0.547537088394165,0.024457495659589767,-2.1978836059570312,-39.07781982421875,4.133745193481445,-0.39650535583496094,-0.5306410789489746,0.46869516372680664,7.748064994812012,6.461613178253174,4.333581447601318
9_20251106_211237,1762434723395,9,0.09998762607574463,0.4538021981716156,0.27713248133659363,0.8409897089004517,1.9893214702606201,2.457507610321045,1.1043936014175415,7.255795478820801,5.883090019226074,4.797488212585449,-0.6286217570304871,0.547537088394165,0.024457495659589767,-2.289712905883789,-39.053260803222656,3.5491504669189453,-0.3938155174255371,-0.46281862258911133,0.3711252212524414,7.649610996246338,6.3459086418151855,4.426362991333008
9_20251106_211237,1762434723413,9,0.10079161077737808,0.4499850571155548,0.27258387207984924,0.8444243669509888,2.00081467628479,2.4451205730438232,1.1363853216171265,7.187563419342041,5.8950605392456055,4.757986068725586,-0.5314943194389343,0.36549946665763855,0.11669807136058807,-2.366943359375,-38.989837646484375,2.9252891540527344,-0.36963796615600586,-0.36067867279052734,0.26529836654663086,7.557201385498047,6.255739212036133,4.492687702178955
9_20251106_211237,1762434723432,9,0.10119449347257614,0.4467926025390625,0.26818516850471497,0.8474743366241455,2.0108888149261475,2.4310660362243652,1.1681264638900757,7.028356075286865,5.6604390144348145,4.368945121765137,-0.5327160358428955,0.3697755038738251,0.15457168221473694,-2.4249343872070312,-39.01299285888672,2.3275928497314453,-0.42307615280151367,-0.4762401580810547,-0.09899425506591797,7.451432228088379,6.136679172515869,4.467939376831055
9_20251106_211237,1762434723452,9,0.10141657292842865,0.443697065114975,0.2635752856731415,0.8505149483680725,2.0188913345336914,2.4163780212402344,1.1974276304244995,6.879921913146973,5.649665832519531,4.15706729888916,-0.6322869658470154,0.3105216324329376,0.26635992527008057,-2.5783843994140625,-38.99335479736328,1.8351593017578125,-0.45720815658569336,-0.38961029052734375,-0.24869775772094727,7.337130069732666,6.039276123046875,4.405765056610107
9_20251106_211237,1762434723471,9,0.10132337361574173,0.44132164120674133,0.25763025879859924,0.8535780310630798,2.0256457328796387,2.400407314300537,1.2271662950515747,6.926607131958008,5.617345333099365,4.549699783325195,-0.7660663723945618,0.23721785843372345,0.418465256690979,-2.67413330078125,-39.03211975097656,1.3033084869384766,-0.3284187316894531,-0.33754444122314453,0.11514759063720703,7.255025863647461,5.95488977432251,4.434552192687988
9_20251106_211237,1762434723490,9,0.100743368268013,0.4397832155227661,0.2499312460422516,0.8567239046096802,2.0313961505889893,2.3858208656311035,1.253905177116394,7.245021820068359,5.576645851135254,4.967469215393066,-0.8033291697502136,0.17918571829795837,0.5522446632385254,-2.8157081604003906,-39.023704528808594,0.7570362091064453,-0.00800323486328125,-0.3025951385498047,0.4263334274291992,7.253025054931641,5.879240989685059,4.541135787963867
9_20251106_211237,1762434723509,9,0.0993625819683075,0.43891289830207825,0.24128827452659607,0.8598037958145142,2.0313961505889893,2.3858208656311035,1.253905177116394,7.245021820068359,5.576645851135254,4.967469215393066,-0.8033291697502136,0.17918571829795837,0.5522446632385254,-2.9159011840820312,-38.93675231933594,0.132720947265625,-0.00800323486328125,-0.3025951385498047,0.4263334274291992,7.253025054931641,5.879240989685059,4.541135787963867
9_20251106_211237,1762434723529,9,0.09735826402902603,0.43847379088401794,0.232609823346138,0.8626440763473511,2.039571523666382,2.3681323528289795,1.2885632514953613,7.660398006439209,5.674803733825684,5.522900581359863,-0.6884865760803223,0.16452495753765106,0.5699597001075745,-3.0576725006103516,-38.92860412597656,-0.3865184783935547,0.3258986473083496,-0.16354990005493164,0.7854118347167969,7.334499359130859,5.838353633880615,4.737488746643066
9_20251106_211237,1762434723546,9,0.09537022560834885,0.43774569034576416,0.224741131067276,0.8653176426887512,2.057096481323242,2.3422534465789795,1.3481602668762207,8.324760437011719,5.9429426193237305,6.214795112609863,-0.6096850037574768,0.23721785843372345,0.39158719778060913,-3.307821273803711,-38.91423797607422,-0.9910049438476562,0.6682424545288086,0.0822591781616211,0.9870376586914062,7.65651798248291,5.860683441162109,5.227757453918457
9_20251106_211237,1762434723566,9,0.09431365132331848,0.4360598027706146,0.21835006773471832,0.8679170608520508,2.068699836730957,2.3290317058563232,1.3843767642974854,8.078168869018555,5.960898399353027,6.27345085144043,-0.6096850037574768,0.23721785843372345,0.39158719778060913,-3.6320743560791016,-38.905982971191406,-1.4632720947265625,0.33732032775878906,0.08017206192016602,0.8365545272827148,7.740848541259766,5.880726337432861,5.436896324157715
9_20251106_211237,1762434723586,9,0.09489256888628006,0.43318381905555725,0.21340960264205933,0.8705191016197205,2.0787572860717773,2.316580057144165,1.4192719459533691,7.5897722244262695,5.691562652587891,6.242327690124512,-0.5137792229652405,0.4137577712535858,-0.02624427154660225,-4.000360488891602,-38.83650207519531,-2.098377227783203,-0.12086105346679688,-0.15133094787597656,0.6443448066711426,7.710633277893066,5.842893600463867,5.597982883453369
9_20251106_211237,1762434723603,9,0.09649205207824707,0.4291853606700897,0.2097652554512024,0.8732054233551025,2.0866212844848633,2.3040931224823,1.451545000076294,7.228262901306152,5.322871208190918,5.950246810913086,-0.5137792229652405,0.4137577712535858,-0.02624427154660225,-4.2964324951171875,-38.77508544921875,-2.703770637512207,-0.3858962059020996,-0.416018009185791,0.2818112373352051,7.614159107208252,5.738889217376709,5.668435573577881
9_20251106_211237,1762434723624,9,0.09799771755933762,0.4249814450740814,0.20661400258541107,0.8758412599563599,2.093210458755493,2.2896041870117188,1.4860128164291382,7.05109977722168,5.308506965637207,5.800616264343262,-0.41298651695251465,0.35083869099617004,0.08493310213088989,-4.483423233032227,-38.70732879638672,-3.223651885986328,-0.45044708251953125,-0.34430599212646484,0.1057443618774414,7.501546859741211,5.652812957763672,5.69487190246582
9_20251106_211237,1762434723642,9,0.09844663739204407,0.4218002259731293,0.20323286950588226,0.8781168460845947,2.0979113578796387,2.275442123413086,1.5176564455032349,7.047508716583252,5.257033348083496,5.890394687652588,-0.41298651695251465,0.35083869099617004,0.08493310213088989,-4.657016754150391,-38.613929748535156,-3.715482711791992,-0.36323022842407227,-0.3166236877441406,0.1564183235168457,7.410738945007324,5.573657035827637,5.733976364135742
9_20251106_211237,1762434723661,9,0.09780634939670563,0.4199070334434509,0.1996324062347412,0.8799198269844055,2.101236343383789,2.2615463733673096,1.5484623908996582,6.994838714599609,5.412650108337402,6.005311965942383,-0.36167389154434204,0.23599612712860107,0.22298851609230042,-4.871297836303711,-38.598121643066406,-4.223884582519531,-0.3327202796936035,-0.12880563735961914,0.21706867218017578,7.327558994293213,5.5414557456970215,5.788243293762207
9_20251106_211237,1762434723680,9,0.09623576700687408,0.41881221532821655,0.19614474475383759,0.8813979029655457,2.103245735168457,2.2482941150665283,1.5784581899642944,6.908650875091553,5.522778511047363,6.0543904304504395,-0.2975330948829651,0.16635756194591522,0.3158399760723114,-5.046201705932617,-38.529701232910156,-4.729759216308594,-0.3351263999938965,-0.014941692352294922,0.21291780471801758,7.243777275085449,5.537720203399658,5.841472625732422
9_20251106_211237,1762434723700,9,0.09405123442411423,0.4177512526512146,0.19280368089675903,0.8828731775283813,2.104367256164551,2.235032796859741,1.6093742847442627,6.95174503326416,5.5347490310668945,6.144169330596924,-0.24072270095348358,0.19262473285198212,0.469167023897171,-5.149162292480469,-38.44652557373047,-4.975618362426758,-0.2336258888244629,-0.002377033233642578,0.2421574592590332,7.185370922088623,5.537126064300537,5.902011871337891
9_20251106_211237,1762434723719,9,0.0909995287656784,0.41671550273895264,0.18927064538002014,0.8844455480575562,2.105125904083252,2.222703218460083,1.6380980014801025,7.092996597290039,5.405467510223389,6.201627731323242,-0.15397989749908447,0.11321232467889786,0.58400958776474,-5.309442520141602,-38.316009521484375,-5.3310041427612305,-0.0738992691040039,-0.10532665252685547,0.23969268798828125,7.166895866394043,5.510794162750244,5.961935043334961
9_20251106_211237,1762434723738,9,0.08666988462209702,0.4165858328342438,0.18600985407829285,0.8856325149536133,2.105125904083252,2.222703218460083,1.6380980014801025,7.092996597290039,5.405467510223389,6.201627731323242,0.023781729862093925,0.019750017672777176,0.7098476886749268,-5.461246490478516,-38.23614501953125,-5.565308570861816,-0.0738992691040039,-0.10532665252685547,0.23969268798828125,7.166895866394043,5.510794162750244,5.961935043334961
9_20251106_211237,1762434723757,9,0.08073502033948898,0.41760823130607605,0.18364566564559937,0.8862050771713257,2.108686923980713,2.1967201232910156,1.6913349628448486,7.862699508666992,4.799760818481445,5.832936763763428,0.17283272743225098,-0.006517163012176752,0.8234685659408569,-5.6378173828125,-38.158409118652344,-5.746528625488281,0.5318846702575684,-0.5010280609130859,-0.14767789840698242,7.330814838409424,5.300788879394531,5.98061466217041
9_20251106_211237,1762434723776,9,0.07336729019880295,0.41918832063674927,0.18194875121116638,0.8864496946334839,2.108686923980713,2.1967201232910156,1.6913349628448486,7.862699508666992,4.799760818481445,5.832936763763428,0.17283272743225098,-0.006517163012176752,0.8234685659408569,-5.6378173828125,-38.158409118652344,-5.746528625488281,0.5318846702575684,-0.5010280609130859,-0.14767789840698242,7.330814838409424,5.300788879394531,5.98061466217041
9_20251106_211237,1762434723795,9,0.0661192536354065,0.4213399589061737,0.1804220974445343,0.8863118886947632,2.1226749420166016,2.164825677871704,1.7366876602172852,8.638387680053711,4.535212516784668,5.277505397796631,0.20643028616905212,-0.05660806968808174,0.8143055438995361,-6.020536422729492,-38.069602966308594,-5.88149356842041,0.8831963539123535,-0.505673885345459,-0.4762296676635742,7.755191326141357,5.040886402130127,5.753735065460205
9_20251106_211237,1762434723814,9,0.06062158942222595,0.42316901683807373,0.17851115763187408,0.8862205147743225,2.133047103881836,2.1483712196350098,1.7557839155197144,8.693452835083008,4.589079856872559,5.569585800170898,-0.14359520375728607,0.02463693916797638,0.4135783314704895,-6.417346954345703,-38.00737762451172,-5.949895858764648,0.7506093978881836,-0.36144542694091797,-0.14731979370117188,7.942843437194824,4.950525283813477,5.71690559387207
9_20251106_211237,1762434723833,9,0.05803332105278969,0.42390546202659607,0.17562903463840485,0.8866176009178162,2.144516706466675,2.131760835647583,1.7752783298492432,8.53184986114502,4.593868255615234,6.210007190704346,-0.3274654746055603,0.12176442891359329,0.1521282196044922,-6.863494873046875,-37.949134826660156,-5.939162254333496,0.4712057113647461,-0.2853255271911621,0.39448118209838867,8.060644149780273,4.8791937828063965,5.815526008605957
9_20251106_211237,1762434723853,9,0.05818329378962517,0.4232198894023895,0.17233508825302124,0.8875811100006104,2.156061887741089,2.114616870880127,1.796108603477478,8.29722785949707,4.381990432739258,6.657703399658203,-0.3274654746055603,0.12176442891359329,0.1521282196044922,-7.293634414672852,-37.82691192626953,-5.967166900634766,0.18926715850830078,-0.3977627754211426,0.6737418174743652,8.10796070098877,4.7797532081604,5.983961582183838
9_20251106_211237,1762434723872,9,0.05970032513141632,0.42125165462493896,0.17013171315193176,0.888840913772583,2.167032480239868,2.0952374935150146,1.8187031745910645,7.9189605712890625,4.044422626495361,6.564333915710449,-0.16864065825939178,0.24271564185619354,-0.15269328653812408,-7.698413848876953,-37.701751708984375,-6.1293535232543945,-0.1512002944946289,-0.5882644653320312,0.4642977714538574,8.070160865783691,4.632687091827393,6.100036144256592
9_20251106_211237,1762434723891,9,0.06143873929977417,0.4188798666000366,0.1694711595773697,0.8899688124656677,2.1752736568450928,2.076871871948242,1.8379945755004883,7.607728004455566,3.9031710624694824,6.089105129241943,-0.16864065825939178,0.24271564185619354,-0.15269328653812408,-8.046689987182617,-37.648231506347656,-6.263639450073242,-0.3699460029602051,-0.5836129188537598,-0.008745193481445312,7.9776740074157715,4.486783981323242,6.097850322723389
9_20251106_211237,1762434723910,9,0.062390249222517014,0.41722890734672546,0.16972410678863525,0.8906296491622925,2.182542324066162,2.0558173656463623,1.8581165075302124,7.507175922393799,3.937885284423828,6.018479347229004,-0.00676150806248188,0.05823449790477753,-0.020135626196861267,-8.321033477783203,-37.565635681152344,-6.313356399536133,-0.37639856338500977,-0.4391188621520996,-0.06349658966064453,7.883574485778809,4.377004146575928,6.081975936889648
9_20251106_211237,1762434723930,9,0.06264665722846985,0.41675037145614624,0.16976317763328552,0.8908282518386841,2.182542324066162,2.0558173656463623,1.8581165075302124,7.507175922393799,3.937885284423828,6.018479347229004,-0.07395662367343903,0.03441077470779419,0.023846633732318878,-8.608972549438477,-37.508949279785156,-6.364091873168945,-0.37639856338500977,-0.4391188621520996,-0.06349658966064453,7.883574485778809,4.377004146575928,6.081975936889648
9_20251106_211237,1762434723949,9,0.06285500526428223,0.4165053367614746,0.1690550297498703,0.8910627961158752,2.192842483520508,2.015241861343384,1.8978701829910278,7.555057525634766,4.086319446563721,6.722344398498535,-0.0959477573633194,0.09794070571660995,0.004909826442599297,-8.67746353149414,-37.437835693359375,-6.419515609741211,-0.20488834381103516,-0.18450593948364258,0.4615478515625,7.759945869445801,4.270825386047363,6.260796546936035
9_20251106_211237,1762434723967,9,0.0631268098950386,0.4155977964401245,0.16832472383975983,0.8916054368019104,2.192842483520508,2.015241861343384,1.8978701829910278,7.555057525634766,4.086319446563721,6.722344398498535,-0.04463512450456619,0.157194584608078,-0.021968219429254532,-8.745361328125,-37.36591339111328,-6.556036949157715,-0.20488834381103516,-0.18450593948364258,0.4615478515625,7.759945869445801,4.270825386047363,6.260796546936035
9_20251106_211237,1762434723986,9,0.06332962960004807,0.41413167119026184,0.16815301775932312,0.8923053741455078,2.1989314556121826,1.9775452613830566,1.9356697797775269,7.410214900970459,3.814589500427246,6.478146076202393,0.020727403461933136,0.13886864483356476,-0.01097265724092722,-8.732187271118164,-37.36376953125,-6.690709114074707,-0.23876667022705078,-0.320528507232666,0.11535406112670898,7.64898157119751,4.135118007659912,6.362792015075684
9_20251106_211237,1762434724006,9,0.06320688128471375,0.41289547085762024,0.16846972703933716,0.892827033996582,2.2009825706481934,1.956862449645996,1.9545732736587524,7.456899642944336,3.7020668983459473,6.308165073394775,0.08120301365852356,0.09427551925182343,0.04522689804434776,-8.672779083251953,-37.39665985107422,-6.770146369934082,-0.15366554260253906,-0.34644079208374023,-0.0437016487121582,7.610565185546875,4.0485076904296875,6.351866722106934
9_20251106_211237,1762434724025,9,0.062442123889923096,0.41218653321266174,0.16902171075344086,0.893104076385498,2.2028815746307373,1.9371669292449951,1.9707517623901367,7.628077507019043,3.673337459564209,6.030449867248535,0.08120301365852356,0.09427551925182343,0.04522689804434776,-8.673385620117188,-37.409080505371094,-6.783926963806152,0.014009475708007812,-0.30013608932495117,-0.25713348388671875,7.614068031311035,3.97347354888916,6.287583351135254
9_20251106_211237,1762434724043,9,0.061106614768505096,0.4122527241706848,0.1697952300310135,0.8930191993713379,2.2028815746307373,1.9371669292449951,1.9707517623901367,7.628077507019043,3.673337459564209,6.030449867248535,0.14473293721675873,0.02463693544268608,0.10325904190540314,-8.673286437988281,-37.40894317626953,-6.797443389892578,0.014009475708007812,-0.30013608932495117,-0.25713348388671875,7.614068031311035,3.97347354888916,6.287583351135254
9_20251106_211237,1762434724062,9,0.05987858027219772,0.41310471296310425,0.17056775093078613,0.8925613164901733,2.207274913787842,1.9010049104690552,1.9968693256378174,7.738205909729004,3.942673683166504,5.916729927062988,0.08486820757389069,-0.08165352046489716,0.023846633732318878,-8.699462890625,-37.436187744140625,-6.744887351989746,0.07753276824951172,-0.008986234664916992,-0.2235565185546875,7.660673141479492,3.951659917831421,6.140286445617676
9_20251106_211237,1762434724082,9,0.059686917811632156,0.41403114795684814,0.17110471427440643,0.8920419812202454,2.207274913787842,1.9010049104690552,1.9968693256378174,7.738205909729004,3.942673683166504,5.916729927062988,0.08486820757389069,-0.08165352046489716,0.023846633732318878,-8.686162948608398,-37.410682678222656,-6.703320503234863,0.07753276824951172,-0.008986234664916992,-0.2235565185546875,7.660673141479492,3.951659917831421,6.140286445617676
9_20251106_211237,1762434724101,9,0.06049107015132904,0.41426882147789,0.17145919799804688,0.891809344291687,2.2117063999176025,1.8669729232788086,2.018939971923828,7.607728004455566,3.891200542449951,5.986158847808838,-0.023865720257163048,-0.01812359318137169,-0.14963895082473755,-8.714664459228516,-37.48748016357422,-6.7194013595581055,-0.04901552200317383,-0.038693904876708984,-0.09098052978515625,7.65674352645874,3.92989444732666,6.077139377593994
9_20251106_211237,1762434724120,9,0.062012892216444016,0.4142646789550781,0.1718243658542633,0.8916364312171936,2.213148832321167,1.8504750728607178,2.0291852951049805,7.45091438293457,3.9642205238342285,5.971794128417969,-0.023865720257163048,-0.01812359318137169,-0.14963895082473755,-8.71546745300293,-37.50017547607422,-6.706149101257324,-0.16466331481933594,0.027460813522338867,-0.08427619934082031,7.615577697753906,3.9367597103118896,6.056070327758789
9_20251106_211237,1762434724139,9,0.06402039527893066,0.41417092084884644,0.1722709983587265,0.8914519548416138,2.213148832321167,1.8504750728607178,2.0291852951049805,7.45091438293457,3.9642205238342285,5.971794128417969,-0.06173933297395706,-0.02117791771888733,-0.23027309775352478,-8.680517196655273,-37.52317810058594,-6.678173065185547,-0.16466331481933594,0.027460813522338867,-0.08427619934082031,7.615577697753906,3.9367597103118896,6.056070327758789
9_20251106_211237,1762434724160,9,0.06640782952308655,0.41399678587913513,0.17263758182525635,0.8912872076034546,2.2118709087371826,1.82151198387146,2.048454761505127,6.972094535827637,4.034846305847168,6.280632972717285,-0.08678478002548218,-0.007128027733415365,-0.22782963514328003,-8.690885543823242,-37.48670196533203,-6.637322425842285,-0.4480276107788086,0.059136152267456055,0.1739816665649414,7.420122146606445,3.975710153579712,6.106651306152344
9_20251106_211237,1762434724180,9,0.0688357725739479,0.4136269688606262,0.17282329499721527,0.8912387490272522,2.208641290664673,1.807387351989746,2.0590221881866455,6.894286155700684,4.021678924560547,6.306967735290527,-0.044635117053985596,-0.01140408031642437,-0.16307798027992249,-8.690885543823242,-37.48670196533203,-6.637322425842285,-0.4206686019897461,0.03677511215209961,0.16025304794311523,7.31495475769043,3.9849038124084473,6.146714687347412
9_20251106_211237,1762434724196,9,0.07047097384929657,0.4133475720882416,0.17313933372497559,0.8911792039871216,2.2054805755615234,1.7973588705062866,2.0669898986816406,6.891892433166504,4.085122108459473,6.310559272766113,0.01584048755466938,-0.03461693972349167,-0.07633518427610397,-8.630252838134766,-37.483131408691406,-6.594321250915527,-0.33844995498657227,0.08017444610595703,0.13107585906982422,7.230342388153076,4.004947662353516,6.179483413696289
9_20251106_211237,1762434724216,9,0.07113423943519592,0.4134269654750824,0.1736237108707428,0.890995442867279,2.2010767459869385,1.7858574390411377,2.0771193504333496,7.016385555267334,4.138989448547363,6.399141311645508,0.03233383595943451,-0.049277693033218384,-0.012194386683404446,-8.522693634033203,-37.51365661621094,-6.590699195861816,-0.17116546630859375,0.10723352432250977,0.17572641372680664,7.187551021575928,4.0317559242248535,6.223414897918701
9_20251106_211237,1762434724235,9,0.0713043063879013,0.41376179456710815,0.17395520210266113,0.8907617330551147,2.1974294185638428,1.7759488821029663,2.086324691772461,7.235445499420166,4.001328945159912,6.444628715515137,0.05737929046154022,-0.035838667303323746,0.01529452670365572,-8.43619155883789,-37.49486541748047,-6.654582977294922,0.0383152961730957,-0.024341583251953125,0.1769709587097168,7.19713020324707,4.025670528411865,6.26765775680542
9_20251106_211237,1762434724253,9,0.07109440118074417,0.4140414297580719,0.1744082123041153,0.89055997133255,2.194662094116211,1.7654697895050049,2.096090316772461,7.521540641784668,3.827756881713867,6.462584495544434,0.06165534257888794,-0.03461693972349167,0.018959715962409973,-8.340324401855469,-37.5255126953125,-6.719032287597656,0.25952816009521484,-0.15833091735839844,0.15594148635864258,7.262012481689453,3.9860877990722656,6.306643009185791
9_20251106_211237,1762434724274,9,0.07084356993436813,0.41435208916664124,0.17482437193393707,0.8903538584709167,2.193340301513672,1.754433512687683,2.1071839332580566,7.734614849090576,3.9761908054351807,6.5571513175964355,0.026836054399609566,-0.04133645445108414,-0.020135626196861267,-8.275772094726562,-37.4586181640625,-6.728776931762695,0.3780817985534668,-0.007917642593383789,0.20040655136108398,7.356533050537109,3.9841084480285645,6.356744766235352
9_20251106_211237,1762434724292,9,0.07094777375459671,0.41465383768081665,0.17508599162101746,0.8901536464691162,2.193310022354126,1.7457574605941772,2.1173534393310547,7.781300067901611,4.110260486602783,6.818108081817627,0.026836054399609566,-0.04133645445108414,-0.020135626196861267,-8.21776008605957,-37.50501251220703,-6.713864326477051,0.3398137092590332,0.100921630859375,0.36909055709838867,7.441486358642578,4.009338855743408,6.449017524719238
9_20251106_211237,1762434724311,9,0.07216580957174301,0.41506317257881165,0.17539016902446747,0.889805018901825,2.1938834190368652,1.7375017404556274,2.1286392211914062,7.661594867706299,4.171309947967529,6.845640182495117,-0.004928913898766041,-0.07126882672309875,-0.1160413920879364,-8.182004928588867,-37.51531982421875,-6.699140548706055,0.1760869026184082,0.1295766830444336,0.31729793548583984,7.485507965087891,4.041733264923096,6.528342247009277
9_20251106_211237,1762434724330,9,0.07393423467874527,0.41464483737945557,0.176683247089386,0.8895990252494812,2.1938834190368652,1.7375017404556274,2.1286392211914062,7.661594867706299,4.171309947967529,6.845640182495117,0.09830722212791443,0.03074558824300766,-0.3634415864944458,-8.14544677734375,-37.512939453125,-6.69766902923584,0.1760869026184082,0.1295766830444336,0.31729793548583984,7.485507965087891,4.041733264923096,6.528342247009277
9_20251106_211237,1762434724350,9,0.07634102553129196,0.41330960392951965,0.17897331714630127,0.8895593285560608,2.1940364837646484,1.7290107011795044,2.140922784805298,7.351559638977051,4.094698905944824,6.657703399658203,0.11785489320755005,0.08266908675432205,-0.40131521224975586,-8.074544906616211,-37.545982360839844,-6.682002067565918,-0.10715866088867188,0.04237222671508789,0.10348892211914062,7.458718299865723,4.052326679229736,6.5542144775390625
9_20251106_211237,1762434724369,9,0.07886545360088348,0.41144847869873047,0.18161241710186005,0.8896669745445251,2.1906208992004395,1.715232253074646,2.157115936279297,6.742260932922363,4.025269508361816,5.749142646789551,0.11785489320755005,0.08266908675432205,-0.40131521224975586,-8.004135131835938,-37.57969665527344,-6.598753929138184,-0.5087132453918457,-0.026892662048339844,-0.5801739692687988,7.250974178314209,4.052162170410156,6.32931661605835
9_20251106_211237,1762434724388,9,0.08117077499628067,0.4106651246547699,0.18476602435112,0.8891720771789551,2.1857845783233643,1.7087013721466064,2.161370277404785,6.3807525634765625,4.073151588439941,5.419954299926758,0.23758438229560852,-0.06332758069038391,-0.27792054414749146,-7.863231658935547,-37.658607482910156,-6.540651321411133,-0.6961774826049805,0.016791343688964844,-0.7274894714355469,7.076930046081543,4.056360244750977,6.147443771362305
9_20251106_211237,1762434724406,9,0.08280491828918457,0.4108307957649231,0.18800558149814606,0.8882653117179871,2.1793551445007324,1.7028177976608276,2.1628801822662354,6.23351526260376,4.053998947143555,5.205682754516602,0.2021542191505432,-0.06454931199550629,-0.17040835320949554,-7.741865158081055,-37.651336669921875,-6.468165397644043,-0.6747322082519531,-0.0018892288208007812,-0.7534084320068359,6.908247470855713,4.0558881759643555,5.9590911865234375
9_20251106_211237,1762434724426,9,0.08386973291635513,0.41116204857826233,0.1907612830400467,0.8874242305755615,2.170626401901245,1.6964378356933594,2.1621217727661133,6.269426345825195,4.000132083892822,5.185332298278809,0.13862428069114685,-0.0639384388923645,-0.043348487466573715,-7.578098297119141,-37.75390625,-6.396093368530273,-0.5110569000244141,-0.04460477828979492,-0.6190071105957031,6.780483245849609,4.044736862182617,5.804339408874512
9_20251106_211237,1762434724444,9,0.08393575996160507,0.41175323724746704,0.19209514558315277,0.886855959892273,2.170626401901245,1.6964378356933594,2.1621217727661133,6.269426345825195,4.000132083892822,5.185332298278809,0.08547906577587128,-0.07371227443218231,0.08004618436098099,-7.409002304077148,-37.768035888671875,-6.376238822937012,-0.5110569000244141,-0.04460477828979492,-0.6190071105957031,6.780483245849609,4.044736862182617,5.804339408874512
9_20251106_211237,1762434724464,9,0.08321456611156464,0.41262388229370117,0.19245539605617523,0.8864411115646362,2.1615519523620605,1.6908599138259888,2.1599016189575195,6.523200988769531,4.203629970550537,5.311022758483887,0.03355555981397629,-0.079210065305233,0.13807833194732666,-7.238483428955078,-37.74543762207031,-6.260978698730469,-0.2058258056640625,0.12711429595947266,-0.3946533203125,6.729026794433594,4.0765156745910645,5.705676078796387
9_20251106_211237,1762434724483,9,0.08227808028459549,0.4136253595352173,0.19213634729385376,0.8861309289932251,2.153700828552246,1.6865030527114868,2.1577446460723877,6.852389335632324,4.32333517074585,5.649787902832031,-0.0006528608500957489,-0.041947316378355026,0.1307479590177536,-7.134632110595703,-37.82740020751953,-6.13676643371582,0.09869003295898438,0.19745540618896484,-0.044710636138916016,6.75369930267334,4.125879764556885,5.694498538970947
9_20251106_211237,1762434724502,9,0.08137326687574387,0.41423746943473816,0.191613107919693,0.8860418200492859,2.1473214626312256,1.683179497718811,2.1562886238098145,7.237839698791504,4.465784072875977,5.925108909606934,-0.013481019996106625,-0.0034628394059836864,0.04889208823442459,-7.063419342041016,-37.848426818847656,-6.066770553588867,0.3873124122619629,0.2719235420227051,0.18448829650878906,6.850527286529541,4.1938605308532715,5.7406206130981445
9_20251106_211237,1762434724520,9,0.08108066022396088,0.4143601059913635,0.19134896993637085,0.8860684037208557,2.141688346862793,1.6805678606033325,2.1564228534698486,7.673565864562988,4.6549177169799805,6.1992340087890625,-0.024476584047079086,0.017306560650467873,-0.06778308004140854,-6.967735290527344,-37.86772918701172,-6.009309768676758,0.5483875274658203,0.3023548126220703,0.3103671073913574,7.125178337097168,4.35256290435791,5.888866901397705
9_20251106_211237,1762434724540,9,0.08183266967535019,0.4141126871109009,0.19144174456596375,0.886094868183136,2.140902042388916,1.680622935295105,2.15812087059021,7.555057525634766,4.664494037628174,6.26028299331665,-0.01592447981238365,0.019750019535422325,-0.18690171837806702,-6.930768966674805,-37.85319519042969,-5.9670257568359375,0.3439035415649414,0.24954462051391602,0.2971329689025879,7.211153984069824,4.414949417114258,5.9631500244140625
9_20251106_211237,1762434724560,9,0.0835966020822525,0.4136488139629364,0.19204507768154144,0.8860163688659668,2.1405017375946045,1.6811245679855347,2.1607935428619385,7.32522439956665,4.562745094299316,6.311756134033203,0.008510110899806023,0.026469532400369644,-0.27853140234947205,-6.896720886230469,-37.88902282714844,-5.912281036376953,0.09125661849975586,0.11823654174804688,0.2788848876953125,7.2339677810668945,4.4445085525512695,6.032871246337891
9_20251106_211237,1762434724579,9,0.08602390438318253,0.4129541218280792,0.1932186335325241,0.8858528733253479,2.1399242877960205,1.681305170059204,2.1636152267456055,7.138484954833984,4.343685150146484,6.250706672668457,0.029890378937125206,0.052736714482307434,-0.3170158863067627,-6.872138977050781,-37.87554931640625,-5.843454360961914,-0.0763864517211914,-0.0806589126586914,0.17426824569702148,7.214871406555176,4.424344062805176,6.0764384269714355
9_20251106_211237,1762434724600,9,0.0885484591126442,0.4119265377521515,0.19476613402366638,0.8857436776161194,2.1399242877960205,1.681305170059204,2.1636152267456055,7.138484954833984,4.343685150146484,6.250706672668457,0.05615755915641785,0.06067795678973198,-0.32556796073913574,-6.826807022094727,-37.92340850830078,-5.76145076751709,-0.0763864517211914,-0.0806589126586914,0.17426824569702148,7.214871406555176,4.424344062805176,6.0764384269714355
9_20251106_211237,1762434724618,9,0.0909733697772026,0.4108196496963501,0.19655102491378784,0.885617733001709,2.1366708278656006,1.681138038635254,2.169053554534912,6.847601890563965,4.35206413269043,6.085514068603516,0.0793704241514206,0.012419642880558968,-0.3078528940677643,-6.826807022094727,-37.92340850830078,-5.76145076751709,-0.25861024856567383,-0.04798269271850586,0.013853073120117188,7.106212139129639,4.4000468254089355,6.071660995483398
9_20251106_211237,1762434724636,9,0.09327635169029236,0.41019371151924133,0.19842316210269928,0.8852507472038269,2.13378643989563,1.6809263229370117,2.1715617179870605,6.738670349121094,4.37839937210083,6.089105129241943,0.1355699598789215,0.0185282900929451,-0.27364447712898254,-6.706653594970703,-37.94098663330078,-5.716525077819824,-0.2940335273742676,-0.017317771911621094,0.013955116271972656,7.032703876495361,4.395717144012451,6.075150012969971
9_20251106_211237,1762434724655,9,0.0950346440076828,0.4095958173274994,0.20064201951026917,0.8848403692245483,2.1300721168518066,1.6806316375732422,2.17313551902771,6.677620887756348,4.361640930175781,5.780265808105469,0.20581941306591034,0.027080396190285683,-0.23210570216178894,-6.499589920043945,-37.92761993408203,-5.694671630859375,-0.28406620025634766,-0.027260780334472656,-0.23590755462646484,6.961687088012695,4.388901710510254,6.016173362731934
9_20251106_211237,1762434724675,9,0.09616900980472565,0.4090544879436493,0.20328933000564575,0.8843638300895691,2.1254687309265137,1.6800721883773804,2.173457145690918,6.669240951538086,4.301788330078125,5.604300022125244,0.19848904013633728,0.02158261463046074,-0.18384738266468048,-6.29454231262207,-37.95178985595703,-5.687126159667969,-0.23395681381225586,-0.06969070434570312,-0.3294987678527832,6.903197765350342,4.371479034423828,5.933798789978027
9_20251106_211237,1762434724694,9,0.0970165878534317,0.40870586037635803,0.20565223693847656,0.8838859796524048,2.1254687309265137,1.6800721883773804,2.173457145690918,6.669240951538086,4.301788330078125,5.604300022125244,0.11968748271465302,0.02769125998020172,-0.13253474235534668,-6.124839782714844,-37.95349884033203,-5.653491020202637,-0.23395681381225586,-0.06969070434570312,-0.3294987678527832,6.903197765350342,4.371479034423828,5.933798789978027
9_20251106_211237,1762434724712,9,0.0977318212389946,0.40836524963378906,0.20714259147644043,0.88361656665802,2.120635509490967,1.6791977882385254,2.172877550125122,6.751837730407715,4.258694648742676,5.642605781555176,0.06104448437690735,0.026469532400369644,-0.07877863943576813,-5.97093391418457,-38.00730895996094,-5.513272285461426,-0.12108802795410156,-0.09022760391235352,-0.2329545021057129,6.872925758361816,4.348922252655029,5.875560283660889
9_20251106_211237,1762434724732,9,0.09810329228639603,0.40806883573532104,0.20795702934265137,0.8835210204124451,2.1131365299224854,1.6783366203308105,2.171207904815674,7.10496711730957,4.451419353485107,5.779068946838379,0.09097684919834137,0.00753272557631135,-0.04518107697367668,-5.739892959594727,-37.992889404296875,-5.436372756958008,0.18049144744873047,0.0690455436706543,-0.062137603759765625,6.92447566986084,4.382373809814453,5.8412065505981445
9_20251106_211237,1762434724750,9,0.09812243282794952,0.4080252945423126,0.2088818997144699,0.8833208680152893,2.110653877258301,1.678454875946045,2.1698265075683594,7.175593376159668,4.5447893142700195,5.624650001525879,0.09097684919834137,0.00753272557631135,-0.04518107697367668,-5.583377838134766,-38.00835418701172,-5.362943649291992,0.20089387893676758,0.12993240356445312,-0.17324542999267578,6.9746994972229,4.414856910705566,5.797895431518555
9_20251106_211237,1762434724770,9,0.09821433573961258,0.40825799107551575,0.20993386209011078,0.8829536437988281,2.108625888824463,1.6787673234939575,2.1678998470306396,7.169608116149902,4.476557731628418,5.643802642822266,0.05799015611410141,-0.008349757641553879,-0.0800003707408905,-5.44740104675293,-37.950599670410156,-5.234846115112305,0.15592670440673828,0.04936075210571289,-0.12327432632446289,7.013681411743164,4.427196979522705,5.7670769691467285
9_20251106_211237,1762434724790,9,0.09876670688390732,0.40833044052124023,0.21066835522651672,0.882683515548706,2.108625888824463,1.6787673234939575,2.1678998470306396,7.169608116149902,4.476557731628418,5.643802642822266,0.05799015611410141,-0.008349757641553879,-0.0800003707408905,-5.328346252441406,-37.98126983642578,-5.136119842529297,0.15592670440673828,0.04936075210571289,-0.12327432632446289,7.013681411743164,4.427196979522705,5.7670769691467285
9_20251106_211237,1762434724809,9,0.09985027462244034,0.40797269344329834,0.2108052372932434,0.8826943635940552,2.105133056640625,1.6801317930221558,2.164332389831543,7.000823974609375,4.596261978149414,5.728793144226074,-0.05868501216173172,0.05151498317718506,-0.12337177991867065,-5.232761383056641,-38.000701904296875,-5.065142631530762,-0.016272544860839844,0.12428998947143555,-0.031013965606689453,7.017096519470215,4.4719719886779785,5.759807109832764
9_20251106_211237,1762434724827,9,0.10109967738389969,0.4076099693775177,0.21056099236011505,0.8827780485153198,2.1034507751464844,1.6810990571975708,2.1625583171844482,6.949350833892822,4.547183036804199,5.677319526672363,-0.05868501216173172,0.05151498317718506,-0.12337177991867065,-5.135965347290039,-37.99529266357422,-4.966605186462402,-0.054196834564208984,0.06016874313354492,-0.06598997116088867,7.003547668457031,4.487014293670654,5.743309497833252
9_20251106_211237,1762434724846,9,0.10229282081127167,0.4074399471282959,0.2104514241218567,0.8827452063560486,2.101736545562744,1.6827924251556396,2.1606638431549072,6.9936418533325195,4.750681400299072,5.701260566711426,-0.07701094448566437,-0.016901861876249313,-0.06228529289364815,-5.063737869262695,-37.991737365722656,-4.842016220092773,-0.007924556732177734,0.21093368530273438,-0.03363943099975586,7.001566410064697,4.539747714996338,5.734899997711182
9_20251106_211237,1762434724865,9,0.10335331410169601,0.4077702760696411,0.20987768471240997,0.8826057314872742,2.101736545562744,1.6827924251556396,2.1606638431549072,6.9936418533325195,4.750681400299072,5.701260566711426,-0.05563068389892578,-0.08898389339447021,-0.04823540523648262,-4.979337692260742,-37.999000549316406,-4.811814308166504,-0.007924556732177734,0.21093368530273438,-0.03363943099975586,7.001566410064697,4.539747714996338,5.734899997711182
9_20251106_211237,1762434724884,9,0.10438624024391174,0.40870675444602966,0.20962457358837128,0.8821110129356384,2.0999021530151367,1.6855342388153076,2.159512758255005,6.991247653961182,4.8272929191589355,5.984961986541748,-0.05563068389892578,-0.08898389339447021,-0.04823540523648262,-4.92132568359375,-38.04539489746094,-4.796901702880859,-0.0082550048828125,0.23003625869750977,0.20004940032958984,6.999502658843994,4.597256660461426,5.784912586212158
9_20251106_211237,1762434724904,9,0.10516145080327988,0.40954700112342834,0.21004824340343475,0.8815282583236694,2.095797538757324,1.6916918754577637,2.1587369441986084,6.730290412902832,4.877569198608398,5.797024726867676,0.01584048755466938,-0.12197059392929077,-0.06595048308372498,-4.774894714355469,-38.03559112548828,-4.818048477172852,-0.20025873184204102,0.19070005416870117,-0.026723384857177734,6.930549144744873,4.686869144439697,5.8237481117248535
9_20251106_211237,1762434724923,9,0.10610740631818771,0.41019994020462036,0.21083860099315643,0.8809224367141724,2.09262752532959,1.6950726509094238,2.158027410507202,6.518413066864014,4.815322399139404,5.6940789222717285,0.01278616301715374,-0.10975330322980881,-0.11848485469818115,-4.681240081787109,-38.104042053222656,-4.869773864746094,-0.3297085762023926,0.10276269912719727,-0.10373544692993164,6.848121643066406,4.712559700012207,5.79781436920166
9_20251106_211237,1762434724942,9,0.1075245589017868,0.4107532501220703,0.21161086857318878,0.8803073763847351,2.087660312652588,1.6991974115371704,2.1570467948913574,6.314914703369141,4.895524501800537,5.721611022949219,-0.05013290047645569,-0.08165352046489716,-0.10504582524299622,-4.559293746948242,-38.107574462890625,-4.973263740539551,-0.42656564712524414,0.14637184143066406,-0.060962677001953125,6.741480350494385,4.749152660369873,5.782573699951172
9_20251106_211237,1762434724960,9,0.10892939567565918,0.41090813279151917,0.21193015575408936,0.879985511302948,2.0822067260742188,1.7029547691345215,2.156653642654419,6.251470565795898,4.8428544998168945,5.963415145874023,-0.08678478002548218,-0.06516017019748688,-0.0800003707408905,-4.510761260986328,-38.11627960205078,-5.03914737701416,-0.39200782775878906,0.07496166229248047,0.14467334747314453,6.6434783935546875,4.767892837524414,5.818741798400879
9_20251106_211237,1762434724980,9,0.11031664907932281,0.41068917512893677,0.21204432845115662,0.8798874020576477,2.0755605697631836,1.7073416709899902,2.156805992126465,6.350826263427734,4.9062981605529785,6.005311965942383,-0.0800652727484703,-0.058440662920475006,-0.03846156969666481,-4.427982330322266,-38.160545349121094,-5.077319145202637,-0.23412132263183594,0.11072397232055664,0.14925622940063477,6.58494758605957,4.795574188232422,5.856055736541748
9_20251106_211237,1762434725000,9,0.11099894344806671,0.410124272108078,0.2120254784822464,0.8800696134567261,2.0755605697631836,1.7073416709899902,2.156805992126465,6.350826263427734,4.9062981605529785,6.005311965942383,-0.0800652727484703,-0.058440662920475006,-0.03846156969666481,-4.35699462890625,-38.20506286621094,-5.170045852661133,-0.23412132263183594,0.11072397232055664,0.14925622940063477,6.58494758605957,4.795574188232422,5.856055736541748
9_20251106_211237,1762434725019,9,0.1113460585474968,0.4100654125213623,0.21213789284229279,0.88002610206604,2.0682053565979004,1.7127768993377686,2.1575868129730225,6.561506748199463,4.955377101898193,6.0089030265808105,-0.020811397582292557,-0.13235528767108917,-0.020135626196861267,-4.266969680786133,-38.12348937988281,-5.232610702514648,-0.018752574920654297,0.12784242630004883,0.12227773666381836,6.580259323120117,4.8275346755981445,5.886625289916992
9_20251106_211237,1762434725038,9,0.11188527196645737,0.4105088412761688,0.21235045790672302,0.8796996474266052,2.0586133003234863,1.722834825515747,2.159693717956543,6.708744049072266,5.246259689331055,6.129804611206055,-0.031806960701942444,-0.11219675838947296,-0.08610901981592178,-4.2093658447265625,-38.182029724121094,-5.258510589599609,0.08433723449707031,0.2789011001586914,0.17785215377807617,6.624406814575195,4.967358589172363,5.9519524574279785
9_20251106_211237,1762434725056,9,0.11314912140369415,0.41078880429267883,0.21291162073612213,0.8792715668678284,2.0586133003234863,1.722834825515747,2.159693717956543,6.708744049072266,5.246259689331055,6.129804611206055,-0.044024258852005005,-0.02423224039375782,-0.16613230109214783,-4.2093658447265625,-38.182029724121094,-5.258510589599609,0.08433723449707031,0.2789011001586914,0.17785215377807617,6.624406814575195,4.967358589172363,5.9519524574279785
9_20251106_211237,1762434725075,9,0.11489323526620865,0.41002076864242554,0.21377421915531158,0.8791945576667786,2.0494723320007324,1.7343580722808838,2.1629252433776855,6.469333648681641,4.984106063842773,5.897577285766602,-0.02325485646724701,0.05395844206213951,-0.21561235189437866,-4.222257614135742,-38.19538116455078,-5.259264945983887,-0.12816762924194336,-0.01973438262939453,-0.06927490234375,6.597501277923584,5.003840446472168,5.966852188110352
9_20251106_211237,1762434725094,9,0.1167045533657074,0.4085286259651184,0.2149978131055832,0.8793522119522095,2.0494723320007324,1.7343580722808838,2.1629252433776855,6.469333648681641,4.984106063842773,5.897577285766602,-0.0495220348238945,0.07350611686706543,-0.19972985982894897,-4.121147155761719,-38.12610626220703,-5.267538070678711,-0.12816762924194336,-0.01973438262939453,-0.06927490234375,6.597501277923584,5.003840446472168,5.966852188110352
9_20251106_211237,1762434725114,9,0.11849372833967209,0.40703487396240234,0.21581092476844788,0.8796064257621765,2.038299560546875,1.744876742362976,2.163933753967285,6.31850528717041,4.961362838745117,5.749142646789551,-0.0855630561709404,0.05701277032494545,-0.1471954882144928,-4.071895599365234,-38.11064147949219,-5.238279342651367,-0.18315410614013672,-0.026419639587402344,-0.13626956939697266,6.501659393310547,4.9877824783325195,5.885412216186523
9_20251106_211237,1762434725132,9,0.12010776996612549,0.4058719575405121,0.21614602208137512,0.8798425793647766,2.032869815826416,1.7495484352111816,2.164264678955078,6.354416847229004,5.078673362731934,5.934685707092285,-0.0855630561709404,0.05701277032494545,-0.1471954882144928,-3.9629268646240234,-38.116050720214844,-5.234128952026367,-0.11779403686523438,0.07271289825439453,0.03941917419433594,6.472210884094238,5.005960464477539,5.895266532897949
