session_id,timestamp,label,quaternion_w,quaternion_x,quaternion_y,quaternion_z,position_x,position_y,position_z,accelerometer_x,accelerometer_y,accelerometer_z,gyroscope_x,gyroscope_y,gyroscope_z,magnetometer_x,magnetometer_y,magnetometer_z,linear_acceleration_x,linear_acceleration_y,linear_acceleration_z,gravity_x,gravity_y,gravity_z
5_20251106_182911,1762424914504,5,0.5881461501121521,0.6795355677604675,0.288680762052536,0.33011966943740845,1.0003893375396729,2.0958852767944336,-1.262846827507019,0.6576592326164246,9.878841400146484,-0.5449424982070923,0.04817431792616844,-0.12742255628108978,-0.08246291428804398,20.571733474731445,-24.599746704101562,-17.171302795410156,-0.38601917028427124,-0.08057689666748047,0.07575118541717529,1.0436784029006958,9.959418296813965,-0.6206936836242676
5_20251106_182911,1762424914523,5,0.5881679058074951,0.6804299354553223,0.28800758719444275,0.32882407307624817,0.9854413866996765,2.0992798805236816,-1.2624866962432861,0.8611575365066528,10.030866622924805,-0.293562114238739,0.13003019988536835,-0.07366646826267242,0.03421224281191826,20.664182662963867,-24.468482971191406,-17.17874526977539,-0.14601671695709229,0.057159423828125,0.261705219745636,1.0071742534637451,9.97370719909668,-0.555267333984375
5_20251106_182911,1762424914544,5,0.5875888466835022,0.6814068555831909,0.2876823842525482,0.3281201720237732,0.9717825055122375,2.1027653217315674,-1.261048674583435,0.9629067182540894,10.109872817993164,-0.18941880762577057,0.1581299602985382,0.04606302082538605,0.05681423842906952,20.664182662963867,-24.468482971191406,-17.17874526977539,-0.03541398048400879,0.1089324951171875,0.2926788330078125,0.9983206987380981,10.000940322875977,-0.4820976257324219
5_20251106_182911,1762424914562,5,0.5864086151123047,0.6821829080581665,0.2880142629146576,0.32832789421081543,0.9590773582458496,2.1063530445098877,-1.2597899436950684,1.0873998403549194,10.09191608428955,-0.5174103379249573,0.1477452665567398,0.06438896059989929,0.09163352847099304,20.778493881225586,-24.37384033203125,-17.131935119628906,0.07126331329345703,0.07278060913085938,-0.028250157833099365,1.0161365270614624,10.019135475158691,-0.4891601800918579
5_20251106_182911,1762424914581,5,0.5851103663444519,0.6830209493637085,0.28812143206596375,0.32880735397338867,0.9406070709228516,2.1124064922332764,-1.2600446939468384,1.5446728467941284,10.048822402954102,-0.7795641422271729,0.14530180394649506,-0.027240745723247528,0.10995946824550629,20.758140563964844,-24.311965942382812,-17.199176788330078,0.37043988704681396,0.023787498474121094,-0.17149388790130615,1.1742329597473145,10.02503490447998,-0.6080702543258667
5_20251106_182911,1762424914599,5,0.5839909315109253,0.68428635597229,0.2874801754951477,0.32872775197029114,0.9335734844207764,2.1154086589813232,-1.2606769800186157,1.5638256072998047,10.09191608428955,-0.7125294208526611,0.19539271295070648,-0.08099684864282608,0.06964239478111267,20.767803192138672,-24.360992431640625,-17.240291595458984,0.3116741180419922,0.05350494384765625,-0.08356732130050659,1.2521514892578125,10.038411140441895,-0.6289620995521545
5_20251106_182911,1762424914620,5,0.5827776193618774,0.6858401894569397,0.28701135516166687,0.32805171608924866,0.926485538482666,2.119051694869995,-1.262223482131958,1.4632734060287476,10.13261604309082,-0.8813133835792542,0.20333395898342133,-0.012579995207488537,0.000614682212471962,20.740413665771484,-24.41307830810547,-17.215295791625977,0.16889750957489014,0.0753631591796875,-0.20188099145889282,1.2943758964538574,10.057252883911133,-0.6794323921203613
5_20251106_182911,1762424914638,5,0.5815330147743225,0.6869964003562927,0.28743651509284973,0.3274683356285095,0.9210737943649292,2.1220180988311768,-1.264478087425232,1.440529465675354,10.057202339172363,-1.083614706993103,0.15751910209655762,0.09187787026166916,-0.0555848702788353,20.73931312561035,-24.426177978515625,-17.161495208740234,0.11692285537719727,-4.00543212890625e-05,-0.3233458995819092,1.3236066102981567,10.057242393493652,-0.7602688074111938
5_20251106_182911,1762424914658,5,0.5804761648178101,0.6874417066574097,0.28866201639175415,0.327331006526947,0.9155821800231934,2.1250762939453125,-1.2678227424621582,1.3962385654449463,10.033262252807617,-1.0776294469833374,0.15751910209655762,0.09187787026166916,-0.0555848702788353,20.772754669189453,-24.47442626953125,-17.12053108215332,0.05810546875,-0.019184112548828125,-0.2538885474205017,1.3381330966949463,10.052446365356445,-0.8237408995628357
5_20251106_182911,1762424914676,5,0.579694390296936,0.6872683167457581,0.29036784172058105,0.32757166028022766,0.9108619093894958,2.1273107528686523,-1.2710422277450562,1.3280067443847656,9.897994995117188,-0.9698950052261353,0.09826523065567017,0.14563396573066711,-0.09345848113298416,20.766633987426758,-24.563941955566406,-16.960182189941406,-0.00810098648071289,-0.12356090545654297,-0.11692333221435547,1.3361077308654785,10.02155590057373,-0.8529716730117798
5_20251106_182911,1762424914695,5,0.5790616869926453,0.6870434880256653,0.2921764850616455,0.3275541365146637,0.9059256911277771,2.1295342445373535,-1.274525761604309,1.2621691226959229,10.015305519104004,-0.9459540247917175,0.09826523065567017,0.14807742834091187,-0.12461259216070175,20.738737106323242,-24.628311157226562,-16.962482452392578,-0.0591508150100708,-0.005001068115234375,-0.0743858814239502,1.3213199377059937,10.020306587219238,-0.8715681433677673
5_20251106_182911,1762424914715,5,0.5783662796020508,0.6870428323745728,0.2938743829727173,0.3272651135921478,0.9006313681602478,2.1314878463745117,-1.2780680656433105,1.203513741493225,9.931511878967285,-0.8908897638320923,0.1226998120546341,0.10653862357139587,-0.122169129550457,20.735733032226562,-24.667198181152344,-16.841629028320312,-0.09424495697021484,-0.07103633880615234,-0.01545727252960205,1.29775869846344,10.002548217773438,-0.8754324913024902
5_20251106_182911,1762424914736,5,0.577616810798645,0.6874436140060425,0.29518741369247437,0.32656461000442505,0.8950624465942383,2.1333789825439453,-1.2816091775894165,1.211893081665039,9.98537826538086,-0.8777222633361816,0.18745146691799164,0.06683241575956345,-0.08857157081365585,20.827594757080078,-24.74968719482422,-16.74493980407715,-0.06869244575500488,-0.013736724853515625,-0.00183182954788208,1.280585527420044,9.999114990234375,-0.8758904337882996
5_20251106_182911,1762424914753,5,0.5765587687492371,0.6880136728286743,0.2965898811817169,0.32596269249916077,0.8904737234115601,2.1346006393432617,-1.2844942808151245,1.1412670612335205,9.893205642700195,-0.9495452046394348,0.21921643614768982,0.130973219871521,-0.11850395053625107,20.910499572753906,-24.770591735839844,-16.606870651245117,-0.11145472526550293,-0.08472728729248047,-0.05892378091812134,1.2527217864990234,9.977932929992676,-0.8906214237213135
5_20251106_182911,1762424914772,5,0.575224757194519,0.6884797215461731,0.298595666885376,0.3255038261413574,0.8848491311073303,2.135310649871826,-1.2884352207183838,0.9784684181213379,9.763925552368164,-1.2105019092559814,0.2143295258283615,0.23237675428390503,-0.13988421857357025,20.946168899536133,-24.769424438476562,-16.483753204345703,-0.21940279006958008,-0.1712055206298828,-0.2559043765068054,1.197871208190918,9.935131072998047,-0.954597532749176
5_20251106_182911,1762424914792,5,0.5736600160598755,0.688513994216919,0.30135560035705566,0.3256492614746094,0.8781390190124512,2.135096311569214,-1.2940092086791992,0.8408077359199524,9.631052017211914,-1.4918086528778076,0.17217986285686493,0.2952958345413208,-0.11239529401063919,21.05293846130371,-24.801025390625,-16.37200164794922,-0.2856507897377014,-0.24326324462890625,-0.4297689199447632,1.1264585256576538,9.87431526184082,-1.0620397329330444
5_20251106_182911,1762424914811,5,0.5721943974494934,0.6881466507911682,0.30412569642066956,0.326428085565567,0.8721484541893005,2.1345467567443848,-1.2991386651992798,0.8659457564353943,9.702876091003418,-1.3481626510620117,0.12575413286685944,0.273915559053421,-0.04703276604413986,21.146631240844727,-24.834632873535156,-16.13909339904785,-0.20841020345687866,-0.13715076446533203,-0.228898286819458,1.074355959892273,9.84002685546875,-1.1192643642425537
5_20251106_182911,1762424914829,5,0.570759654045105,0.6881020665168762,0.30622899532318115,0.32706698775291443,0.8721484541893005,2.1345467567443848,-1.2991386651992798,0.8659457564353943,9.702876091003418,-1.3481626510620117,0.13003018498420715,0.2543678879737854,-0.020765583962202072,21.23194694519043,-24.817459106445312,-16.040781021118164,-0.20841020345687866,-0.13715076446533203,-0.228898286819458,1.074355959892273,9.84002685546875,-1.1192643642425537
5_20251106_182911,1762424914849,5,0.569332480430603,0.6879379153251648,0.3082079589366913,0.32803934812545776,0.8584978580474854,2.1335391998291016,-1.3103892803192139,1.008394718170166,9.923131942749023,-1.0860087871551514,0.18012107908725739,0.2800242006778717,-0.03848065808415413,21.37518882751465,-24.83519744873047,-15.819164276123047,-0.04221510887145996,0.06678581237792969,0.029902338981628418,1.050609827041626,9.856346130371094,-1.1159111261367798
5_20251106_182911,1762424914868,5,0.5676881670951843,0.6876586675643921,0.31047242879867554,0.329336553812027,0.8520430326461792,2.1330220699310303,-1.3153338432312012,0.9066454172134399,9.78666877746582,-1.138679027557373,0.18012107908725739,0.2800242006778717,-0.03848065808415413,21.493846893310547,-24.866409301757812,-15.666372299194336,-0.11517155170440674,-0.05574226379394531,-0.01821434497833252,1.0218169689178467,9.842411041259766,-1.1204646825790405
5_20251106_182911,1762424914886,5,0.5657690763473511,0.6871476173400879,0.31337419152259827,0.3309533894062042,0.8456258773803711,2.131930112838745,-1.319937825202942,0.7749700546264648,9.587959289550781,-1.1829698085784912,0.24304015934467316,0.4345729947090149,-0.053141411393880844,21.600629806518555,-24.886398315429688,-15.459742546081543,-0.1974775195121765,-0.20356178283691406,-0.05000412464141846,0.9724475741386414,9.791521072387695,-1.1329656839370728
5_20251106_182911,1762424914906,5,0.5634070038795471,0.6865870952606201,0.3167983293533325,0.33288058638572693,0.8384881615638733,2.1292881965637207,-1.3258970975875854,0.7163146138191223,9.227646827697754,-1.6222869157791138,0.24914883077144623,0.5323113203048706,-0.04886535927653313,21.779117584228516,-24.926734924316406,-15.250697135925293,-0.2049064040184021,-0.4510993957519531,-0.3914569616317749,0.9212210178375244,9.678746223449707,-1.2308299541473389
5_20251106_182911,1762424914924,5,0.560754656791687,0.6857877969741821,0.3207598328590393,0.3352050185203552,0.8306360840797424,2.1245028972625732,-1.3327769041061401,0.5307719707489014,8.84937858581543,-1.674957036972046,0.18622975051403046,0.5652980208396912,-0.050087086856365204,21.981386184692383,-24.966293334960938,-14.959573745727539,-0.3123592138290405,-0.6634941101074219,-0.3553016185760498,0.8431311845779419,9.512872695922852,-1.319655418395996
5_20251106_182911,1762424914943,5,0.5580072402954102,0.685073971748352,0.3247290253639221,0.33742058277130127,0.8212719559669495,2.116553544998169,-1.3397259712219238,0.1489132046699524,8.272401809692383,-1.470261573791504,0.12025634944438934,0.6343257427215576,-0.05863919109106064,22.12534523010254,-24.959861755371094,-14.642814636230469,-0.5553743839263916,-0.9923763275146484,-0.12048482894897461,0.704287588596344,9.264778137207031,-1.3497767448425293
5_20251106_182911,1762424914963,5,0.5555245280265808,0.6838041543960571,0.3290010690689087,0.33994513750076294,0.8086838126182556,2.103785991668701,-1.3466664552688599,-0.3562416434288025,7.679861545562744,-1.3469655513763428,0.07566323131322861,0.7748246192932129,-0.08001945912837982,22.307161331176758,-24.93768310546875,-14.405417442321777,-0.8484233617782593,-1.2679333686828613,0.002249002456665039,0.4921817481517792,8.947794914245605,-1.3492145538330078
5_20251106_182911,1762424914984,5,0.5529438853263855,0.6814653873443604,0.3338526487350464,0.34409359097480774,0.7933695912361145,2.086515188217163,-1.3525760173797607,-0.9487811326980591,6.852700233459473,-1.2200783491134644,0.037178754806518555,0.9360929131507874,-0.13927336037158966,22.486169815063477,-24.954116821289062,-14.074197769165039,-1.1527702808380127,-1.6760759353637695,0.1033090353012085,0.203989177942276,8.528776168823242,-1.3233873844146729
5_20251106_182911,1762424915001,5,0.5502977967262268,0.6781157851219177,0.33987340331077576,0.3490234613418579,0.773888111114502,2.0632596015930176,-1.3583499193191528,-1.593990683555603,6.032721519470215,-1.3816800117492676,0.016409356147050858,1.1584476232528687,-0.11300615221261978,22.486169815063477,-24.954116821289062,-14.074197769165039,-1.438383936882019,-1.9968433380126953,-0.04663407802581787,-0.15560677647590637,8.02956485748291,-1.3350459337234497
5_20251106_182911,1762424915021,5,0.547013521194458,0.6739392280578613,0.346787691116333,0.3554159104824066,0.7500451803207397,2.032932758331299,-1.3651388883590698,-2.1003425121307373,5.028397083282471,-1.8102238178253174,-0.004360046237707138,1.2916162014007568,0.051316455006599426,22.700735092163086,-24.98113250732422,-13.70122241973877,-1.5557886362075806,-2.4009346961975098,-0.3801422119140625,-0.5445538759231567,7.4293317794799805,-1.4300816059112549
5_20251106_182911,1762424915039,5,0.5428317785263062,0.6696844100952148,0.35328492522239685,0.36338162422180176,0.7227055430412292,1.9949110746383667,-1.374174952507019,-2.2535648345947266,4.071954727172852,-2.3728368282318115,-0.108817920088768,1.2806205749511719,0.43493953347206116,22.98882484436035,-24.991226196289062,-13.284491539001465,-1.36720871925354,-2.685901641845703,-0.754204273223877,-0.8863560557365417,6.757856369018555,-1.6186325550079346
5_20251106_182911,1762424915059,5,0.5379380583763123,0.666215181350708,0.35689714550971985,0.3733689785003662,0.6924504637718201,1.9467628002166748,-1.3853764533996582,-1.8453710079193115,3.4267451763153076,-2.3309402465820312,-0.2835251986980438,1.0704830884933472,0.9358485341072083,23.300792694091797,-25.000404357910156,-12.799198150634766,-0.7672119140625,-2.664889097213745,-0.5698461532592773,-1.0781590938568115,6.091634273529053,-1.761094093322754
5_20251106_182911,1762424915078,5,0.5329301953315735,0.6643213629722595,0.3555888533592224,0.3849922716617584,0.6653622984886169,1.8964836597442627,-1.3943265676498413,-0.9990571737289429,3.6039085388183594,-1.3385863304138184,-0.2835251986980438,1.0704830884933472,0.9358485341072083,23.43328285217285,-24.970596313476562,-12.387787818908691,0.06328153610229492,-1.9901809692382812,0.33800625801086426,-1.0623387098312378,5.594089508056641,-1.6765925884246826
5_20251106_182911,1762424915097,5,0.5278745889663696,0.6640266180038452,0.3494713008403778,0.3978528380393982,0.6423178911209106,1.844772219657898,-1.3995832204818726,-0.08211735635995865,4.15574836730957,-0.49346932768821716,-0.46617376804351807,0.8285807371139526,1.6395647525787354,23.53354835510254,-25.080642700195312,-11.966745376586914,0.7841770648956299,-1.1506729125976562,0.9464986324310303,-0.8662944436073303,5.306421279907227,-1.4399679899215698
5_20251106_182911,1762424915116,5,0.521909236907959,0.6639955043792725,0.34157228469848633,0.41237005591392517,0.6255574822425842,1.7966276407241821,-1.4017653465270996,0.7498319745063782,4.6549177169799805,-0.40488770604133606,-0.38981565833091736,0.8823368549346924,1.652392864227295,23.571462631225586,-25.23138427734375,-11.643560409545898,1.2929010391235352,-0.5212030410766602,0.8280643224716187,-0.5430691242218018,5.176120758056641,-1.2329519987106323
5_20251106_182911,1762424915134,5,0.5150490403175354,0.6638108491897583,0.3340129852294922,0.4272176921367645,0.6138248443603516,1.7475992441177368,-1.4017868041992188,1.306459903717041,4.902707099914551,-0.4431932866573334,-0.3006294369697571,0.9318168759346008,1.5106723308563232,23.407943725585938,-25.51959991455078,-11.411958694458008,1.4796233177185059,-0.21873092651367188,0.6318069696426392,-0.17316335439682007,5.121438026428223,-1.075000286102295
5_20251106_182911,1762424915153,5,0.5078446865081787,0.6632365584373474,0.3277483582496643,0.44135257601737976,0.6069649457931519,1.7004878520965576,-1.4008816480636597,1.3890564441680908,4.926648139953613,-0.737667441368103,-0.3006294369697571,0.9318168759346008,1.5106723308563232,23.180280685424805,-25.862548828125,-11.129800796508789,1.2497758865356445,-0.15583181381225586,0.26986634731292725,0.13928057253360748,5.082479953765869,-1.0075337886810303
5_20251106_182911,1762424915174,5,0.5012348890304565,0.661518394947052,0.3225862979888916,0.45507699251174927,0.6069649457931519,1.7004878520965576,-1.4008816480636597,1.3890564441680908,4.926648139953613,-0.737667441368103,-0.5327579975128174,1.1388999223709106,1.2437243461608887,22.843721389770508,-26.223182678222656,-11.055065155029297,1.2497758865356445,-0.15583181381225586,0.26986634731292725,0.13928057253360748,5.082479953765869,-1.0075337886810303
5_20251106_182911,1762424915192,5,0.49570661783218384,0.6578863859176636,0.3176976144313812,0.46960482001304626,0.6050968766212463,1.6132781505584717,-1.395276427268982,1.8894230127334595,5.696350574493408,-0.33067065477371216,-0.8461316823959351,1.394241452217102,1.249833106994629,22.359235763549805,-26.607254028320312,-10.851316452026367,1.2014906406402588,0.4558892250061035,0.4770522713661194,0.6879324316978455,5.240461349487305,-0.8077229261398315
5_20251106_182911,1762424915211,5,0.4913668930530548,0.6514880657196045,0.31232330203056335,0.4863908588886261,0.6106933355331421,1.577620506286621,-1.3898974657058716,2.297616958618164,6.251781463623047,-0.05774339288473129,-1.0446627140045166,1.468156099319458,1.2370048761367798,21.793453216552734,-26.945037841796875,-10.812139511108398,1.2877476215362549,0.809056282043457,0.5999836921691895,1.0098693370819092,5.44272518157959,-0.657727062702179
5_20251106_182911,1762424915231,5,0.48775574564933777,0.6434084177017212,0.30648669600486755,0.5041684508323669,0.6188434958457947,1.5449572801589966,-1.3810023069381714,1.8499202728271484,6.42774772644043,0.4988845884799957,-0.9933500289916992,1.3441505432128906,1.0720713138580322,21.232696533203125,-27.419349670410156,-10.856473922729492,0.6720407009124756,0.788017749786377,0.9252892732620239,1.1778795719146729,5.639729976654053,-0.4264047145843506
5_20251106_182911,1762424915251,5,0.48487523198127747,0.6354494690895081,0.3011213541030884,0.5200248956680298,0.6258344054222107,1.513768196105957,-1.366915225982666,0.9305864572525024,5.587419033050537,1.4277949333190918,-0.909050703048706,1.2787879705429077,0.9389028549194336,20.703136444091797,-27.790000915527344,-11.059910774230957,-0.19783449172973633,-0.04184865951538086,1.4833598136901855,1.1284209489822388,5.629267692565918,-0.055564820766448975
5_20251106_182911,1762424915269,5,0.48235344886779785,0.6275172829627991,0.2966075837612152,0.5343979597091675,0.6312474608421326,1.4866611957550049,-1.3505439758300781,1.022759199142456,4.754272937774658,2.2190446853637695,-0.909050703048706,1.2787879705429077,0.9389028549194336,20.201993942260742,-28.072372436523438,-11.138872146606445,-0.08452939987182617,-0.6999955177307129,1.8196876049041748,1.1072885990142822,5.454268455505371,0.39935705065727234
5_20251106_182911,1762424915288,5,0.47806039452552795,0.6181578040122986,0.2902378439903259,0.5523596405982971,0.6453192234039307,1.4604307413101196,-1.3250991106033325,3.746046543121338,6.791650772094727,2.7505345344543457,-1.5571781396865845,1.8786572217941284,2.2571489810943604,19.71474266052246,-28.32843017578125,-11.257364273071289,2.111006259918213,1.0699057579040527,1.8809419870376587,1.6350401639938354,5.721745014190674,0.869592547416687
5_20251106_182911,1762424915307,5,0.4703735411167145,0.6067603230476379,0.2770534157752991,0.5777820348739624,0.6776316165924072,1.4504951238632202,-1.28994882106781,9.871347427368164,10.794584274291992,6.309362411499023,-2.066028356552124,1.588496446609497,3.2882885932922363,19.19605255126953,-28.51031494140625,-11.497390747070312,6.589046001434326,4.058271408081055,4.351816177368164,3.282301425933838,6.7363128662109375,1.9575464725494385
5_20251106_182911,1762424915326,5,0.459766149520874,0.5966714024543762,0.253414124250412,0.6069428324699402,0.7520356178283691,1.464127779006958,-1.22574782371521,16.537715911865234,14.67063045501709,10.871316909790039,-2.066028356552124,1.588496446609497,3.2882885932922363,18.528818130493164,-28.73967742919922,-11.717061996459961,10.604331970214844,6.347454071044922,7.131016731262207,5.933383941650391,8.323176383972168,3.740300416946411
5_20251106_182911,1762424915344,5,0.445969820022583,0.5906919240951538,0.22462597489356995,0.6338273882865906,0.8513429164886475,1.4986854791641235,-1.1481854915618896,20.42812728881836,17.62375259399414,12.947000503540039,-1.0073999166488647,0.5243700742721558,3.250415086746216,17.686216354370117,-29.091018676757812,-12.162235260009766,11.595794677734375,7.440461158752441,7.365360260009766,8.832332611083984,10.1832914352417,5.581640243530273
5_20251106_182911,1762424915364,5,0.42996883392333984,0.5888538360595703,0.2016766220331192,0.6539912223815918,0.9928486347198486,1.5600273609161377,-1.0522348880767822,20.89856719970703,18.362329483032227,10.212940216064453,0.03656788170337677,0.5457503795623779,1.929114580154419,16.631715774536133,-29.543487548828125,-12.644625663757324,9.65298843383789,6.543231010437012,3.7050399780273438,11.24557876586914,11.819098472595215,6.507900238037109
5_20251106_182911,1762424915382,5,0.4158681035041809,0.5880302786827087,0.19260457158088684,0.6664665341377258,0.9928486347198486,1.5600273609161377,-1.0522348880767822,20.89856719970703,18.362329483032227,10.212940216064453,0.37743043899536133,0.7167924642562866,0.4483785331249237,15.643909454345703,-29.8681640625,-12.946213722229004,9.65298843383789,6.543231010437012,3.7050399780273438,11.24557876586914,11.819098472595215,6.507900238037109
5_20251106_182911,1762424915404,5,0.40905702114105225,0.585303544998169,0.19453629851341248,0.6724936962127686,1.305503010749817,1.704456090927124,-0.8887819051742554,15.113227844238281,13.991903305053711,2.7541255950927734,0.08177188038825989,0.7082403898239136,-0.541222333908081,14.691164016723633,-30.20409393310547,-13.138463973999023,1.9284839630126953,1.0107946395874023,-2.9162850379943848,13.184743881225586,12.981108665466309,5.670410633087158
5_20251106_182911,1762424915422,5,0.4103606045246124,0.5803754329681396,0.20001095533370972,0.674362063407898,1.4286562204360962,1.7602258920669556,-0.8372700214385986,11.874011993408203,11.779756546020508,1.9365408420562744,0.08177188038825989,0.7082403898239136,-0.541222333908081,13.810929298400879,-30.547683715820312,-13.341550827026367,-1.0485858917236328,-0.9610815048217773,-2.987096071243286,12.922597885131836,12.740838050842285,4.9236369132995605
5_20251106_182911,1762424915441,5,0.4168994724750519,0.5752429962158203,0.20467275381088257,0.6733493804931641,1.5557849407196045,1.8148971796035767,-0.7894482612609863,9.464351654052734,10.221197128295898,1.7162837982177734,-0.29146644473075867,0.17617720365524292,-0.9230127930641174,13.810929298400879,-30.547683715820312,-13.341550827026367,-2.766596794128418,-2.0157127380371094,-2.565882682800293,12.230948448181152,12.236909866333008,4.282166481018066
5_20251106_182911,1762424915460,5,0.4239768981933594,0.5718396306037903,0.20799283683300018,0.6708069443702698,1.65830397605896,1.8570425510406494,-0.7530136108398438,7.778905868530273,9.614294052124023,1.8312004804611206,-0.29146644473075867,0.17617720365524292,-0.9230127930641174,13.229207038879395,-30.759597778320312,-13.489943504333496,-3.561634063720703,-2.098093032836914,-1.9607728719711304,11.340539932250977,11.712387084960938,3.791973352432251
5_20251106_182911,1762424915480,5,0.4291132986545563,0.571466863155365,0.21037420630455017,0.6671057343482971,1.742926836013794,1.8915444612503052,-0.7230774164199829,6.685999870300293,9.694496154785156,2.087369203567505,0.04817432165145874,-0.21477621793746948,-0.45875558257102966,12.761994361877441,-30.876602172851562,-13.618557929992676,-3.7236328125,-1.6143131256103516,-1.3636832237243652,10.409632682800293,11.308809280395508,3.45105242729187
5_20251106_182911,1762424915499,5,0.4323272109031677,0.5724931955337524,0.21203716099262238,0.6636150479316711,1.742926836013794,1.8915444612503052,-0.7230774164199829,6.685999870300293,9.694496154785156,2.087369203567505,0.04817432165145874,-0.21477621793746948,-0.45875558257102966,12.588668823242188,-30.937820434570312,-13.639996528625488,-3.7236328125,-1.6143131256103516,-1.3636832237243652,10.409632682800293,11.308809280395508,3.45105242729187
5_20251106_182911,1762424915517,5,0.4339126944541931,0.5733391642570496,0.2130754142999649,0.6615140438079834,1.866602897644043,1.9439213275909424,-0.6716030836105347,6.674029350280762,10.006925582885742,3.5046756267547607,0.23632065951824188,-0.018688643351197243,0.0684206634759903,12.593306541442871,-30.850326538085938,-13.597599983215332,-2.336200714111328,-0.8196077346801758,0.12337923049926758,9.01023006439209,10.826533317565918,3.381296396255493
5_20251106_182911,1762424915536,5,0.4323424696922302,0.5745397806167603,0.2142431139945984,0.6611232161521912,1.9190964698791504,1.9668071269989014,-0.6451398730278015,7.283327579498291,10.218803405761719,3.5884690284729004,0.5741288661956787,-0.14452676475048065,0.3982876241207123,12.852750778198242,-30.759246826171875,-13.491103172302246,-1.3815217018127441,-0.48618412017822266,0.16573810577392578,8.664849281311035,10.704987525939941,3.4227309226989746
5_20251106_182911,1762424915555,5,0.4274044334888458,0.5785859823226929,0.21488414704799652,0.6605970859527588,1.9648984670639038,1.988200068473816,-0.620322585105896,8.091336250305176,10.974142074584961,3.7632384300231934,0.8313028812408447,-0.3161797523498535,0.6090359687805176,13.126087188720703,-30.64185333251953,-13.424137115478516,-0.45881080627441406,0.21532344818115234,0.27240610122680664,8.55014705657959,10.758818626403809,3.4908323287963867
5_20251106_182911,1762424915574,5,0.420072466135025,0.585161030292511,0.2151605486869812,0.6594176292419434,2.0085506439208984,2.009783983230591,-0.5954470634460449,8.601279258728027,11.218339920043945,3.9643425941467285,0.8313028812408447,-0.3161797523498535,0.6090359687805176,13.309088706970215,-30.618057250976562,-13.348934173583984,0.04090595245361328,0.3676176071166992,0.37880802154541016,8.560373306274414,10.850722312927246,3.5855345726013184
5_20251106_182911,1762424915593,5,0.4120386838912964,0.59250408411026,0.21673765778541565,0.6574099063873291,2.0500898361206055,2.0312252044677734,-0.5715281367301941,8.585718154907227,11.192005157470703,3.690218448638916,1.1929347515106201,-0.302129864692688,0.3396446108818054,13.439834594726562,-30.648605346679688,-13.182136535644531,0.02027606964111328,0.2730255126953125,0.08374691009521484,8.565442085266113,10.91897964477539,3.606471538543701
5_20251106_182911,1762424915612,5,0.40395358204841614,0.5995389819145203,0.22097055613994598,0.6546346545219421,2.0888094902038574,2.0521397590637207,-0.5493307113647461,8.29483413696289,11.117788314819336,3.4148969650268555,1.2918949127197266,-0.28319305181503296,0.17287851870059967,13.295563697814941,-30.798843383789062,-12.852527618408203,-0.21648597717285156,0.15904712677001953,-0.1532597541809082,8.511320114135742,10.958741188049316,3.5681567192077637
5_20251106_182911,1762424915632,5,0.39641621708869934,0.6064440608024597,0.22666242718696594,0.6509254574775696,2.125786542892456,2.0721514225006104,-0.5280286073684692,7.938113689422607,10.661711692810059,3.2736449241638184,1.3651986122131348,-0.2954103648662567,0.07147499173879623,13.092594146728516,-31.1165771484375,-12.420183181762695,-0.45856523513793945,-0.2376241683959961,-0.2356092929840088,8.396678924560547,10.899335861206055,3.509254217147827
5_20251106_182911,1762424915651,5,0.38898181915283203,0.6133282780647278,0.23342320322990417,0.6465563774108887,2.156691789627075,2.0879900455474854,-0.5093053579330444,7.4975996017456055,10.089523315429688,3.32631516456604,1.5240235328674316,-0.26792144775390625,0.029325325042009354,12.804632186889648,-31.42784881591797,-11.936941146850586,-0.719264030456543,-0.6478500366210938,-0.14635109901428223,8.216863632202148,10.737373352050781,3.4726662635803223
5_20251106_182911,1762424915670,5,0.38072651624679565,0.620366632938385,0.24147538840770721,0.6417804956436157,2.1834774017333984,2.0999488830566406,-0.49286895990371704,7.278539657592773,9.611898422241211,2.980368137359619,1.7158350944519043,-0.1158161386847496,0.045818671584129333,12.583963394165039,-31.823471069335938,-11.330958366394043,-0.7506589889526367,-0.9003801345825195,-0.39383864402770996,8.02919864654541,10.51227855682373,3.374206781387329
5_20251106_182911,1762424915690,5,0.3708593547344208,0.6270048022270203,0.25102946162223816,0.637426495552063,2.2078425884246826,2.10713267326355,-0.47907090187072754,7.233051300048828,8.941551208496094,2.5063366889953613,1.7158350944519043,-0.1158161386847496,0.045818671584129333,12.387606620788574,-32.18280029296875,-10.425844192504883,-0.6369180679321289,-1.256582260131836,-0.6942958831787109,7.869969367980957,10.19813346862793,3.2006325721740723
5_20251106_182911,1762424915709,5,0.35933423042297363,0.6332541704177856,0.2617960274219513,0.6335068345069885,2.2286431789398193,2.1072161197662354,-0.4715346395969391,7.436550140380859,7.86540412902832,1.408642053604126,2.046923875808716,0.21466168761253357,0.02382754161953926,12.150672912597656,-32.60797119140625,-9.455940246582031,-0.34673547744750977,-1.8661842346191406,-1.4335925579071045,7.783285617828369,9.731588363647461,2.8422346115112305
5_20251106_182911,1762424915727,5,0.34635812044143677,0.638599157333374,0.2745237350463867,0.6299713850021362,2.246657133102417,2.100266933441162,-0.47165417671203613,7.496402263641357,6.879034996032715,0.039217621088027954,2.046923875808716,0.21466168761253357,0.02382754161953926,11.925642013549805,-33.021141052246094,-8.350119590759277,-0.2295069694519043,-2.2820425033569336,-2.2424135208129883,7.725909233093262,9.161077499389648,2.2816312313079834
5_20251106_182911,1762424915746,5,0.3337790369987488,0.6425679922103882,0.28772881627082825,0.6268253922462463,2.263707160949707,2.0846104621887207,-0.4787309467792511,7.356347560882568,5.994416236877441,-0.25405949354171753,1.7390477657318115,0.46389448642730713,-0.2351791113615036,11.701638221740723,-33.39811706542969,-7.094827651977539,-0.29564905166625977,-2.5333290100097656,-2.028552532196045,7.651996612548828,8.527745246887207,1.7744930982589722
5_20251106_182911,1762424915764,5,0.3231532871723175,0.6448015570640564,0.30050399899482727,0.6240995526313782,2.2784128189086914,2.061552047729492,-0.49034571647644043,7.392259120941162,4.885948181152344,-0.35580867528915405,1.5490689277648926,0.5872891545295715,-0.3640715181827545,11.723779678344727,-33.70951843261719,-5.774605751037598,-0.20778989791870117,-2.913437843322754,-1.7042415142059326,7.600049018859863,7.799386024475098,1.3484327793121338
5_20251106_182911,1762424915784,5,0.31381839513778687,0.6451734304428101,0.31329283118247986,0.6221871972084045,2.2942206859588623,2.025783061981201,-0.510126531124115,7.693915367126465,4.039634704589844,-1.1255114078521729,1.5319647789001465,0.5842348337173462,-0.39400389790534973,11.774435997009277,-33.93251037597656,-4.343425750732422,0.07509279251098633,-3.007801055908203,-1.9791553020477295,7.6188225746154785,7.047435760498047,0.8536439538002014
5_20251106_182911,1762424915804,5,0.3044884204864502,0.6452688574790955,0.3260588049888611,0.6201617121696472,2.2942206859588623,2.025783061981201,-0.510126531124115,7.693915367126465,4.039634704589844,-1.1255114078521729,1.5545666217803955,0.3417215347290039,-0.3494108021259308,11.86015510559082,-34.16675567626953,-2.802907943725586,0.07509279251098633,-3.007801055908203,-1.9791553020477295,7.6188225746154785,7.047435760498047,0.8536439538002014
5_20251106_182911,1762424915823,5,0.2952645719051361,0.6470004320144653,0.3378324508666992,0.6165050864219666,2.312354803085327,1.974504828453064,-0.5418688058853149,8.057818412780762,3.2687346935272217,-2.1561708450317383,1.5545666217803955,0.3417215347290039,-0.3494108021259308,11.86015510559082,-34.16675567626953,-2.802907943725586,0.3511967658996582,-3.022960901260376,-2.4078519344329834,7.7066216468811035,6.291695594787598,0.25168099999427795
5_20251106_182911,1762424915843,5,0.287397563457489,0.6503761410713196,0.3473834693431854,0.6113413572311401,2.3437438011169434,1.8698253631591797,-0.6100351214408875,7.9656453132629395,2.7815356254577637,-2.2890431880950928,1.101915955543518,-0.07549906522035599,-0.3542977273464203,12.06519603729248,-34.28056335449219,0.056232452392578125,0.12306451797485352,-2.262399196624756,-1.6113159656524658,7.842580795288086,5.0439348220825195,-0.6777272820472717
5_20251106_182911,1762424915861,5,0.2821519076824188,0.6533808708190918,0.35495731234550476,0.6062087416648865,2.3572118282318115,1.8128857612609863,-0.6479297876358032,7.498796463012695,2.464317560195923,-2.602670192718506,0.732953667640686,0.012465458363294601,-0.49113139510154724,12.25512409210205,-34.193572998046875,1.431070327758789,-0.2750272750854492,-2.0636942386627197,-1.539954423904419,7.7738237380981445,4.528011798858643,-1.062715768814087
5_20251106_182911,1762424915881,5,0.2795006036758423,0.6542116403579712,0.3616674244403839,0.6025638580322266,2.3696675300598145,1.7473243474960327,-0.6927748918533325,7.194746017456055,2.732456684112549,-2.6565375328063965,0.281524658203125,-0.17201568186283112,-0.5302267670631409,12.25512409210205,-34.193572998046875,1.431070327758789,-0.46326208114624023,-1.4364442825317383,-1.2750574350357056,7.658008098602295,4.168900966644287,-1.381480097770691
5_20251106_182911,1762424915899,5,0.280521422624588,0.654767632484436,0.36555421352386475,0.5991303324699402,2.3696675300598145,1.7473243474960327,-0.6927748918533325,7.194746017456055,2.732456684112549,-2.6565375328063965,-0.15157844126224518,-0.6961376070976257,-0.4673076570034027,12.498717308044434,-34.02711486816406,2.7148399353027344,-0.46326208114624023,-1.4364442825317383,-1.2750574350357056,7.658008098602295,4.168900966644287,-1.381480097770691
5_20251106_182911,1762424915919,5,0.28578704595565796,0.6573360562324524,0.3651716411113739,0.5940410494804382,2.3855016231536865,1.626320242881775,-0.7718761563301086,6.557915687561035,3.6493964195251465,-1.0429151058197021,-0.26153409481048584,-1.2025445699691772,-0.35063251852989197,12.756261825561523,-33.869049072265625,3.660928726196289,-0.7741584777832031,-0.2853670120239258,0.2990386486053467,7.332074165344238,3.9347634315490723,-1.3419537544250488
5_20251106_182911,1762424915938,5,0.2928847372531891,0.6625435948371887,0.36209988594055176,0.5866329669952393,2.3880090713500977,1.5693120956420898,-0.8067834973335266,6.047972679138184,3.7140371799468994,-0.9208160042762756,-0.11248309910297394,-1.6063259840011597,-0.19241859018802643,12.937122344970703,-33.600433349609375,4.295085906982422,-1.0272808074951172,-0.17658090591430664,0.3369101881980896,7.075253486633301,3.890618085861206,-1.2577261924743652
5_20251106_182911,1762424915957,5,0.2995661199092865,0.6706928610801697,0.3577525317668915,0.5765798687934875,2.3866543769836426,1.518227219581604,-0.8382813334465027,5.6086554527282715,3.9809792041778564,-1.2907042503356934,-0.07583121955394745,-1.8274590969085693,-0.007326559163630009,13.139101028442383,-33.41583251953125,4.698600769042969,-1.1732783317565918,0.07228899002075195,-0.0263824462890625,6.781933784484863,3.9086902141571045,-1.2643218040466309
5_20251106_182911,1762424915975,5,0.30580398440361023,0.6805813312530518,0.35169315338134766,0.5653361082077026,2.3813347816467285,1.467691421508789,-0.8705137968063354,5.338122367858887,4.160536289215088,-1.500187873840332,-0.23648862540721893,-1.9239758253097534,0.10323996096849442,13.27336597442627,-33.170654296875,4.843683242797852,-1.1550493240356445,0.20147705078125,-0.18869280815124512,6.493171691894531,3.959059238433838,-1.311495065689087
5_20251106_182911,1762424915994,5,0.31267330050468445,0.6906117796897888,0.34387385845184326,0.5541132688522339,2.372497797012329,1.419956088066101,-0.9015077948570251,5.114274024963379,4.0587873458862305,-1.4475177526474,-0.23648862540721893,-1.9239758253097534,0.10323996096849442,13.45344352722168,-32.984275817871094,4.9083099365234375,-1.1031184196472168,0.07978248596191406,-0.10881805419921875,6.217392444610596,3.9790048599243164,-1.3386996984481812
5_20251106_182911,1762424916015,5,0.3208024799823761,0.6996931433677673,0.3349873721599579,0.5434139966964722,2.357808828353882,1.3707553148269653,-0.934135377407074,4.6031341552734375,4.25390625,-1.3637242317199707,-0.4399065673351288,-1.90626060962677,0.09774217754602432,13.509283065795898,-32.90184783935547,4.51988410949707,-1.2914066314697266,0.21992111206054688,-0.02001953125,5.894540786743164,4.033985137939453,-1.3437047004699707
5_20251106_182911,1762424916032,5,0.33014243841171265,0.7068440914154053,0.3259961009025574,0.5339512825012207,2.357808828353882,1.3707553148269653,-0.934135377407074,4.6031341552734375,4.25390625,-1.3637242317199707,-0.8394121527671814,-1.6619147062301636,-0.10384318977594376,13.542036056518555,-32.81925964355469,3.9547653198242188,-1.2914066314697266,0.21992111206054688,-0.02001953125,5.894540786743164,4.033985137939453,-1.3437047004699707
5_20251106_182911,1762424916051,5,0.3410675525665283,0.7122536897659302,0.31710147857666016,0.5251802206039429,2.31876802444458,1.2928874492645264,-0.983117938041687,3.0517578125,3.984570026397705,-0.726893961429596,-0.8394121527671814,-1.6619147062301636,-0.10384318977594376,13.563788414001465,-32.73584747314453,3.226961135864258,-1.9484710693359375,-0.05594968795776367,0.44015103578567505,5.0002288818359375,4.040519714355469,-1.167044997215271
5_20251106_182911,1762424916071,5,0.3525165319442749,0.7155835032463074,0.30884575843811035,0.5179639458656311,2.2868828773498535,1.252274513244629,-1.0048383474349976,2.169532537460327,3.864865303039551,-0.27800047397613525,-1.0159521102905273,-1.1939923763275146,-0.23151393234729767,13.552593231201172,-32.60350799560547,2.3906116485595703,-2.264557123184204,-0.14052343368530273,0.7112356424331665,4.434089660644531,4.0053887367248535,-0.9892361164093018
5_20251106_182911,1762424916092,5,0.3638414740562439,0.7171616554260254,0.3015500605106354,0.5122168660163879,2.2868828773498535,1.252274513244629,-1.0048383474349976,2.169532537460327,3.864865303039551,-0.27800047397613525,-1.0159521102905273,-1.1939923763275146,-0.23151393234729767,13.440978050231934,-32.53949737548828,1.4679203033447266,-2.264557123184204,-0.14052343368530273,0.7112356424331665,4.434089660644531,4.0053887367248535,-0.9892361164093018
5_20251106_182911,1762424916110,5,0.37435203790664673,0.7173792719841003,0.2949554920196533,0.5081621408462524,2.2037270069122314,1.179809808731079,-1.0363750457763672,0.4409932494163513,4.055196285247803,-0.12717224657535553,-0.9799110293388367,-0.6460467576980591,-0.10995183140039444,13.36339282989502,-32.30998229980469,0.4820594787597656,-2.6718392372131348,0.06175518035888672,0.5478903651237488,3.112832546234131,3.993441104888916,-0.6750625967979431
5_20251106_182911,1762424916131,5,0.383563369512558,0.7164580821990967,0.28882890939712524,0.5061075091362,2.1460819244384766,1.1449979543685913,-1.0505582094192505,-0.01627963036298752,4.589079856872559,-0.4060847759246826,-1.0263367891311646,-0.4298005998134613,0.016497164964675903,13.271210670471191,-32.11933898925781,-0.4645347595214844,-2.5032899379730225,0.47651100158691406,0.21518224477767944,2.4870102405548096,4.1125688552856445,-0.6212670207023621
5_20251106_182911,1762424916149,5,0.3919476270675659,0.7145646810531616,0.282462477684021,0.505953848361969,2.0918493270874023,1.119481086730957,-1.0598266124725342,-0.47474950551986694,5.261821746826172,0.3049625754356384,-1.0263367891311646,-0.4298005998134613,0.016497164964675903,13.167237281799316,-31.92894744873047,-1.465683937072754,-2.369407892227173,0.9194025993347168,0.7409837245941162,1.8946583271026611,4.342419147491455,-0.4360211193561554
5_20251106_182911,1762424916166,5,0.40048834681510925,0.7115935683250427,0.27553999423980713,0.5072686076164246,2.033409357070923,1.0989630222320557,-1.0656721591949463,-0.9152637124061584,5.854361057281494,0.7658266425132751,-1.1979897022247314,0.017963243648409843,0.14294613897800446,13.01865005493164,-31.666526794433594,-2.453695297241211,-2.2479376792907715,1.2095537185668945,0.9614782333374023,1.3326739072799683,4.6448073387146,-0.195651575922966
5_20251106_182911,1762424916186,5,0.4084024429321289,0.7069000601768494,0.26930105686187744,0.5108587741851807,1.9679169654846191,1.0823272466659546,-1.0683180093765259,-1.178614616394043,6.08060359954834,0.9765072464942932,-1.1863832473754883,0.3466084599494934,0.12278763204813004,12.859695434570312,-31.367630004882812,-3.4008560180664062,-2.009030818939209,1.148637294769287,0.9377270936965942,0.830416202545166,4.931966304779053,0.03878018260002136
5_20251106_182911,1762424916204,5,0.41567811369895935,0.7004408836364746,0.26445484161376953,0.5163892507553101,1.898669958114624,1.0694217681884766,-1.069175124168396,-1.7316513061523438,5.988430976867676,0.6425305008888245,-1.269460916519165,0.4895508289337158,0.16860246658325195,12.741119384765625,-31.00316619873047,-4.385774612426758,-2.049654006958008,0.8451719284057617,0.4830002784729004,0.31800273060798645,5.143259048461914,0.15953023731708527
5_20251106_182911,1762424916223,5,0.42290017008781433,0.6928995251655579,0.259491503238678,0.5231728553771973,1.8271830081939697,1.0602061748504639,-1.0686215162277222,-1.7603806257247925,6.252978324890137,0.6580921411514282,-1.4460008144378662,0.27819162607192993,0.48197612166404724,12.620652198791504,-30.652877807617188,-5.208762168884277,-1.662706732749939,0.8877754211425781,0.3988495171070099,-0.0976739227771759,5.365202903747559,0.25924262404441833
5_20251106_182911,1762424916243,5,0.43022438883781433,0.6864176392555237,0.2507006824016571,0.5299876928329468,1.8271830081939697,1.0602061748504639,-1.0686215162277222,-1.7603806257247925,6.252978324890137,0.6580921411514282,-1.5028111934661865,-0.12436823546886444,0.9670026898384094,12.464629173278809,-30.292007446289062,-6.073505401611328,-1.662706732749939,0.8877754211425781,0.3988495171070099,-0.0976739227771759,5.365202903747559,0.25924262404441833
5_20251106_182911,1762424916263,5,0.43627819418907166,0.6826959848403931,0.23685993254184723,0.5361762046813965,1.7449322938919067,1.0554041862487793,-1.0663340091705322,-1.0804564952850342,6.815591812133789,0.7155504822731018,-1.5028111934661865,-0.12436823546886444,0.9670026898384094,12.464629173278809,-30.292007446289062,-6.073505401611328,-0.7862260341644287,1.160311222076416,0.36504629254341125,-0.2942304313182831,5.655280590057373,0.35050418972969055
5_20251106_182911,1762424916282,5,0.44141122698783875,0.6801707148551941,0.21996945142745972,0.542344331741333,1.6770591735839844,1.0568186044692993,-1.059573769569397,-0.43644392490386963,7.606841564178467,2.130462884902954,-1.5999386310577393,0.12364283949136734,1.130103588104248,12.196210861206055,-29.988380432128906,-6.9572343826293945,-0.11377078294754028,1.5612483024597168,1.4239670038223267,-0.32267314195632935,6.04559326171875,0.7064958810806274
5_20251106_182911,1762424916301,5,0.44656118750572205,0.6744326949119568,0.20547404885292053,0.5509120225906372,1.562926173210144,1.0778671503067017,-1.0288876295089722,1.056276559829712,8.995418548583984,3.578892707824707,-1.59321928024292,0.7283989191055298,0.7379283905029297,11.930611610412598,-29.63452911376953,-7.839908123016357,1.0298128128051758,1.9428563117980957,1.8666801452636719,0.026463791728019714,7.052562236785889,1.7122125625610352
5_20251106_182911,1762424916319,5,0.4524224102497101,0.6643018126487732,0.1961796134710312,0.56172114610672,1.562926173210144,1.0778671503067017,-1.0288876295089722,1.056276559829712,8.995418548583984,3.578892707824707,-1.626816749572754,1.0655962228775024,0.3872920572757721,11.559060096740723,-29.224769592285156,-8.752708435058594,1.0298128128051758,1.9428563117980957,1.8666801452636719,0.026463791728019714,7.052562236785889,1.7122125625610352
5_20251106_182911,1762424916339,5,0.45955944061279297,0.6514028310775757,0.19014210999011993,0.5729969143867493,1.4700340032577515,1.1272143125534058,-0.9759362936019897,2.44245982170105,10.288232803344727,4.396477222442627,-1.626816749572754,1.0655962228775024,0.3872920572757721,11.190032005310059,-28.765182495117188,-9.62390422821045,1.6592390537261963,2.1690826416015625,1.8489346504211426,0.7832208275794983,8.119150161743164,2.5475425720214844
5_20251106_182911,1762424916359,5,0.4680139720439911,0.6368988156318665,0.1853828877210617,0.5839143395423889,1.4344817399978638,1.1616532802581787,-0.9401500225067139,2.5873026847839355,10.479761123657227,4.978242874145508,-1.7312746047973633,1.2427469491958618,0.0476512648165226,10.847589492797852,-28.266204833984375,-10.506843566894531,1.443265438079834,1.88848876953125,1.9445600509643555,1.1440372467041016,8.591272354125977,3.0336828231811523
5_20251106_182911,1762424916377,5,0.4768235385417938,0.6214467883110046,0.18150679767131805,0.5945574045181274,1.4091116189956665,1.1933319568634033,-0.9060245752334595,2.6639137268066406,10.352872848510742,5.413969039916992,-1.6860706806182861,1.2946704626083374,0.15882863104343414,10.553903579711914,-27.75243377685547,-11.292943000793457,1.2159011363983154,1.409280776977539,1.904228925704956,1.4480125904083252,8.943592071533203,3.509740114212036
5_20251106_182911,1762424916396,5,0.48425811529159546,0.6057535409927368,0.17756518721580505,0.605827808380127,1.3853809833526611,1.235121488571167,-0.8616697192192078,2.9691615104675293,11.043571472167969,5.554023742675781,-1.6860706806182861,1.2946704626083374,0.15882863104343414,10.333815574645996,-27.244834899902344,-12.23855972290039,1.216919183731079,1.679983139038086,1.6354269981384277,1.7522423267364502,9.363588333129883,3.9185967445373535
5_20251106_182911,1762424916415,5,0.4893861413002014,0.5904901027679443,0.1727878749370575,0.6180347800254822,1.3689515590667725,1.2794852256774902,-0.8155103921890259,3.570080280303955,11.786938667297363,6.152548789978027,-1.5119742155075073,1.420508623123169,0.6090359687805176,10.204483985900879,-26.619873046875,-13.056720733642578,1.454270362854004,1.9386796951293945,1.7871618270874023,2.115809917449951,9.848258972167969,4.365386962890625
5_20251106_182911,1762424916434,5,0.49275538325309753,0.575258195400238,0.16755789518356323,0.6310265064239502,1.358371376991272,1.3281221389770508,-0.7652549147605896,3.948348045349121,12.214284896850586,6.6996002197265625,-1.42584228515625,1.5646727085113525,0.6945570111274719,10.185643196105957,-25.963462829589844,-13.78884220123291,1.4660305976867676,1.8928203582763672,1.86737060546875,2.4823174476623535,10.321464538574219,4.8322296142578125
5_20251106_182911,1762424916453,5,0.4947611391544342,0.5594964623451233,0.16293475031852722,0.6446917057037354,1.353130578994751,1.3799506425857544,-0.709932267665863,4.235639572143555,12.371098518371582,7.5949931144714355,-1.297560691833496,1.6776827573776245,0.7092177867889404,10.261780738830566,-25.338905334472656,-14.463767051696777,1.4026577472686768,1.6397075653076172,2.2102108001708984,2.832981824874878,10.731390953063965,5.384782314300537
5_20251106_182911,1762424916473,5,0.4955628216266632,0.5434401631355286,0.159530907869339,0.6585136651992798,1.3533220291137695,1.4360324144363403,-0.6462675929069519,4.619892597198486,12.130491256713867,8.128877639770508,-1.1149121522903442,1.8762136697769165,0.7049416899681091,10.422627449035645,-24.7095947265625,-15.054161071777344,1.4295287132263184,1.1192808151245117,2.1952762603759766,3.190363883972168,11.011210441589355,5.933601379394531
5_20251106_182911,1762424916491,5,0.494827002286911,0.5266758799552917,0.1582241803407669,0.6728475689888,1.3533220291137695,1.4360324144363403,-0.6462675929069519,4.619892597198486,12.130491256713867,8.128877639770508,-1.1149121522903442,1.8762136697769165,0.7049416899681091,10.688833236694336,-24.137001037597656,-15.533330917358398,1.4295287132263184,1.1192808151245117,2.1952762603759766,3.190363883972168,11.011210441589355,5.933601379394531
5_20251106_182911,1762424916511,5,0.49168661236763,0.5095990300178528,0.15920880436897278,0.6878994703292847,1.3700822591781616,1.535927176475525,-0.5267460942268372,5.668508052825928,10.858028411865234,6.147760391235352,-0.7471715211868286,2.1938631534576416,0.886979341506958,10.971683502197266,-23.677719116210938,-15.824666976928711,1.661665439605713,-0.16736984252929688,-0.040101051330566406,4.006842613220215,11.025398254394531,6.187861442565918
5_20251106_182911,1762424916530,5,0.48688173294067383,0.4926357567310333,0.16040459275245667,0.70322585105896,1.385911226272583,1.5826643705368042,-0.470136821269989,5.945026397705078,11.333255767822266,6.710373878479004,-0.8461316823959351,2.1675961017608643,0.9712786674499512,11.211830139160156,-23.333572387695312,-16.146883010864258,1.5505471229553223,0.24628543853759766,0.41800975799560547,4.394479274749756,11.086970329284668,6.292364120483398
5_20251106_182911,1762424916549,5,0.4815756380558014,0.47558853030204773,0.1603313535451889,0.7184666395187378,1.385911226272583,1.5826643705368042,-0.470136821269989,5.945026397705078,11.333255767822266,6.710373878479004,-0.8339143395423889,2.1297223567962646,0.9450114965438843,11.436205863952637,-23.018295288085938,-16.172760009765625,1.5505471229553223,0.24628543853759766,0.41800975799560547,4.394479274749756,11.086970329284668,6.292364120483398
5_20251106_182911,1762424916569,5,0.4762522280216217,0.458615779876709,0.16023294627666473,0.7329261898994446,1.4296109676361084,1.6835155487060547,-0.34082716703414917,6.056351661682129,12.888223648071289,9.586883544921875,-0.5064908266067505,2.155378818511963,0.7874084711074829,11.678016662597656,-22.81525421142578,-16.118932723999023,1.0536389350891113,1.2273063659667969,2.251372814178467,5.002712726593018,11.660917282104492,7.335510730743408
5_20251106_182911,1762424916587,5,0.4702202379703522,0.4422484338283539,0.1633569300174713,0.7460722327232361,1.4296109676361084,1.6835155487060547,-0.34082716703414917,6.056351661682129,12.888223648071289,9.586883544921875,-0.11798088997602463,2.192030668258667,0.5815470218658447,12.00806713104248,-22.75762176513672,-15.956220626831055,1.0536389350891113,1.2273063659667969,2.251372814178467,5.002712726593018,11.660917282104492,7.335510730743408
5_20251106_182911,1762424916606,5,0.4638136029243469,0.4268072247505188,0.17021751403808594,0.7574552893638611,1.4528698921203613,1.732663631439209,-0.27326932549476624,5.644566535949707,12.243014335632324,9.313955307006836,-0.11798088997602463,2.192030668258667,0.5815470218658447,12.299160957336426,-22.728836059570312,-15.660344123840332,0.5134830474853516,0.46567726135253906,1.5827555656433105,5.1310834884643555,11.777337074279785,7.731199741363525
5_20251106_182911,1762424916624,5,0.456208735704422,0.4117380976676941,0.17980459332466125,0.7681247591972351,1.4959678649902344,1.8102467060089111,-0.14827212691307068,5.76307487487793,9.665767669677734,8.215065002441406,0.17523418366909027,2.2836601734161377,0.5149627923965454,12.712950706481934,-22.86913299560547,-15.160024642944336,0.4768714904785156,-1.5458049774169922,0.20758914947509766,5.286203384399414,11.211572647094727,8.007475852966309
5_20251106_182911,1762424916645,5,0.4465174674987793,0.3972037434577942,0.19018609821796417,0.7788970470428467,1.5213580131530762,1.8402453660964966,-0.08802281320095062,6.603403568267822,9.238420486450195,7.622525215148926,0.4727253317832947,2.1987502574920654,0.7672498822212219,13.11940860748291,-23.123794555664062,-14.526917457580566,1.053760051727295,-1.578521728515625,-0.30796051025390625,5.549643516540527,10.81694221496582,7.930485725402832
5_20251106_182911,1762424916664,5,0.4351816475391388,0.38428065180778503,0.2001798301935196,0.7892232537269592,1.5536155700683594,1.866698145866394,-0.0249185711145401,7.219883918762207,9.311440467834473,7.883481979370117,0.4983816146850586,2.0289297103881836,0.7202132940292358,13.488194465637207,-23.405548095703125,-13.936358451843262,1.3361921310424805,-1.204401969909668,-0.037602901458740234,5.883691787719727,10.51584243774414,7.921084880828857
5_20251106_182911,1762424916683,5,0.42423176765441895,0.3727739155292511,0.20952817797660828,0.7982261180877686,1.5856218338012695,1.886127233505249,0.03048885613679886,7.443732261657715,9.310243606567383,8.34674072265625,0.6089481115341187,1.8572769165039062,0.5149627923965454,13.842395782470703,-23.714553833007812,-13.211654663085938,1.248032569885254,-0.9644794464111328,0.34052467346191406,6.195699691772461,10.274723052978516,8.006216049194336
5_20251106_182911,1762424916702,5,0.41458362340927124,0.3625863194465637,0.21955381333827972,0.8052625060081482,1.6187589168548584,1.899695634841919,0.0837908685207367,7.191154479980469,8.492658615112305,8.24858283996582,0.8044248819351196,1.7650363445281982,0.28222334384918213,14.214540481567383,-24.123504638671875,-12.379952430725098,0.7963638305664062,-1.4256515502929688,0.1938934326171875,6.3947906494140625,9.918310165405273,8.054689407348633
5_20251106_182911,1762424916721,5,0.4060385823249817,0.3532770276069641,0.2313554584980011,0.8104336261749268,1.6513665914535522,1.9041025638580322,0.13251298666000366,6.8057050704956055,6.8263654708862305,7.356780052185059,0.8044248819351196,1.7650363445281982,0.28222334384918213,14.214540481567383,-24.123504638671875,-12.379952430725098,0.3287315368652344,-2.473555564880371,-0.5583276748657227,6.476973533630371,9.299921035766602,7.915107727050781
5_20251106_182911,1762424916739,5,0.39724186062812805,0.3434799015522003,0.24416817724704742,0.8152315020561218,1.681835412979126,1.8988268375396729,0.17241480946540833,6.932591915130615,5.546719551086426,6.311756134033203,0.8306920528411865,1.7705341577529907,0.4428807497024536,14.582468032836914,-24.59619140625,-11.4549560546875,0.36449432373046875,-3.002561569213867,-1.2826809883117676,6.5680975914001465,8.549281120300293,7.594437122344971
5_20251106_182911,1762424916760,5,0.3867919445037842,0.33434486389160156,0.2552950084209442,0.820627748966217,1.719394326210022,1.8828439712524414,0.21244460344314575,7.698703765869141,5.525172710418701,6.342879772186279,0.6456000208854675,1.5402381420135498,0.7055525779724121,14.902975082397461,-25.03546142578125,-10.422998428344727,0.9044852256774902,-2.4192867279052734,-1.0012459754943848,6.79421854019165,7.944459438323975,7.344125747680664
5_20251106_182911,1762424916778,5,0.375238835811615,0.32700619101524353,0.2630775272846222,0.8264701962471008,1.7540709972381592,1.8654019832611084,0.24409285187721252,8.456436157226562,6.146441459655762,6.959360122680664,0.6456000208854675,1.5402381420135498,0.7055525779724121,15.172117233276367,-25.527862548828125,-9.421091079711914,1.3297743797302246,-1.4384140968322754,-0.3078126907348633,7.126661777496338,7.584855556488037,7.267172813415527
5_20251106_182911,1762424916798,5,0.3646496534347534,0.32166722416877747,0.26884564757347107,0.8314341902732849,1.794895052909851,1.8435789346694946,0.2780592143535614,8.515090942382812,6.462462425231934,7.451347351074219,0.5246487855911255,1.0258899927139282,0.38545945286750793,15.309030532836914,-25.991737365722656,-8.383237838745117,1.1107430458068848,-0.8979144096374512,0.1473398208618164,7.404347896575928,7.360376834869385,7.304007530212402
5_20251106_182911,1762424916817,5,0.35697346925735474,0.3172082006931305,0.2745819389820099,0.8345978856086731,1.8328123092651367,1.8201885223388672,0.3095943331718445,7.7956647872924805,6.013568878173828,7.624919414520264,0.5277031064033508,0.932427704334259,0.025049272924661636,15.374731063842773,-26.434585571289062,-7.41538143157959,0.3130531311035156,-1.0774459838867188,0.2567296028137207,7.482611656188965,7.091014862060547,7.368189811706543
5_20251106_182911,1762424916836,5,0.3525031507015228,0.31254008412361145,0.281001478433609,0.8361210227012634,1.865297555923462,1.7947832345962524,0.33767959475517273,6.816478252410889,5.322871208190918,7.2478485107421875,0.5368660688400269,0.812698245048523,-0.08185205608606339,15.479413986206055,-26.825363159179688,-6.390932083129883,-0.5329065322875977,-1.4145150184631348,-0.09627294540405273,7.349384784698486,6.737386226654053,7.34412145614624
5_20251106_182911,1762424916854,5,0.3491194248199463,0.3083656430244446,0.2873862385749817,0.8369202017784119,1.8945717811584473,1.7652919292449951,0.36455076932907104,6.146130561828613,5.273792266845703,6.873172283172607,0.4629514813423157,0.6728101968765259,0.06719893962144852,15.602119445800781,-27.1146240234375,-5.390913963317871,-0.9626035690307617,-1.1708755493164062,-0.37675905227661133,7.108734130859375,6.444667816162109,7.249931335449219
5_20251106_182911,1762424916873,5,0.34503552317619324,0.3052540421485901,0.29234248399734497,0.8380371928215027,1.9190713167190552,1.7346506118774414,0.38992488384246826,5.901932716369629,5.488063812255859,7.193981647491455,0.36032623052597046,0.5598002672195435,0.24679316580295563,15.666688919067383,-27.38085174560547,-4.582047462463379,-0.9654412269592285,-0.7652835845947266,-0.04476022720336914,6.867373943328857,6.253347396850586,7.238741874694824
5_20251106_182911,1762424916893,5,0.3402082026004791,0.3031342327594757,0.295653373003006,0.8396172523498535,1.9392635822296143,1.704380989074707,0.4134838283061981,5.743922233581543,5.83042049407959,7.039562225341797,0.33039385080337524,0.4590075612068176,0.3494184613227844,15.720779418945312,-27.622352600097656,-3.813692092895508,-0.8987617492675781,-0.33834171295166016,-0.15934371948242188,6.642683982849121,6.16876220703125,7.198905944824219
5_20251106_182911,1762424916912,5,0.3348981440067291,0.30190128087997437,0.29812508821487427,0.8413205742835999,1.9565088748931885,1.674269199371338,0.4360743761062622,5.673295974731445,6.220658302307129,6.880354881286621,0.33039385080337524,0.4590075612068176,0.3494184613227844,15.692163467407227,-27.842681884765625,-3.210437774658203,-0.7755107879638672,0.041516780853271484,-0.2548408508300781,6.4488067626953125,6.179141521453857,7.135195732116699
5_20251106_182911,1762424916931,5,0.32997605204582214,0.3014371693134308,0.2996935546398163,0.8428731560707092,1.9695805311203003,1.6483796834945679,0.45571717619895935,5.540423393249512,6.64800500869751,6.863595962524414,0.26442044973373413,0.34599757194519043,0.37324216961860657,15.67593002319336,-28.06195068359375,-2.633725166320801,-0.7267069816589355,0.3750910758972168,-0.21727991104125977,6.267130374908447,6.272913932800293,7.080875873565674
5_20251106_182911,1762424916951,5,0.3258363902568817,0.30160149931907654,0.30068209767341614,0.8440719246864319,1.979771614074707,1.6265313625335693,0.47402146458625793,5.455432891845703,7.27406120300293,6.9509806632995605,0.14591266214847565,0.15907299518585205,0.2999384105205536,15.566720962524414,-28.22344207763672,-2.194779396057129,-0.649357795715332,0.8009181022644043,-0.10391664505004883,6.104790687561035,6.473143100738525,7.054897308349609
5_20251106_182911,1762424916970,5,0.3223670721054077,0.3020259141921997,0.30109652876853943,0.8451039791107178,1.9874778985977173,1.6097562313079834,0.49222564697265625,5.384807586669922,7.924059867858887,7.351992130279541,0.14591266214847565,0.15907299518585205,0.2999384105205536,15.54633903503418,-28.31658935546875,-1.7510805130004883,-0.575986385345459,1.1607332229614258,0.23767566680908203,5.960793972015381,6.763326644897461,7.114316463470459
5_20251106_182911,1762424916988,5,0.3191052973270416,0.30286210775375366,0.301370769739151,0.8459444642066956,1.9930248260498047,1.5990734100341797,0.5097480416297913,5.314181327819824,8.678201675415039,7.197572708129883,0.1330845206975937,0.09065613895654678,0.2895537316799164,15.464704513549805,-28.437332153320312,-1.459040641784668,-0.5172901153564453,1.531900405883789,0.0666046142578125,5.8314714431762695,7.14630126953125,7.13096809387207
5_20251106_182911,1762424917007,5,0.31581777334213257,0.30443432927131653,0.3018682301044464,0.8464363217353821,1.9930248260498047,1.5990734100341797,0.5097480416297913,5.314181327819824,8.678201675415039,7.197572708129883,0.19050578773021698,0.02590448223054409,0.31215569376945496,15.32978630065918,-28.64861297607422,-1.2248754501342773,-0.5172901153564453,1.531900405883789,0.0666046142578125,5.8314714431762695,7.14630126953125,7.13096809387207
5_20251106_182911,1762424917026,5,0.31286507844924927,0.30697575211524963,0.302152156829834,0.8465136885643005,1.9994243383407593,1.6012219190597534,0.5428499579429626,5.296225547790527,10.801767349243164,7.288548469543457,0.11109337955713272,-0.18117864429950714,0.3286490738391876,15.111780166625977,-28.827651977539062,-1.0068674087524414,-0.34868621826171875,2.517427444458008,0.12000465393066406,5.644911766052246,8.284339904785156,7.168543815612793
5_20251106_182911,1762424917045,5,0.3103897273540497,0.31006261706352234,0.3016151189804077,0.8464913964271545,2.001713991165161,1.6161096096038818,0.5601568222045898,5.612246513366699,11.837214469909668,7.83560037612915,0.11109337955713272,-0.18117864429950714,0.3286490738391876,14.930120468139648,-29.016189575195312,-0.8552341461181641,-0.026132583618164062,2.842299461364746,0.5336451530456543,5.638379096984863,8.994915008544922,7.301955223083496
5_20251106_182911,1762424917065,5,0.307779461145401,0.3144676387310028,0.2991240918636322,0.8467034101486206,2.0063841342926025,1.6434698104858398,0.5827395915985107,6.421451568603516,13.097707748413086,9.037437438964844,-0.041011929512023926,-0.36016201972961426,0.46120670437812805,14.722976684570312,-29.23102569580078,-0.7456579208374023,0.626457691192627,3.2822341918945312,1.3883857727050781,5.794993877410889,9.815473556518555,7.649051666259766
5_20251106_182911,1762424917083,5,0.3047989308834076,0.321073442697525,0.2959851324558258,0.8464055061340332,2.0150530338287354,1.6773501634597778,0.606978714466095,7.693915367126465,14.07450008392334,9.65152359008789,0.27419427037239075,-0.6936941742897034,0.46731534600257874,14.53162956237793,-29.393760681152344,-0.7426662445068359,1.519136905670166,3.407221794128418,1.6019773483276367,6.174778461456299,10.667278289794922,8.049546241760254
5_20251106_182911,1762424917102,5,0.30219101905822754,0.32901129126548767,0.29506435990333557,0.8446118831634521,2.030475616455078,1.724285364151001,0.6370564699172974,8.62761402130127,15.391254425048828,10.153087615966797,0.27419427037239075,-0.6936941742897034,0.46731534600257874,14.379251480102539,-29.516036987304688,-0.7779598236083984,1.9622688293457031,3.7791805267333984,1.6828327178955078,6.665345191955566,11.61207389831543,8.470254898071289
5_20251106_182911,1762424917124,5,0.3023712635040283,0.33833205699920654,0.2968793511390686,0.840217649936676,2.053579092025757,1.785707950592041,0.6765611171722412,8.726968765258789,15.234439849853516,10.834208488464355,0.7586100101470947,-0.8965013027191162,-0.46975114941596985,14.185083389282227,-29.72899627685547,-0.7760238647460938,1.6492986679077148,2.8978919982910156,1.8911628723144531,7.077670097351074,12.3365478515625,8.943045616149902
5_20251106_182911,1762424917142,5,0.30624666810035706,0.34674274921417236,0.3020727038383484,0.8335073590278625,2.053579092025757,1.785707950592041,0.6765611171722412,8.726968765258789,15.234439849853516,10.834208488464355,1.0139514207839966,-0.9252119064331055,-0.9352301359176636,14.113382339477539,-29.921592712402344,-0.7554025650024414,1.6492986679077148,2.8978919982910156,1.8911628723144531,7.077670097351074,12.3365478515625,8.943045616149902
5_20251106_182911,1762424917160,5,0.31290391087532043,0.3545452058315277,0.3105076551437378,0.8246052265167236,2.0977835655212402,1.8963618278503418,0.748453676700592,7.328815460205078,12.591355323791504,9.228965759277344,1.3303793668746948,-1.2110966444015503,-1.1355936527252197,14.113382339477539,-29.921592712402344,-0.7554025650024414,0.02628040313720703,-0.08035564422607422,0.031490325927734375,7.302535057067871,12.671710968017578,9.19747543334961
5_20251106_182911,1762424917179,5,0.3207504451274872,0.36471977829933167,0.32102423906326294,0.8130449652671814,2.117063283920288,1.9460313320159912,0.7807990908622742,6.682408809661865,11.717510223388672,8.556224822998047,1.580833911895752,-1.6234303712844849,-1.164304256439209,14.096683502197266,-29.98651885986328,-0.6220502853393555,-0.49610090255737305,-0.7633609771728516,-0.51300048828125,7.178509712219238,12.480871200561523,9.069225311279297
5_20251106_182911,1762424917200,5,0.3289366066455841,0.37842297554016113,0.33209285140037537,0.7989437580108643,2.133244514465332,1.9911385774612427,0.8106898069381714,6.159298419952393,10.98012638092041,8.261749267578125,1.7304956912994385,-1.7077295780181885,-1.140480637550354,14.358953475952148,-30.05815887451172,-0.49146175384521484,-0.8153691291809082,-1.2005958557128906,-0.6459808349609375,6.974667549133301,12.1807222366333,8.907730102539062
5_20251106_182911,1762424917219,5,0.33646056056022644,0.39296746253967285,0.34369319677352905,0.783738374710083,2.144289255142212,2.0279242992401123,0.8344511389732361,5.551197052001953,10.185285568237305,7.383115768432617,1.8654968738555908,-1.6606930494308472,-1.168580412864685,14.650331497192383,-30.04058074951172,-0.3310117721557617,-1.1387767791748047,-1.5963497161865234,-1.219691276550293,6.689973831176758,11.781635284423828,8.60280704498291
5_20251106_182911,1762424917237,5,0.34329158067703247,0.40709277987480164,0.35626181960105896,0.7677915692329407,2.149761199951172,2.052931070327759,0.8495824933052063,5.077165603637695,9.164203643798828,6.497298717498779,2.0078284740448,-1.7785898447036743,-1.0873353481292725,15.043439865112305,-29.9296875,-0.07017707824707031,-1.2902469635009766,-2.0939455032348633,-1.6844067573547363,6.367412567138672,11.258149147033691,8.181705474853516
5_20251106_182911,1762424917256,5,0.349161833524704,0.4224846363067627,0.36891061067581177,0.7506648302078247,2.149761199951172,2.052931070327759,0.8495824933052063,5.077165603637695,9.164203643798828,6.497298717498779,2.1837575435638428,-2.265449285507202,-0.8209983706474304,15.496686935424805,-29.815902709960938,0.3012399673461914,-1.2902469635009766,-2.0939455032348633,-1.6844067573547363,6.367412567138672,11.258149147033691,8.181705474853516
5_20251106_182911,1762424917275,5,0.35376816987991333,0.44244498014450073,0.37984463572502136,0.7313060760498047,2.151319980621338,2.070781707763672,0.8567438721656799,4.9802045822143555,8.44717025756836,5.283490180969238,2.436655282974243,-2.676561117172241,-0.6560648679733276,16.097984313964844,-29.655319213867188,0.7198829650878906,-1.1097664833068848,-2.2487831115722656,-2.3185720443725586,6.08997106552124,10.695953369140625,7.602062225341797
5_20251106_182911,1762424917295,5,0.35722216963768005,0.46631133556365967,0.3900878131389618,0.7090681195259094,2.145772695541382,2.0835888385772705,0.8543511629104614,5.046042442321777,7.96236515045166,4.7950944900512695,2.7921788692474365,-2.9056355953216553,-0.7024905681610107,16.821043014526367,-29.48693084716797,1.1569461822509766,-0.6571969985961914,-1.816340446472168,-1.9937329292297363,5.703239440917969,9.778705596923828,6.788827419281006
5_20251106_182911,1762424917313,5,0.3597719371318817,0.49186697602272034,0.4015645682811737,0.6836497187614441,2.140695333480835,2.0800836086273193,0.843152642250061,5.048436164855957,7.240544319152832,3.942795753479004,2.8563196659088135,-3.041858196258545,-0.8264961242675781,17.44753074645996,-29.300453186035156,1.6581954956054688,-0.5238428115844727,-2.030529022216797,-2.276825428009033,5.57227897644043,9.271073341369629,6.219621181488037
5_20251106_182911,1762424917332,5,0.36280038952827454,0.5174105167388916,0.4129827916622162,0.6558257937431335,2.132875919342041,2.068800449371338,0.824526846408844,4.577996253967285,6.439718246459961,3.5238285064697266,2.569823980331421,-2.5042974948883057,-0.90163254737854,18.133623123168945,-29.14659881591797,2.0529747009277344,-0.7954263687133789,-2.2650842666625977,-2.1566343307495117,5.373422622680664,8.704802513122559,5.680462837219238
5_20251106_182911,1762424917352,5,0.36502182483673096,0.5376399159431458,0.42426598072052,0.6306352019309998,2.1209826469421387,2.0482733249664307,0.7923833727836609,4.03333854675293,5.664030075073242,1.233872890472412,2.3248672485351562,-2.0430943965911865,-1.1032178401947021,18.78851318359375,-28.883460998535156,2.583822250366211,-1.0720672607421875,-2.4326181411743164,-3.557271957397461,5.105405807495117,8.096648216247559,4.791144847869873
5_20251106_182911,1762424917372,5,0.3674572706222534,0.5528116226196289,0.4363100230693817,0.6074603199958801,2.1209826469421387,2.0482733249664307,0.7923833727836609,4.03333854675293,5.664030075073242,1.233872890472412,2.0542540550231934,-2.000333786010742,-1.2748708724975586,19.453994750976562,-28.63330078125,3.236541748046875,-1.0720672607421875,-2.4326181411743164,-3.557271957397461,5.105405807495117,8.096648216247559,4.791144847869873
5_20251106_182911,1762424917389,5,0.37175026535987854,0.565850019454956,0.4476201832294464,0.5841675400733948,2.102524995803833,2.015443801879883,0.7440205812454224,3.1379456520080566,4.410719871520996,-0.0721079632639885,1.7133915424346924,-2.061420202255249,-1.3133553266525269,20.121479034423828,-28.357215881347656,3.8086910247802734,-1.5739684104919434,-2.9487428665161133,-3.8906023502349854,4.7119140625,7.359462738037109,3.8184943199157715
5_20251106_182911,1762424917409,5,0.3781313896179199,0.577582597732544,0.456694632768631,0.5611104965209961,2.057624340057373,1.942112922668457,0.6428457498550415,1.8762553930282593,3.832545042037964,-0.06013748049736023,1.4672130346298218,-2.1774847507476807,-1.2376081943511963,20.842939376831055,-27.989654541015625,4.3441009521484375,-1.8845375776290894,-2.259526014328003,-2.4246747493743896,3.7607929706573486,6.092071056365967,2.364537239074707
5_20251106_182911,1762424917429,5,0.3857463598251343,0.5889121294021606,0.4633370339870453,0.5382388830184937,2.020833730697632,1.8884690999984741,0.5749893188476562,1.1735875606536865,3.374074935913086,0.10026714205741882,1.5240235328674316,-2.2617838382720947,-1.1636934280395508,21.579998016357422,-27.57025909423828,4.799961090087891,-2.0697643756866455,-2.174396514892578,-1.8114160299301147,3.243351936340332,5.548471450805664,1.911683201789856
5_20251106_182911,1762424917447,5,0.3926240801811218,0.6004689335823059,0.4694269001483917,0.5147055387496948,1.9858616590499878,1.8425726890563965,0.5166962742805481,0.20278041064739227,3.435124635696411,-0.8693428635597229,1.533797264099121,-2.139000177383423,-1.0445748567581177,22.395587921142578,-27.069137573242188,5.098152160644531,-2.432457208633423,-1.6906778812408447,-2.224820852279663,2.635237693786621,5.125802516937256,1.355478048324585
5_20251106_182911,1762424917465,5,0.3981059491634369,0.6114407181739807,0.4750712811946869,0.4918935000896454,1.9858616590499878,1.8425726890563965,0.5166962742805481,0.20278041064739227,3.435124635696411,-0.8693428635597229,1.3199946880340576,-1.973455786705017,-0.9303431510925293,23.264856338500977,-26.47693634033203,5.400152206420898,-2.432457208633423,-1.6906778812408447,-2.224820852279663,2.635237693786621,5.125802516937256,1.355478048324585
5_20251106_182911,1762424917485,5,0.4034493863582611,0.6210624575614929,0.4794244170188904,0.4708102345466614,1.885032057762146,1.7352702617645264,0.36027640104293823,-1.098412275314331,4.318546772003174,-2.728360414505005,0.7573882341384888,-1.861667513847351,-0.7880116701126099,24.095029830932617,-25.94855499267578,5.564197540283203,-2.4910459518432617,-0.41666650772094727,-2.6171040534973145,1.3926336765289307,4.735213279724121,-0.11125627160072327
5_20251106_182911,1762424917505,5,0.41069522500038147,0.6285057663917542,0.4807898700237274,0.452936053276062,1.8279601335525513,1.6863608360290527,0.2835612893104553,-1.2923343181610107,4.79377555847168,-0.746046781539917,0.35666102170944214,-1.6930688619613647,-0.5723764896392822,24.828479766845703,-25.44867706298828,5.426433563232422,-2.1479744911193848,0.046849727630615234,-0.507832407951355,0.855640172958374,4.7469258308410645,-0.238214373588562
5_20251106_182911,1762424917523,5,0.4186607599258423,0.6343797445297241,0.47959962487220764,0.438485711812973,1.768459439277649,1.6418250799179077,0.2105957567691803,-1.0696830749511719,5.449758529663086,-0.2696211338043213,0.35666102170944214,-1.6930688619613647,-0.5723764896392822,25.47720718383789,-24.965164184570312,5.109260559082031,-1.5402586460113525,0.5622663497924805,-0.0251254141330719,0.4705755412578583,4.8874921798706055,-0.2444957196712494
5_20251106_182911,1762424917543,5,0.4246119558811188,0.6410548686981201,0.47801417112350464,0.4245653748512268,1.7047094106674194,1.6000030040740967,0.13474085927009583,-0.9272342324256897,5.780144214630127,-1.1949403285980225,0.7482253313064575,-1.592887043952942,-0.24922899901866913,25.47720718383789,-24.965164184570312,5.109260559082031,-1.1182478666305542,0.7141213417053223,-0.7603557109832764,0.19101360440254211,5.066022872924805,-0.4345846176147461
5_20251106_182911,1762424917562,5,0.42851853370666504,0.6488269567489624,0.47639501094818115,0.41041842103004456,1.6439855098724365,1.5649404525756836,0.06220218539237976,-0.9715250730514526,6.043495178222656,-1.9215492010116577,0.6969126462936401,-1.5165289640426636,-0.17226004600524902,26.074371337890625,-24.535057067871094,4.789070129394531,-0.9300309419631958,0.781977653503418,-1.1895716190338135,-0.04149411618709564,5.261517524719238,-0.7319775223731995
5_20251106_182911,1762424917581,5,0.4317748546600342,0.6562458872795105,0.4744816720485687,0.39721405506134033,1.5828496217727661,1.533553123474121,-0.011053770780563354,-1.2983194589614868,5.962095737457275,-2.315378427505493,0.4837208390235901,-1.207431435585022,-0.13560816645622253,26.66619300842285,-24.205001831054688,4.426219940185547,-1.005460262298584,0.560462474822998,-1.2667207717895508,-0.29285916686058044,5.401633262634277,-1.0486576557159424
5_20251106_182911,1762424917600,5,0.4346747398376465,0.6617060899734497,0.4727610647678375,0.38691070675849915,1.5218279361724854,1.5063238143920898,-0.08475944399833679,-1.365354299545288,6.345151901245117,-2.5476059913635254,0.11475857347249985,-0.754780650138855,-0.10445404797792435,27.157793045043945,-23.943008422851562,3.9499969482421875,-0.8579961061477661,0.7548151016235352,-1.1991586685180664,-0.507358193397522,5.590336799621582,-1.348447322845459
5_20251106_182911,1762424917620,5,0.4377767741680145,0.6641603708267212,0.47122693061828613,0.3810350000858307,1.4590822458267212,1.4822297096252441,-0.160927876830101,-1.0744712352752686,6.621669769287109,-2.158565044403076,-0.2077779918909073,-0.3528316617012024,-0.08551724255084991,27.484743118286133,-23.79261016845703,3.5463829040527344,-0.45369040966033936,0.8250665664672852,-0.6480941772460938,-0.6207808256149292,5.796603202819824,-1.5104708671569824
5_20251106_182911,1762424917639,5,0.4410194754600525,0.6638618111610413,0.47009366750717163,0.3792113959789276,1.402539610862732,1.4634381532669067,-0.23085027933120728,-0.5896662473678589,6.873050689697266,-1.940701961517334,-0.2798600196838379,-0.13597466051578522,-0.007326559163630009,27.74922752380371,-23.694656372070312,2.963550567626953,0.024891674518585205,0.8611578941345215,-0.34418487548828125,-0.6145579218864441,6.011892795562744,-1.5965170860290527
5_20251106_182911,1762424917657,5,0.44359150528907776,0.6629186272621155,0.4688575565814972,0.3793916702270508,1.402539610862732,1.4634381532669067,-0.23085027933120728,-0.5896662473678589,6.873050689697266,-1.940701961517334,-0.1815108209848404,-0.13292033970355988,0.1356157809495926,27.952499389648438,-23.589462280273438,2.513690948486328,0.024891674518585205,0.8611578941345215,-0.34418487548828125,-0.6145579218864441,6.011892795562744,-1.5965170860290527
5_20251106_182911,1762424917677,5,0.4450508952140808,0.6630990505218506,0.4668950140476227,0.37978726625442505,1.3502455949783325,1.4479455947875977,-0.2995772361755371,-0.09648193418979645,6.871852874755859,-2.4350833892822266,-0.15829797089099884,-0.20072633028030396,0.3262055814266205,28.029905319213867,-23.54405975341797,2.2200679779052734,0.41446083784103394,0.6879677772521973,-0.6708530187606812,-0.5109427571296692,6.183885097503662,-1.7642303705215454
5_20251106_182911,1762424917695,5,0.4457516074180603,0.6644594073295593,0.4636489748954773,0.3805638253688812,1.2647197246551514,1.4270111322402954,-0.4278433322906494,1.2549867630004883,7.430874824523926,-2.316575527191162,-0.16379575431346893,-0.12497910857200623,0.4886956214904785,28.11516761779785,-23.573341369628906,1.9388675689697266,1.243770956993103,0.8585958480834961,-0.35886359214782715,0.011215806007385254,6.57227897644043,-1.957711935043335
5_20251106_182911,1762424917714,5,0.4453703463077545,0.666084885597229,0.45982280373573303,0.38280439376831055,1.2324366569519043,1.4224393367767334,-0.49105703830718994,2.2892374992370605,8.022217750549316,-2.6445670127868652,-0.22366048395633698,-0.012579994276165962,0.5674971342086792,28.171321868896484,-23.69184112548828,1.6278057098388672,1.8224173784255981,1.1599507331848145,-0.5494840145111084,0.4668201208114624,6.862267017364502,-2.095082998275757
5_20251106_182911,1762424917734,5,0.4445016086101532,0.6674094200134277,0.4556739330291748,0.3864508867263794,1.208786964416504,1.4228566884994507,-0.5563523769378662,3.306729555130005,8.50343132019043,-2.7798337936401367,-0.22366048395633698,-0.012579994276165962,0.5674971342086792,28.117900848388672,-23.817352294921875,1.2988147735595703,2.27192759513855,1.3129310607910156,-0.5478005409240723,1.034801959991455,7.190500259399414,-2.2320332527160645
5_20251106_182911,1762424917753,5,0.4440551996231079,0.6682253479957581,0.4510209858417511,0.3909858763217926,1.208786964416504,1.4228566884994507,-0.5563523769378662,3.306729555130005,8.50343132019043,-2.7798337936401367,-0.41180679202079773,-0.018077775835990906,0.6047598719596863,27.97425651550293,-24.02471160888672,1.0594196319580078,2.27192759513855,1.3129310607910156,-0.5478005409240723,1.034801959991455,7.190500259399414,-2.2320332527160645
5_20251106_182911,1762424917772,5,0.44397202134132385,0.6690537929534912,0.44567322731018066,0.3957667052745819,1.1962977647781372,1.4277575016021729,-0.6196079850196838,4.317039489746094,8.672216415405273,-2.6349904537200928,-0.3104032576084137,-0.25814759731292725,0.7690824866294861,27.76837158203125,-24.261016845703125,0.80352783203125,2.6257901191711426,1.1853728294372559,-0.32236576080322266,1.6912493705749512,7.486843585968018,-2.31262469291687
5_20251106_182911,1762424917791,5,0.4435283839702606,0.6719393730163574,0.4384782612323761,0.3993956744670868,1.1951172351837158,1.4350385665893555,-0.6778268814086914,5.369245529174805,8.528570175170898,-2.724769115447998,0.01640935242176056,-0.7700522541999817,1.1215513944625854,27.55856704711914,-24.560653686523438,0.6003818511962891,2.942396879196167,0.8333816528320312,-0.3297154903411865,2.4268486499786377,7.695188522338867,-2.3950536251068115
5_20251106_182911,1762424917810,5,0.4415760040283203,0.679614245891571,0.4279772937297821,0.3999631702899933,1.2289068698883057,1.4459513425827026,-0.7937198281288147,8.772457122802734,6.8227739334106445,-5.05781888961792,0.01640935242176056,-0.7700522541999817,1.1215513944625854,27.268695831298828,-24.990493774414062,0.37813758850097656,4.380658149719238,-0.6874351501464844,-1.9778633117675781,4.391798973083496,7.510209083557129,-3.079955577850342
5_20251106_182911,1762424917830,5,0.4376945495605469,0.6931288838386536,0.41263607144355774,0.3971489369869232,1.2746728658676147,1.4482343196868896,-0.8650104403495789,11.45025634765625,6.852700233459473,-6.391331672668457,0.3529958426952362,-1.3998538255691528,1.6194062232971191,26.789268493652344,-25.56902313232422,0.010470390319824219,5.64676570892334,-0.5260071754455566,-2.6491007804870605,5.80349063873291,7.378707408905029,-3.7422308921813965
5_20251106_182911,1762424917849,5,0.4342057704925537,0.7105775475502014,0.39156994223594666,0.3914305567741394,1.2746728658676147,1.4482343196868896,-0.8650104403495789,11.45025634765625,6.852700233459473,-6.391331672668457,-0.01535560842603445,-2.4426000118255615,1.9144537448883057,26.158676147460938,-26.24498748779297,-0.36492919921875,5.64676570892334,-0.5260071754455566,-2.6491007804870605,5.80349063873291,7.378707408905029,-3.7422308921813965
5_20251106_182911,1762424917868,5,0.4342655837535858,0.7273761630058289,0.36743608117103577,0.3838333785533905,1.4193577766418457,1.4572499990463257,-1.0091971158981323,15.863777160644531,8.660245895385742,-6.291976451873779,-0.4502912759780884,-2.689389228820801,1.2663264274597168,25.403474807739258,-27.002212524414062,-0.9495611190795898,6.669948577880859,0.9481253623962402,-1.5456500053405762,9.193828582763672,7.712120532989502,-4.746326446533203
5_20251106_182911,1762424917886,5,0.4397796392440796,0.7403662204742432,0.3447999656200409,0.3735835552215576,1.5147857666015625,1.4669840335845947,-1.0802397727966309,15.126395225524902,9.153429985046387,-4.849532127380371,-0.9530329704284668,-2.7272629737854004,0.2993275225162506,24.56245231628418,-27.788894653320312,-1.6598005294799805,4.746053695678711,1.1530475616455078,-0.0825643539428711,10.380341529846191,8.000382423400879,-4.7669677734375
5_20251106_182911,1762424917905,5,0.45198479294776917,0.7475289106369019,0.3267376124858856,0.36076703667640686,1.5147857666015625,1.4669840335845947,-1.0802397727966309,15.126395225524902,9.153429985046387,-4.849532127380371,-1.2774021625518799,-2.798734188079834,-0.587037205696106,23.746362686157227,-28.383460998535156,-2.6629486083984375,4.746053695678711,1.1530475616455078,-0.0825643539428711,10.380341529846191,8.000382423400879,-4.7669677734375
5_20251106_182911,1762424917925,5,0.46966755390167236,0.7499521374702454,0.31348419189453125,0.3445458710193634,1.700825810432434,1.4990381002426147,-1.1922860145568848,9.209380149841309,9.906373977661133,-0.7412586212158203,-1.2419719696044922,-2.988713026046753,-1.114213466644287,22.902555465698242,-28.840805053710938,-3.813343048095703,-1.267690658569336,1.2395620346069336,2.8978378772735596,10.477070808410645,8.6668119430542,-3.63909649848938
5_20251106_182911,1762424917944,5,0.4896174669265747,0.7505717277526855,0.30316847562789917,0.3240458369255066,1.7716913223266602,1.5184197425842285,-1.2274585962295532,5.769060134887695,9.593944549560547,0.6509098410606384,-0.9285983443260193,-3.3619515895843506,-1.2266125679016113,22.0667724609375,-29.182838439941406,-5.191139221191406,-3.766408920288086,0.7417058944702148,3.4320051670074463,9.535469055175781,8.852238655090332,-2.781095266342163
5_20251106_182911,1762424917964,5,0.5088755488395691,0.7523300051689148,0.29281437397003174,0.29883939027786255,1.8199801445007324,1.5384894609451294,-1.2488751411437988,2.598076343536377,9.456282615661621,1.5917906761169434,-0.6213334202766418,-3.7229723930358887,-0.9474474191665649,21.22825050354004,-29.373634338378906,-6.701420783996582,-5.549914836883545,0.48323535919189453,3.4983086585998535,8.147991180419922,8.973047256469727,-1.9065179824829102
5_20251106_182911,1762424917982,5,0.5261134505271912,0.7562349438667297,0.27939221262931824,0.27065345644950867,1.844071865081787,1.5602065324783325,-1.2565745115280151,0.18841582536697388,9.514938354492188,2.605691432952881,-0.3983677625656128,-4.0106892585754395,-0.4404296576976776,20.55547523498535,-29.22679901123047,-8.361149787902832,-6.367660045623779,0.43351268768310547,3.6097676753997803,6.5560760498046875,9.081425666809082,-1.0040762424468994
5_20251106_182911,1762424918002,5,0.540951132774353,0.7621302604675293,0.2612476348876953,0.24141034483909607,1.8444262742996216,1.5830186605453491,-1.2507227659225464,-1.239664077758789,10.252321243286133,3.6614890098571777,-0.20594541728496552,-4.097431659698486,0.07269671559333801,19.92780113220215,-28.938369750976562,-10.1246337890625,-6.2365922927856445,0.9367160797119141,3.732452154159546,4.9969282150268555,9.315605163574219,-0.07096320390701294
5_20251106_182911,1762424918021,5,0.553035318851471,0.7692083120346069,0.2390681505203247,0.2128778100013733,1.8246537446975708,1.6084556579589844,-1.2341153621673584,-2.3325700759887695,10.688047409057617,3.955963134765625,-0.20594541728496552,-4.097431659698486,0.07269671559333801,19.92780113220215,-28.938369750976562,-10.1246337890625,-5.863598823547363,1.0979537963867188,3.221541166305542,3.5310287475585938,9.590093612670898,0.7344220280647278
5_20251106_182911,1762424918039,5,0.562543511390686,0.7762377262115479,0.21524593234062195,0.18619602918624878,1.7872403860092163,1.6358630657196045,-1.2089052200317383,-3.2590863704681396,10.771841049194336,4.172629356384277,0.010911569930613041,-3.688153028488159,0.556501567363739,19.272857666015625,-28.465721130371094,-11.709918975830078,-5.432092189788818,0.9453983306884766,2.750566005706787,2.1730058193206787,9.82644271850586,1.4220634698867798
5_20251106_182911,1762424918060,5,0.5701392292976379,0.7823441028594971,0.19160521030426025,0.1617603302001953,1.7266769409179688,1.6675325632095337,-1.1726219654083252,-4.176026344299316,10.68924331665039,4.34979248046875,0.023128867149353027,-3.212289571762085,0.5650537014007568,18.61812400817871,-27.98119354248047,-13.227357864379883,-5.079225540161133,0.6902408599853516,2.3421831130981445,0.9031994342803955,9.999002456665039,2.0076093673706055
5_20251106_182911,1762424918078,5,0.576226532459259,0.7868937849998474,0.17033721506595612,0.14052197337150574,1.7266769409179688,1.6675325632095337,-1.1726219654083252,-4.176026344299316,10.68924331665039,4.34979248046875,0.08788052201271057,-2.7364258766174316,0.5033563375473022,17.710433959960938,-27.652694702148438,-14.554765701293945,-5.079225540161133,0.6902408599853516,2.3421831130981445,0.9031994342803955,9.999002456665039,2.0076093673706055
5_20251106_182911,1762424918096,5,0.5807610750198364,0.7904152274131775,0.15194588899612427,0.1219540387392044,1.6588139533996582,1.6954219341278076,-1.1361098289489746,-4.858344554901123,10.242744445800781,3.9487810134887695,0.08788052201271057,-2.7364258766174316,0.5033563375473022,16.762475967407227,-27.378028869628906,-15.763053894042969,-4.6092352867126465,0.1949939727783203,1.5529372692108154,-0.24910926818847656,10.047750473022461,2.395843744277954
5_20251106_182911,1762424918115,5,0.5839084982872009,0.7933802008628845,0.1360977441072464,0.10524310916662216,1.5038644075393677,1.742977261543274,-1.068885087966919,-5.774086952209473,9.671751022338867,2.4369077682495117,0.11903461813926697,-1.9135910272598267,0.30299273133277893,15.769529342651367,-27.233200073242188,-16.786224365234375,-3.5940189361572266,-0.2835416793823242,-0.08020830154418945,-2.180068016052246,9.955292701721191,2.517116069793701
5_20251106_182911,1762424918135,5,0.5864464044570923,0.7952593564987183,0.12374958395957947,0.09126407653093338,1.4069408178329468,1.7652937173843384,-1.037665605545044,-5.881821632385254,9.407204627990723,1.4589180946350098,0.11903461813926697,-1.9135910272598267,0.30299273133277893,14.726552963256836,-27.093299865722656,-17.63564682006836,-2.9614028930664062,-0.43847084045410156,-0.8465583324432373,-2.9204187393188477,9.845675468444824,2.305476427078247
5_20251106_182911,1762424918154,5,0.5889697670936584,0.7958055138587952,0.11536934971809387,0.0806104987859726,1.4069408178329468,1.7652937173843384,-1.037665605545044,-5.881821632385254,9.407204627990723,1.4589180946350098,-0.11675915122032166,-0.8891708850860596,0.03421224281191826,13.734861373901367,-27.101730346679688,-18.32358741760254,-2.9614028930664062,-0.43847084045410156,-0.8465583324432373,-2.9204187393188477,9.845675468444824,2.305476427078247
5_20251106_182911,1762424918172,5,0.5917843580245972,0.7951529622077942,0.11048763990402222,0.07290802150964737,1.3059990406036377,1.7842479944229126,-1.0131351947784424,-5.836333751678467,9.106744766235352,0.6185895204544067,-0.18761946260929108,-0.5904580354690552,-0.00366137083619833,12.799897193908691,-27.158309936523438,-18.820905685424805,-2.3327322006225586,-0.5911445617675781,-1.349509596824646,-3.503601551055908,9.69788932800293,1.9680991172790527
5_20251106_182911,1762424918191,5,0.5946227312088013,0.7939398884773254,0.10748987644910812,0.06729929149150848,1.124999761581421,1.8102788925170898,-0.9862968921661377,-4.90622615814209,8.858955383300781,-0.13794568181037903,-0.20044763386249542,-0.4462939500808716,0.008555922657251358,12.034635543823242,-27.216590881347656,-19.284587860107422,-0.7982769012451172,-0.5409402847290039,-1.3572536706924438,-4.107949256896973,9.399895668029785,1.2193080186843872
5_20251106_182911,1762424918211,5,0.5972141623497009,0.7926614284515381,0.10518336296081543,0.06292510032653809,1.030606985092163,1.8211044073104858,-0.9794309139251709,-4.148493766784668,8.858955383300781,-0.3151090145111084,-0.047731444239616394,-0.2862473726272583,0.015275435522198677,11.320133209228516,-27.234161376953125,-19.73200035095215,-0.03243541717529297,-0.4327526092529297,-1.2275335788726807,-4.116058349609375,9.291707992553711,0.912424623966217
5_20251106_182911,1762424918231,5,0.5984330177307129,0.7921600937843323,0.10382317751646042,0.05984240770339966,0.9428876042366028,1.8301676511764526,-0.9807374477386475,-3.473358154296875,8.8900785446167,-1.6629865169525146,0.07199804484844208,-0.04862101376056671,-0.020765583962202072,10.895697593688965,-27.259132385253906,-20.033008575439453,0.51416015625,-0.3213033676147461,-2.060328960418701,-3.987518310546875,9.211381912231445,0.39734241366386414
5_20251106_182911,1762424918250,5,0.5984550714492798,0.792166531085968,0.10434781014919281,0.05861150100827217,0.8701646327972412,1.837096095085144,-0.9892860054969788,-3.062770366668701,8.878108024597168,-2.6206259727478027,0.01091157365590334,0.13280582427978516,-0.0604717880487442,10.570159912109375,-27.25263214111328,-20.32956314086914,0.7397983074188232,-0.2666196823120117,-2.414374828338623,-3.8025686740875244,9.14472770690918,-0.20625123381614685
5_20251106_182911,1762424918270,5,0.5985099077224731,0.7918891310691833,0.106081023812294,0.0586884580552578,0.796673059463501,1.843988299369812,-1.0066571235656738,-2.7263994216918945,9.006193161010742,-2.9522085189819336,-0.12408953905105591,0.29285237193107605,-0.09101501852273941,10.365493774414062,-27.239540100097656,-20.486051559448242,0.8609352111816406,-0.11082744598388672,-2.196765899658203,-3.587334632873535,9.117020606994629,-0.7554426193237305
5_20251106_182911,1762424918288,5,0.5992377996444702,0.7908591628074646,0.10886980593204498,0.06002671644091606,0.7336416840553284,1.8498650789260864,-1.0282959938049316,-2.38643741607666,8.991828918457031,-2.92826771736145,-0.22549308836460114,0.5152071118354797,-0.12766693532466888,10.28308391571045,-27.21796417236328,-20.691699981689453,0.9607179164886475,-0.10015392303466797,-1.7382601499557495,-3.3471553325653076,9.0919828414917,-1.1900075674057007
5_20251106_182911,1762424918306,5,0.600432276725769,0.7891104221343994,0.11317814141511917,0.06305964291095734,0.7336416840553284,1.8498650789260864,-1.0282959938049316,-2.38643741607666,8.991828918457031,-2.92826771736145,-0.3110141158103943,0.7338967323303223,-0.12155825644731522,10.275312423706055,-27.154762268066406,-20.812519073486328,0.9607179164886475,-0.10015392303466797,-1.7382601499557495,-3.3471553325653076,9.0919828414917,-1.1900075674057007
5_20251106_182911,1762424918325,5,0.6019911170005798,0.7867233157157898,0.11857415735721588,0.06792140752077103,0.6298351287841797,1.8592100143432617,-1.0843842029571533,-1.7735481262207031,8.864941596984863,-3.51003360748291,-0.39042651653289795,0.6502082347869873,0.03054705262184143,10.354351043701172,-27.060745239257812,-20.942890167236328,1.0479042530059814,-0.15698909759521484,-1.4800286293029785,-2.8214523792266846,9.021930694580078,-2.0300049781799316
5_20251106_182911,1762424918344,5,0.6039661765098572,0.7841718792915344,0.12225364148616791,0.07316660135984421,0.5872786045074463,1.8643710613250732,-1.1146254539489746,-1.0014512538909912,9.379671096801758,-2.4853594303131104,-0.40630900859832764,0.5341439247131348,0.22113682329654694,10.396324157714844,-26.981399536132812,-21.102031707763672,1.456000804901123,0.2861919403076172,-0.36428356170654297,-2.4574520587921143,9.09347915649414,-2.1210758686065674
5_20251106_182911,1762424918364,5,0.6060110926628113,0.7818018794059753,0.12384255230426788,0.07873627543449402,0.5526081919670105,1.8713696002960205,-1.1434837579727173,-0.3586357533931732,9.857294082641602,-2.1681413650512695,-0.22182787954807281,0.4296860694885254,0.2645082473754883,10.497831344604492,-26.911582946777344,-21.16436767578125,1.6790529489517212,0.6110515594482422,-0.03765249252319336,-2.037688732147217,9.24624252319336,-2.130488872528076
5_20251106_182911,1762424918382,5,0.6069362163543701,0.7804505228996277,0.12454017996788025,0.08375661820173264,0.5251187086105347,1.8802332878112793,-1.1709203720092773,-0.05219109356403351,10.053610801696777,-2.1382150650024414,-0.11248309910297394,0.44679027795791626,0.21991510689258575,10.688658714294434,-26.772750854492188,-21.289535522460938,1.5883980989456177,0.6458950042724609,-0.006181001663208008,-1.6405892372131348,9.407715797424316,-2.1320340633392334
5_20251106_182911,1762424918404,5,0.6070951819419861,0.7795829772949219,0.12575501203536987,0.08872142434120178,0.5014715790748596,1.8924208879470825,-1.2018675804138184,0.15130728483200073,10.070369720458984,-2.3405165672302246,-0.08743764460086823,0.5170397162437439,0.14844393730163574,10.860772132873535,-26.73638153076172,-21.295658111572266,1.4335172176361084,0.5301227569580078,-0.16678595542907715,-1.2822099924087524,9.540246963500977,-2.1737306118011475
5_20251106_182911,1762424918422,5,0.6070205569267273,0.7786810994148254,0.1279500275850296,0.09386450052261353,0.4868393540382385,1.9026304483413696,-1.2269781827926636,0.23988895118236542,9.839338302612305,-2.602670192718506,-0.08743764460086823,0.5170397162437439,0.14844393730163574,10.860772132873535,-26.73638153076172,-21.295658111572266,1.2176791429519653,0.2392730712890625,-0.3431518077850342,-0.9777902364730835,9.600065231323242,-2.2595183849334717
5_20251106_182911,1762424918441,5,0.6067245602607727,0.777739405632019,0.1308683156967163,0.09939945489168167,0.4761280119419098,1.913455843925476,-1.2538257837295532,0.4661312699317932,9.814201354980469,-2.867218017578125,-0.15157844126224518,0.6410452127456665,0.12889626622200012,10.976678848266602,-26.627967834472656,-21.370229721069336,1.155137300491333,0.1713085174560547,-0.4861598014831543,-0.689005970954895,9.642892837524414,-2.3810582160949707
5_20251106_182911,1762424918459,5,0.606831967830658,0.7763691544532776,0.1337810605764389,0.10539676994085312,0.4705849587917328,1.9239418506622314,-1.2784489393234253,0.9748772978782654,9.944679260253906,-2.56795597076416,-0.19922588765621185,0.5750718116760254,0.16005034744739532,11.100950241088867,-26.581947326660156,-21.40508270263672,1.3311066627502441,0.24142932891845703,-0.14951825141906738,-0.35622936487197876,9.70324993133545,-2.4184377193450928
5_20251106_182911,1762424918480,5,0.607255220413208,0.7748500108718872,0.13599205017089844,0.11115200072526932,0.4705849587917328,1.9239418506622314,-1.2784489393234253,0.9748772978782654,9.944679260253906,-2.56795597076416,-0.11065050959587097,0.4645053446292877,0.13744837045669556,11.198128700256348,-26.587608337402344,-21.455486297607422,1.3311066627502441,0.24142932891845703,-0.14951825141906738,-0.35622936487197876,9.70324993133545,-2.4184377193450928
5_20251106_182911,1762424918498,5,0.6072059273719788,0.7738691568374634,0.13777001202106476,0.11596117913722992,0.46999630331993103,1.9373356103897095,-1.3070651292800903,1.2334399223327637,10.03445816040039,-2.425507068634033,-0.061170466244220734,0.4645053446292877,0.07147499173879623,11.259256362915039,-26.58336639404297,-21.48006820678711,1.271735429763794,0.2649669647216797,-0.005655527114868164,-0.03829552233219147,9.769491195678711,-2.419851541519165
5_20251106_182911,1762424918518,5,0.6068591475486755,0.7730435729026794,0.14009931683540344,0.1204068586230278,0.4790534973144531,1.959762692451477,-1.3521645069122314,1.2956864833831787,9.907570838928223,-2.7211780548095703,-0.061170466244220734,0.4645053446292877,0.07147499173879623,11.391807556152344,-26.58826446533203,-21.366806030273438,0.8367025256156921,0.0667276382446289,-0.25107336044311523,0.4589839577674866,9.840843200683594,-2.470104694366455
5_20251106_182911,1762424918535,5,0.6062973737716675,0.7724049091339111,0.1428636610507965,0.12403271347284317,0.4790534973144531,1.959762692451477,-1.3521645069122314,1.2956864833831787,9.907570838928223,-2.7211780548095703,-0.0678899735212326,0.4767226278781891,-0.0861281082034111,11.529081344604492,-26.51715087890625,-21.319541931152344,0.8367025256156921,0.0667276382446289,-0.25107336044311523,0.4589839577674866,9.840843200683594,-2.470104694366455
5_20251106_182911,1762424918555,5,0.6060683131217957,0.7713279128074646,0.146418958902359,0.12765538692474365,0.4858951270580292,1.9704164266586304,-1.375104546546936,0.8862955570220947,9.796245574951172,-2.8636269569396973,-0.18334342539310455,0.5188723206520081,-0.10873010009527206,11.612170219421387,-26.549392700195312,-21.30338478088379,0.34184926748275757,-0.03567790985107422,-0.3148179054260254,0.5444462895393372,9.831923484802246,-2.548809051513672
5_20251106_182911,1762424918574,5,0.6066348552703857,0.769514799118042,0.15020756423473358,0.13144917786121368,0.49813950061798096,1.9884493350982666,-1.4182820320129395,0.40747588872909546,9.585565567016602,-2.664916753768921,-0.32384228706359863,0.5927869081497192,-0.09223674982786179,11.701602935791016,-26.4686279296875,-21.28485107421875,-0.11524105072021484,-0.17548179626464844,-0.04672884941101074,0.5227169394493103,9.76104736328125,-2.61818790435791
5_20251106_182911,1762424918593,5,0.6081116795539856,0.7668184638023376,0.15401853621006012,0.13589675724506378,0.5039578676223755,1.9965310096740723,-1.4378072023391724,0.5942155718803406,9.692102432250977,-2.242358446121216,-0.3721005916595459,0.6153889298439026,-0.062304385006427765,11.836465835571289,-26.435585021972656,-21.197832107543945,0.057198941707611084,-0.05515575408935547,0.30066370964050293,0.5370166301727295,9.747258186340332,-2.5430221557617188
5_20251106_182911,1762424918613,5,0.6098641753196716,0.7638058662414551,0.15769122540950775,0.14071165025234222,0.5102412104606628,2.0045433044433594,-1.4558579921722412,0.6899795532226562,9.724422454833984,-2.0580127239227295,-0.3721005916595459,0.6153889298439026,-0.062304385006427765,11.988548278808594,-26.31371307373047,-21.121990203857422,0.12237036228179932,-0.018268585205078125,0.38800764083862305,0.5676091909408569,9.742691040039062,-2.4460203647613525
5_20251106_182911,1762424918632,5,0.6113273501396179,0.7610006332397461,0.16136741638183594,0.14531846344470978,0.5160739421844482,2.0113930702209473,-1.4697935581207275,0.7546201944351196,9.742378234863281,-1.837755799293518,-0.26153409481048584,0.5152071118354797,-0.0659695714712143,12.16409969329834,-26.203079223632812,-21.01839828491211,0.14960885047912598,-0.0002498626708984375,0.4866117238998413,0.6050113439559937,9.74262809753418,-2.3243675231933594
5_20251106_182911,1762424918651,5,0.6124501824378967,0.7586140036582947,0.16464219987392426,0.1493402123451233,0.522361695766449,2.018833637237549,-1.4830349683761597,0.6480827927589417,9.811806678771973,-1.8413469791412354,-0.16746093332767487,0.38631466031074524,-0.02809596061706543,12.364912986755371,-26.089645385742188,-21.035470962524414,0.03445714712142944,0.055342674255371094,0.3864164352416992,0.6136256456375122,9.756464004516602,-2.2277634143829346
5_20251106_182911,1762424918671,5,0.613054633140564,0.7569733262062073,0.16700981557369232,0.152522474527359,0.5278353095054626,2.025749683380127,-1.4942798614501953,0.5403483510017395,9.82976245880127,-1.9706283807754517,-0.10637445747852325,0.2818567752838135,0.058035969734191895,12.519986152648926,-25.940505981445312,-21.17536163330078,-0.05862182378768921,0.058638572692871094,0.20570790767669678,0.5989701747894287,9.771123886108398,-2.1763362884521484
5_20251106_182911,1762424918690,5,0.6132602691650391,0.7559753060340881,0.16821244359016418,0.15529893338680267,0.5330386161804199,2.0323233604431152,-1.5042897462844849,0.6002007722854614,9.77230453491211,-1.9311257600784302,-0.11553742736577988,0.2494809627532959,0.14844393730163574,12.695215225219727,-25.853500366210938,-21.220975875854492,0.000984489917755127,0.0009441375732421875,0.19616854190826416,0.5992162823677063,9.771360397338867,-2.1272943019866943
5_20251106_182911,1762424918710,5,0.613438069820404,0.7551442980766296,0.16850925981998444,0.1582890748977661,0.5383917093276978,2.0387449264526367,-1.5126599073410034,0.748634934425354,9.835748672485352,-1.7120656967163086,-0.1393611580133438,0.25253531336784363,0.18937186896800995,12.873883247375488,-25.692230224609375,-21.156877517700195,0.11953490972518921,0.05151081085205078,0.3321828842163086,0.6291000247001648,9.7842378616333,-2.044248580932617
5_20251106_182911,1762424918727,5,0.6136974096298218,0.7542113065719604,0.16856186091899872,0.16164064407348633,0.5383917093276978,2.0387449264526367,-1.5126599073410034,0.748634934425354,9.835748672485352,-1.7120656967163086,-0.16807179152965546,0.3111782968044281,0.16493727266788483,13.03782844543457,-25.59319305419922,-21.229751586914062,0.11953490972518921,0.05151081085205078,0.3321828842163086,0.6291000247001648,9.7842378616333,-2.044248580932617
5_20251106_182911,1762424918746,5,0.6141224503517151,0.7529370784759521,0.1690935492515564,0.16536845266819,0.5494312644004822,2.051140069961548,-1.5247325897216797,0.7534231543540955,9.856098175048828,-1.7240362167358398,-0.15890882909297943,0.36432355642318726,0.10812687128782272,13.174483299255371,-25.546112060546875,-21.29114532470703,0.06654292345046997,0.03871345520019531,0.18329334259033203,0.6868802309036255,9.817384719848633,-1.9073295593261719
5_20251106_182911,1762424918766,5,0.6144996285438538,0.7515247464179993,0.17030389606952667,0.16910749673843384,0.5553041696548462,2.0572848320007324,-1.530302882194519,0.7713788747787476,9.78427505493164,-1.8604998588562012,-0.15341104567050934,0.397921085357666,0.07697277516126633,13.23650074005127,-25.54065704345703,-21.437374114990234,0.06759887933731079,-0.026488304138183594,0.03746366500854492,0.7037799954414368,9.810763359069824,-1.897963523864746
5_20251106_182911,1762424918784,5,0.6147934794425964,0.7500497698783875,0.17196504771709442,0.17286494374275208,0.5607898831367493,2.0626394748687744,-1.5360088348388672,0.7713788747787476,9.741181373596191,-2.145397424697876,-0.1039309948682785,0.3203412890434265,0.08980093151330948,13.298828125,-25.52318572998047,-21.52927017211914,0.05407911539077759,-0.05566596984863281,-0.19794702529907227,0.71729975938797,9.796847343444824,-1.9474503993988037
5_20251106_182911,1762424918805,5,0.6148294806480408,0.749061644077301,0.17302721738815308,0.1759345680475235,0.5660413503646851,2.0675079822540283,-1.5418740510940552,0.7318762540817261,9.717239379882812,-2.1094858646392822,-0.07216602563858032,0.22015947103500366,0.1453896164894104,13.339009284973145,-25.4578857421875,-21.539997100830078,0.011661171913146973,-0.06368637084960938,-0.12962830066680908,0.7202150821685791,9.780925750732422,-1.9798575639724731
5_20251106_182911,1762424918826,5,0.6146437525749207,0.7485537528991699,0.17319674789905548,0.1785585880279541,0.5720503926277161,2.0728795528411865,-1.5493279695510864,0.7127234935760498,9.724421501159668,-2.1561708450317383,-0.04650971293449402,0.20977476239204407,0.19059360027313232,13.399234771728516,-25.466476440429688,-21.53780746459961,-0.005993247032165527,-0.045203208923339844,-0.1410505771636963,0.7187167406082153,9.769624710083008,-2.015120267868042
5_20251106_182911,1762424918842,5,0.614213764667511,0.7482728958129883,0.17305520176887512,0.18133112788200378,0.5761100649833679,2.076383352279663,-1.5546495914459229,0.7641965746879578,9.745969772338867,-2.2184174060821533,-0.030627228319644928,0.2494809627532959,0.21930423378944397,13.421590805053711,-25.502426147460938,-21.551136016845703,0.036383867263793945,-0.01892375946044922,-0.16263771057128906,0.7278127074241638,9.764893531799316,-2.0557796955108643
5_20251106_182911,1762424918861,5,0.6131495237350464,0.7484374046325684,0.17288172245025635,0.18439365923404694,0.5810984373092651,2.080507516860962,-1.5616083145141602,0.8767192363739014,9.827367782592773,-2.4039602279663086,-0.03001636639237404,0.2604765295982361,0.2223585695028305,13.469011306762695,-25.535842895507812,-21.658096313476562,0.11912524700164795,0.049979209899902344,-0.27854442596435547,0.7575939893722534,9.777388572692871,-2.125415802001953
5_20251106_182911,1762424918879,5,0.6119892001152039,0.7486395239830017,0.1727573573589325,0.1875179260969162,0.5862703919410706,2.084395408630371,-1.5685127973556519,1.0347297191619873,9.848915100097656,-2.3860044479370117,-0.05811614170670509,0.22565725445747375,0.21380646526813507,13.469011306762695,-25.535842895507812,-21.658096313476562,0.2217085361480713,0.057221412658691406,-0.20847082138061523,0.813021183013916,9.791693687438965,-2.1775336265563965
5_20251106_182911,1762424918898,5,0.6108874678611755,0.7489179968833923,0.172359436750412,0.1903432458639145,0.5925313234329224,2.088674545288086,-1.5752694606781006,1.204710841178894,9.930315017700195,-2.116668224334717,-0.0422336608171463,0.16334906220436096,0.17959803342819214,13.431451797485352,-25.551185607910156,-21.619281768798828,0.31335175037384033,0.11089706420898438,0.04869222640991211,0.8913590908050537,9.819417953491211,-2.165360450744629
5_20251106_182911,1762424918918,5,0.6098207831382751,0.7493227124214172,0.17178471386432648,0.19267615675926208,0.6000323295593262,2.0934507846832275,-1.5814341306686401,1.299277663230896,9.98298454284668,-1.970628261566162,-0.0422336608171463,0.16334906220436096,0.17959803342819214,13.360832214355469,-25.52935791015625,-21.770374298095703,0.3263348937034607,0.13085365295410156,0.15578579902648926,0.9729427695274353,9.852130889892578,-2.1264140605926514
5_20251106_182911,1762424918938,5,0.6089251637458801,0.7495462894439697,0.17146779596805573,0.1949084848165512,0.6081685423851013,2.0985207557678223,-1.5867078304290771,1.305262804031372,10.027275085449219,-1.934716820716858,-0.009857828728854656,0.14257964491844177,0.04948386177420616,13.361227989196777,-25.52881622314453,-21.824440002441406,0.2658560276031494,0.14011573791503906,0.1533578634262085,1.0394067764282227,9.88715934753418,-2.0880746841430664
5_20251106_182911,1762424918956,5,0.6083173155784607,0.7494723200798035,0.17169703543186188,0.19687916338443756,0.6081685423851013,2.0985207557678223,-1.5867078304290771,1.305262804031372,10.027275085449219,-1.934716820716858,-0.0422336608171463,0.18106412887573242,-0.03848065808415413,13.347421646118164,-25.566604614257812,-21.89330291748047,0.2658560276031494,0.14011573791503906,0.1533578634262085,1.0394067764282227,9.88715934753418,-2.0880746841430664
5_20251106_182911,1762424918975,5,0.6080710887908936,0.7489356398582458,0.1727878600358963,0.19871929287910461,0.6224415898323059,2.108057737350464,-1.5928272008895874,0.9473451375961304,9.967423439025879,-1.6869276762008667,-0.034292418509721756,0.26780691742897034,-0.12155827134847641,13.332910537719727,-25.61695098876953,-21.962430953979492,-0.09530973434448242,0.04102611541748047,0.25481879711151123,1.0426548719406128,9.926397323608398,-1.941746473312378
5_20251106_182911,1762424918994,5,0.6081374287605286,0.7478615045547485,0.17502935230731964,0.20059122145175934,0.6224415898323059,2.108057737350464,-1.5928272008895874,0.9473451375961304,9.967423439025879,-1.6869276762008667,-0.07399862259626389,0.36004745960235596,-0.15210150182247162,13.332304000854492,-25.629371643066406,-21.976211547851562,-0.09530973434448242,0.04102611541748047,0.25481879711151123,1.0426548719406128,9.926397323608398,-1.941746473312378
5_20251106_182911,1762424919013,5,0.6084510087966919,0.7463622093200684,0.17801111936569214,0.20259055495262146,0.6337928175926208,2.1164910793304443,-1.5983339548110962,0.803699254989624,9.785470962524414,-2.1082887649536133,-0.07399862259626389,0.36004745960235596,-0.15210150182247162,13.346096992492676,-25.603195190429688,-22.002225875854492,-0.15963506698608398,-0.10628128051757812,-0.12631440162658691,0.963334321975708,9.891752243041992,-1.9819743633270264
5_20251106_182911,1762424919032,5,0.6088653206825256,0.7449550628662109,0.18057402968406677,0.20424985885620117,0.6384736895561218,2.1204164028167725,-1.600526213645935,0.8539752960205078,9.966226577758789,-1.776706337928772,-0.18884120881557465,0.2708612382411957,-0.08918242901563644,13.396758079528809,-25.56261444091797,-21.97243881225586,-0.08748722076416016,0.059578895568847656,0.16421449184417725,0.941462516784668,9.906647682189941,-1.9409208297729492
5_20251106_182911,1762424919051,5,0.6095095872879028,0.7436292767524719,0.1823219656944275,0.20560218393802643,0.6430286169052124,2.124640703201294,-1.6011335849761963,0.9808624982833862,10.087127685546875,-1.4032268524169922,-0.18884120881557465,0.2708612382411957,-0.08918242901563644,13.495643615722656,-25.542755126953125,-22.0628662109375,0.03152000904083252,0.14438438415527344,0.4301551580429077,0.9493424892425537,9.942743301391602,-1.8333820104599
5_20251106_182911,1762424919070,5,0.6103611588478088,0.7420648336410522,0.1838887482881546,0.2073257714509964,0.6430286169052124,2.124640703201294,-1.6011335849761963,0.9808624982833862,10.087127685546875,-1.4032268524169922,-0.09598974883556366,0.24215060472488403,-0.056195735931396484,13.691635131835938,-25.505470275878906,-22.00042724609375,0.03152000904083252,0.14438438415527344,0.4301551580429077,0.9493424892425537,9.942743301391602,-1.8333820104599
5_20251106_182911,1762424919090,5,0.6110036373138428,0.7406072020530701,0.1854241043329239,0.2092689573764801,0.6480614542961121,2.1296823024749756,-1.6004260778427124,1.1065527200698853,10.211621284484863,-1.4008327722549438,-0.09598974883556366,0.24215060472488403,-0.056195735931396484,13.819035530090332,-25.397201538085938,-21.97989273071289,0.12576818466186523,0.2151021957397461,0.34603941440582275,0.98078453540802,9.996519088745117,-1.7468721866607666
5_20251106_182911,1762424919111,5,0.6111191511154175,0.7395840287208557,0.18681690096855164,0.21130140125751495,0.659305214881897,2.1407854557037354,-1.5966923236846924,1.3339920043945312,10.279853820800781,-1.4666705131530762,0.04817432165145874,0.1560186743736267,-0.0018287766724824905,13.96014404296875,-25.25128173828125,-21.876981735229492,0.24654626846313477,0.18956947326660156,0.17262554168701172,1.0874457359313965,10.09028434753418,-1.639296054840088
5_20251106_182911,1762424919129,5,0.6106405258178711,0.7392709255218506,0.18767324090003967,0.21301506459712982,0.6653822660446167,2.1466338634490967,-1.5945426225662231,1.3016718626022339,10.279853820800781,-1.5767991542816162,0.117202028632164,0.09920825064182281,0.018940623849630356,14.047164916992188,-25.208587646484375,-21.81869125366211,0.171380877494812,0.1516551971435547,0.049997568130493164,1.1302909851074219,10.128198623657227,-1.6267967224121094
5_20251106_182911,1762424919148,5,0.6096186637878418,0.7395185232162476,0.18824733793735504,0.21457035839557648,0.6716157793998718,2.1521856784820557,-1.592612862586975,1.298080563545227,10.126630783081055,-1.6677749156951904,0.1226998120546341,0.10165170580148697,0.018940623849630356,14.124214172363281,-25.128883361816406,-21.773616790771484,0.13423168659210205,-0.0012540817260742188,-0.032782554626464844,1.163848876953125,10.127884864807129,-1.6349923610687256
5_20251106_182911,1762424919167,5,0.6085048317909241,0.7399153113365173,0.18877317011356354,0.215897798538208,0.6776431798934937,2.1573216915130615,-1.5910862684249878,1.2023166418075562,10.07755184173584,-1.7467801570892334,0.09398917853832245,0.11264727264642715,0.0030581410974264145,14.198541641235352,-25.099273681640625,-21.743112564086914,0.030774235725402832,-0.040266990661621094,-0.08943021297454834,1.1715424060821533,10.117818832397461,-1.657349944114685
5_20251106_182911,1762424919185,5,0.60749351978302,0.7402066588401794,0.18941658735275269,0.21717987954616547,0.6829461455345154,2.1615207195281982,-1.5896347761154175,1.1221143007278442,9.945877075195312,-1.625878095626831,0.09398917853832245,0.11264727264642715,0.0030581410974264145,14.186567306518555,-25.08818817138672,-21.675758361816406,-0.039542436599731445,-0.13755416870117188,0.025177478790283203,1.1616567373275757,10.083431243896484,-1.6510555744171143
5_20251106_182911,1762424919206,5,0.6066802740097046,0.7402910590171814,0.19024963676929474,0.218433678150177,0.6829461455345154,2.1615207195281982,-1.5896347761154175,1.1221143007278442,9.945877075195312,-1.625878095626831,0.056115567684173584,0.15052089095115662,-0.009159152396023273,14.210247039794922,-25.087547302246094,-21.580163955688477,-0.039542436599731445,-0.13755416870117188,0.025177478790283203,1.1616567373275757,10.083431243896484,-1.6510555744171143
5_20251106_182911,1762424919224,5,0.606036365032196,0.7402188181877136,0.19117124378681183,0.21965788304805756,0.6940188407897949,2.1685569286346436,-1.5859559774398804,1.1831637620925903,9.854900360107422,-1.5528581142425537,0.0811610221862793,0.13463839888572693,-0.0555848702788353,14.232728958129883,-25.100135803222656,-21.417251586914062,0.007827043533325195,-0.15813446044921875,0.0639955997467041,1.1753367185592651,10.01303482055664,-1.6168537139892578
5_20251106_182911,1762424919243,5,0.6053633689880371,0.7401702404022217,0.1923312544822693,0.22066237032413483,0.6984655261039734,2.1707701683044434,-1.5846433639526367,0.9772713780403137,9.763925552368164,-1.7802975177764893,0.0811610221862793,0.13463839888572693,-0.0555848702788353,14.335874557495117,-25.194656372070312,-21.293302536010742,-0.1584523320198059,-0.19928741455078125,-0.13075494766235352,1.1357237100601196,9.963212966918945,-1.6495425701141357
5_20251106_182911,1762424919263,5,0.6048006415367126,0.7400035858154297,0.19421415030956268,0.22111481428146362,0.7012107372283936,2.172010898590088,-1.5836434364318848,0.5966096520423889,9.649007797241211,-1.7395977973937988,0.09215658158063889,0.12242110818624496,-0.14599286019802094,14.388458251953125,-25.329620361328125,-21.212656021118164,-0.43129128217697144,-0.25136375427246094,-0.07204413414001465,1.0279009342193604,9.900371551513672,-1.6675536632537842
5_20251106_182911,1762424919282,5,0.6044199466705322,0.7398033142089844,0.19667278230190277,0.22065220773220062,0.7017095685005188,2.1721415519714355,-1.5830481052398682,0.28896796703338623,9.535287857055664,-1.800647258758545,0.04634172469377518,0.21221822500228882,-0.27916136384010315,14.509119033813477,-25.33490753173828,-21.14043426513672,-0.5911464095115662,-0.2920665740966797,-0.1064748764038086,0.8801143765449524,9.827354431152344,-1.6941723823547363
5_20251106_182911,1762424919300,5,0.6043784022331238,0.739128828048706,0.20003126561641693,0.22000643610954285,0.7003326416015625,2.1712570190429688,-1.5832109451293945,0.14771613478660583,9.422765731811523,-1.9670369625091553,-0.008025234565138817,0.31728696823120117,-0.286491721868515,14.509119033813477,-25.33490753173828,-21.14043426513672,-0.5859185457229614,-0.3236713409423828,-0.21829164028167725,0.7336347103118896,9.746437072753906,-1.748745322227478
5_20251106_182911,1762424919320,5,0.6045966744422913,0.7379806041717529,0.20397786796092987,0.21963734924793243,0.6966140270233154,2.169070243835449,-1.5846214294433594,-0.011491410434246063,9.334184646606445,-2.1561708450317383,-0.05811614170670509,0.3539388179779053,-0.26511144638061523,14.641063690185547,-25.35222625732422,-21.04095458984375,-0.596100926399231,-0.3298015594482422,-0.32594048976898193,0.5846095085144043,9.663986206054688,-1.8302303552627563
5_20251106_182911,1762424919339,5,0.6048773527145386,0.7367103099822998,0.20789174735546112,0.21945908665657043,0.6966140270233154,2.169070243835449,-1.5846214294433594,-0.011491410434246063,9.334184646606445,-2.1561708450317383,-0.1198134794831276,0.36921045184135437,-0.22235095500946045,14.809566497802734,-25.367164611816406,-20.94000244140625,-0.596100926399231,-0.3298015594482422,-0.32594048976898193,0.5846095085144043,9.663986206054688,-1.8302303552627563
5_20251106_182911,1762424919358,5,0.6052892804145813,0.7353647351264954,0.21148359775543213,0.21940438449382782,0.6910545229911804,2.165895462036133,-1.5868539810180664,-0.08211734890937805,9.303060531616211,-2.1238505840301514,-0.16807179152965546,0.37104302644729614,-0.1832556128501892,15.03919792175293,-25.37786102294922,-20.863630294799805,-0.533381462097168,-0.2887411117553711,-0.23489618301391602,0.4512641429901123,9.591801643371582,-1.8889544010162354
5_20251106_182911,1762424919378,5,0.6059685349464417,0.7337972521781921,0.21471638977527618,0.2196374386548996,0.6785892248153687,2.159237861633301,-1.5899401903152466,0.26742106676101685,9.57598876953125,-1.556449294090271,-0.2016693502664566,0.38509291410446167,-0.1630970686674118,15.309925079345703,-25.298812866210938,-20.729873657226562,-0.07820481061935425,0.01918315887451172,0.26509058475494385,0.3456258773803711,9.556805610656738,-1.8215398788452148
5_20251106_182911,1762424919396,5,0.606931746006012,0.7315245866775513,0.21768921613693237,0.22162364423274994,0.6785892248153687,2.159237861633301,-1.5899401903152466,0.26742106676101685,9.57598876953125,-1.556449294090271,-0.18823032081127167,0.3722647726535797,-0.1588210165500641,15.546789169311523,-25.195281982421875,-20.77277374267578,-0.07820481061935425,0.01918315887451172,0.26509058475494385,0.3456258773803711,9.556805610656738,-1.8215398788452148
5_20251106_182911,1762424919416,5,0.6078365445137024,0.7293050289154053,0.22056344151496887,0.22360827028751373,0.668201208114624,2.1558926105499268,-1.5875773429870605,0.5319690108299255,10.050020217895508,-1.0524914264678955,-0.18456514179706573,0.37104305624961853,-0.13438643515110016,15.760704040527344,-25.056610107421875,-20.72124671936035,0.12864446640014648,0.3514738082885742,0.5408391952514648,0.40332454442977905,9.698546409606934,-1.5933306217193604
5_20251106_182911,1762424919434,5,0.6086866855621338,0.7271358370780945,0.22319379448890686,0.2257400006055832,0.668201208114624,2.1558926105499268,-1.5875773429870605,0.5319690108299255,10.050020217895508,-1.0524914264678955,-0.1601305454969406,0.4021971523761749,-0.09895626455545425,15.987100601196289,-24.91674041748047,-20.709779739379883,0.12864446640014648,0.3514738082885742,0.5408391952514648,0.40332454442977905,9.698546409606934,-1.5933306217193604
5_20251106_182911,1762424919454,5,0.6092503666877747,0.725048303604126,0.22582626342773438,0.22830118238925934,0.6639242172241211,2.1559646129608154,-1.5838781595230103,0.5164073705673218,10.07515811920166,-0.9710920453071594,-0.10270926356315613,0.4138035774230957,-0.047032762318849564,16.21269416809082,-24.789566040039062,-20.68505859375,0.09046626091003418,0.30128955841064453,0.4977908730506897,0.4259411096572876,9.773868560791016,-1.4688829183578491
5_20251106_182911,1762424919473,5,0.609285831451416,0.7233659625053406,0.22826668620109558,0.23109906911849976,0.6576780080795288,2.1582627296447754,-1.5740890502929688,0.7426496744155884,10.075157165527344,-1.250004529953003,-0.027572907507419586,0.3685995936393738,0.010999382473528385,16.43878173828125,-24.661712646484375,-20.727920532226562,0.2241445779800415,0.19722938537597656,0.10407495498657227,0.5185050964355469,9.877927780151367,-1.3540794849395752
5_20251106_182911,1762424919493,5,0.6087510585784912,0.7223565578460693,0.2301810383796692,0.23375160992145538,0.6559251546859741,2.159872531890869,-1.5700912475585938,0.7737729549407959,9.998546600341797,-1.5349023342132568,0.03290270268917084,0.315454363822937,0.06536634266376495,16.61833953857422,-24.499237060546875,-20.78546905517578,0.20421433448791504,0.09649467468261719,-0.14465820789337158,0.5695586204528809,9.90205192565918,-1.3902441263198853
