session_id,timestamp,label,quaternion_w,quaternion_x,quaternion_y,quaternion_z,position_x,position_y,position_z,accelerometer_x,accelerometer_y,accelerometer_z,gyroscope_x,gyroscope_y,gyroscope_z,magnetometer_x,magnetometer_y,magnetometer_z,linear_acceleration_x,linear_acceleration_y,linear_acceleration_z,gravity_x,gravity_y,gravity_z
1_20251106_212406,1762435409125,1,0.27232497930526733,0.4037160575389862,0.6665176749229431,0.5644524693489075,0.8047243356704712,2.624187469482422,1.608547568321228,1.354341983795166,9.731605529785156,-2.110682964324951,0.037407830357551575,0.1270216852426529,0.04885008931159973,24.7806396484375,-18.190765380859375,29.663671493530273,-0.005874156951904297,0.8593730926513672,-0.3382681608200073,1.3602161407470703,8.872232437133789,-1.7724148035049438
1_20251106_212406,1762435409144,1,0.2705704867839813,0.40169283747673035,0.6674248576164246,0.5656664371490479,0.7962844371795654,2.6483447551727295,1.555617332458496,1.1807698011398315,9.597535133361816,-2.2950286865234375,-0.053611017763614655,0.17955604195594788,-0.040336161851882935,24.69475555419922,-18.185523986816406,29.836214065551758,-0.14355707168579102,0.5802421569824219,-0.4180910587310791,1.3243268728256226,9.017292976379395,-1.8769376277923584
1_20251106_212406,1762435409163,1,0.26904863119125366,0.3995210826396942,0.6682308912277222,0.5669772624969482,0.7876394987106323,2.6728861331939697,1.5042424201965332,1.095779299736023,9.597535133361816,-2.2746787071228027,-0.08781943470239639,0.11236093193292618,0.02930241823196411,24.633134841918945,-18.19043731689453,29.928377151489258,-0.1828380823135376,0.46419429779052734,-0.3181929588317871,1.2786173820495605,9.133340835571289,-1.9564857482910156
1_20251106_212406,1762435409183,1,0.26773202419281006,0.3980824649333954,0.6684410572052002,0.5683629512786865,0.7792864441871643,2.6977367401123047,1.4552167654037476,1.227454662322998,9.69329833984375,-2.036465883255005,-0.11714094877243042,0.03600284457206726,0.12520816922187805,24.595489501953125,-18.194305419921875,30.075586318969727,-0.04093015193939209,0.4479665756225586,-0.06398415565490723,1.2683848142623901,9.245331764221191,-1.9724817276000977
1_20251106_212406,1762435409204,1,0.2664916217327118,0.397561639547348,0.6679501533508301,0.5698855519294739,0.7708545923233032,2.7279224395751953,1.4018853902816772,1.4740468263626099,10.02009391784668,-1.8102235794067383,-0.11714094877243042,0.03600284457206726,0.12520816922187805,24.56528091430664,-18.29662322998047,30.09952735900879,0.16452956199645996,0.6198101043701172,0.1298065185546875,1.30951726436615,9.400283813476562,-1.9400300979614258
1_20251106_212406,1762435409220,1,0.26568689942359924,0.3978516161441803,0.6669813394546509,0.5711920857429504,0.7657286524772644,2.7502191066741943,1.3658777475357056,1.669165849685669,10.140995979309082,-1.5085673332214355,-0.13241256773471832,-0.12404371052980423,0.11604520678520203,24.536285400390625,-18.37409210205078,30.151025772094727,0.2877187728881836,0.5925703048706055,0.345170259475708,1.3814470767974854,9.548425674438477,-1.8537375926971436
1_20251106_212406,1762435409239,1,0.26556912064552307,0.39811816811561584,0.6659348607063293,0.5722811818122864,0.7607254981994629,2.7768373489379883,1.3266240358352661,1.6655747890472412,10.082340240478516,-1.3553450107574463,-0.11897353827953339,-0.14175879955291748,0.0024243704974651337,24.457332611083984,-18.479583740234375,30.173006057739258,0.22730207443237305,0.42713165283203125,0.3987140655517578,1.4382727146148682,9.655208587646484,-1.754059076309204
1_20251106_212406,1762435409260,1,0.26610687375068665,0.39777496457099915,0.6653037071228027,0.5730036497116089,0.7557485699653625,2.8058369159698486,1.287113070487976,1.520731806755066,9.968620300292969,-1.2452163696289062,-0.09026289731264114,-0.10388517379760742,-0.10142263770103455,24.37726593017578,-18.609786987304688,30.15390968322754,0.06596720218658447,0.2507295608520508,0.40707409381866455,1.4547646045684814,9.717890739440918,-1.6522904634475708
1_20251106_212406,1762435409280,1,0.2668575644493103,0.3966202139854431,0.6653066277503967,0.5734514594078064,0.7511000037193298,2.8309743404388428,1.25362229347229,1.3196274042129517,9.795048713684082,-1.4810351133346558,-0.024289509281516075,-0.04463130235671997,-0.17167207598686218,24.420568466186523,-18.70679473876953,30.126726150512695,-0.10810971260070801,0.06172657012939453,0.13700425624847412,1.4277371168136597,9.733322143554688,-1.6180393695831299
1_20251106_212406,1762435409298,1,0.26739728450775146,0.3948509097099304,0.6660763621330261,0.573527455329895,0.7511000037193298,2.8309743404388428,1.25362229347229,1.3196274042129517,9.795048713684082,-1.4810351133346558,-0.014515673741698265,0.01706603355705738,-0.17289380729198456,24.420568466186523,-18.70679473876953,30.126726150512695,-0.10810971260070801,0.06172657012939453,0.13700425624847412,1.4277371168136597,9.733322143554688,-1.6180393695831299
1_20251106_212406,1762435409316,1,0.2675846815109253,0.392837256193161,0.6670599579811096,0.5736796855926514,0.7405036687850952,2.875831127166748,1.191090703010559,1.056276559829712,9.633447647094727,-1.9730224609375,-0.02917642705142498,0.04883100092411041,-0.12280289828777313,24.50033187866211,-18.801559448242188,30.114530563354492,-0.2538231611251831,-0.06660079956054688,-0.2476825714111328,1.310099720954895,9.700048446655273,-1.7253398895263672
1_20251106_212406,1762435409336,1,0.26736322045326233,0.390970379114151,0.6678990721702576,0.5740817785263062,0.7338777184486389,2.897941827774048,1.1584776639938354,1.0083945989608765,9.652599334716797,-2.0604069232940674,-0.02917642705142498,0.04883100092411041,-0.12280289828777313,24.545846939086914,-18.860763549804688,30.07462501525879,-0.24136412143707275,-0.03795909881591797,-0.26805365085601807,1.2497587203979492,9.690558433532715,-1.7923532724380493
1_20251106_212406,1762435409354,1,0.26668182015419006,0.3893897533416748,0.6685969829559326,0.5746603608131409,0.7278009057044983,2.916914939880371,1.1301928758621216,1.0826116800308228,9.718437194824219,-1.955066442489624,-0.05177842080593109,0.07876337319612503,-0.012236381880939007,24.567485809326172,-18.920883178710938,29.966157913208008,-0.13371765613555908,0.02230358123779297,-0.13017058372497559,1.2163293361663818,9.696133613586426,-1.8248958587646484
1_20251106_212406,1762435409373,1,0.2657691240310669,0.3880258798599243,0.6689985990524292,0.5755376815795898,0.7278009057044983,2.916914939880371,1.1301928758621216,1.0826116800308228,9.718437194824219,-1.955066442489624,-0.05177842080593109,0.07876337319612503,-0.012236381880939007,24.564159393310547,-18.9833984375,29.937807083129883,-0.13371765613555908,0.02230358123779297,-0.13017058372497559,1.2163293361663818,9.696133613586426,-1.8248958587646484
1_20251106_212406,1762435409393,1,0.26447710394859314,0.3865107297897339,0.6693130135536194,0.5767853856086731,0.7152456641197205,2.954179525375366,1.073528528213501,1.2394251823425293,9.556836128234863,-1.8700761795043945,-0.06949349492788315,0.12335649877786636,0.012809070758521557,24.584896087646484,-19.05634307861328,29.856107711791992,0.029720544815063477,-0.09585380554199219,-0.04538679122924805,1.2097046375274658,9.652689933776855,-1.8246893882751465
1_20251106_212406,1762435409411,1,0.2635979950428009,0.3857943117618561,0.6692866086959839,0.5776973962783813,0.7100193500518799,2.9694390296936035,1.049127221107483,1.2418193817138672,9.459874153137207,-1.8928200006484985,-0.04872409254312515,0.08670461177825928,0.03541106358170509,24.608661651611328,-19.067176818847656,29.84330940246582,0.025691747665405273,-0.1542530059814453,-0.05450451374053955,1.216127634048462,9.614127159118652,-1.838315486907959
1_20251106_212406,1762435409430,1,0.2623898684978485,0.3847863972187042,0.6694658994674683,0.5787109136581421,0.7046847939491272,2.9840123653411865,1.025277018547058,1.181966781616211,9.348548889160156,-1.6127104759216309,-0.046891503036022186,0.021342085674405098,0.04701749607920647,24.632736206054688,-19.065994262695312,29.88484001159668,-0.0273287296295166,-0.2124624252319336,0.18048405647277832,1.2092955112457275,9.56101131439209,-1.7931945323944092
1_20251106_212406,1762435409451,1,0.26148584485054016,0.3841797113418579,0.6694787740707397,0.5795078277587891,0.7046847939491272,2.9840123653411865,1.025277018547058,1.181966781616211,9.348548889160156,-1.6127104759216309,0.00014507956802845,0.02378554455935955,0.05679133161902428,24.572917938232422,-19.045257568359375,29.923463821411133,-0.0273287296295166,-0.2124624252319336,0.18048405647277832,1.2092955112457275,9.56101131439209,-1.7931945323944092
1_20251106_212406,1762435409469,1,0.2603375315666199,0.38367530703544617,0.669712483882904,0.5800886154174805,0.6932520270347595,3.0087528228759766,0.9800609946250916,1.0490942001342773,9.117518424987793,-2.052027463912964,0.017249291762709618,0.02745073102414608,0.08428025245666504,24.513103485107422,-19.024520874023438,29.962087631225586,-0.10444414615631104,-0.29800891876220703,-0.22847414016723633,1.1535383462905884,9.41552734375,-1.8235533237457275
1_20251106_212406,1762435409489,1,0.2589859068393707,0.3833814263343811,0.6699550151824951,0.5806076526641846,0.6879137754440308,3.0183942317962646,0.958437979221344,1.1412670612335205,9.061256408691406,-2.1693384647369385,-0.017569996416568756,0.0030161445029079914,0.11360175162553787,24.37854766845703,-19.045547485351562,29.92939567565918,-0.009817004203796387,-0.283416748046875,-0.27662813663482666,1.151084065437317,9.344673156738281,-1.8927103281021118
1_20251106_212406,1762435409508,1,0.257675439119339,0.3837552070617676,0.6699301600456238,0.5809723734855652,0.6829751133918762,3.0272140502929688,0.935613751411438,1.282518982887268,9.074424743652344,-2.287846326828003,-0.049945831298828125,-0.02874881960451603,0.11787781119346619,24.325984954833984,-19.111915588378906,29.96666145324707,0.10514795780181885,-0.21619892120361328,-0.3161088228225708,1.1773710250854492,9.290623664855957,-1.9717375040054321
1_20251106_212406,1762435409527,1,0.2565966546535492,0.38448676466941833,0.6696492433547974,0.5812898874282837,0.6789838075637817,3.034797430038452,0.9141082167625427,1.3471596240997314,9.153429985046387,-2.302210807800293,-0.08048906177282333,-0.07700712978839874,0.08550196886062622,24.316207885742188,-19.07463836669922,29.92641258239746,0.13583087921142578,-0.10975456237792969,-0.26437854766845703,1.2113287448883057,9.263184547424316,-2.037832260131836
1_20251106_212406,1762435409545,1,0.25603818893432617,0.3855149447917938,0.6691576242446899,0.5814213156700134,0.6754902601242065,3.0408599376678467,0.8946298360824585,1.2513957023620605,8.953521728515625,-2.0879390239715576,-0.12447132170200348,-0.0794505923986435,0.03296760469675064,24.24319076538086,-19.079269409179688,29.90995216369629,0.032053589820861816,-0.24773025512695312,-0.0400853157043457,1.2193421125411987,9.201251983642578,-2.047853708267212
1_20251106_212406,1762435409564,1,0.25594162940979004,0.38620898127555847,0.6685580611228943,0.5816929340362549,0.671763002872467,3.045734167098999,0.8749512434005737,1.1376760005950928,8.761995315551758,-2.101106643676758,-0.15623629093170166,-0.043409571051597595,-0.011625516228377819,24.191020965576172,-19.145095825195312,29.893152236938477,-0.06533288955688477,-0.35140514373779297,-0.0426023006439209,1.2030088901519775,9.11340045928955,-2.058504343032837
1_20251106_212406,1762435409584,1,0.25605717301368713,0.3860701322555542,0.6679967641830444,0.5823786854743958,0.671763002872467,3.045734167098999,0.8749512434005737,1.1376760005950928,8.761995315551758,-2.101106643676758,-0.21487930417060852,-0.029359685257077217,-0.040336158126592636,24.16260528564453,-19.233367919921875,29.768678665161133,-0.06533288955688477,-0.35140514373779297,-0.0426023006439209,1.2030088901519775,9.11340045928955,-2.058504343032837
1_20251106_212406,1762435409602,1,0.2564959228038788,0.38545146584510803,0.6673883199691772,0.5832922458648682,0.666938304901123,3.0491297245025635,0.8525976538658142,1.0060005187988281,8.578845977783203,-2.2507376670837402,-0.29062652587890625,-0.045853033661842346,-0.04155788943171501,24.132976531982422,-19.34648895263672,29.61664390563965,-0.15760672092437744,-0.4276437759399414,-0.15378665924072266,1.1636072397232056,9.006489753723145,-2.0969510078430176
1_20251106_212406,1762435409622,1,0.2574715316295624,0.38490790128707886,0.6664910316467285,0.5842465162277222,0.6563594937324524,3.050291061401367,0.8171440958976746,0.5487276911735535,8.375347137451172,-2.4350833892822266,-0.29062652587890625,-0.045853033661842346,-0.04155788943171501,24.14010238647461,-19.456954956054688,29.43904685974121,-0.42684870958328247,-0.4146566390991211,-0.2430272102355957,0.9755764007568359,8.790003776550293,-2.192056179046631
1_20251106_212406,1762435409642,1,0.2585688829421997,0.3836769163608551,0.6648110747337341,0.5864813923835754,0.6489406824111938,3.0481579303741455,0.7985261082649231,0.40149062871932983,8.044961929321289,-2.524862051010132,-0.43967750668525696,-0.03546832874417305,0.028080686926841736,24.17865753173828,-19.65320587158203,29.28810691833496,-0.45926862955093384,-0.5960330963134766,-0.26624464988708496,0.8607592582702637,8.640995025634766,-2.258617401123047
1_20251106_212406,1762435409662,1,0.2597792148590088,0.38248103857040405,0.6626126766204834,0.5892091989517212,0.6396089196205139,3.0435142517089844,0.7799065709114075,0.23150959610939026,7.815128326416016,-2.2591171264648438,-0.5251985788345337,-0.016531525179743767,0.05618046596646309,24.147098541259766,-19.815338134765625,29.013368606567383,-0.5033997297286987,-0.6606931686401367,-0.0003998279571533203,0.7349092960357666,8.475821495056152,-2.2587172985076904
1_20251106_212406,1762435409679,1,0.26101404428482056,0.3811388909816742,0.6599063277244568,0.592560887336731,0.6396089196205139,3.0435142517089844,0.7799065709114075,0.23150959610939026,7.815128326416016,-2.2591171264648438,-0.5251985788345337,-0.016531525179743767,0.05618046596646309,24.09671401977539,-20.09168243408203,28.776315689086914,-0.5033997297286987,-0.6606931686401367,-0.0003998279571533203,0.7349092960357666,8.475821495056152,-2.2587172985076904
1_20251106_212406,1762435409699,1,0.2616541385650635,0.37944555282592773,0.656661331653595,0.5969539880752563,0.6201744079589844,3.031597375869751,0.7517520189285278,0.4481755197048187,8.168258666992188,-1.4151973724365234,-0.6125522255897522,0.07754164189100266,0.12154299020767212,24.087003707885742,-20.30205535888672,28.460954666137695,-0.14137348532676697,-0.1426372528076172,0.612633228302002,0.5895490050315857,8.310895919799805,-2.0278306007385254
1_20251106_212406,1762435409720,1,0.2613382041454315,0.3777875006198883,0.6531711220741272,0.6019521951675415,0.6201744079589844,3.031597375869751,0.7517520189285278,0.4481755197048187,8.168258666992188,-1.4151973724365234,-0.5270311832427979,0.11969131231307983,0.25837668776512146,24.087003707885742,-20.30205535888672,28.460954666137695,-0.14137348532676697,-0.1426372528076172,0.612633228302002,0.5895490050315857,8.310895919799805,-2.0278306007385254
1_20251106_212406,1762435409737,1,0.26063984632492065,0.37688204646110535,0.6498586535453796,0.606391429901123,0.6040657758712769,3.0201194286346436,0.7336164116859436,1.159222960472107,8.529767036437988,-1.234442949295044,-0.4127994775772095,-0.007368555758148432,0.2705940008163452,24.038522720336914,-20.5526123046875,28.15684700012207,0.41055798530578613,0.17704200744628906,0.5027883052825928,0.7486649751663208,8.3527250289917,-1.7372312545776367
1_20251106_212406,1762435409755,1,0.26012933254241943,0.37704887986183167,0.6468088030815125,0.6097583174705505,0.5990280508995056,3.0165998935699463,0.7278788089752197,1.2238634824752808,8.79311752319336,-1.2547928094863892,-0.4127994775772095,-0.007368555758148432,0.2705940008163452,23.911693572998047,-20.896240234375,27.888498306274414,0.38015884160995483,0.3523139953613281,0.38595080375671387,0.8437046408653259,8.440803527832031,-1.640743613243103
1_20251106_212406,1762435409776,1,0.2602536976337433,0.3783194422721863,0.6437581777572632,0.6121419668197632,0.5944899916648865,3.0149710178375244,0.7236958742141724,1.1556317806243896,9.118715286254883,-0.9914419054985046,-0.34255003929138184,-0.15519781410694122,0.2712048590183258,23.83641815185547,-21.198074340820312,27.528287887573242,0.2495417594909668,0.5423288345336914,0.5194413065910339,0.9060900211334229,8.576386451721191,-1.5108832120895386
1_20251106_212406,1762435409794,1,0.2608577013015747,0.3798867166042328,0.640718400478363,0.6141003370285034,0.591645359992981,3.0153355598449707,0.7221325635910034,1.1999225616455078,9.312637329101562,-0.7580173015594482,-0.32300233840942383,-0.20467785000801086,0.2461593896150589,23.670509338378906,-21.593910217285156,27.21686363220215,0.2350659966468811,0.5890007019042969,0.6022927761077881,0.9648565649986267,8.723636627197266,-1.3603100776672363
1_20251106_212406,1762435409812,1,0.2611874043941498,0.38023120164871216,0.6378298997879028,0.6167482137680054,0.5897297859191895,3.0174829959869385,0.7227754592895508,1.3675094842910767,9.365307807922363,-0.5210014581680298,-0.4897684156894684,0.023174678906798363,0.1581948697566986,23.54668426513672,-21.898651123046875,26.827661514282227,0.32212233543395996,0.5133371353149414,0.6714469194412231,1.0453871488571167,8.851970672607422,-1.192448377609253
1_20251106_212406,1762435409832,1,0.26190292835235596,0.3797878324985504,0.6344205737113953,0.6202245950698853,0.589226484298706,3.021595001220703,0.7256742119789124,1.509958267211914,9.498180389404297,-0.4503755569458008,-0.5361941456794739,0.047609273344278336,0.1484210342168808,23.457923889160156,-22.214645385742188,26.547792434692383,0.3716568946838379,0.5169677734375,0.5936582088470459,1.1383013725280762,8.981212615966797,-1.0440337657928467
1_20251106_212406,1762435409851,1,0.2622571289539337,0.3785974681377411,0.6310374736785889,0.624241054058075,0.589226484298706,3.021595001220703,0.7256742119789124,1.509958267211914,9.498180389404297,-0.4503755569458008,-0.4738859236240387,-0.06051378324627876,0.15758401155471802,23.333492279052734,-22.531814575195312,26.144807815551758,0.3716568946838379,0.5169677734375,0.5936582088470459,1.1383013725280762,8.981212615966797,-1.0440337657928467
1_20251106_212406,1762435409870,1,0.2629510760307312,0.37827008962631226,0.627697765827179,0.6275061964988708,0.5910583138465881,3.0344648361206055,0.7359071969985962,1.4776378870010376,9.874053001403809,-0.31750309467315674,-0.42440587282180786,-0.14786744117736816,0.19606848061084747,23.193267822265625,-22.901084899902344,25.848405838012695,0.21391940116882324,0.6078081130981445,0.4785780906677246,1.2637184858322144,9.266244888305664,-0.7960811853408813
1_20251106_212406,1762435409890,1,0.26382142305374146,0.37887027859687805,0.6242538094520569,0.6302084922790527,0.5933917164802551,3.0437281131744385,0.7425711750984192,1.6775453090667725,10.112266540527344,-0.37615853548049927,-0.48549237847328186,-0.1307632327079773,0.23272037506103516,23.080812454223633,-23.229339599609375,25.37806510925293,0.3310614824295044,0.6768178939819336,0.33593815565109253,1.346483826637268,9.43544864654541,-0.7120966911315918
1_20251106_212406,1762435409909,1,0.2645666003227234,0.37938058376312256,0.6203632354736328,0.6334226727485657,0.597153902053833,3.0550320148468018,0.7505133152008057,1.9097728729248047,10.348084449768066,-0.1247781440615654,-0.48549237847328186,-0.1307632327079773,0.23272037506103516,23.018314361572266,-23.529571533203125,24.937246322631836,0.4506312608718872,0.7301092147827148,0.46985483169555664,1.4591416120529175,9.617975234985352,-0.5946329832077026
1_20251106_212406,1762435409928,1,0.26567795872688293,0.3794219195842743,0.6157557964324951,0.637415885925293,0.597153902053833,3.0550320148468018,0.7505133152008057,1.9097728729248047,10.348084449768066,-0.1247781440615654,-0.6137740015983582,-0.0996091216802597,0.22355738282203674,22.831432342529297,-23.8875732421875,24.449918746948242,0.4506312608718872,0.7301092147827148,0.46985483169555664,1.4591416120529175,9.617975234985352,-0.5946329832077026
1_20251106_212406,1762435409946,1,0.2670915722846985,0.37855803966522217,0.6107941269874573,0.6420953273773193,0.6088505983352661,3.081620931625366,0.7749907374382019,2.13840913772583,10.180498123168945,0.8963050246238708,-0.7163992524147034,-0.04585302993655205,0.1734664887189865,20.945152282714844,-26.505111694335938,23.275466918945312,0.4496704339981079,0.32304954528808594,1.0047637224197388,1.6887387037277222,9.85744857788086,-0.10845869779586792
1_20251106_212406,1762435409965,1,0.2685321867465973,0.3770250976085663,0.6061298251152039,0.6467992067337036,0.6160796880722046,3.0950727462768555,0.7907274961471558,2.0857391357421875,10.09311294555664,0.9058813452720642,-0.5893394351005554,-0.036690060049295425,0.06900862604379654,20.797956466674805,-26.798484802246094,22.84499740600586,0.3176002502441406,0.18853187561035156,0.8114720582962036,1.7681388854980469,9.904581069946289,0.09440930187702179
1_20251106_212406,1762435409984,1,0.2699979543685913,0.3757080137729645,0.60219407081604,0.6506204009056091,0.6160796880722046,3.0950727462768555,0.7907274961471558,2.0857391357421875,10.09311294555664,0.9058813452720642,-0.51053786277771,-0.0788397267460823,0.05190441384911537,20.586380004882812,-27.18170166015625,22.207481384277344,0.3176002502441406,0.18853187561035156,0.8114720582962036,1.7681388854980469,9.904581069946289,0.09440930187702179
1_20251106_212406,1762435410003,1,0.2715330421924591,0.37476566433906555,0.5986917614936829,0.6537497043609619,0.6311503052711487,3.12351131439209,0.8244997262954712,1.9863840341567993,10.540809631347656,0.6138013601303101,-0.4983205199241638,-0.06662243604660034,0.03357847034931183,20.4028263092041,-27.477188110351562,21.74850845336914,0.13967692852020264,0.4493227005004883,0.31287509202957153,1.8467071056365967,10.091486930847168,0.3009262681007385
1_20251106_212406,1762435410022,1,0.27319201827049255,0.3737907111644745,0.5953272581100464,0.6566826701164246,0.638672411441803,3.139148235321045,0.8414520025253296,1.9648370742797852,10.727550506591797,0.6006337404251099,-0.509316086769104,-0.033635739237070084,-0.007960328832268715,20.257732391357422,-27.74449920654297,21.223953247070312,0.09450387954711914,0.5088510513305664,0.23976600170135498,1.870333194732666,10.21869945526123,0.3608677387237549
1_20251106_212406,1762435410041,1,0.2748832702636719,0.37229737639427185,0.592187225818634,0.6596575975418091,0.6459692716598511,3.1552484035491943,0.8588548898696899,1.9253344535827637,10.6724853515625,0.834058403968811,-0.49160099029541016,-0.014698932878673077,-0.053164321929216385,20.065208435058594,-27.990013122558594,20.71147918701172,0.044000983238220215,0.36302852630615234,0.37855252623558044,1.8813334703445435,10.309456825256348,0.4555058777332306
1_20251106_212406,1762435410060,1,0.276726096868515,0.37051716446876526,0.5893493294715881,0.6624251008033752,0.6529103517532349,3.1712210178375244,0.8765838742256165,1.8846347332000732,10.556371688842773,0.8915167450904846,-0.467777281999588,0.009735655970871449,-0.07698804140090942,19.913654327392578,-28.169143676757812,20.080150604248047,0.0026410818099975586,0.19753265380859375,0.3488087058067322,1.8819936513900757,10.35883903503418,0.5427080392837524
1_20251106_212406,1762435410080,1,0.27850401401519775,0.3684927523136139,0.5867753028869629,0.665088951587677,0.6529103517532349,3.1712210178375244,0.8765838742256165,1.8846347332000732,10.556371688842773,0.8915167450904846,-0.46044689416885376,-0.015309798531234264,-0.08737274259328842,19.78528594970703,-28.348304748535156,19.61199951171875,0.0026410818099975586,0.19753265380859375,0.3488087058067322,1.8819936513900757,10.35883903503418,0.5427080392837524
1_20251106_212406,1762435410099,1,0.2805601954460144,0.36667993664741516,0.5841498970985413,0.667533278465271,0.6659950613975525,3.202680826187134,0.913526177406311,1.8283734321594238,10.484548568725586,1.0207982063293457,-0.4494513273239136,-0.05440513417124748,-0.09592484682798386,19.733137130737305,-28.483680725097656,19.01241683959961,-0.043701887130737305,0.07834720611572266,0.3243643641471863,1.8720753192901611,10.406201362609863,0.6964338421821594
1_20251106_212406,1762435410118,1,0.28280454874038696,0.36507904529571533,0.5815314650535583,0.6697462201118469,0.671572208404541,3.2171123027801514,0.9320533871650696,1.7828855514526367,10.449834823608398,1.178808569908142,-0.3963060975074768,-0.08128318190574646,-0.10814213752746582,19.620874404907227,-28.598716735839844,18.492008209228516,-0.07135176658630371,0.03490638732910156,0.38589978218078613,1.8542373180389404,10.414928436279297,0.792908787727356
1_20251106_212406,1762435410138,1,0.2851541042327881,0.36376410722732544,0.5791760683059692,0.6715041995048523,0.6768633127212524,3.2309730052948,0.9517573714256287,1.7601417303085327,10.227182388305664,1.180005669593811,-0.32666754722595215,-0.09105701744556427,-0.11119646579027176,19.524843215942383,-28.62627410888672,18.095584869384766,-0.07527649402618408,-0.15019607543945312,0.30967748165130615,1.8354182243347168,10.377378463745117,0.8703281879425049
1_20251106_212406,1762435410157,1,0.2872386574745178,0.36258140206336975,0.5772843360900879,0.6728829741477966,0.6768633127212524,3.2309730052948,0.9517573714256287,1.7601417303085327,10.227182388305664,1.180005669593811,-0.2930699586868286,-0.09777653217315674,-0.1142507866024971,19.524843215942383,-28.62627410888672,18.095584869384766,-0.07527649402618408,-0.15019607543945312,0.30967748165130615,1.8354182243347168,10.377378463745117,0.8703281879425049
1_20251106_212406,1762435410175,1,0.28927847743034363,0.36154645681381226,0.575581967830658,0.6740233898162842,0.6812940835952759,3.2424397468566895,0.9704752564430237,1.7098655700683594,9.99734878540039,1.2111289501190186,-0.3089524507522583,-0.06967675685882568,-0.119137704372406,19.453367233276367,-28.663589477539062,17.578231811523438,-0.10044205188751221,-0.30402374267578125,0.2726406455039978,1.8103076219558716,10.301372528076172,0.9384883046150208
1_20251106_212406,1762435410195,1,0.29128390550613403,0.3602929413318634,0.5738451480865479,0.6753106117248535,0.6885324716567993,3.2613937854766846,1.0066028833389282,1.6787422895431519,10.03924560546875,1.0914239883422852,-0.3303327262401581,-0.0330248698592186,-0.1344093382358551,19.367717742919922,-28.71601104736328,17.235836029052734,-0.08496785163879395,-0.15741825103759766,0.08791935443878174,1.7637101411819458,10.196663856506348,1.0035046339035034
1_20251106_212406,1762435410214,1,0.2931496202945709,0.3585852384567261,0.5721883177757263,0.6768164038658142,0.6885324716567993,3.2613937854766846,1.0066028833389282,1.6787422895431519,10.03924560546875,1.0914239883422852,-0.3303327262401581,-0.0330248698592186,-0.1344093382358551,19.345111846923828,-28.726783752441406,16.896682739257812,-0.08496785163879395,-0.15741825103759766,0.08791935443878174,1.7637101411819458,10.196663856506348,1.0035046339035034
1_20251106_212406,1762435410233,1,0.2951503396034241,0.3566030263900757,0.5706211924552917,0.6783155798912048,0.6940322518348694,3.2763352394104004,1.0397661924362183,1.6117074489593506,10.035655975341797,1.038753867149353,-0.35843250155448914,-0.017142390832304955,-0.21504348516464233,19.261093139648438,-28.7305908203125,16.71753692626953,-0.11030566692352295,-0.08848953247070312,0.02236807346343994,1.7220131158828735,10.1241455078125,1.016385793685913
1_20251106_212406,1762435410252,1,0.2975305914878845,0.3543241322040558,0.5691015720367432,0.679745078086853,0.69523024559021,3.2828235626220703,1.0554369688034058,1.298080563545227,10.02248764038086,1.1201531887054443,-0.4225732982158661,-0.012866339646279812,-0.30300799012184143,19.265705108642578,-28.66632080078125,16.570178985595703,-0.33914613723754883,-0.08132648468017578,0.08301389217376709,1.6372267007827759,10.103814125061035,1.0371392965316772
1_20251106_212406,1762435410271,1,0.300978422164917,0.35161250829696655,0.5673201680183411,0.6811229586601257,0.6941832900047302,3.2883834838867188,1.0708967447280884,0.8408077359199524,9.88362979888916,1.2458434104919434,-0.45067307353019714,0.05921570211648941,-0.3573749363422394,19.19841194152832,-28.58197784423828,16.447437286376953,-0.6371352076530457,-0.1761474609375,0.1669633388519287,1.477942943572998,10.05977725982666,1.0788800716400146
1_20251106_212406,1762435410291,1,0.3041447401046753,0.3477024435997009,0.5659424662590027,0.6828675270080566,0.6907115578651428,3.292722225189209,1.0859365463256836,0.5750627517700195,9.716043472290039,1.2075378894805908,-0.47999459505081177,0.14046069979667664,-0.30789491534233093,19.215604782104492,-28.516380310058594,16.246501922607422,-0.722304105758667,-0.27498722076416016,0.10292625427246094,1.2973668575286865,9.9910306930542,1.1046116352081299
1_20251106_212406,1762435410310,1,0.30667105317115784,0.3433495759963989,0.5644643902778625,0.6851597428321838,0.6855499148368835,3.2960240840911865,1.101147174835205,0.6181565523147583,9.69210147857666,1.4409624338150024,-0.5087052583694458,0.11602611839771271,-0.15395699441432953,19.329198837280273,-28.445907592773438,16.198169708251953,-0.5433683395385742,-0.23914337158203125,0.26908063888549805,1.1615248918533325,9.931244850158691,1.1718817949295044
1_20251106_212406,1762435410329,1,0.3084506094455719,0.3398895561695099,0.562227725982666,0.687919557094574,0.6855499148368835,3.2960240840911865,1.101147174835205,0.6181565523147583,9.69210147857666,1.4409624338150024,-0.5087052583694458,0.11602611839771271,-0.15395699441432953,19.417320251464844,-28.390121459960938,16.202659606933594,-0.5433683395385742,-0.23914337158203125,0.26908063888549805,1.1615248918533325,9.931244850158691,1.1718817949295044
1_20251106_212406,1762435410349,1,0.3096649646759033,0.33799493312835693,0.5593007802963257,0.6906878352165222,0.674808144569397,3.3011300563812256,1.1373313665390015,1.3112481832504272,9.853704452514648,2.2070741653442383,-0.4005821645259857,-0.07700712978839874,0.04946095123887062,19.508235931396484,-28.307334899902344,16.018447875976562,0.1500253677368164,-0.03028106689453125,0.7255358695983887,1.1612228155136108,9.88398551940918,1.4815382957458496
1_20251106_212406,1762435410368,1,0.31065788865089417,0.3371608555316925,0.5564532279968262,0.6929458975791931,0.674808144569397,3.3011300563812256,1.1373313665390015,1.3112481832504272,9.853704452514648,2.2070741653442383,-0.3236132264137268,-0.06051378324627876,-0.012236381880939007,19.607431411743164,-28.27545928955078,15.982349395751953,0.1500253677368164,-0.03028106689453125,0.7255358695983887,1.1612228155136108,9.88398551940918,1.4815382957458496
1_20251106_212406,1762435410387,1,0.31173843145370483,0.3361784517765045,0.5542498230934143,0.694701611995697,0.6683910489082336,3.305392026901245,1.1743593215942383,1.4632734060287476,9.857294082641602,2.0143489837646484,-0.32605665922164917,-0.006757691968232393,-0.10692042112350464,19.718896865844727,-28.2542724609375,15.838348388671875,0.1975259780883789,-0.026275634765625,0.3247189521789551,1.2657474279403687,9.883569717407227,1.6896300315856934
1_20251106_212406,1762435410405,1,0.3130987584590912,0.33434006571769714,0.552517831325531,0.6963547468185425,0.6683910489082336,3.305392026901245,1.1743593215942383,1.4632734060287476,9.857294082641602,2.0143489837646484,-0.353545606136322,0.028061596676707268,-0.17655900120735168,19.768827438354492,-28.249473571777344,15.678115844726562,0.1975259780883789,-0.026275634765625,0.3247189521789551,1.2657474279403687,9.883569717407227,1.6896300315856934
1_20251106_212406,1762435410425,1,0.31486204266548157,0.3318943679332733,0.5509107112884521,0.6980010271072388,0.6639996767044067,3.3076162338256836,1.2115201950073242,1.3734947443008423,9.651402473449707,1.7043132781982422,-0.353545606136322,0.028061596676707268,-0.17655900120735168,19.85169219970703,-28.305213928222656,15.531551361083984,0.0626378059387207,-0.15203475952148438,-0.015692949295043945,1.3108569383621216,9.803437232971191,1.7200062274932861
1_20251106_212406,1762435410443,1,0.3170016407966614,0.3293117880821228,0.5493023991584778,0.6995216608047485,0.6620181202888489,3.307974338531494,1.2269648313522339,1.2262576818466187,9.663372993469238,1.559470295906067,-0.36881721019744873,0.011568250134587288,-0.2168760746717453,19.927404403686523,-28.273719787597656,15.372825622558594,-0.06767940521240234,-0.11205196380615234,-0.12842881679534912,1.293937087059021,9.77542495727539,1.687899112701416
1_20251106_212406,1762435410462,1,0.31956562399864197,0.32672119140625,0.5476909279823303,0.700832188129425,0.6592804789543152,3.30737566947937,1.2421854734420776,1.0203651189804077,9.42635726928711,1.5905935764312744,-0.37920188903808594,-0.04218783974647522,-0.2687995731830597,19.941679000854492,-28.25848388671875,15.18435287475586,-0.21885764598846436,-0.2792539596557617,-0.07784438133239746,1.239222764968872,9.705611228942871,1.6684379577636719
1_20251106_212406,1762435410482,1,0.3224332332611084,0.3242875933647156,0.5460249781608582,0.7019480466842651,0.6552625298500061,3.3053348064422607,1.2580646276474,0.8180637955665588,9.231237411499023,1.8850677013397217,-0.41402119398117065,-0.07639626413583755,-0.21504347026348114,19.982131958007812,-28.21600341796875,14.943321228027344,-0.33692723512649536,-0.3794994354248047,0.17330384254455566,1.1549910306930542,9.610736846923828,1.711763858795166
1_20251106_212406,1762435410502,1,0.32515954971313477,0.32216358184814453,0.5438920259475708,0.7033230662345886,0.650439441204071,3.3019511699676514,1.2747392654418945,0.8240490555763245,9.135473251342773,2.2346062660217285,-0.43479058146476746,-0.08678096532821655,-0.11241818964481354,20.044754028320312,-28.19812774658203,14.810874938964844,-0.264753520488739,-0.38021087646484375,0.41827392578125,1.0888025760650635,9.515684127807617,1.8163323402404785
1_20251106_212406,1762435410520,1,0.3273448348045349,0.3205181360244751,0.5412338972091675,0.7051094770431519,0.6462919116020203,3.2986466884613037,1.2892725467681885,0.9736801981925964,9.255178451538086,2.302838087081909,-0.4286819398403168,-0.10877209156751633,-0.02567540481686592,20.07061004638672,-28.19451904296875,14.609111785888672,-0.0920979380607605,-0.208404541015625,0.38920462131500244,1.065778136253357,9.463582992553711,1.9136334657669067
1_20251106_212406,1762435410540,1,0.32898542284965515,0.3194105625152588,0.5382503867149353,0.7071294188499451,0.6462919116020203,3.2986466884613037,1.2892725467681885,0.9736801981925964,9.255178451538086,2.302838087081909,-0.4115777313709259,-0.1454239785671234,-0.021399352699518204,20.11276626586914,-28.12651824951172,14.328060150146484,-0.0920979380607605,-0.208404541015625,0.38920462131500244,1.065778136253357,9.463582992553711,1.9136334657669067
1_20251106_212406,1762435410559,1,0.33068177103996277,0.3186342418193817,0.5352457761764526,0.7089666724205017,0.6375620365142822,3.2916367053985596,1.3247398138046265,1.0742323398590088,9.493391036987305,2.368675708770752,-0.4115777313709259,-0.1454239785671234,-0.021399352699518204,20.163389205932617,-28.12078094482422,14.073211669921875,-0.0014842748641967773,0.020226478576660156,0.295440673828125,1.0757166147232056,9.473164558410645,2.073235034942627
1_20251106_212406,1762435410578,1,0.33285239338874817,0.31776171922683716,0.532311737537384,0.7105497717857361,0.6331422328948975,3.2882425785064697,1.3420644998550415,0.8611575961112976,9.343761444091797,2.5314745903015137,-0.426849365234375,-0.12648716568946838,-0.11302906274795532,20.285322189331055,-28.13593292236328,13.87484359741211,-0.17164725065231323,-0.10352230072021484,0.3665916919708252,1.0328048467636108,9.447283744812012,2.1648828983306885
1_20251106_212406,1762435410596,1,0.3351646363735199,0.31642812490463257,0.5294992327690125,0.7121576070785522,0.6331422328948975,3.2882425785064697,1.3420644998550415,0.8611575961112976,9.343761444091797,2.5314745903015137,-0.4628903567790985,-0.08678096532821655,-0.10875300318002701,20.285322189331055,-28.13593292236328,13.87484359741211,-0.17164725065231323,-0.10352230072021484,0.3665916919708252,1.0328048467636108,9.447283744812012,2.1648828983306885
1_20251106_212406,1762435410616,1,0.3373590111732483,0.3146679401397705,0.5265525579452515,0.7140836119651794,0.6226903796195984,3.2806038856506348,1.3769443035125732,0.6792060732841492,9.29348373413086,2.622450113296509,-0.5025966167449951,-0.1099938228726387,-0.08737274259328842,20.355791091918945,-28.20435333251953,13.659942626953125,-0.23990166187286377,-0.09306907653808594,0.315826416015625,0.9191077351570129,9.386552810668945,2.306623697280884
1_20251106_212406,1762435410637,1,0.3396608531475067,0.3130579888820648,0.5231994390487671,0.7161616683006287,0.6159814596176147,3.2761220932006836,1.3969395160675049,0.642097532749176,9.264755249023438,2.7828547954559326,-0.5019857287406921,-0.1362610161304474,-0.047055672854185104,20.404991149902344,-28.23534393310547,13.309688568115234,-0.22160816192626953,-0.09743785858154297,0.3809847831726074,0.8637056946754456,9.36219310760498,2.401870012283325
1_20251106_212406,1762435410653,1,0.34184977412223816,0.3118290603160858,0.5196195840835571,0.7182595729827881,0.6108573079109192,3.2728424072265625,1.4123234748840332,0.7258909940719604,9.34376049041748,2.8702392578125,-0.5032074451446533,-0.146034836769104,0.009754747152328491,20.451383590698242,-28.304946899414062,13.05325698852539,-0.110251784324646,-0.014746665954589844,0.3746953010559082,0.8361427783966064,9.35850715637207,2.495543956756592
1_20251106_212406,1762435410674,1,0.3436294496059418,0.31087398529052734,0.515839159488678,0.7205457091331482,0.6050340533256531,3.2692267894744873,1.4320694208145142,0.9222071170806885,9.450298309326172,2.981564998626709,-0.5221442580223083,-0.1570304036140442,0.05190441012382507,20.500385284423828,-28.336204528808594,12.730037689208984,0.06885147094726562,0.07343292236328125,0.38881683349609375,0.8533556461334229,9.37686538696289,2.5927481651306152
1_20251106_212406,1762435410694,1,0.3456026613712311,0.3104299306869507,0.5115833878517151,0.722823977470398,0.6003186702728271,3.2664079666137695,1.4538475275039673,1.1795727014541626,9.611900329589844,3.2137928009033203,-0.5038183331489563,-0.17963239550590515,0.04885008558630943,20.549991607666016,-28.35504150390625,12.420597076416016,0.26097363233566284,0.18802833557128906,0.49683570861816406,0.9185990691184998,9.423871994018555,2.7169570922851562
1_20251106_212406,1762435410711,1,0.3472367823123932,0.30994221568107605,0.5075246095657349,0.725107729434967,0.5974311828613281,3.264831781387329,1.4719054698944092,1.2549867630004883,9.69329833984375,3.31314754486084,-0.45555996894836426,-0.19856920838356018,-0.031173191964626312,20.607261657714844,-28.448829650878906,12.150611877441406,0.26911020278930664,0.21554088592529297,0.47695255279541016,0.9858765602111816,9.477757453918457,2.8361949920654297
1_20251106_212406,1762435410732,1,0.3492930233478546,0.3093554675579071,0.5039415955543518,0.7268675565719604,0.594322681427002,3.2634317874908447,1.495237112045288,1.069444179534912,9.611900329589844,3.4747493267059326,-0.43540143966674805,-0.18451932072639465,-0.1496809422969818,20.6419620513916,-28.5185546875,11.826107025146484,0.06685411930084229,0.1073141098022461,0.5108435153961182,1.0025900602340698,9.504586219787598,2.9639058113098145
1_20251106_212406,1762435410750,1,0.35210761427879333,0.30823782086372375,0.5008418560028076,0.7281257510185242,0.5913901925086975,3.2623350620269775,1.515794277191162,0.8396106958389282,9.522120475769043,3.596848487854004,-0.43540143966674805,-0.18451932072639465,-0.1496809422969818,20.669509887695312,-28.50103759765625,11.489444732666016,-0.13038349151611328,0.014027595520019531,0.5063540935516357,0.9699941873550415,9.508092880249023,3.090494394302368
1_20251106_212406,1762435410769,1,0.35517609119415283,0.30609142780303955,0.4980781674385071,0.7294355034828186,0.587618887424469,3.2610766887664795,1.537298560142517,0.6672356128692627,9.450298309326172,3.4148969650268555,-0.490379273891449,-0.039744384586811066,-0.25474968552589417,20.766155242919922,-28.542213439941406,11.221986770629883,-0.242206871509552,-0.04623603820800781,0.2595219612121582,0.9094424843788147,9.49653434753418,3.1553750038146973
1_20251106_212406,1762435410788,1,0.358174204826355,0.30316027998924255,0.4953936040401459,0.7310200333595276,0.583250105381012,3.259810209274292,1.558593988418579,0.6229447722434998,9.470647811889648,3.471158504486084,-0.5300855040550232,-0.043409571051597595,-0.2382563352584839,20.825538635253906,-28.59833526611328,10.95279312133789,-0.22919821739196777,-0.02070903778076172,0.2526266574859619,0.8521429896354675,9.49135684967041,3.218531847000122
1_20251106_212406,1762435410807,1,0.3611738085746765,0.3001933693885803,0.4924112856388092,0.7327813506126404,0.5786153078079224,3.258704900741577,1.5791512727737427,0.5666834115982056,9.505361557006836,3.78358793258667,-0.5618504881858826,-0.06540070474147797,-0.23886719346046448,20.983707427978516,-28.634735107421875,10.606689453125,-0.22836768627166748,0.011203765869140625,0.4520449638366699,0.795051097869873,9.494157791137695,3.33154296875
1_20251106_212406,1762435410826,1,0.3643724322319031,0.2972775101661682,0.48911741375923157,0.7345903515815735,0.5723846554756165,3.2574594020843506,1.6040444374084473,0.35480570793151855,9.468254089355469,4.382112503051758,-0.5343615412712097,-0.06662243604660034,-0.2486410140991211,21.13119888305664,-28.64667510986328,10.247108459472656,-0.35219627618789673,-0.020723342895507812,0.8404557704925537,0.7070019841194153,9.488977432250977,3.541656732559204
1_20251106_212406,1762435410845,1,0.36761313676834106,0.29442161321640015,0.48597270250320435,0.7362112402915955,0.565345287322998,3.256396770477295,1.6297523975372314,0.1908099204301834,9.511347770690918,4.723271369934082,-0.4738859236240387,-0.03180314227938652,-0.2016044557094574,21.274869918823242,-28.72180938720703,9.926755905151367,-0.4129536747932434,0.01789569854736328,0.9452917575836182,0.6037635803222656,9.493452072143555,3.777979612350464
1_20251106_212406,1762435410863,1,0.3702002763748169,0.2916410267353058,0.4831720292568207,0.7378631830215454,0.5579281449317932,3.2550628185272217,1.6549901962280273,0.16447484493255615,9.340169906616211,4.631098747253418,-0.3950843811035156,-0.008590285666286945,-0.10447695851325989,21.37453269958496,-28.712486267089844,9.633321762084961,-0.3514309525489807,-0.12262535095214844,0.6824953556060791,0.5159057974815369,9.46279525756836,3.948603391647339
1_20251106_212406,1762435410883,1,0.3716474175453186,0.28927162289619446,0.480760782957077,0.7396412491798401,0.5492380261421204,3.253412961959839,1.6823184490203857,0.23270665109157562,9.383262634277344,4.175023078918457,-0.3950843811035156,-0.008590285666286945,-0.10447695851325989,21.561710357666016,-28.65979766845703,9.330596923828125,-0.2265593260526657,-0.06362628936767578,0.1811356544494629,0.45926597714424133,9.44688892364502,3.993887424468994
1_20251106_212406,1762435410901,1,0.3722781240940094,0.28797289729118347,0.47821033000946045,0.7414819598197937,0.5492380261421204,3.253412961959839,1.6823184490203857,0.23270665109157562,9.383262634277344,4.175023078918457,-0.3443826138973236,-0.04524216800928116,0.02258290722966194,21.709115982055664,-28.660263061523438,9.079408645629883,-0.2265593260526657,-0.06362628936767578,0.1811356544494629,0.45926597714424133,9.44688892364502,3.993887424468994
1_20251106_212406,1762435410921,1,0.3725903630256653,0.2872002124786377,0.4752254784107208,0.7435410022735596,0.5343360304832458,3.2515528202056885,1.73051118850708,0.6923736333847046,9.602322578430176,3.9966626167297363,-0.4415101110935211,-0.04157697781920433,0.08916716277599335,21.78319549560547,-28.67737579345703,8.75743293762207,0.19151657819747925,0.10369110107421875,0.0013928413391113281,0.5008570551872253,9.498631477355957,3.995269775390625
1_20251106_212406,1762435410942,1,0.37304168939590454,0.2860470712184906,0.47187674045562744,0.7458882927894592,0.528451681137085,3.250302314758301,1.756116509437561,0.9114336967468262,9.352140426635742,4.288743019104004,-0.49160099029541016,-0.0586811900138855,0.06228911504149437,21.930091857910156,-28.69013214111328,8.478948593139648,0.32846134901046753,-0.11719226837158203,0.23477840423583984,0.5829723477363586,9.469332695007324,4.053964614868164
1_20251106_212406,1762435410962,1,0.3738914728164673,0.2847960591316223,0.46815210580825806,0.7482846975326538,0.5244901776313782,3.248013973236084,1.7804045677185059,1.0311386585235596,9.088788986206055,4.422812461853027,-0.45617085695266724,-0.09899826347827911,0.040297981351614,21.94084358215332,-28.73767852783203,8.289155960083008,0.35853302478790283,-0.30443477630615234,0.2950782775878906,0.6726056337356567,9.393223762512207,4.127734184265137
1_20251106_212406,1762435410980,1,0.37498658895492554,0.28388363122940063,0.4645027220249176,0.7503548264503479,0.522157609462738,3.245234489440918,1.801070213317871,1.0670500993728638,8.969083786010742,4.6071577072143555,-0.45617085695266724,-0.09899826347827911,0.040297981351614,21.94084358215332,-28.73767852783203,8.289155960083008,0.3155555725097656,-0.3393125534057617,0.38353872299194336,0.7514945268630981,9.308396339416504,4.223618984222412
1_20251106_212406,1762435410999,1,0.3761155307292938,0.28342685103416443,0.4611562490463257,0.75202476978302,0.5201690196990967,3.2414181232452393,1.8235423564910889,0.9293893575668335,8.993024826049805,4.416827201843262,-0.3193371593952179,-0.1362610161304474,-0.0036842767149209976,21.987606048583984,-28.829971313476562,7.788904190063477,0.14231586456298828,-0.25229740142822266,0.15456676483154297,0.7870734930038452,9.245322227478027,4.262260437011719
1_20251106_212406,1762435411017,1,0.3772592842578888,0.28303954005241394,0.458404541015625,0.7532790303230286,0.5181875228881836,3.2369494438171387,1.8439322710037231,0.7534230947494507,8.937960624694824,3.912869453430176,-0.3193371593952179,-0.1362610161304474,-0.0036842767149209976,21.987606048583984,-28.829971313476562,7.788904190063477,-0.026920318603515625,-0.24588966369628906,-0.279512882232666,0.7803434133529663,9.183850288391113,4.192382335662842
1_20251106_212406,1762435411036,1,0.3783698081970215,0.28222954273223877,0.45607131719589233,0.7544413208961487,0.5181875228881836,3.2369494438171387,1.8439322710037231,0.7534230947494507,8.937960624694824,3.912869453430176,-0.39447349309921265,-0.04646389186382294,-0.021399352699518204,22.095237731933594,-28.883583068847656,7.589254379272461,-0.026920318603515625,-0.24588966369628906,-0.279512882232666,0.7803434133529663,9.183850288391113,4.192382335662842
1_20251106_212406,1762435411055,1,0.3795018196105957,0.2809092402458191,0.45328211784362793,0.7560447454452515,0.5135573744773865,3.2258729934692383,1.8782517910003662,0.6516739726066589,8.791921615600586,3.8829431533813477,-0.5148138999938965,-0.05684859678149223,0.012809070758521557,22.114948272705078,-28.992713928222656,7.358083724975586,-0.08349764347076416,-0.25772953033447266,-0.1637578010559082,0.7351716160774231,9.049651145935059,4.046700954437256
1_20251106_212406,1762435411074,1,0.3807830512523651,0.27941012382507324,0.44952818751335144,0.7581943273544312,0.5135573744773865,3.2258729934692383,1.8782517910003662,0.6516739726066589,8.791921615600586,3.8829431533813477,-0.5917828679084778,-0.08555923402309418,0.048239223659038544,22.0869140625,-29.092063903808594,7.084665298461914,-0.08349764347076416,-0.25772953033447266,-0.1637578010559082,0.7351716160774231,9.049651145935059,4.046700954437256
1_20251106_212406,1762435411093,1,0.3820733428001404,0.2779346704483032,0.4450090825557709,0.760749101638794,0.5108275413513184,3.219238042831421,1.8968790769577026,0.6708267331123352,8.896064758300781,4.469497203826904,-0.5948371887207031,-0.08250491321086884,0.08794543147087097,22.132896423339844,-29.17382049560547,6.787422180175781,-0.05147594213485718,-0.12286853790283203,0.33823728561401367,0.7223026752471924,9.018933296203613,4.131259918212891
1_20251106_212406,1762435411113,1,0.3831102252006531,0.276561975479126,0.44028255343437195,0.7634731531143188,0.5061875581741333,3.2070133686065674,1.932934284210205,0.757014274597168,8.779950141906738,4.950711250305176,-0.5502440333366394,-0.08006145060062408,0.16002747416496277,22.106470108032227,-29.247787475585938,6.487499237060547,0.03811222314834595,-0.1638660430908203,0.5303864479064941,0.718902051448822,8.943816184997559,4.420324802398682
1_20251106_212406,1762435411131,1,0.38372814655303955,0.2757156789302826,0.4355519413948059,0.7661775946617126,0.5046766400337219,3.201007843017578,1.951741337776184,0.9305864572525024,8.84459114074707,5.127874374389648,-0.5117595791816711,-0.14236965775489807,0.23272037506103516,22.06835174560547,-29.321876525878906,6.119504928588867,0.16934752464294434,-0.07938003540039062,0.5660395622253418,0.7612389326095581,8.923971176147461,4.561834812164307
1_20251106_212406,1762435411151,1,0.3836551010608673,0.27560871839523315,0.4307771921157837,0.7689470648765564,0.5040514469146729,3.1948094367980957,1.9740562438964844,1.0802175998687744,8.970281600952148,5.372072696685791,-0.5129812955856323,-0.1466457098722458,0.2748700678348541,22.01512908935547,-29.447120666503906,5.763481140136719,0.25518298149108887,0.03704833984375,0.6481900215148926,0.8250346183776855,8.933233261108398,4.723882675170898
1_20251106_212406,1762435411170,1,0.3832310140132904,0.27569305896759033,0.42585086822509766,0.7718667984008789,0.5046257376670837,3.189845561981201,1.994808316230774,1.2753366231918335,9.069636344909668,5.403195381164551,-0.508705198764801,-0.09655480086803436,0.2675396502017975,21.90056800842285,-29.588485717773438,5.364191055297852,0.3602416515350342,0.10912227630615234,0.5434503555297852,0.9150949716567993,8.960514068603516,4.859745025634766
1_20251106_212406,1762435411189,1,0.3826685845851898,0.275421142578125,0.4211132824420929,0.7748364806175232,0.5068038105964661,3.1851706504821777,2.018139600753784,1.43215012550354,9.146247863769531,5.328978538513184,-0.4983205199241638,-0.056237731128931046,0.2156161516904831,21.775428771972656,-29.70526123046875,4.937906265258789,0.41364407539367676,0.14858722686767578,0.37538671493530273,1.0185060501098633,8.997660636901855,4.953591823577881
1_20251106_212406,1762435411210,1,0.3822702169418335,0.274718701839447,0.416730135679245,0.7776471972465515,0.5105633735656738,3.1809651851654053,2.0424742698669434,1.4920024871826172,9.13427734375,5.270323276519775,-0.500153124332428,-0.03852265328168869,0.14109066128730774,21.64979362487793,-29.822715759277344,4.579202651977539,0.37879717350006104,0.10929298400878906,0.253385066986084,1.1132053136825562,9.024984359741211,5.016938209533691
1_20251106_212406,1762435411227,1,0.3824194073677063,0.27367427945137024,0.4125743508338928,0.7801539301872253,0.5141552090644836,3.177913188934326,2.0618135929107666,1.43215012550354,9.107941627502441,5.301446914672852,-0.500153124332428,-0.03852265328168869,0.14109066128730774,21.584272384643555,-29.96050262451172,4.141326904296875,0.2551558017730713,0.06636619567871094,0.22760677337646484,1.1769943237304688,9.04157543182373,5.073840141296387
1_20251106_212406,1762435411247,1,0.38311803340911865,0.27219730615615845,0.40855029225349426,0.7824422121047974,0.5186468958854675,3.1746201515197754,2.084629535675049,1.3339921236038208,9.08041000366211,5.469033241271973,-0.5355833172798157,-0.03119228035211563,0.007311288267374039,21.432138442993164,-30.128829956054688,3.68597412109375,0.12559819221496582,0.031067848205566406,0.31615447998046875,1.208393931388855,9.049342155456543,5.152878761291504
1_20251106_212406,1762435411266,1,0.3843429982662201,0.2704777419567108,0.40451112389564514,0.7845336198806763,0.522749662399292,3.1720259189605713,2.1064627170562744,1.2262576818466187,9.186946868896484,5.605496883392334,-0.5355833172798157,-0.03119228035211563,0.007311288267374039,21.352725982666016,-30.292930603027344,3.287628173828125,0.014291048049926758,0.11008358001708984,0.3620944023132324,1.211966633796692,9.076863288879395,5.243402481079102
1_20251106_212406,1762435411284,1,0.38563209772109985,0.2684970796108246,0.400611937046051,0.7865794897079468,0.522749662399292,3.1720259189605713,2.1064627170562744,1.2262576818466187,9.186946868896484,5.605496883392334,-0.4836597740650177,-0.022640174254775047,-0.026897136121988297,21.336963653564453,-30.40296173095703,2.9063072204589844,0.014291048049926758,0.11008358001708984,0.3620944023132324,1.211966633796692,9.076863288879395,5.243402481079102
1_20251106_212406,1762435411303,1,0.38693302869796753,0.2667087912559509,0.3970906138420105,0.7883325815200806,0.5302108526229858,3.1688215732574463,2.148982048034668,1.2094988822937012,9.310243606567383,5.725201606750488,-0.4836597740650177,-0.022640174254775047,-0.026897136121988297,21.336515426635742,-30.44995880126953,2.580860137939453,-0.004069209098815918,0.15606689453125,0.32022571563720703,1.213568091392517,9.154176712036133,5.404975891113281
1_20251106_212406,1762435411323,1,0.3883676528930664,0.26523441076278687,0.3938160836696625,0.7897658944129944,0.5302108526229858,3.1688215732574463,2.148982048034668,1.2094988822937012,9.310243606567383,5.725201606750488,-0.4372340440750122,-0.06601156294345856,-0.06415988504886627,21.373626708984375,-30.481605529785156,2.2166004180908203,-0.004069209098815918,0.15606689453125,0.32022571563720703,1.213568091392517,9.154176712036133,5.404975891113281
1_20251106_212406,1762435411341,1,0.3900037407875061,0.26382094621658325,0.39058440923690796,0.7910369038581848,0.5359776616096497,3.1677985191345215,2.1948013305664062,0.9724831581115723,9.373686790466309,6.2303571701049805,-0.4054690897464752,-0.03241400793194771,-0.0678250640630722,21.422517776489258,-30.524612426757812,1.8120193481445312,-0.1747877597808838,0.14719009399414062,0.5583138465881348,1.147270917892456,9.226496696472168,5.672043323516846
1_20251106_212406,1762435411361,1,0.3914757966995239,0.26221269369125366,0.387701153755188,0.7922619581222534,0.5377668142318726,3.1679728031158447,2.2179653644561768,0.9341776371002197,9.373686790466309,6.0711493492126465,-0.3449934720993042,-0.0024816379882395267,-0.040336158126592636,21.48310089111328,-30.56749725341797,1.4755096435546875,-0.17047464847564697,0.1177520751953125,0.31928491592407227,1.1046522855758667,9.255934715270996,5.751864433288574
1_20251106_212406,1762435411380,1,0.39256101846694946,0.2607061266899109,0.38529306650161743,0.7933961153030396,0.539223313331604,3.168461322784424,2.2420198917388916,0.9952270984649658,9.359322547912598,6.044814109802246,-0.3449934720993042,-0.0024816379882395267,-0.040336158126592636,21.4583797454834,-30.615943908691406,1.1355667114257812,-0.0875401496887207,0.08271026611328125,0.2343597412109375,1.0827672481536865,9.276612281799316,5.810454368591309
1_20251106_212406,1762435411400,1,0.3931790590286255,0.2597772181034088,0.38291820883750916,0.7945436835289001,0.5406421422958374,3.169044256210327,2.26405668258667,1.1532377004623413,9.34376049041748,6.407520294189453,-0.2826852798461914,-0.10632863640785217,0.06351084262132645,21.474262237548828,-30.57532501220703,0.9205894470214844,0.05637633800506592,0.05371856689453125,0.47765254974365234,1.0968613624572754,9.29004192352295,5.929867744445801
1_20251106_212406,1762435411419,1,0.3936142921447754,0.25966906547546387,0.38039934635162354,0.795572817325592,0.542724609375,3.1696617603302,2.291121006011963,1.2490016222000122,9.281515121459961,6.717555999755859,-0.2112141102552414,-0.12465457618236542,0.051293548196554184,21.476337432861328,-30.572494506835938,0.6367473602294922,0.12171220779418945,-0.006821632385253906,0.6301507949829102,1.1272894144058228,9.288336753845215,6.087405204772949
1_20251106_212406,1762435411438,1,0.39399150013923645,0.2598990201950073,0.37833133339881897,0.7962967753410339,0.5446218252182007,3.1699702739715576,2.3158986568450928,1.166405200958252,9.207297325134277,6.639747619628906,-0.14157553017139435,-0.09533306956291199,0.010365611873567104,21.526748657226562,-30.578636169433594,0.3140544891357422,0.03129255771636963,-0.06483173370361328,0.44187402725219727,1.1351126432418823,9.27212905883789,6.197873592376709
1_20251106_212406,1762435411456,1,0.3944215774536133,0.26001277565956116,0.3769403100013733,0.7967063188552856,0.5460379123687744,3.1699466705322266,2.3391215801239014,1.0167739391326904,9.149839401245117,6.5727128982543945,-0.0872085690498352,-0.06784415990114212,-0.012236381880939007,21.526748657226562,-30.578636169433594,0.3140544891357422,-0.09467101097106934,-0.09783172607421875,0.29987144470214844,1.1114449501037598,9.247671127319336,6.272841453552246
1_20251106_212406,1762435411476,1,0.3948797285556793,0.26007023453712463,0.37611010670661926,0.7968530058860779,0.5471138954162598,3.169253349304199,2.3641750812530518,0.9736802577972412,9.027740478515625,6.450613975524902,-0.03223074972629547,-0.019585849717259407,-0.024453680962324142,21.513818740844727,-30.6268310546875,0.028667449951171875,-0.11021173000335693,-0.17594432830810547,0.14221763610839844,1.0838919878005981,9.20368480682373,6.308396339416504
1_20251106_212406,1762435411494,1,0.39506128430366516,0.259866327047348,0.3759545385837555,0.7969029545783997,0.5475885272026062,3.1678028106689453,2.385070562362671,0.9030542969703674,8.855363845825195,6.095090389251709,-0.03223074972629547,-0.019585849717259407,-0.024453680962324142,21.440479278564453,-30.65509033203125,-0.13699913024902344,-0.14467018842697144,-0.2786569595336914,-0.17064476013183594,1.0477244853973389,9.134020805358887,6.265735149383545
1_20251106_212406,1762435411514,1,0.39496737718582153,0.25956782698631287,0.3763320744037628,0.7968685626983643,0.5474023222923279,3.164656639099121,2.4065427780151367,0.8216549158096313,8.602787017822266,6.073543548583984,0.0001450786367058754,0.004237873945385218,-0.012847247533500195,21.427574157714844,-30.6800537109375,-0.23263168334960938,-0.1808556318283081,-0.4249868392944336,-0.15375328063964844,1.0025105476379395,9.0277738571167,6.227296829223633
1_20251106_212406,1762435411533,1,0.3949298560619354,0.2593805193901062,0.37651559710502625,0.7968614101409912,0.5474023222923279,3.164656639099121,2.4065427780151367,0.8216549158096313,8.602787017822266,6.073543548583984,-0.01573740318417549,0.012789979577064514,0.025026366114616394,21.41534996032715,-30.71569061279297,-0.5177555084228516,-0.1808556318283081,-0.4249868392944336,-0.15375328063964844,1.0025105476379395,9.0277738571167,6.227296829223633
1_20251106_212406,1762435411551,1,0.39475277066230774,0.2592402994632721,0.376456081867218,0.7970229387283325,0.5461173057556152,3.1546976566314697,2.4429047107696533,0.9820595979690552,8.350210189819336,6.096287250518799,0.023357940837740898,0.02745073288679123,0.07145208865404129,21.46599769592285,-30.686721801757812,-0.5828475952148438,0.012767672538757324,-0.44494056701660156,-0.09782791137695312,0.9692919254302979,8.795150756835938,6.194115161895752
1_20251106_212406,1762435411571,1,0.39400362968444824,0.2592449188232422,0.37662073969841003,0.7973142266273499,0.5461766123771667,3.1479337215423584,2.459618330001831,1.1927402019500732,8.454353332519531,5.774281024932861,0.06734020262956619,-0.006757691036909819,0.10138446092605591,21.51190948486328,-30.745384216308594,-0.67681884765625,0.1787586212158203,-0.27263832092285156,-0.33586740493774414,1.013981580734253,8.726991653442383,6.1101484298706055
1_20251106_212406,1762435411591,1,0.39294901490211487,0.2597808241844177,0.3769274652004242,0.797515332698822,0.546973466873169,3.1411666870117188,2.473912239074707,1.2849130630493164,8.48547649383545,5.822163105010986,0.07772490382194519,-0.04707476124167442,0.06717602908611298,21.54776382446289,-30.75556182861328,-0.6756114959716797,0.21674513816833496,-0.19321250915527344,-0.23038816452026367,1.0681679248809814,8.678689002990723,6.05255126953125
1_20251106_212406,1762435411609,1,0.39228129386901855,0.26063260436058044,0.3772694766521454,0.797404408454895,0.547927737236023,3.133915662765503,2.487177848815918,1.1400700807571411,8.378938674926758,5.938277244567871,0.030688317492604256,-0.0006490430096164346,0.015863394364714622,21.497509002685547,-30.78398895263672,-0.6645851135253906,0.057521700859069824,-0.23980045318603516,-0.09141921997070312,1.0825483798980713,8.618739128112793,6.029696464538574
1_20251106_212406,1762435411630,1,0.391947865486145,0.26078277826309204,0.3775397837162018,0.7973913550376892,0.547927737236023,3.133915662765503,2.487177848815918,1.1400700807571411,8.378938674926758,5.938277244567871,0.030688317492604256,-0.0006490430096164346,0.015863394364714622,21.522388458251953,-30.770111083984375,-0.6363067626953125,0.057521700859069824,-0.23980045318603516,-0.09141921997070312,1.0825483798980713,8.618739128112793,6.029696464538574
1_20251106_212406,1762435411648,1,0.39153042435646057,0.2603689730167389,0.37813860177993774,0.7974478602409363,0.548230767250061,3.1161882877349854,2.511089324951172,0.8479900360107422,8.053340911865234,5.6785173416137695,0.06428588181734085,0.08365029096603394,0.043963171541690826,21.597211837768555,-30.739830017089844,-0.6733856201171875,-0.16065144538879395,-0.3808155059814453,-0.2642097473144531,1.0086414813995361,8.43415641784668,5.942727088928223
1_20251106_212406,1762435411666,1,0.3906167149543762,0.2599959373474121,0.37890031933784485,0.7976561188697815,0.548230767250061,3.1161882877349854,2.511089324951172,0.8479900360107422,8.053340911865234,5.6785173416137695,0.06795106828212738,0.05555051192641258,0.1227647215127945,21.536083221435547,-30.74407196044922,-0.6488056182861328,-0.16065144538879395,-0.3808155059814453,-0.2642097473144531,1.0086414813995361,8.43415641784668,5.942727088928223
1_20251106_212406,1762435411685,1,0.3892427086830139,0.260162353515625,0.37940171360969543,0.7980350852012634,0.5477513670921326,3.1064400672912598,2.52042818069458,0.8827044367790222,8.018627166748047,5.591132164001465,0.043516479432582855,0.032337650656700134,0.1948467493057251,21.510427474975586,-30.747413635253906,-0.4740753173828125,-0.100749671459198,-0.33242321014404297,-0.28127622604370117,0.9834541082382202,8.35105037689209,5.872408390045166
1_20251106_212406,1762435411705,1,0.38740861415863037,0.26066040992736816,0.3794732987880707,0.798730731010437,0.5480020046234131,3.0868306159973145,2.536675214767456,1.274139642715454,8.193395614624023,5.88800048828125,0.040462151169776917,0.00668133283033967,0.20767490565776825,21.457962036132812,-30.813644409179688,-0.45032501220703125,0.21936464309692383,-0.09074878692626953,0.047135353088378906,1.0547749996185303,8.284144401550293,5.840865135192871
1_20251106_212406,1762435411724,1,0.3855726420879364,0.2614210247993469,0.3793761730194092,0.7994163632392883,0.54933100938797,3.077334403991699,2.544569730758667,1.3639183044433594,8.181426048278809,5.952641487121582,0.07344885170459747,-0.0024816379882395267,0.16186004877090454,21.372560501098633,-30.8193359375,-0.4402427673339844,0.2473146915435791,-0.08217430114746094,0.08942079544067383,1.1166036128997803,8.26360034942627,5.863220691680908
1_20251106_212406,1762435411742,1,0.38403061032295227,0.26222115755081177,0.37956005334854126,0.7998092174530029,0.5509975552558899,3.0685412883758545,2.5518064498901367,1.30765700340271,8.163470268249512,5.916729927062988,0.08566614240407944,-0.009201150387525558,0.1123800277709961,21.2499942779541,-30.83983612060547,-0.44541168212890625,0.15284276008605957,-0.08010387420654297,0.042807579040527344,1.1548142433166504,8.243574142456055,5.873922348022461
1_20251106_212406,1762435411761,1,0.38287076354026794,0.2629493474960327,0.37990930676460266,0.7999603152275085,0.5528680086135864,3.0592379570007324,2.558770179748535,1.227454662322998,8.066509246826172,5.767098426818848,0.08566614240407944,-0.009201150387525558,0.1123800277709961,21.114749908447266,-30.861801147460938,-0.38348960876464844,0.058112263679504395,-0.14165210723876953,-0.08545923233032227,1.1693423986434937,8.208161354064941,5.85255765914917
1_20251106_212406,1762435411780,1,0.381773978471756,0.2634429931640625,0.38034239411354065,0.8001163005828857,0.5528680086135864,3.0592379570007324,2.558770179748535,1.227454662322998,8.066509246826172,5.767098426818848,0.054512038826942444,0.02683986909687519,0.09405408799648285,20.986953735351562,-30.970603942871094,-0.3499565124511719,0.058112263679504395,-0.14165210723876953,-0.08545923233032227,1.1693423986434937,8.208161354064941,5.85255765914917
1_20251106_212406,1762435411800,1,0.3806459605693817,0.2636638581752777,0.38067927956581116,0.8004207015037537,0.5571389198303223,3.0404415130615234,2.569955587387085,1.3112481832504272,8.077281951904297,5.619861602783203,0.009308051317930222,0.02012035623192787,0.09771926701068878,20.907196044921875,-31.088783264160156,-0.3147258758544922,0.10326898097991943,-0.08318901062011719,-0.1429882049560547,1.2079792022705078,8.160470962524414,5.762849807739258
1_20251106_212406,1762435411820,1,0.379646360874176,0.2638150155544281,0.38065722584724426,0.8008559942245483,0.5598613023757935,3.030956506729126,2.575120687484741,1.3770859241485596,8.018627166748047,5.803009986877441,-0.017569996416568756,0.04760926961898804,0.08489111065864563,20.781206130981445,-31.17193603515625,-0.3347301483154297,0.1352853775024414,-0.11347484588623047,0.03212785720825195,1.2418005466461182,8.132102012634277,5.7708821296691895
1_20251106_212406,1762435411840,1,0.37877506017684937,0.26365453004837036,0.3805268406867981,0.8013831973075867,0.5627747774124146,3.022199869155884,2.5798704624176025,1.4082090854644775,8.060523986816406,5.8030104637146,-0.017569996416568756,0.04760926961898804,0.08489111065864563,20.632265090942383,-31.219947814941406,-0.26030921936035156,0.1331268548965454,-0.057262420654296875,0.025702476501464844,1.2750822305679321,8.117786407470703,5.777307987213135
1_20251106_212406,1762435411860,1,0.3780363202095032,0.2631271481513977,0.3805173635482788,0.8019096851348877,0.5661330223083496,3.0131890773773193,2.5851385593414307,1.4213767051696777,8.034189224243164,5.947853088378906,-0.012683079577982426,0.06227002292871475,0.02013944834470749,20.523902893066406,-31.202117919921875,-0.25067901611328125,0.1170356273651123,-0.06687736511230469,0.13643598556518555,1.3043410778045654,8.101066589355469,5.811417102813721
1_20251106_212406,1762435411877,1,0.3774462342262268,0.26256847381591797,0.3806491196155548,0.8023081421852112,0.5689362287521362,3.00571346282959,2.5895214080810547,1.3459625244140625,8.010248184204102,5.870045185089111,0.028244858607649803,0.05799397453665733,-0.008571195416152477,20.523902893066406,-31.202117919921875,-0.25067901611328125,0.033297181129455566,-0.07265472412109375,0.04690265655517578,1.312665343284607,8.082902908325195,5.8231425285339355
1_20251106_212406,1762435411897,1,0.3771037459373474,0.2621256709098816,0.3810867667198181,0.8024062514305115,0.5717737674713135,2.9970028400421143,2.5939438343048096,1.2154842615127563,7.965956687927246,5.666546821594238,0.044738203287124634,0.06898953765630722,-0.02201021835207939,20.461166381835938,-31.23174285888672,-0.19959449768066406,-0.07774484157562256,-0.09355735778808594,-0.1252765655517578,1.293229103088379,8.059514045715332,5.791823387145996
1_20251106_212406,1762435411916,1,0.3766802251338959,0.2614564597606659,0.3815748393535614,0.8025915026664734,0.5740556716918945,2.9888551235198975,2.5972530841827393,1.1915432214736938,7.955183029174805,5.543250560760498,-0.002909243106842041,0.08609375357627869,-0.0024625472724437714,20.45926284790039,-31.257530212402344,-0.13254165649414062,-0.08134877681732178,-0.0834646224975586,-0.19885826110839844,1.2728919982910156,8.038647651672363,5.7421088218688965
1_20251106_212406,1762435411935,1,0.37625986337661743,0.26056304574012756,0.381952166557312,0.8028997182846069,0.5762904286384583,2.9803626537323,2.6005399227142334,1.2573809623718262,7.925256729125977,5.73477840423584,-0.046280637383461,0.06960040330886841,0.034800197929143906,20.482830047607422,-31.268638610839844,-0.11830902099609375,-0.012408852577209473,-0.0907125473022461,-0.005864143371582031,1.2697898149490356,8.015969276428223,5.740642547607422
1_20251106_212406,1762435411954,1,0.3758012354373932,0.25988858938217163,0.38195398449897766,0.8033321499824524,0.5785688161849976,2.9724297523498535,2.603661060333252,1.3651152849197388,7.918074131011963,5.797025203704834,-0.017569996416568756,0.05249619111418724,0.06167824566364288,20.422210693359375,-31.260589599609375,-0.06643295288085938,0.07626044750213623,-0.07831621170043945,0.04510641098022461,1.2888548374176025,7.996390342712402,5.751918792724609
1_20251106_212406,1762435411973,1,0.37493470311164856,0.2593987286090851,0.3818528950214386,0.8039431571960449,0.5811001658439636,2.96520733833313,2.6068780422210693,1.4225736856460571,8.110799789428711,5.843709945678711,-0.008407026529312134,0.06898953020572662,0.05312614142894745,20.290081024169922,-31.23192596435547,-0.044002532958984375,0.10697495937347412,0.09152793884277344,0.07343292236328125,1.315598726272583,8.019271850585938,5.77027702331543
1_20251106_212406,1762435411991,1,0.3742118775844574,0.2589893341064453,0.38169384002685547,0.8044872879981995,0.5811001658439636,2.96520733833313,2.6068780422210693,1.4225736856460571,8.110799789428711,5.843709945678711,-0.03467421233654022,0.14962367713451385,0.00364609993994236,20.30067253112793,-31.244903564453125,0.07786941528320312,0.10697495937347412,0.09152793884277344,0.07343292236328125,1.315598726272583,8.019271850585938,5.77027702331543
1_20251106_212406,1762435412011,1,0.37352970242500305,0.25778305530548096,0.38184085488319397,0.8051217198371887,0.5864731669425964,2.9535036087036133,2.6139464378356934,1.4022239446640015,8.128755569458008,5.940670967102051,-0.03467421233654022,0.21498620510101318,-0.05194259062409401,20.275693893432617,-31.2589111328125,0.06310844421386719,0.05007731914520264,0.05244922637939453,0.10847711563110352,1.3521466255187988,8.076306343078613,5.832193851470947
1_20251106_212406,1762435412030,1,0.3729951083660126,0.25588905811309814,0.38235554099082947,0.8057292699813843,0.5888073444366455,2.9475772380828857,2.6176185607910156,1.2094988822937012,8.01982307434082,5.818572044372559,-0.02612210251390934,0.22231657803058624,-0.05927296355366707,20.258575439453125,-31.34760284423828,0.06077003479003906,-0.11411821842193604,-0.04518699645996094,-0.010897636413574219,1.3236171007156372,8.065010070800781,5.829469680786133
1_20251106_212406,1762435412049,1,0.37243732810020447,0.2538979649543762,0.38291803002357483,0.8063498139381409,0.5888073444366455,2.9475772380828857,2.6176185607910156,1.2094988822937012,8.01982307434082,5.818572044372559,-0.031009020283818245,0.19788199663162231,-0.012847247533500195,20.197559356689453,-31.34009552001953,0.16671180725097656,-0.11411821842193604,-0.04518699645996094,-0.010897636413574219,1.3236171007156372,8.065010070800781,5.829469680786133
1_20251106_212406,1762435412069,1,0.37174704670906067,0.25209641456604004,0.38340213894844055,0.8070033192634583,0.5912090539932251,2.936051845550537,2.623422145843506,1.14126718044281,7.943212509155273,5.702457904815674,-0.04933495819568634,0.13557378947734833,0.057402193546295166,20.174102783203125,-31.317245483398438,0.2338409423828125,-0.10655295848846436,-0.08312129974365234,-0.08645868301391602,1.2478201389312744,8.026333808898926,5.78891658782959
1_20251106_212406,1762435412087,1,0.3707200586795807,0.25079432129859924,0.3835473954677582,0.8078120350837708,0.5912090539932251,2.936051845550537,2.623422145843506,1.14126718044281,7.943212509155273,5.702457904815674,-0.05300015211105347,0.04638754203915596,0.11665607988834381,20.09817886352539,-31.360626220703125,0.3247203826904297,-0.10655295848846436,-0.08312129974365234,-0.08645868301391602,1.2478201389312744,8.026333808898926,5.78891658782959
1_20251106_212406,1762435412107,1,0.36965739727020264,0.2505398690700531,0.38314712047576904,0.8085675239562988,0.5923197269439697,2.930710554122925,2.6265363693237305,1.3016717433929443,8.11439037322998,5.9598236083984375,-0.012683079577982426,0.028061596676707268,0.10443878173828125,20.063129425048828,-31.33776092529297,0.3102607727050781,0.04308128356933594,0.07044506072998047,0.13672542572021484,1.2585904598236084,8.0439453125,5.823098182678223
1_20251106_212406,1762435412125,1,0.3685161769390106,0.25055640935897827,0.38283413648605347,0.8092313408851624,0.5949481129646301,2.923180341720581,2.6326382160186768,1.3375831842422485,8.287962913513184,5.8520894050598145,-0.0016875145956873894,0.06227003037929535,0.0659542977809906,20.120746612548828,-31.384689331054688,0.3792381286621094,0.04327726364135742,0.16536521911621094,-0.0038542747497558594,1.2943059206008911,8.122597694396973,5.85594367980957
1_20251106_212406,1762435412145,1,0.3676186501979828,0.2503925561904907,0.3827890157699585,0.8097114562988281,0.5963490009307861,2.9203317165374756,2.6355252265930176,1.313642144203186,8.327466011047363,5.826951026916504,-0.035895936191082,0.07693077623844147,0.058013059198856354,20.071395874023438,-31.400291442871094,0.3634967803955078,0.015468955039978027,0.1638946533203125,-0.023193836212158203,1.298173189163208,8.16357135772705,5.850144863128662
1_20251106_212406,1762435412163,1,0.36690327525138855,0.25006380677223206,0.38275524973869324,0.8101533651351929,0.5978766679763794,2.9181277751922607,2.638256788253784,1.369903564453125,8.34661865234375,5.846104145050049,-0.027954697608947754,0.054939646273851395,0.06656517088413239,20.09727668762207,-31.373451232910156,0.3514900207519531,0.05738425254821777,0.1464376449584961,-0.0032329559326171875,1.3125193119049072,8.200181007385254,5.849337100982666
1_20251106_212406,1762435412183,1,0.36618298292160034,0.2499486207962036,0.3827720880508423,0.8105067610740662,0.5998269319534302,2.9166624546051025,2.6409316062927246,1.494396686553955,8.429214477539062,5.878424644470215,-0.0022983793169260025,0.02378554455935955,0.06900862604379654,20.06102752685547,-31.363815307617188,0.40434837341308594,0.14550185203552246,0.1832265853881836,0.023270130157470703,1.3488948345184326,8.245987892150879,5.855154514312744
1_20251106_212406,1762435412201,1,0.3655681312084198,0.25027111172676086,0.382800817489624,0.8106712102890015,0.5998269319534302,2.9166624546051025,2.6409316062927246,1.494396686553955,8.429214477539062,5.878424644470215,0.004421132616698742,0.019509492442011833,0.05251527577638626,20.071395874023438,-31.400291442871094,0.3634986877441406,0.14550185203552246,0.1832265853881836,0.023270130157470703,1.3488948345184326,8.245987892150879,5.855154514312744
1_20251106_212406,1762435412220,1,0.36503517627716064,0.2507520318031311,0.3828456997871399,0.8107416033744812,0.6027555465698242,2.915898561477661,2.6441190242767334,1.6117075681686401,8.477096557617188,5.968203067779541,0.027023127302527428,0.005459603387862444,0.005478694103658199,20.006025314331055,-31.491493225097656,0.29161834716796875,0.21025025844573975,0.18488693237304688,0.0904388427734375,1.4014573097229004,8.29220962524414,5.8777642250061035
1_20251106_212406,1762435412240,1,0.36481404304504395,0.2513400912284851,0.3829859495162964,0.810592770576477,0.6090012788772583,2.91532826423645,2.6492421627044678,1.565022587776184,8.387317657470703,5.774281024932861,0.027023127302527428,0.005459603387862444,0.005478694103658199,20.031299591064453,-31.477081298828125,0.26583099365234375,0.09491384029388428,0.06106090545654297,-0.0886378288269043,1.4701087474822998,8.32625675201416,5.862918853759766
1_20251106_212406,1762435412259,1,0.36502712965011597,0.2519444525241852,0.3831281363964081,0.8102419376373291,0.6120673418045044,2.9151763916015625,2.6515512466430664,1.4501057863235474,8.333450317382812,5.870044708251953,-0.0114613501355052,-0.017753256484866142,-0.08431841433048248,20.053668975830078,-31.50141143798828,0.347381591796875,-0.016002416610717773,0.0057544708251953125,0.005700588226318359,1.4661082029342651,8.327695846557617,5.864344120025635
1_20251106_212406,1762435412279,1,0.36574873328208923,0.2523120045661926,0.3832177519798279,0.8097596168518066,0.6120673418045044,2.9151763916015625,2.6515512466430664,1.4501057863235474,8.333450317382812,5.870044708251953,-0.0114613501355052,-0.017753256484866142,-0.08431841433048248,20.053668975830078,-31.50141143798828,0.347381591796875,-0.016002416610717773,0.0057544708251953125,0.005700588226318359,1.4661082029342651,8.327695846557617,5.864344120025635
1_20251106_212406,1762435412299,1,0.36657723784446716,0.2520056366920471,0.38331708312034607,0.8094333410263062,0.6164280772209167,2.914214611053467,2.656440258026123,1.1819669008255005,8.187410354614258,5.877227306365967,-0.01879172772169113,0.008513926528394222,-0.13013328611850739,20.079166412353516,-31.4635009765625,0.4843158721923828,-0.2034931182861328,-0.1043386459350586,0.000583648681640625,1.3854600191116333,8.291749000549316,5.876643657684326
1_20251106_212406,1762435412315,1,0.3674081563949585,0.2513863444328308,0.38357076048851013,0.8091289401054382,0.6170463562011719,2.9134297370910645,2.658597230911255,1.0287444591522217,8.15030288696289,6.0555877685546875,-0.01573740318417549,-0.009201150387525558,-0.10081176459789276,20.079166412353516,-31.4635009765625,0.4843158721923828,-0.2853724956512451,-0.11315727233886719,0.14315509796142578,1.3141169548034668,8.263460159301758,5.912432670593262
1_20251106_212406,1762435412336,1,0.36811867356300354,0.25085803866386414,0.3837813138961792,0.8088700771331787,0.6170463562011719,2.9134297370910645,2.658597230911255,1.0287444591522217,8.15030288696289,6.0555877685546875,0.025190534070134163,-0.011644609272480011,-0.04522307962179184,20.076148986816406,-31.513999938964844,0.5102920532226562,-0.2853724956512451,-0.11315727233886719,0.14315509796142578,1.3141169548034668,8.263460159301758,5.912432670593262
1_20251106_212406,1762435412355,1,0.3682495355606079,0.2502780556678772,0.3841143846511841,0.808832049369812,0.6159807443618774,2.9108633995056152,2.664166212081909,1.040714979171753,8.168258666992188,5.878424167633057,0.07528144121170044,-0.03241400793194771,-0.00612773559987545,20.113018035888672,-31.499595642089844,0.5660915374755859,-0.16846537590026855,-0.060545921325683594,-0.047621726989746094,1.2091803550720215,8.228804588317871,5.926045894622803
1_20251106_212406,1762435412374,1,0.3680340647697449,0.2501479685306549,0.38470402359962463,0.8086901307106018,0.6147463917732239,2.909237861633301,2.666109800338745,1.0670500993728638,8.128755569458008,5.726398944854736,0.07528144121170044,-0.03241400793194771,-0.00612773559987545,20.1756534576416,-31.470108032226562,0.5285224914550781,-0.11370420455932617,-0.08003902435302734,-0.15971755981445312,1.18075430393219,8.208794593811035,5.8861165046691895
1_20251106_212406,1762435412392,1,0.3678024709224701,0.2502896189689636,0.38522908091545105,0.8085017204284668,0.6136202812194824,2.9076950550079346,2.667313575744629,1.1520404815673828,8.146711349487305,5.700063705444336,0.06489674746990204,-0.026305362582206726,0.017695989459753036,20.237499237060547,-31.441696166992188,0.5990829467773438,-0.022971034049987793,-0.049666404724121094,-0.14884233474731445,1.1750115156173706,8.196377754211426,5.84890604019165
1_20251106_212406,1762435412412,1,0.36758503317832947,0.25048500299453735,0.385478138923645,0.8084213733673096,0.6126784086227417,2.906144857406616,2.668652057647705,1.2561838626861572,8.222126007080078,5.871242523193359,0.0019776737317442894,-0.02874882146716118,0.03235674276947975,20.298429489135742,-31.437721252441406,0.6015357971191406,0.06493782997131348,0.020598411560058594,0.017868995666503906,1.1912460327148438,8.20152759552002,5.8533735275268555
1_20251106_212406,1762435412431,1,0.36736592650413513,0.2507611811161041,0.38552701473236084,0.8084120154380798,0.6120623350143433,2.9047203063964844,2.6703689098358154,1.2765337228775024,8.19219970703125,6.0388288497924805,0.00991891510784626,-0.02508363500237465,-0.004295141436159611,20.325410842895508,-31.397789001464844,0.5357265472412109,0.06823015213012695,-0.007462501525878906,0.14836454391479492,1.2083035707473755,8.199662208557129,5.8904643058776855
1_20251106_212406,1762435412450,1,0.3673947751522064,0.2509559094905853,0.38553929328918457,0.8083326816558838,0.6115230321884155,2.903303861618042,2.6723904609680176,1.2250605821609497,8.176637649536133,6.032843589782715,0.025190534070134163,-0.00309250270947814,-0.04522307589650154,20.342418670654297,-31.320846557617188,0.45670318603515625,0.013405680656433105,-0.01842021942138672,0.11390352249145508,1.2116549015045166,8.19505786895752,5.91894006729126
1_20251106_212406,1762435412469,1,0.3675376772880554,0.2507433295249939,0.3856615722179413,0.8082753419876099,0.6107715964317322,2.9018123149871826,2.674386978149414,1.1245085000991821,8.141922950744629,5.946656227111816,0.030688313767313957,0.009735655970871449,-0.07026852667331696,20.402841567993164,-31.32916259765625,0.4318580627441406,-0.0697171688079834,-0.04250812530517578,0.022172927856445312,1.1942256689071655,8.184431076049805,5.924483299255371
1_20251106_212406,1762435412489,1,0.3678184747695923,0.25029483437538147,0.3859573006629944,0.8081454038619995,0.6095426082611084,2.9000132083892822,2.6760833263397217,1.0371237993240356,8.083267211914062,5.825754165649414,0.037407830357551575,0.007292197551578283,-0.07149025797843933,20.454307556152344,-31.275894165039062,0.4483909606933594,-0.12568151950836182,-0.08093070983886719,-0.07898330688476562,1.1628053188323975,8.16419792175293,5.90473747253418
1_20251106_212406,1762435412508,1,0.368122935295105,0.24980542063713074,0.38642069697380066,0.8079367876052856,0.607927680015564,2.898141384124756,2.6774864196777344,0.9784684181213379,8.073690414428711,5.85807466506958,0.037407830357551575,0.007292197551578283,-0.07149025797843933,20.481597900390625,-31.22394561767578,0.43691253662109375,-0.14746952056884766,-0.07240581512451172,-0.03733015060424805,1.1259379386901855,8.146096229553223,5.895404815673828
1_20251106_212406,1762435412526,1,0.368294894695282,0.24943995475769043,0.38691073656082153,0.8077367544174194,0.6060904860496521,2.896219491958618,2.678860664367676,0.9700890779495239,8.049749374389648,5.940670967102051,0.037407830357551575,0.018287761136889458,-0.008571195416152477,20.446758270263672,-31.189193725585938,0.4902992248535156,-0.1246790885925293,-0.07707786560058594,0.036212921142578125,1.0947681665420532,8.126827239990234,5.904458045959473
1_20251106_212406,1762435412545,1,0.3680979013442993,0.24894219636917114,0.3873863220214844,0.8077521324157715,0.604136049747467,2.893988847732544,2.680072069168091,1.0538824796676636,8.01623249053955,5.843709945678711,0.037407830357551575,0.018287761136889458,-0.008571195416152477,20.460254669189453,-31.163421630859375,0.5048332214355469,-0.03270852565765381,-0.08847618103027344,-0.048598289489746094,1.0865910053253174,8.104708671569824,5.892308235168457
1_20251106_212406,1762435412565,1,0.3675491213798523,0.2483496516942978,0.3879145383834839,0.8079309463500977,0.6024314761161804,2.891507387161255,2.680720806121826,1.1687992811203003,8.022218704223633,5.70724630355835,0.05817723274230957,0.02683986723423004,0.034189336001873016,20.42641830444336,-31.115707397460938,0.5179347991943359,0.06576657295227051,-0.06599235534667969,-0.14804983139038086,1.1030327081680298,8.088211059570312,5.8552961349487305
1_20251106_212406,1762435412584,1,0.3668834865093231,0.2481166124343872,0.38837167620658875,0.8080854415893555,0.6014216542243958,2.889139175415039,2.680755615234375,1.2956864833831787,8.041370391845703,5.654576301574707,0.05267944931983948,-0.0018707733834162354,0.04640663042664528,20.401044845581055,-31.13025665283203,0.5572395324707031,0.15412306785583496,-0.03747272491455078,-0.16057586669921875,1.1415634155273438,8.078843116760254,5.815152168273926
1_20251106_212406,1762435412604,1,0.3663252890110016,0.2484537810087204,0.38865697383880615,0.8080978989601135,0.6010841727256775,2.8868463039398193,2.6801822185516357,1.3627212047576904,8.103616714477539,5.615073204040527,0.05267944931983948,-0.0018707733834162354,0.04640663042664528,20.448787689208984,-31.140037536621094,0.5994853973388672,0.17692625522613525,0.019819259643554688,-0.1600632667541504,1.1857949495315552,8.083797454833984,5.775136470794678
1_20251106_212406,1762435412621,1,0.3659832179546356,0.24897557497024536,0.3887558877468109,0.8080447316169739,0.6010841727256775,2.8868463039398193,2.6801822185516357,1.3627212047576904,8.103616714477539,5.615073204040527,0.03374263644218445,-0.01530979759991169,0.02624809369444847,20.451904296875,-31.08940887451172,0.5599918365478516,0.17692625522613525,0.019819259643554688,-0.1600632667541504,1.1857949495315552,8.083797454833984,5.775136470794678
1_20251106_212406,1762435412642,1,0.3661646246910095,0.24934080243110657,0.3886367082595825,0.8079072833061218,0.6014211773872375,2.8833062648773193,2.678854465484619,1.2573809623718262,8.131149291992188,5.870044708251953,-0.056665338575839996,0.01706603355705738,-0.05133172497153282,20.452001571655273,-31.089271545410156,0.5464744567871094,0.0327911376953125,0.02570819854736328,0.09521627426147461,1.2245898246765137,8.105441093444824,5.7748284339904785
1_20251106_212406,1762435412660,1,0.3666853904724121,0.24920400977134705,0.38834646344184875,0.8078528642654419,0.6015450358390808,2.8817355632781982,2.6787402629852295,1.1951342821121216,8.040173530578613,5.908350467681885,-0.03467421233654022,0.014622574672102928,-0.0629381537437439,20.450197219848633,-31.11492156982422,0.6000118255615234,-0.023564457893371582,-0.052214622497558594,0.10681724548339844,1.2186987400054932,8.092388153076172,5.801533222198486
1_20251106_212406,1762435412681,1,0.36710602045059204,0.2487536370754242,0.3881377577781677,0.8079009056091309,0.601320743560791,2.8797447681427,2.678617000579834,1.0993704795837402,8.015035629272461,5.803009986877441,0.0025885384529829025,-0.01897498406469822,-0.03972529619932175,20.485754013061523,-31.125503540039062,0.6417675018310547,-0.09546256065368652,-0.06188201904296875,0.0011811256408691406,1.1948330402374268,8.07691764831543,5.801828861236572
1_20251106_212406,1762435412699,1,0.3672575056552887,0.2485629916191101,0.3880310654640198,0.8079419732093811,0.6007155776023865,2.877694606781006,2.67797589302063,1.0658529996871948,8.024612426757812,5.629438400268555,-0.012683079577982426,-0.012255473993718624,-0.012847247533500195,20.50992774963379,-31.124183654785156,0.6697807312011719,-0.10318410396575928,-0.04184436798095703,-0.13791275024414062,1.169037103652954,8.06645679473877,5.767351150512695
1_20251106_212406,1762435412720,1,0.3672918975353241,0.24832765758037567,0.38791540265083313,0.8080542683601379,0.6000603437423706,2.876018524169922,2.6770780086517334,1.1292966604232788,8.129952430725098,5.650984764099121,-0.06338484585285187,-0.009812015108764172,0.012198206037282944,20.53167724609375,-31.17255401611328,0.6426734924316406,-0.031792402267456055,0.0507965087890625,-0.0930933952331543,1.1610890626907349,8.079155921936035,5.744078159332275
1_20251106_212406,1762435412736,1,0.36731845140457153,0.24811656773090363,0.3875526487827301,0.8082810640335083,0.5995751023292542,2.875092029571533,2.676762819290161,1.2035136222839355,8.315495491027832,5.94426155090332,-0.09514981508255005,-0.03241400793194771,0.018917717039585114,20.53167724609375,-31.17255401611328,0.6426734924316406,0.03393959999084473,0.1890716552734375,0.16014671325683594,1.1695740222930908,8.126423835754395,5.784114837646484
1_20251106_212406,1762435412757,1,0.36752793192863464,0.2481560856103897,0.38685423135757446,0.8085082769393921,0.5990241765975952,2.8744959831237793,2.6772191524505615,1.156828761100769,8.252052307128906,6.043617248535156,-0.046891503036022186,-0.029359685257077217,-0.009792922995984554,20.557544708251953,-31.157325744628906,0.5357875823974609,-0.010196208953857422,0.10050296783447266,0.20760154724121094,1.1670249700546265,8.151549339294434,5.836015701293945
1_20251106_212406,1762435412775,1,0.3678203523159027,0.2481846809387207,0.3864242434501648,0.8085721135139465,0.5981919765472412,2.8740804195404053,2.6776106357574463,1.0203651189804077,8.189805030822754,5.8365278244018555,-0.004741838201880455,-0.011644609272480011,-0.018345028162002563,20.54545783996582,-31.157981872558594,0.5217819213867188,-0.11732780933380127,0.03060436248779297,0.0004096031188964844,1.137692928314209,8.159200668334961,5.836118221282959
1_20251106_212406,1762435412794,1,0.36788836121559143,0.24796350300312042,0.3863387703895569,0.8086498975753784,0.5968003869056702,2.8736913204193115,2.6777920722961426,0.9688920378684998,8.175439834594727,5.759916305541992,-0.0255112387239933,0.004848738666623831,0.004256964661180973,20.55603790283203,-31.182571411132812,0.5487766265869141,-0.13504070043563843,0.012991905212402344,-0.06096172332763672,1.1039327383041382,8.162447929382324,5.820878028869629
1_20251106_212406,1762435412813,1,0.3678857088088989,0.24760764837265015,0.38633665442466736,0.8087611198425293,0.5952988266944885,2.8732969760894775,2.6779298782348633,1.014379858970642,8.146711349487305,5.811389446258545,-0.046280637383461,-0.00859028473496437,0.03602192923426628,20.51795768737793,-31.221817016601562,0.46541595458984375,-0.07164227962493896,-0.012589454650878906,-0.007590770721435547,1.086022138595581,8.159300804138184,5.8189802169799805
1_20251106_212406,1762435412832,1,0.3677774965763092,0.24739466607570648,0.38615602254867554,0.8089617490768433,0.594071626663208,2.8731439113616943,2.678388833999634,1.1364789009094238,8.241278648376465,5.955035209655762,-0.03895026445388794,-0.046463895589113235,0.06778689473867416,20.52045440673828,-31.195220947265625,0.3172645568847656,0.04036533832550049,0.065582275390625,0.10884380340576172,1.0961135625839233,8.17569637298584,5.84619140625
1_20251106_212406,1762435412852,1,0.36755675077438354,0.24763686954975128,0.38572221994400024,0.8091949224472046,0.5931597352027893,2.8736112117767334,2.6799163818359375,1.2298487424850464,8.365771293640137,6.1501545906066895,-0.02001345530152321,-0.06051378697156906,0.06412170827388763,20.494152069091797,-31.245826721191406,0.19358062744140625,0.10698819160461426,0.15205955505371094,0.24317026138305664,1.1228605508804321,8.213711738586426,5.906984329223633
1_20251106_212406,1762435412871,1,0.36733829975128174,0.24812647700309753,0.385249525308609,0.8093692660331726,0.5926957726478577,2.8745384216308594,2.6817519664764404,1.2394251823425293,8.4052734375,6.097484588623047,0.008086321875452995,-0.02141844481229782,0.008533017709851265,20.48054313659668,-31.283348083496094,0.09768486022949219,0.09325170516967773,0.15324974060058594,0.15240049362182617,1.1461734771728516,8.252023696899414,5.945084095001221
1_20251106_212406,1762435412889,1,0.36722639203071594,0.2481922209262848,0.38513192534446716,0.8094558715820312,0.5926957726478577,2.8745384216308594,2.6817519664764404,1.2394251823425293,8.4052734375,6.097484588623047,0.01602756232023239,0.018287761136889458,-0.053164318203926086,20.466751098632812,-31.309524536132812,0.12369918823242188,0.09325170516967773,0.15324974060058594,0.15240049362182617,1.1461734771728516,8.252023696899414,5.945084095001221
1_20251106_212406,1762435412910,1,0.3674412965774536,0.24784554541110992,0.3854186236858368,0.8093280792236328,0.5910632610321045,2.87605357170105,2.68415904045105,0.9377686977386475,8.11319351196289,5.721611022949219,0.01602756232023239,0.018287761136889458,-0.053164318203926086,20.489416122436523,-31.333457946777344,0.1647014617919922,-0.16287434101104736,-0.11681461334228516,-0.16562271118164062,1.1006430387496948,8.230008125305176,5.887233734130859
1_20251106_212406,1762435412930,1,0.36780107021331787,0.24741768836975098,0.38576072454452515,0.8091325759887695,0.5893573760986328,2.876140832901001,2.6847727298736572,0.8491870760917664,8.085661888122559,5.818572044372559,-0.024900373071432114,0.0024052797816693783,-0.009182059206068516,20.454267501831055,-31.31072235107422,0.16375732421875,-0.20116478204727173,-0.1154775619506836,-0.054929256439208984,1.050351858139038,8.201139450073242,5.873501300811768
1_20251106_212406,1762435412947,1,0.3679465651512146,0.24700069427490234,0.3859121799468994,0.8091216087341309,0.5876995325088501,2.875990390777588,2.6853315830230713,0.9557244777679443,8.09882926940918,5.890394687652588,-0.012683079577982426,-0.006757691036909819,0.047628358006477356,20.417091369628906,-31.337142944335938,0.05362701416015625,-0.07570195198059082,-0.08184814453125,0.013514995574951172,1.0314264297485352,8.18067741394043,5.876879692077637
1_20251106_212406,1762435412965,1,0.3675689101219177,0.24663607776165009,0.3859865069389343,0.8093689680099487,0.5860633254051208,2.8755764961242676,2.6860177516937256,1.0766265392303467,8.088055610656738,5.910744667053223,0.023968802765011787,-0.02202930860221386,0.0714520812034607,20.455059051513672,-31.309646606445312,0.05562591552734375,0.03616011142730713,-0.0740976333618164,0.02709197998046875,1.0404664278030396,8.162153244018555,5.883652687072754
1_20251106_212406,1762435412985,1,0.3670480251312256,0.24675388634204865,0.3860589861869812,0.8095349073410034,0.5846825838088989,2.8749518394470215,2.6865315437316895,1.1245083808898926,8.092844009399414,5.826951026916504,0.030688317492604256,-0.011033744551241398,0.0714520812034607,20.442068099975586,-31.323135375976562,0.06838798522949219,0.06723356246948242,-0.05544757843017578,-0.04536104202270508,1.0572748184204102,8.14829158782959,5.872312068939209
1_20251106_212406,1762435413004,1,0.36644309759140015,0.24696359038352966,0.3860950767993927,0.8097277879714966,0.5837851762771606,2.87399959564209,2.6867361068725586,1.1843608617782593,8.006656646728516,5.777872085571289,0.020914481952786446,0.0017944149440154433,0.053737007081508636,20.44478988647461,-31.273040771484375,0.08296012878417969,0.1016688346862793,-0.11330795288085938,-0.07555198669433594,1.08269202709198,8.119964599609375,5.853424072265625
1_20251106_212406,1762435413023,1,0.3659643828868866,0.2471161037683487,0.3861803412437439,0.8098570704460144,0.5831655859947205,2.8727939128875732,2.686762571334839,1.1676021814346313,8.010248184204102,5.792236804962158,-0.020624320954084396,0.028061596676707268,0.03052414581179619,20.369953155517578,-31.31494140625,0.025159835815429688,0.06792807579040527,-0.08777332305908203,-0.0489497184753418,1.099674105644226,8.098021507263184,5.8411865234375
1_20251106_212406,1762435413042,1,0.3656495213508606,0.24693897366523743,0.38602501153945923,0.810127317905426,0.5827575325965881,2.8712716102600098,2.686937093734741,1.1604199409484863,7.920468330383301,5.902365684509277,-0.04566977173089981,0.05249618738889694,0.009754747152328491,20.344356536865234,-31.352989196777344,-0.09825897216796875,0.04859662055969238,-0.1420431137084961,0.048943519592285156,1.111823320388794,8.062511444091797,5.853422164916992
1_20251106_212406,1762435413061,1,0.3654007017612457,0.24635565280914307,0.38584280014038086,0.8105039000511169,0.5825982689857483,2.8690946102142334,2.687321186065674,1.2011195421218872,7.874980449676514,5.919124126434326,-0.03161988407373428,0.04516581445932388,0.01341993547976017,20.2717342376709,-31.357078552246094,-0.16878318786621094,0.07143700122833252,-0.1500248908996582,0.052561283111572266,1.1296825408935547,8.025005340576172,5.866562843322754
1_20251106_212406,1762435413080,1,0.36509716510772705,0.2457689791917801,0.3855791389942169,0.810944139957428,0.5825982689857483,2.8690946102142334,2.687321186065674,1.2011195421218872,7.874980449676514,5.919124126434326,0.0013668090105056763,-0.00309250270947814,0.018917717039585114,20.280580520629883,-31.43041229248047,-0.2915229797363281,0.07143700122833252,-0.1500248908996582,0.052561283111572266,1.1296825408935547,8.025005340576172,5.866562843322754
1_20251106_212406,1762435413099,1,0.3648380935192108,0.24572321772575378,0.38531365990638733,0.811200737953186,0.5826866626739502,2.8666329383850098,2.6876609325408936,1.2142871618270874,7.8438568115234375,5.8640594482421875,-0.008407026529312134,-0.01042287889868021,0.017695989459753036,20.257421493530273,-31.40715789794922,-0.26494407653808594,0.06768369674682617,-0.14491891860961914,-0.002002716064453125,1.1466034650802612,7.988775730133057,5.866062164306641
1_20251106_212406,1762435413119,1,0.3646920323371887,0.24577271938323975,0.3849616050720215,0.8114185333251953,0.5829662084579468,2.8639886379241943,2.688014268875122,1.2178782224655151,7.877374649047852,5.877227306365967,-0.03833939880132675,0.022563815116882324,0.0005917763337492943,20.219650268554688,-31.43438720703125,-0.293975830078125,0.057019829750061035,-0.08912086486816406,0.008932113647460938,1.160858392715454,7.966495513916016,5.868295192718506
1_20251106_212406,1762435413138,1,0.364629328250885,0.2454177439212799,0.3845580220222473,0.8117454648017883,0.583491861820221,2.861044406890869,2.6883766651153564,1.2418192625045776,7.867798328399658,5.871241569519043,-0.03833939880132675,0.022563815116882324,0.0005917763337492943,20.219650268554688,-31.43438720703125,-0.293975830078125,0.06476867198944092,-0.07895803451538086,0.002357006072998047,1.1770505905151367,7.946756362915039,5.868884563446045
1_20251106_212406,1762435413158,1,0.36469972133636475,0.24488577246665955,0.384120911359787,0.8120813965797424,0.5845951437950134,2.854753255844116,2.6892831325531006,1.173587441444397,7.754078388214111,5.895183086395264,-0.046280637383461,0.05249618738889694,-0.028118867427110672,20.205535888671875,-31.48419189453125,-0.41716957092285156,-0.008536815643310547,-0.1346139907836914,0.014723777770996094,1.1821242570877075,7.888692378997803,5.880459308624268
1_20251106_212406,1762435413176,1,0.36475497484207153,0.2441541999578476,0.3837854862213135,0.8124353885650635,0.5847685933113098,2.851104259490967,2.689185619354248,1.0646560192108154,7.700211524963379,5.683305263519287,-0.03956113010644913,0.06227003037929535,-0.0317840538918972,20.205535888671875,-31.48419189453125,-0.41716957092285156,-0.09397459030151367,-0.15078449249267578,-0.15772342681884766,1.158630609512329,7.850996017456055,5.841028690338135
1_20251106_212406,1762435413195,1,0.36481788754463196,0.24332064390182495,0.3835325837135315,0.8127765655517578,0.5847685933113098,2.851104259490967,2.689185619354248,1.0646560192108154,7.700211524963379,5.683305263519287,-0.06888262927532196,0.041500624269247055,0.003035235218703747,20.22265625,-31.39550018310547,-0.41483116149902344,-0.09397459030151367,-0.15078449249267578,-0.15772342681884766,1.158630609512329,7.850996017456055,5.841028690338135
1_20251106_212406,1762435413214,1,0.36477145552635193,0.24266676604747772,0.3831653892993927,0.8131659626960754,0.5841862559318542,2.8435239791870117,2.6873788833618164,1.0754294395446777,7.803157806396484,5.719216823577881,-0.06888262927532196,0.041500624269247055,0.003035235218703747,20.177534103393555,-31.33575439453125,-0.4289894104003906,-0.04405534267425537,-0.015294075012207031,-0.05440187454223633,1.119484782218933,7.818451881408691,5.773618698120117
1_20251106_212406,1762435413233,1,0.36466163396835327,0.24244940280914307,0.3823440968990326,0.8136665225028992,0.5839488506317139,2.840365171432495,2.687002182006836,1.158025860786438,7.955183029174805,5.974188327789307,-0.12569305300712585,-0.020807581022381783,0.08550197631120682,20.250354766845703,-31.331390380859375,-0.385498046875,0.030832886695861816,0.10938453674316406,0.16045570373535156,1.1271929740905762,7.845798492431641,5.813732624053955
1_20251106_212406,1762435413252,1,0.3643895089626312,0.2424352765083313,0.3812207579612732,0.8143194317817688,0.5840017199516296,2.8380486965179443,2.687166690826416,1.228651762008667,8.095237731933594,6.004114627838135,-0.12019526958465576,0.010346520692110062,0.08305852115154266,20.229000091552734,-31.28247833251953,-0.4124565124511719,0.08116698265075684,0.19955158233642578,0.15230560302734375,1.1474847793579102,7.895686149597168,5.851809024810791
1_20251106_212406,1762435413273,1,0.36396753787994385,0.24216222763061523,0.38011521100997925,0.8151058554649353,0.5840017199516296,2.8380486965179443,2.687166690826416,1.228651762008667,8.095237731933594,6.004114627838135,-0.12569305300712585,0.029283327981829643,0.06656517088413239,20.190834045410156,-31.31024932861328,-0.3874225616455078,0.08116698265075684,0.19955158233642578,0.15230560302734375,1.1474847793579102,7.895686149597168,5.851809024810791
1_20251106_212406,1762435413292,1,0.36369356513023376,0.2418472021818161,0.3791118264198303,0.8157886862754822,0.5846149921417236,2.836745262145996,2.6882424354553223,1.2849130630493164,8.23409652709961,6.072346210479736,-0.13057996332645416,0.05066359415650368,0.057402193546295166,20.15517807006836,-31.2998046875,-0.4156627655029297,0.10994267463684082,0.27072858810424805,0.17642927169799805,1.1749703884124756,7.963367938995361,5.895916938781738
1_20251106_212406,1762435413310,1,0.36333081126213074,0.2413703203201294,0.3782300353050232,0.8165005445480347,0.5866798758506775,2.837583065032959,2.6913857460021973,1.3986327648162842,8.436397552490234,6.201627731323242,-0.13057996332645416,0.05066359415650368,0.057402193546295166,20.093952178955078,-31.304183959960938,-0.3775653839111328,0.15214574337005615,0.3165292739868164,0.20848751068115234,1.246487021446228,8.119868278503418,5.99314022064209
1_20251106_212406,1762435413330,1,0.36312609910964966,0.2412773072719574,0.3773922026157379,0.8170066475868225,0.5866798758506775,2.837583065032959,2.6913857460021973,1.3986327648162842,8.436397552490234,6.201627731323242,-0.07438041269779205,-0.004925096873193979,0.05923479050397873,20.020339965820312,-31.30962371826172,-0.31292724609375,0.15214574337005615,0.3165292739868164,0.20848751068115234,1.246487021446228,8.119868278503418,5.99314022064209
1_20251106_212406,1762435413349,1,0.3628298044204712,0.24158190190792084,0.3767527639865875,0.8173432946205139,0.5910235643386841,2.841862440109253,2.698002576828003,1.5087612867355347,8.376544952392578,6.317741394042969,-0.027954697608947754,0.0017944149440154433,0.03602192923426628,19.992542266845703,-31.373863220214844,-0.32874488830566406,0.177048921585083,0.1543140411376953,0.2033390998840332,1.3317123651504517,8.222230911254883,6.1144022941589355
1_20251106_212406,1762435413369,1,0.36252516508102417,0.24184684455394745,0.37640175223350525,0.8175618052482605,0.5910235643386841,2.841862440109253,2.698002576828003,1.5087612867355347,8.376544952392578,6.317741394042969,0.0025885384529829025,0.008513926528394222,-0.0024625472724437714,20.004531860351562,-31.373336791992188,-0.3012218475341797,0.177048921585083,0.1543140411376953,0.2033390998840332,1.3317123651504517,8.222230911254883,6.1144022941589355
1_20251106_212406,1762435413386,1,0.36242660880088806,0.24211235344409943,0.3763252794742584,0.8175621628761292,0.5962585806846619,2.8463656902313232,2.7046937942504883,1.386662244796753,8.224519729614258,6.132198810577393,-0.008407026529312134,0.031726788729429245,-0.029951460659503937,19.955379486083984,-31.38866424560547,-0.3439960479736328,0.02022862434387207,-0.007536888122558594,0.004877567291259766,1.3664336204528809,8.232056617736816,6.127321243286133
1_20251106_212406,1762435413406,1,0.3625451922416687,0.24212129414081573,0.3763680160045624,0.8174872398376465,0.598858118057251,2.8481760025024414,2.708033800125122,1.353144884109497,8.094040870666504,6.127410888671875,-0.029787292703986168,0.0445549450814724,-0.03483837842941284,19.941078186035156,-31.42713165283203,-0.3452777862548828,-0.010630965232849121,-0.11041259765625,7.200241088867188e-05,1.3637758493423462,8.204453468322754,6.127338886260986
1_20251106_212406,1762435413424,1,0.3627398908138275,0.24182426929473877,0.376362681388855,0.8174912333488464,0.598858118057251,2.8481760025024414,2.708033800125122,1.353144884109497,8.094040870666504,6.127410888671875,-0.014515673741698265,0.005459603387862444,-0.012847247533500195,19.953462600708008,-31.426063537597656,-0.37182044982910156,-0.010630965232849121,-0.11041259765625,7.200241088867188e-05,1.3637758493423462,8.204453468322754,6.127338886260986
1_20251106_212406,1762435413444,1,0.36269569396972656,0.24179039895534515,0.3762674629688263,0.8175646662712097,0.6038092374801636,2.8502769470214844,2.713571786880493,1.4524999856948853,8.104814529418945,6.0723466873168945,0.01602756418287754,-0.04707476124167442,0.005478693637996912,19.954364776611328,-31.413238525390625,-0.3985881805419922,0.0665513277053833,-0.05265998840332031,-0.03768491744995117,1.385948657989502,8.157474517822266,6.110031604766846
1_20251106_212406,1762435413463,1,0.3624257743358612,0.24229954183101654,0.3762030601501465,0.8175632953643799,0.6038092374801636,2.8502769470214844,2.713571786880493,1.4524999856948853,8.104814529418945,6.0723466873168945,0.02641226537525654,-0.050129085779190063,-0.015290706418454647,20.014787673950195,-31.421554565429688,-0.423431396484375,0.0665513277053833,-0.05265998840332031,-0.03768491744995117,1.385948657989502,8.157474517822266,6.110031604766846
1_20251106_212406,1762435413481,1,0.36284780502319336,0.24315720796585083,0.37611398100852966,0.8171623349189758,0.6089195013046265,2.8520021438598633,2.717571973800659,1.4189825057983398,8.181426048278809,5.994538307189941,-0.0010766498744487762,-0.02508363500237465,-0.04949913173913956,20.025760650634766,-31.445602416992188,-0.45050048828125,0.01252293586730957,0.01935100555419922,-0.07640552520751953,1.4064595699310303,8.16207504272461,6.070943832397461
1_20251106_212406,1762435413500,1,0.3633560240268707,0.2436208575963974,0.37610211968421936,0.8168038129806519,0.6111842393875122,2.852689743041992,2.71933913230896,1.3423714637756348,8.103616714477539,6.068755149841309,-0.0010766498744487762,-0.02508363500237465,-0.04949913173913956,20.03894805908203,-31.431846618652344,-0.49029541015625,-0.051270484924316406,-0.04676628112792969,-0.001750946044921875,1.3936419486999512,8.150382995605469,6.0705060958862305
1_20251106_212406,1762435413521,1,0.3639329671859741,0.24383805692195892,0.3761521577835083,0.816459059715271,0.6132379770278931,2.8530383110046387,2.7211368083953857,1.2968835830688477,8.038976669311523,6.053193092346191,0.012362373992800713,-0.0250836331397295,-0.053775183856487274,20.063926696777344,-31.41783905029297,-0.47553443908691406,-0.07740664482116699,-0.08912467956542969,-0.013850212097167969,1.3742902278900146,8.128101348876953,6.067043304443359
1_20251106_212406,1762435413540,1,0.36439162492752075,0.2440308779478073,0.37627142667770386,0.8161418437957764,0.6146857142448425,2.8529129028320312,2.722282648086548,1.2585780620574951,7.973138809204102,5.921518325805664,0.012362373992800713,-0.0250836331397295,-0.053775183856487274,20.064533233642578,-31.405418395996094,-0.46175384521484375,-0.09256982803344727,-0.12397003173828125,-0.11642026901245117,1.3511478900909424,8.097108840942383,6.037938594818115
1_20251106_212406,1762435413560,1,0.3647013306617737,0.24428270757198334,0.3764810264110565,0.8158314228057861,0.6146857142448425,2.8529129028320312,2.722282648086548,1.2585780620574951,7.973138809204102,5.921518325805664,0.030688317492604256,-0.03241400793194771,-0.04155788943171501,20.064533233642578,-31.405418395996094,-0.46175384521484375,-0.09256982803344727,-0.12397003173828125,-0.11642026901245117,1.3511478900909424,8.097108840942383,6.037938594818115
1_20251106_212406,1762435413580,1,0.365046888589859,0.24459731578826904,0.37662193179130554,0.8155175447463989,0.6158408522605896,2.8521647453308105,2.722846269607544,1.2322428226470947,7.931241989135742,5.8484978675842285,-0.009017891250550747,-0.04707476124167442,-0.03606010600924492,20.06523895263672,-31.392860412597656,-0.4614906311035156,-0.0951240062713623,-0.13269329071044922,-0.15155267715454102,1.327366828918457,8.063935279846191,6.0000505447387695
1_20251106_212406,1762435413597,1,0.3655529022216797,0.24489714205265045,0.376578688621521,0.815220832824707,0.6165822744369507,2.850273370742798,2.7234251499176025,1.1604199409484863,7.950394630432129,6.084317207336426,-0.03345248103141785,-0.04218783974647522,-0.03972529619932175,20.100189208984375,-31.415863037109375,-0.4335155487060547,-0.11105966567993164,-0.07094287872314453,0.08208465576171875,1.271479606628418,8.021337509155273,6.002232551574707
1_20251106_212406,1762435413615,1,0.36603620648384094,0.2449057251214981,0.37639155983924866,0.8150877952575684,0.6163591146469116,2.848829507827759,2.72396183013916,1.102961540222168,7.841463088989258,6.060376167297363,-0.03345248103141785,-0.04218783974647522,-0.03972529619932175,20.089115142822266,-31.391944885253906,-0.3929290771484375,-0.13481438159942627,-0.14389944076538086,0.04651498794555664,1.2377759218215942,7.985362529754639,6.013861179351807
1_20251106_212406,1762435413636,1,0.366436243057251,0.24463126063346863,0.3762572705745697,0.8150524497032166,0.6154232621192932,2.8465263843536377,2.7243354320526123,1.032335638999939,7.775625228881836,5.947853088378906,-0.007796161808073521,-0.022640174254775047,-0.03606010600924492,20.041473388671875,-31.38202667236328,-0.44869232177734375,-0.1643521785736084,-0.16778945922851562,-0.05280637741088867,1.1966878175735474,7.943414688110352,6.000659465789795
1_20251106_212406,1762435413654,1,0.36670777201652527,0.244305819272995,0.3761937916278839,0.8150572180747986,0.6154232621192932,2.8465263843536377,2.7243354320526123,1.032335638999939,7.775625228881836,5.947853088378906,-0.03161988407373428,-0.03241400793194771,-0.011625518091022968,20.092937469482422,-31.328758239746094,-0.432159423828125,-0.1643521785736084,-0.16778945922851562,-0.05280637741088867,1.1966878175735474,7.943414688110352,6.000659465789795
1_20251106_212406,1762435413674,1,0.366909384727478,0.24403484165668488,0.3759652078151703,0.815153181552887,0.6124194264411926,2.8414194583892822,2.7250354290008545,0.9868477582931519,7.774428367614746,6.093893051147461,-0.044448040425777435,-0.02813795581459999,0.012198206037282944,20.10582733154297,-31.315406799316406,-0.43140411376953125,-0.13582980632781982,-0.10451221466064453,0.0782475471496582,1.1226775646209717,7.878940582275391,6.015645503997803
1_20251106_212406,1762435413693,1,0.3669275939464569,0.24368597567081451,0.3755957782268524,0.815419614315033,0.6104106903076172,2.8382725715637207,2.7255992889404297,1.03113853931427,7.740910530090332,6.042420387268066,-0.044448040425777435,-0.02813795581459999,0.012198206037282944,20.05998992919922,-31.27983856201172,-0.5407047271728516,-0.07323122024536133,-0.11042404174804688,0.021419525146484375,1.1043697595596313,7.851334571838379,6.021000862121582
1_20251106_212406,1762435413711,1,0.3667695224285126,0.2431958168745041,0.3752622902393341,0.8157904744148254,0.6104106903076172,2.8382725715637207,2.7255992889404297,1.03113853931427,7.740910530090332,6.042420387268066,-0.04872409999370575,-0.004925096873193979,0.040908847004175186,20.1212158203125,-31.27545928955078,-0.5788021087646484,-0.07323122024536133,-0.11042404174804688,0.021419525146484375,1.1043697595596313,7.851334571838379,6.021000862121582
1_20251106_212406,1762435413730,1,0.366516649723053,0.24279381334781647,0.3747938871383667,0.8162391185760498,0.6067017912864685,2.832050085067749,2.7264788150787354,1.1161291599273682,7.776822090148926,6.066361427307129,-0.06827176362276077,-0.00309250270947814,0.04946095123887062,20.145687103271484,-31.27373504638672,-0.5913372039794922,0.01844310760498047,-0.03887748718261719,0.042246341705322266,1.0976860523223877,7.815699577331543,6.024115085601807
1_20251106_212406,1762435413750,1,0.366277813911438,0.24243475496768951,0.37419310212135315,0.8167285323143005,0.6067017912864685,2.832050085067749,2.7264788150787354,1.1161291599273682,7.776822090148926,6.066361427307129,-0.0615522563457489,0.004237873945385218,0.05251527950167656,20.13379669189453,-31.274124145507812,-0.6323757171630859,0.01844310760498047,-0.03887748718261719,0.042246341705322266,1.0976860523223877,7.815699577331543,6.024115085601807
1_20251106_212406,1762435413770,1,0.3659367263317108,0.24211035668849945,0.3736037015914917,0.8172473311424255,0.6038478016853333,2.8256964683532715,2.7284581661224365,1.245410442352295,7.821113586425781,6.101075172424316,-0.047502368688583374,-3.817921970039606e-05,0.06900862604379654,20.155139923095703,-31.33464813232422,-0.7002964019775391,0.10986590385437012,0.009210586547851562,0.03986978530883789,1.1355445384979248,7.81190299987793,6.0612053871154785
1_20251106_212406,1762435413789,1,0.3653448820114136,0.24186523258686066,0.3730151951313019,0.8178532719612122,0.6034103035926819,2.8229544162750244,2.729513168334961,1.36272132396698,7.823507308959961,6.1034698486328125,-0.04200458526611328,-0.027527090162038803,0.07023035734891891,20.16691780090332,-31.34600830078125,-0.7406196594238281,0.18174147605895996,0.009283065795898438,0.03381156921386719,1.18097984790802,7.8142242431640625,6.069658279418945
1_20251106_212406,1762435413807,1,0.3649441599845886,0.24211475253105164,0.3723621964454651,0.8182558417320251,0.6035436987876892,2.820589065551758,2.730469226837158,1.395041584968567,7.855827808380127,6.0723466873168945,-0.04200458526611328,-0.027527090162038803,0.07023035734891891,20.10446548461914,-31.3868408203125,-0.8249607086181641,0.1712493896484375,0.03328275680541992,0.0021505355834960938,1.2237921953201294,7.822545051574707,6.070196151733398
1_20251106_212406,1762435413826,1,0.3648538589477539,0.24234911799430847,0.3716588318347931,0.8185464143753052,0.603979766368866,2.8184595108032227,2.731450319290161,1.3339920043945312,7.910892486572266,6.078331470489502,-0.09576067328453064,0.021952951326966286,-0.020177625119686127,20.078176498413086,-31.42583465576172,-0.8537654876708984,0.08815979957580566,0.0706777572631836,0.006508350372314453,1.2458322048187256,7.840214729309082,6.0718231201171875
1_20251106_212406,1762435413845,1,0.3650946021080017,0.24198774993419647,0.3709387481212616,0.8188725709915161,0.6042746901512146,2.8166565895080566,2.7325150966644287,1.2023166418075562,7.920468807220459,6.1202287673950195,-0.09576067328453064,0.021952951326966286,-0.020177625119686127,20.112817764282227,-31.460853576660156,-0.8801193237304688,-0.03481245040893555,0.06420326232910156,0.038724422454833984,1.2371290922164917,7.856265544891357,6.0815043449401855
1_20251106_212406,1762435413863,1,0.36546990275382996,0.24116143584251404,0.3702133595943451,0.8192771077156067,0.6043099164962769,2.815310001373291,2.734010934829712,1.1436611413955688,7.968350410461426,6.299785614013672,-0.12996910512447357,0.051274459809064865,-0.03911443054676056,20.05168914794922,-31.46509552001953,-0.8555393218994141,-0.07477438449859619,0.08966779708862305,0.17462539672851562,1.218435525894165,7.878682613372803,6.125160217285156
1_20251106_212406,1762435413884,1,0.36568012833595276,0.24043428897857666,0.3694591522216797,0.8197373151779175,0.604266881942749,2.8140859603881836,2.736302375793457,1.1939373016357422,7.958773612976074,6.314149856567383,-0.12569305300712585,0.03600284084677696,0.0005917763337492943,20.01290512084961,-31.51689910888672,-0.9391632080078125,-0.01959860324859619,0.0640726089477539,0.15119171142578125,1.2135359048843384,7.89470100402832,6.162958145141602
1_20251106_212406,1762435413902,1,0.36527782678604126,0.24013888835906982,0.36886563897132874,0.8202704191207886,0.6044960021972656,2.8134121894836426,2.7382662296295166,1.3208245038986206,8.025808334350586,6.202824592590332,-0.06949349492788315,-0.004314232151955366,0.05984565243124962,19.964853286743164,-31.519134521484375,-1.0357379913330078,0.0858309268951416,0.10488557815551758,0.031893253326416016,1.234993577003479,7.920922756195068,6.170931339263916
1_20251106_212406,1762435413921,1,0.3646170496940613,0.24033750593662262,0.3684391975402832,0.8206977844238281,0.6044960021972656,2.8134121894836426,2.7382662296295166,1.3208245038986206,8.025808334350586,6.202824592590332,-0.02245691418647766,-0.020196715369820595,0.09466494619846344,19.964445114135742,-31.531288146972656,-1.0765514373779297,0.0858309268951416,0.10488557815551758,0.031893253326416016,1.234993577003479,7.920922756195068,6.170931339263916
1_20251106_212406,1762435413940,1,0.3640354871749878,0.2407304048538208,0.368030846118927,0.8210239410400391,0.6067458987236023,2.8132810592651367,2.741532802581787,1.5410816669464111,8.092844009399414,6.109455108642578,-0.06766090542078018,-0.0012599086621776223,0.061067383736371994,19.941173553466797,-31.51978302001953,-1.1313323974609375,0.2119847536087036,0.1138601303100586,-0.03608894348144531,1.3290969133377075,7.9789838790893555,6.145544052124023
1_20251106_212406,1762435413961,1,0.36384549736976624,0.24116289615631104,0.3674706220626831,0.8212321400642395,0.6088548302650452,2.8136372566223145,2.7432751655578613,1.5422786474227905,8.052144050598145,6.217189311981201,-0.07804560661315918,-0.01530979759991169,0.0195285826921463,19.986492156982422,-31.579261779785156,-1.1442070007324219,0.17054533958435059,0.05852794647216797,0.05731630325317383,1.37173330783844,7.993616104125977,6.159873008728027
1_20251106_212406,1762435413979,1,0.36405760049819946,0.24166995286941528,0.36680588126182556,0.8212862610816956,0.6088548302650452,2.8136372566223145,2.7432751655578613,1.5422786474227905,8.052144050598145,6.217189311981201,-0.0719369500875473,-0.01592066138982773,-0.01956675946712494,19.986492156982422,-31.579261779785156,-1.1442070007324219,0.17054533958435059,0.05852794647216797,0.05731630325317383,1.37173330783844,7.993616104125977,6.159873008728027
1_20251106_212406,1762435413999,1,0.3644341826438904,0.24190957844257355,0.3661937713623047,0.8213218450546265,0.6135610938072205,2.814639091491699,2.747833728790283,1.416588544845581,7.992291450500488,6.3560471534729,-0.05238928645849228,-0.011644609272480011,-0.05377518758177757,19.975505828857422,-31.56682586669922,-1.212015151977539,0.013576626777648926,-0.011382102966308594,0.13053131103515625,1.4030119180679321,8.003673553466797,6.225515842437744
1_20251106_212406,1762435414018,1,0.36502325534820557,0.24194036424160004,0.36576899886131287,0.8212404847145081,0.6153848767280579,2.8149375915527344,2.750258684158325,1.2873071432113647,7.955183029174805,6.280632972717285,-0.03833939880132675,-0.0061468263156712055,-0.06965766847133636,19.975505828857422,-31.56682586669922,-1.212015151977539,-0.09256386756896973,-0.03879261016845703,0.04409360885620117,1.3798710107803345,7.993975639343262,6.236539363861084
1_20251106_212406,1762435414036,1,0.3656451106071472,0.24171750247478485,0.3655225336551666,0.8211392164230347,0.6165271401405334,2.8148629665374756,2.752399444580078,1.1771786212921143,7.854630470275879,6.219583511352539,-0.04322631657123566,-0.007368555758148432,-0.06477074325084686,19.998849868774414,-31.601425170898438,-1.360504150390625,-0.162153959274292,-0.11147594451904297,-0.013564586639404297,1.3393325805664062,7.966106414794922,6.233148097991943
1_20251106_212406,1762435414055,1,0.36632993817329407,0.24139538407325745,0.3653511106967926,0.8210049867630005,0.6170864701271057,2.8144659996032715,2.75445294380188,1.1257054805755615,7.8486456871032715,6.199233531951904,-0.04322631657123566,-0.007368555758148432,-0.06477074325084686,20.000965118408203,-31.563751220703125,-1.3597126007080078,-0.17090165615081787,-0.09396886825561523,-0.02713155746459961,1.2966071367263794,7.942614555358887,6.226365089416504
1_20251106_212406,1762435414074,1,0.366689532995224,0.24112093448638916,0.36506161093711853,0.8210539221763611,0.6170864701271057,2.8144659996032715,2.75445294380188,1.1257054805755615,7.8486456871032715,6.199233531951904,-0.04872409999370575,-0.029970552772283554,0.02013944834470749,20.02422332763672,-31.586875915527344,-1.3998088836669922,-0.17090165615081787,-0.09396886825561523,-0.02713155746459961,1.2966071367263794,7.942614555358887,6.226365089416504
1_20251106_212406,1762435414094,1,0.36673587560653687,0.24100302159786224,0.36473584175109863,0.8212125897407532,0.6177201867103577,2.813396692276001,2.7590105533599854,1.3088539838790894,7.903709888458252,6.345273971557617,-0.02612210251390934,-0.03241400793194771,0.028691552579402924,20.000951766967773,-31.57537078857422,-1.45458984375,0.02239406108856201,-0.023941516876220703,0.08108139038085938,1.2864599227905273,7.927651405334473,6.264192581176758
