session_id,timestamp,label,quaternion_w,quaternion_x,quaternion_y,quaternion_z,position_x,position_y,position_z,accelerometer_x,accelerometer_y,accelerometer_z,gyroscope_x,gyroscope_y,gyroscope_z,magnetometer_x,magnetometer_y,magnetometer_z,linear_acceleration_x,linear_acceleration_y,linear_acceleration_z,gravity_x,gravity_y,gravity_z
6_20251106_215314,1762437157281,6,0.3503066301345825,0.3827008008956909,0.722922146320343,0.45629918575286865,-0.22081735730171204,2.952907085418701,1.050473928451538,-1.4036598205566406,9.54007625579834,-3.468136787414551,0.06139190495014191,-0.18783707916736603,-0.21235567331314087,39.879180908203125,-12.957130432128906,25.290233612060547,-0.013910531997680664,0.7304372787475586,-0.4667093753814697,-1.38974928855896,8.809638977050781,-3.001427412033081
6_20251106_215314,1762437157301,6,0.352314293384552,0.3823730945587158,0.7232733368873596,0.4544679820537567,-0.26319530606269836,2.9791438579559326,0.9896078109741211,-1.726863145828247,9.584367752075195,-3.8966805934906006,-0.00946840364485979,-0.1120898574590683,-0.18425589799880981,39.99578094482422,-12.847770690917969,25.121047973632812,-0.2322242259979248,0.5069351196289062,-0.6005418300628662,-1.4946389198303223,9.077432632446289,-3.2961387634277344
6_20251106_215314,1762437157322,6,0.35388046503067017,0.38158148527145386,0.7235510349273682,0.45347335934638977,-0.26319530606269836,2.9791438579559326,0.9896078109741211,-1.726863145828247,9.584367752075195,-3.8966805934906006,-0.10231983661651611,-0.09009873121976852,-0.153712660074234,40.10309600830078,-12.700454711914062,24.844032287597656,-0.2322242259979248,0.5069351196289062,-0.6005418300628662,-1.4946389198303223,9.077432632446289,-3.2961387634277344
6_20251106_215314,1762437157341,6,0.3555748164653778,0.38073018193244934,0.7233379483222961,0.45320338010787964,-0.30642420053482056,3.011577606201172,0.923906147480011,-1.5760350227355957,9.795048713684082,-3.4070873260498047,-0.15607593953609467,-0.11331158131361008,-0.16348648071289062,40.231781005859375,-12.590438842773438,24.688854217529297,-0.047113776206970215,0.4811086654663086,0.007711172103881836,-1.5289212465286255,9.313940048217773,-3.4147984981536865
6_20251106_215314,1762437157359,6,0.35765454173088074,0.3797784745693207,0.7228219509124756,0.4531886577606201,-0.32626938819885254,3.0280182361602783,0.8954885005950928,-1.6610254049301147,9.710058212280273,-3.027622699737549,-0.11575886607170105,-0.1072029396891594,-0.21235567331314087,40.39813995361328,-12.453330993652344,24.576221466064453,-0.1056833267211914,0.31689453125,0.3097407817840576,-1.5553420782089233,9.393163681030273,-3.3373634815216064
6_20251106_215314,1762437157379,6,0.3597364127635956,0.3784771263599396,0.722660481929779,0.4528869688510895,-0.346032977104187,3.044253349304199,0.8693546652793884,-1.887267827987671,9.617884635925293,-3.0228347778320312,-0.049174610525369644,-0.11147898435592651,-0.24534234404563904,40.39813995361328,-12.453330993652344,24.576221466064453,-0.26554059982299805,0.17977619171142578,0.25162315368652344,-1.6217272281646729,9.438108444213867,-3.2744579315185547
6_20251106_215314,1762437157396,6,0.3617525100708008,0.37709659337997437,0.7228854894638062,0.4520728588104248,-0.36492210626602173,3.059089422225952,0.8464921116828918,-2.0692191123962402,9.529302597045898,-3.007272958755493,-0.004581484943628311,-0.1377461701631546,-0.24106630682945251,40.58936309814453,-12.313957214355469,24.396991729736328,-0.35799360275268555,0.07295513153076172,0.21374797821044922,-1.7112255096435547,9.456347465515137,-3.2210209369659424
6_20251106_215314,1762437157415,6,0.36383020877838135,0.37604278326034546,0.7231782078742981,0.4508133828639984,-0.3852892816066742,3.073946952819824,0.8240507245063782,-2.230821132659912,9.449100494384766,-3.044381618499756,0.021685700863599777,-0.12003110349178314,-0.2166317105293274,40.741729736328125,-12.203292846679688,24.337406158447266,-0.4156765937805176,-0.005797386169433594,0.1413114070892334,-1.8151445388793945,9.4548978805542,-3.1856930255889893
6_20251106_215314,1762437157435,6,0.36554205417633057,0.37504905462265015,0.7236171960830688,0.44955021142959595,-0.40597230195999146,3.0878190994262695,0.8027676939964294,-2.3014469146728516,9.366504669189453,-3.1724658012390137,0.021685700863599777,-0.12003110349178314,-0.2166317105293274,40.91061019897461,-12.016357421875,24.266380310058594,-0.3890419006347656,-0.07071495056152344,0.010581731796264648,-1.912405014038086,9.437219619750977,-3.1830475330352783
6_20251106_215314,1762437157455,6,0.36687225103378296,0.374088317155838,0.7240260243415833,0.44860783219337463,-0.4291137456893921,3.101738452911377,0.7807608842849731,-2.337358236312866,9.244405746459961,-3.0814900398254395,-0.032681263983249664,-0.047949060797691345,-0.15676698088645935,41.08984375,-11.877510070800781,24.059627532958984,-0.33996260166168213,-0.1542510986328125,0.08124589920043945,-1.997395634651184,9.398656845092773,-3.162735939025879
6_20251106_215314,1762437157476,6,0.36810001730918884,0.3731181025505066,0.7242391109466553,0.4480658173561096,-0.45257455110549927,3.1142523288726807,0.7605640292167664,-2.437910318374634,9.186946868896484,-2.9510116577148438,-0.03817904740571976,-0.02290360815823078,-0.13538670539855957,41.263973236083984,-11.803604125976562,24.067813873291016,-0.35241174697875977,-0.16936779022216797,0.16937947273254395,-2.085498571395874,9.356314659118652,-3.1203911304473877
6_20251106_215314,1762437157491,6,0.3690278232097626,0.372057169675827,0.7244894504547119,0.447780042886734,-0.4691666066646576,3.12243390083313,0.7469685077667236,-2.478610038757324,9.174976348876953,-3.056351900100708,-0.016187913715839386,-0.01190804410725832,-0.09629137068986893,41.392276763916016,-11.682510375976562,24.06157684326172,-0.31448912620544434,-0.14507007598876953,0.05123138427734375,-2.16412091255188,9.320046424865723,-3.1075832843780518
6_20251106_215314,1762437157512,6,0.3696848750114441,0.37131577730178833,0.7247052192687988,0.4475041925907135,-0.4923442602157593,3.1326847076416016,0.7296439409255981,-2.4953689575195312,9.131882667541504,-2.881582736968994,-0.016187913715839386,-0.01190804410725832,-0.09629137068986893,41.499916076660156,-11.511566162109375,23.93376922607422,-0.2649984359741211,-0.15053081512451172,0.1808004379272461,-2.23037052154541,9.282413482666016,-3.0623831748962402
6_20251106_215314,1762437157530,6,0.37023070454597473,0.37120118737220764,0.7247382402420044,0.4470943510532379,-0.5105564594268799,3.140368938446045,0.7160340547561646,-2.406787157058716,9.19173526763916,-3.1928157806396484,0.07360920310020447,-0.07482711225748062,0.016718605533242226,41.593055725097656,-11.379356384277344,23.831710815429688,-0.14113330841064453,-0.07254314422607422,-0.10434603691101074,-2.2656538486480713,9.264278411865234,-3.0884697437286377
6_20251106_215314,1762437157549,6,0.370564341545105,0.37186169624328613,0.7246864438056946,0.44635245203971863,-0.5312566161155701,3.1488020420074463,0.7004221081733704,-2.3792548179626465,9.213281631469727,-3.2203478813171387,0.0821613073348999,-0.13408099114894867,0.05581394582986832,41.621742248535156,-11.31390380859375,23.725879669189453,-0.0908808708190918,-0.04079723358154297,-0.10550260543823242,-2.2883739471435547,9.25407886505127,-3.1148452758789062
6_20251106_215314,1762437157569,6,0.3710502088069916,0.37309128046035767,0.7243570685386658,0.4454564154148102,-0.5312566161155701,3.1488020420074463,0.7004221081733704,-2.3792548179626465,9.213281631469727,-3.2203478813171387,0.0821613073348999,-0.13408099114894867,0.05581394582986832,41.738441467285156,-11.204414367675781,23.54317855834961,-0.0908808708190918,-0.04079723358154297,-0.10550260543823242,-2.2883739471435547,9.25407886505127,-3.1148452758789062
6_20251106_215314,1762437157588,6,0.3712892532348633,0.37432435154914856,0.7239431142807007,0.4448954463005066,-0.5520932674407959,3.15714955329895,0.6847482919692993,-2.344540596008301,9.23482894897461,-3.1449337005615234,0.06566795706748962,-0.06505326926708221,0.0723072960972786,41.79240417480469,-11.124549865722656,23.41156005859375,-0.044933319091796875,-0.015399932861328125,-0.02407073974609375,-2.299607276916504,9.250228881835938,-3.1208629608154297
6_20251106_215314,1762437157606,6,0.3713129162788391,0.3753633499145508,0.7236900329589844,0.4444117546081543,-0.5851158499717712,3.1701011657714844,0.658706545829773,-2.275111675262451,9.279119491577148,-3.3627967834472656,0.06566795706748962,-0.06505326926708221,0.0723072960972786,41.86783218383789,-11.081840515136719,23.388263702392578,0.01606011390686035,0.035919189453125,-0.1737987995147705,-2.2911717891693115,9.243200302124023,-3.188997983932495
6_20251106_215314,1762437157625,6,0.37154126167297363,0.375998854637146,0.7235303521156311,0.44394341111183167,-0.6016557216644287,3.1769328117370605,0.6449376940727234,-2.465442657470703,9.413189888000488,-3.4848954677581787,0.013133591040968895,-0.054057709872722626,-0.054752565920352936,41.86027145385742,-11.006752014160156,23.33529281616211,-0.13941669464111328,0.13599205017089844,-0.23671793937683105,-2.32602596282959,9.27719783782959,-3.2481775283813477
6_20251106_215314,1762437157646,6,0.3721742033958435,0.3759463429450989,0.7235686779022217,0.4433949291706085,-0.6194308996200562,3.1842944622039795,0.630012571811676,-2.73238468170166,9.451495170593262,-3.6285414695739746,-0.007024943828582764,-0.08399008214473724,-0.10911952704191208,41.91122817993164,-10.965766906738281,23.32453155517578,-0.3250870704650879,0.13943767547607422,-0.3042912483215332,-2.4072976112365723,9.312057495117188,-3.3242502212524414
6_20251106_215314,1762437157664,6,0.37329167127609253,0.37550073862075806,0.7236571311950684,0.4426882266998291,-0.6361307501792908,3.190976142883301,0.6170092821121216,-3.017282485961914,9.469450950622559,-3.4226491451263428,-0.03207039833068848,-0.08460094779729843,-0.08468494564294815,41.98101806640625,-11.023513793945312,23.299121856689453,-0.4879879951477051,0.1259145736694336,-0.0787191390991211,-2.529294490814209,9.343536376953125,-3.3439300060272217
6_20251106_215314,1762437157683,6,0.37442272901535034,0.37511947751045227,0.7235758304595947,0.44218891859054565,-0.6553000211715698,3.1985063552856445,0.6033936142921448,-3.036435127258301,9.500574111938477,-3.307732343673706,-0.015577049925923347,-0.06994019448757172,-0.02115500532090664,42.09390640258789,-10.965599060058594,23.250526428222656,-0.4057126045227051,0.12563037872314453,0.02895808219909668,-2.6307225227355957,9.374943733215332,-3.3366904258728027
6_20251106_215314,1762437157703,6,0.37521877884864807,0.37516820430755615,0.7233560681343079,0.44183215498924255,-0.6735393404960632,3.2054336071014404,0.5916348695755005,-2.972991466522217,9.422765731811523,-3.1437366008758545,0.008857538923621178,-0.07177278399467468,0.014275146648287773,42.08614730834961,-10.890777587890625,23.224586486816406,-0.2738151550292969,0.038257598876953125,0.15436291694641113,-2.69917631149292,9.38450813293457,-3.2980995178222656
6_20251106_215314,1762437157721,6,0.3757777512073517,0.3755015730857849,0.7231150269508362,0.44146835803985596,-0.6918872594833374,3.2117416858673096,0.5819023847579956,-3.0711495876312256,9.285104751586914,-2.773848533630371,0.019853103905916214,-0.07910316437482834,0.005723040085285902,42.03971481323242,-10.856010437011719,23.19638442993164,-0.2975785732269287,-0.07952308654785156,0.4194009304046631,-2.773571014404297,9.364627838134766,-3.193249464035034
6_20251106_215314,1762437157740,6,0.3763718605041504,0.37581151723861694,0.7229219079017639,0.4410145878791809,-0.7105677127838135,3.2170794010162354,0.574661135673523,-3.2291600704193115,9.125897407531738,-2.462615489959717,0.05955931544303894,-0.040618687868118286,0.008166499435901642,41.977882385253906,-10.872810363769531,23.220699310302734,-0.3644711971282959,-0.19098472595214844,0.5845069885253906,-2.8646888732910156,9.316882133483887,-3.0471224784851074
6_20251106_215314,1762437157760,6,0.3765837252140045,0.37604251503944397,0.7230128049850464,0.44048741459846497,-0.7105677127838135,3.2170794010162354,0.574661135673523,-3.2291600704193115,9.125897407531738,-2.462615489959717,0.12736529111862183,0.003974439110606909,0.04787270724773407,41.90678024291992,-10.840034484863281,23.23206329345703,-0.3644711971282959,-0.19098472595214844,0.5845069885253906,-2.8646888732910156,9.316882133483887,-3.0471224784851074
6_20251106_215314,1762437157780,6,0.37609922885894775,0.3764898180961609,0.7234209775924683,0.4398486614227295,-0.7492272853851318,3.224172592163086,0.5655924677848816,-3.193248748779297,8.881699562072754,-2.4027628898620605,0.12736529111862183,0.003974439110606909,0.04787270724773407,41.90678024291992,-10.840034484863281,23.23206329345703,-0.19802045822143555,-0.2907743453979492,0.42560577392578125,-2.9952282905578613,9.172473907470703,-2.828368663787842
6_20251106_215314,1762437157799,6,0.3748849630355835,0.3771374523639679,0.7239646315574646,0.439435750246048,-0.7680368423461914,3.2258880138397217,0.5631774663925171,-3.0412232875823975,8.802694320678711,-2.460221290588379,0.19394953548908234,0.13653208315372467,0.14194586873054504,41.848968505859375,-10.793373107910156,23.19011688232422,-0.036795854568481445,-0.2958240509033203,0.29451799392700195,-3.004427433013916,9.098518371582031,-2.754739284515381
6_20251106_215314,1762437157819,6,0.3728519678115845,0.3778892755508423,0.7247927784919739,0.4391542971134186,-0.7838882803916931,3.2262814044952393,0.5612719655036926,-2.9107449054718018,8.662639617919922,-2.6900548934936523,0.22021673619747162,0.2067815214395523,0.1706565022468567,41.76841735839844,-10.699691772460938,23.310440063476562,0.07494616508483887,-0.34870338439941406,0.05174732208251953,-2.9856910705566406,9.011343002319336,-2.741802215576172
6_20251106_215314,1762437157836,6,0.37010809779167175,0.3786761164665222,0.725859522819519,0.43903568387031555,-0.7991315126419067,3.225243091583252,0.5591090321540833,-2.747946262359619,8.489067077636719,-2.833700656890869,0.22021673619747162,0.2067815214395523,0.1706565022468567,41.76841735839844,-10.699691772460938,23.310440063476562,0.19019579887390137,-0.41782093048095703,-0.07351875305175781,-2.9381420612335205,8.906888008117676,-2.7601819038391113
6_20251106_215314,1762437157855,6,0.36692118644714355,0.37956342101097107,0.7269809246063232,0.4390890300273895,-0.8124634623527527,3.2230513095855713,0.5568327903747559,-2.5193099975585938,8.467519760131836,-2.8408830165863037,0.20799942314624786,0.28252875804901123,0.22563433647155762,41.59571075439453,-10.736869812011719,23.397659301757812,0.3350656032562256,-0.35149478912353516,-0.0645608901977539,-2.8543756008148193,8.819014549255371,-2.77632212638855
6_20251106_215314,1762437157874,6,0.36340510845184326,0.38043615221977234,0.7280710935592651,0.4394514262676239,-0.8238614201545715,3.2198634147644043,0.5540531873703003,-2.392422676086426,8.416047096252441,-3.0012876987457275,0.21899498999118805,0.31307199597358704,0.2115844488143921,41.42109680175781,-10.799835205078125,23.55193328857422,0.36956214904785156,-0.3223733901977539,-0.17997241020202637,-2.7619848251342773,8.738420486450195,-2.821315288543701
6_20251106_215314,1762437157893,6,0.3596503734588623,0.3811103105545044,0.7293534874916077,0.439829558134079,-0.8338266015052795,3.215517044067383,0.550646185874939,-2.4474868774414062,8.258037567138672,-3.100642681121826,0.21899498999118805,0.31307199597358704,0.2115844488143921,41.2340087890625,-10.863998413085938,23.746265411376953,0.2515983581542969,-0.3843059539794922,-0.22346210479736328,-2.699085235595703,8.642343521118164,-2.877180576324463
6_20251106_215314,1762437157912,6,0.3558269143104553,0.3815939426422119,0.7307618260383606,0.44018226861953735,-0.8338266015052795,3.215517044067383,0.550646185874939,-2.4474868774414062,8.258037567138672,-3.100642681121826,0.18661917746067047,0.41447553038597107,0.21219530701637268,41.03725051879883,-10.879135131835938,23.981712341308594,0.2515983581542969,-0.3843059539794922,-0.22346210479736328,-2.699085235595703,8.642343521118164,-2.877180576324463
6_20251106_215314,1762437157932,6,0.351481556892395,0.3817821443080902,0.7322308421134949,0.4410681426525116,-0.8517283797264099,3.202342987060547,0.5420954823493958,-2.5671918392181396,8.007852554321289,-3.2203476428985596,0.15302161872386932,0.5360376238822937,0.25984275341033936,40.82599639892578,-10.933006286621094,24.242908477783203,0.08383727073669434,-0.4122028350830078,-0.23973727226257324,-2.651029109954834,8.420055389404297,-2.9806103706359863
6_20251106_215314,1762437157951,6,0.3462168872356415,0.38161829113960266,0.733802080154419,0.44275933504104614,-0.8592780828475952,3.194460153579712,0.5366035103797913,-2.5181126594543457,7.96356201171875,-3.431028366088867,0.1340848058462143,0.5989566445350647,0.30993369221687317,40.47838592529297,-11.033554077148438,24.524951934814453,0.10633325576782227,-0.36519432067871094,-0.3603343963623047,-2.624445915222168,8.328756332397461,-3.0706939697265625
6_20251106_215314,1762437157970,6,0.34037110209465027,0.3814765512943268,0.7352989912033081,0.44492533802986145,-0.8658875823020935,3.18608021736145,0.5308088064193726,-2.5492358207702637,7.806748390197754,-3.416663646697998,0.11698059737682343,0.613006591796875,0.37712880969047546,40.144081115722656,-11.09698486328125,24.943439483642578,0.06016802787780762,-0.4176063537597656,-0.2767758369445801,-2.6094038486480713,8.22435474395752,-3.139887809753418
6_20251106_215314,1762437157990,6,0.3341820538043976,0.38169312477111816,0.7365112900733948,0.44741910696029663,-0.8725721836090088,3.1754519939422607,0.5236542820930481,-2.513324499130249,7.637965202331543,-3.481304407119751,0.10903935879468918,0.612395703792572,0.4828084111213684,39.7093620300293,-11.228744506835938,25.275585174560547,0.07686352729797363,-0.46911144256591797,-0.2731332778930664,-2.5901880264282227,8.107076644897461,-3.2081711292266846
6_20251106_215314,1762437158009,6,0.32754480838775635,0.38252726197242737,0.737311601638794,0.4502876102924347,-0.878117561340332,3.163954734802246,0.5157214403152466,-2.325387716293335,7.646344184875488,-3.5818567276000977,0.10903935879468918,0.612395703792572,0.4828084111213684,39.28925323486328,-11.310020446777344,25.663341522216797,0.21184039115905762,-0.36858654022216797,-0.2989485263824463,-2.5372281074523926,8.014930725097656,-3.2829082012176514
6_20251106_215314,1762437158027,6,0.3206019997596741,0.38429221510887146,0.7375168204307556,0.45343440771102905,-0.8818331956863403,3.1535823345184326,0.5077547430992126,-2.120692253112793,7.794778347015381,-3.763808250427246,0.08826994895935059,0.5409245491027832,0.7173804640769958,38.74277114868164,-11.463371276855469,26.180038452148438,0.33322858810424805,-0.17612218856811523,-0.3847200870513916,-2.453920841217041,7.970900535583496,-3.3790881633758545
6_20251106_215314,1762437158046,6,0.3135142922401428,0.3870346248149872,0.7370558381080627,0.45679497718811035,-0.8842639327049255,3.1420083045959473,0.4995708465576172,-1.9818345308303833,7.543397903442383,-3.450181245803833,0.052228935062885284,0.5317615866661072,0.8090102076530457,38.14411926269531,-11.682548522949219,26.679935455322266,0.37766897678375244,-0.34200191497802734,-0.05687427520751953,-2.3595035076141357,7.88539981842041,-3.3933069705963135
6_20251106_215314,1762437158066,6,0.30608510971069336,0.3901939392089844,0.7361023426055908,0.46066680550575256,-0.884771466255188,3.1289541721343994,0.4917962849140167,-1.726863145828247,7.398554801940918,-3.258653163909912,-0.015577049925923347,0.6185043454170227,0.8694857954978943,37.53065872192383,-11.952484130859375,27.151256561279297,0.5061123371124268,-0.38947582244873047,0.10772299766540527,-2.232975482940674,7.788030624389648,-3.3663761615753174
6_20251106_215314,1762437158085,6,0.2980371415615082,0.3931486904621124,0.734792172908783,0.46549808979034424,-0.8829312324523926,3.1154606342315674,0.4855186641216278,-1.3952804803848267,7.163933753967285,-3.0970516204833984,-0.015577049925923347,0.6185043454170227,0.8694857954978943,36.89645004272461,-12.161087036132812,27.609397888183594,0.6701558828353882,-0.49927711486816406,0.21545958518981934,-2.065436363220215,7.663210868835449,-3.3125112056732178
6_20251106_215314,1762437158103,6,0.2890378534793854,0.39590829610824585,0.7330654859542847,0.47151750326156616,-0.8829312324523926,3.1154606342315674,0.4855186641216278,-1.3952804803848267,7.163933753967285,-3.0970516204833984,-0.15546508133411407,0.8011528849601746,1.1095556020736694,36.1749267578125,-12.625732421875,28.072834014892578,0.6701558828353882,-0.49927711486816406,0.21545958518981934,-2.065436363220215,7.663210868835449,-3.3125112056732178
6_20251106_215314,1762437158122,6,0.2790631055831909,0.3992578685283661,0.7305205464363098,0.4785986542701721,-0.8672741055488586,3.0862679481506348,0.4754767119884491,0.24587419629096985,7.007120132446289,-3.055154800415039,-0.200669065117836,0.6930298209190369,1.2390588521957397,35.402435302734375,-13.142974853515625,28.45215606689453,1.6238423585891724,-0.41568470001220703,0.1836690902709961,-1.377968192100525,7.422804832458496,-3.238823890686035
6_20251106_215314,1762437158141,6,0.2693027853965759,0.40396714210510254,0.726809024810791,0.4858345687389374,-0.8672741055488586,3.0862679481506348,0.4754767119884491,0.24587419629096985,7.007120132446289,-3.055154800415039,-0.18234312534332275,0.5629156231880188,1.2140134572982788,34.61313247680664,-13.736892700195312,28.883468627929688,1.6238423585891724,-0.41568470001220703,0.1836690902709961,-1.377968192100525,7.422804832458496,-3.238823890686035
6_20251106_215314,1762437158161,6,0.26033809781074524,0.40918633341789246,0.7227469086647034,0.49236929416656494,-0.8286412954330444,3.0557920932769775,0.47293713688850403,1.0574736595153809,7.266879081726074,-2.3441076278686523,-0.11148281395435333,0.6130065321922302,1.0393060445785522,33.79804992675781,-14.357513427734375,29.313270568847656,1.5923917293548584,-0.0980691909790039,0.5948357582092285,-0.5349180698394775,7.364948272705078,-2.938943386077881
6_20251106_215314,1762437158181,6,0.2514882981777191,0.41304829716682434,0.7196336984634399,0.49826911091804504,-0.8038936257362366,3.0413873195648193,0.47284525632858276,1.1604199409484863,7.17470645904541,-2.9246764183044434,-0.10659588873386383,0.7834378480911255,0.8572685122489929,32.97186279296875,-14.977447509765625,29.59390640258789,1.356270432472229,-0.15219354629516602,0.01141357421875,-0.19585049152374268,7.326900005340576,-2.9360899925231934
6_20251106_215314,1762437158199,6,0.2422613650560379,0.41477537155151367,0.7175758481025696,0.504336953163147,-0.7764422297477722,3.0266873836517334,0.47149530053138733,1.2406222820281982,6.956843376159668,-3.3963141441345215,-0.21716241538524628,0.9202715754508972,0.7375389933586121,32.13390350341797,-15.586021423339844,29.91486358642578,1.1491782665252686,-0.29604530334472656,-0.3681793212890625,0.09144404530525208,7.2528886795043945,-3.028134822845459
6_20251106_215314,1762437158219,6,0.23304730653762817,0.4147789776325226,0.7157462239265442,0.511228621006012,-0.7764422297477722,3.0266873836517334,0.47149530053138733,1.2406222820281982,6.956843376159668,-3.3963141441345215,-0.21716241538524628,0.9202715754508972,0.7375389933586121,31.233701705932617,-16.223548889160156,30.219322204589844,1.1491782665252686,-0.29604530334472656,-0.3681793212890625,0.09144404530525208,7.2528886795043945,-3.028134822845459
6_20251106_215314,1762437158238,6,0.22405309975147247,0.41350170969963074,0.7134453654289246,0.5194345116615295,-0.7119004130363464,2.99635910987854,0.46529752016067505,1.8164030313491821,6.9987406730651855,-3.37117600440979,-0.5519163012504578,1.071155071258545,0.5909314751625061,30.241655349731445,-16.97991943359375,30.545005798339844,1.1539626121520996,-0.15671777725219727,-0.19713759422302246,0.6624404191970825,7.155458450317383,-3.1740384101867676
6_20251106_215314,1762437158256,6,0.21578280627727509,0.4110868275165558,0.7106906771659851,0.5285491347312927,-0.6794196367263794,2.982971429824829,0.46251630783081055,1.9456841945648193,7.064578056335449,-3.104233741760254,-0.6954695582389832,1.1084177494049072,0.4687585234642029,30.241655349731445,-16.97991943359375,30.545005798339844,1.0265949964523315,-0.07270431518554688,0.05584383010864258,0.9190891981124878,7.137282371520996,-3.1600775718688965
6_20251106_215314,1762437158275,6,0.20836254954338074,0.4072990417480469,0.7076352834701538,0.5384652614593506,-0.6438383460044861,2.969672203063965,0.4596737027168274,2.016310214996338,7.1830854415893555,-3.1796481609344482,-0.7742710709571838,1.1352958679199219,0.3905678391456604,29.297346115112305,-17.533126831054688,30.88990020751953,0.8777768611907959,0.03664255142211914,-0.015656471252441406,1.138533353805542,7.146442890167236,-3.163991689682007
6_20251106_215314,1762437158295,6,0.20140387117862701,0.4025612771511078,0.7044103741645813,0.5488049983978271,-0.6077263355255127,2.957529306411743,0.45724883675575256,1.9803987741470337,7.325534820556641,-3.0635342597961426,-0.8274163007736206,1.071155071258545,0.3380334675312042,28.312644958496094,-18.16352081298828,31.17767333984375,0.6734923124313354,0.14327335357666016,0.08036613464355469,1.3069064617156982,7.1822614669799805,-3.1439003944396973
6_20251106_215314,1762437158314,6,0.19535386562347412,0.39769187569618225,0.7008548378944397,0.5589995384216309,-0.6077263355255127,2.957529306411743,0.45724883675575256,1.9803987741470337,7.325534820556641,-3.0635342597961426,-0.858570396900177,0.9978513121604919,0.3655223846435547,27.35694122314453,-18.716445922851562,31.41394805908203,0.6734923124313354,0.14327335357666016,0.08036613464355469,1.3069064617156982,7.1822614669799805,-3.1439003944396973
6_20251106_215314,1762437158333,6,0.18977518379688263,0.39327147603034973,0.6967719793319702,0.5690621137619019,-0.5352577567100525,2.9358413219451904,0.4534432888031006,2.0701775550842285,7.329126358032227,-2.739133834838867,-0.9111047387123108,0.8549090027809143,0.4406587481498718,26.370929718017578,-19.37181854248047,31.687679290771484,0.5059225559234619,0.10069751739501953,0.32608532905578613,1.5642549991607666,7.228428840637207,-3.0652191638946533
6_20251106_215314,1762437158353,6,0.1850448101758957,0.3901403844356537,0.6916998028755188,0.5788784623146057,-0.495051771402359,2.9262888431549072,0.4547388255596161,2.2736759185791016,7.621206283569336,-2.2746787071228027,-0.9666934609413147,0.7852703928947449,0.5182385444641113,25.471012115478516,-20.020553588867188,31.856712341308594,0.5675367116928101,0.3142223358154297,0.6324324607849121,1.7061392068862915,7.306983947753906,-2.907111167907715
6_20251106_215314,1762437158370,6,0.1803869605064392,0.3875427842140198,0.6858665943145752,0.5889466404914856,-0.46138888597488403,2.919966697692871,0.4574134349822998,2.95479679107666,7.773231506347656,-2.143003225326538,-0.9868519902229309,0.7223513722419739,0.6703438758850098,24.608144760131836,-20.666229248046875,31.959636688232422,0.998926043510437,0.3729982376098633,0.6112864017486572,1.9558707475662231,7.400233268737793,-2.7542896270751953
6_20251106_215314,1762437158391,6,0.17534460127353668,0.386169970035553,0.6790834069252014,0.599143385887146,-0.4150620996952057,2.9152257442474365,0.46266114711761475,3.9914417266845703,8.199380874633789,-2.1250476837158203,-0.9752455353736877,0.4694533348083496,0.8768161535263062,23.733585357666016,-21.312026977539062,31.994487762451172,1.6284568309783936,0.6393184661865234,0.5033936500549316,2.3629848957061768,7.560062408447266,-2.628441333770752
6_20251106_215314,1762437158409,6,0.1706342250108719,0.38764941692352295,0.6709920167922974,0.6085898280143738,-0.37122729420661926,2.914825916290283,0.4696977436542511,4.844938278198242,8.965493202209473,-1.5061731338500977,-0.9373719692230225,0.09621500968933105,0.967835009098053,22.871200561523438,-21.968643188476562,31.934951782226562,1.985562801361084,1.124344825744629,0.8978147506713867,2.859375476837158,7.841148376464844,-2.4039878845214844
6_20251106_215314,1762437158429,6,0.1675150990486145,0.39202234148979187,0.6619749665260315,0.6164789199829102,-0.37122729420661926,2.914825916290283,0.4696977436542511,4.844938278198242,8.965493202209473,-1.5061731338500977,-0.9373719692230225,0.09621500968933105,0.967835009098053,22.077577590942383,-22.719200134277344,31.70053482055664,1.985562801361084,1.124344825744629,0.8978147506713867,2.859375476837158,7.841148376464844,-2.4039878845214844
6_20251106_215314,1762437158448,6,0.1658480167388916,0.39598873257637024,0.6535571813583374,0.6233380436897278,-0.26733702421188354,2.9281961917877197,0.4998621344566345,4.460684776306152,9.44191837310791,-0.30672964453697205,-0.8359684348106384,0.21838794648647308,0.44859999418258667,21.39451789855957,-23.461395263671875,31.34888458251953,0.9547386169433594,0.9934654235839844,1.3709744215011597,3.505946159362793,8.448452949523926,-1.677704095840454
6_20251106_215314,1762437158466,6,0.16457921266555786,0.3962215781211853,0.6469327211380005,0.630396842956543,-0.220338374376297,2.9364590644836426,0.5171016454696655,4.009397506713867,8.849379539489746,-0.7795642018318176,-0.8359684348106384,0.21838794648647308,0.44859999418258667,20.736845016479492,-24.17742156982422,31.052810668945312,0.40276122093200684,0.3207416534423828,0.7185119986534119,3.6066362857818604,8.528637886047363,-1.4980762004852295
6_20251106_215314,1762437158486,6,0.16276201605796814,0.3925034701824188,0.6410612463951111,0.6391322612762451,-0.169227734208107,2.9462032318115234,0.536464273929596,4.100373268127441,8.864940643310547,-1.1147379875183105,-1.1908806562423706,0.8219223022460938,0.21280616521835327,20.145828247070312,-24.800498962402344,30.652904510498047,0.3949897289276123,0.2690420150756836,0.30667054653167725,3.705383539199829,8.595898628234863,-1.4214085340499878
6_20251106_215314,1762437158504,6,0.16061975061893463,0.38699212670326233,0.6341040134429932,0.6498849391937256,-0.12369775772094727,2.954937696456909,0.5556579828262329,4.448714256286621,8.759599685668945,-0.3498234748840332,-1.3729184865951538,0.7724422812461853,0.26411882042884827,19.536972045898438,-25.53644561767578,30.155521392822266,0.5946645736694336,0.13096046447753906,0.8572679758071899,3.8540496826171875,8.628639221191406,-1.2070914506912231
6_20251106_215314,1762437158523,6,0.15910503268241882,0.38183996081352234,0.6256741881370544,0.6613740921020508,-0.07626527547836304,2.96393084526062,0.5796774625778198,4.501384735107422,8.714112281799316,0.5324019193649292,-1.3814705610275269,0.6301108002662659,0.27389267086982727,18.929115295410156,-26.259429931640625,29.61785125732422,0.5178680419921875,0.06837844848632812,1.391594648361206,3.9835166931152344,8.645733833312988,-0.8591927886009216
6_20251106_215314,1762437158543,6,0.15839354693889618,0.37759798765182495,0.6166675686836243,0.6723483800888062,-0.028499383479356766,2.9728879928588867,0.6103692054748535,4.093191146850586,8.6339111328125,1.3356220722198486,-1.3814705610275269,0.6301108002662659,0.27389267086982727,18.357213973999023,-26.992454528808594,29.06787109375,0.08773946762084961,-0.009458541870117188,1.7558519840240479,4.005451679229736,8.643369674682617,-0.42022988200187683
6_20251106_215314,1762437158561,6,0.15838049352169037,0.37291786074638367,0.6082178950309753,0.6825824975967407,0.011073853820562363,2.9792792797088623,0.6400912404060364,3.491075038909912,8.128755569458008,0.9932659864425659,-1.2709039449691772,0.7254056930541992,0.08330286294221878,17.870403289794922,-27.73180389404297,28.453479766845703,-0.411501407623291,-0.41169166564941406,1.1307966709136963,3.902576446533203,8.540447235107422,-0.13753071427345276
6_20251106_215314,1762437158582,6,0.15785999596118927,0.36665597558021545,0.6004408597946167,0.6929028630256653,0.04856721684336662,2.9833664894104004,0.6711755394935608,3.104428291320801,7.694226264953613,0.32890358567237854,-1.306334137916565,0.7235730886459351,0.20730841159820557,17.3493595123291,-28.423980712890625,27.906253814697266,-0.6385185718536377,-0.6769771575927734,0.3731474280357361,3.7429468631744385,8.371203422546387,-0.04424385726451874
6_20251106_215314,1762437158600,6,0.1567162424325943,0.36101850867271423,0.5919718146324158,0.7033313512802124,0.08477450907230377,2.984376907348633,0.703565239906311,3.319897174835205,7.3590521812438965,0.38516491651535034,-1.370474934577942,0.49877482652664185,0.5408405661582947,16.831134796142578,-29.06592559814453,27.360084533691406,-0.33843994140625,-0.8097214698791504,0.34352701902389526,3.658337116241455,8.168773651123047,0.04163789004087448
6_20251106_215314,1762437158620,6,0.15481093525886536,0.35864877700805664,0.5816198587417603,0.713528573513031,0.11875631660223007,2.983651876449585,0.7359102964401245,4.133890628814697,7.572126865386963,1.1764144897460938,-1.3570359945297241,0.1768491417169571,0.8554359078407288,16.30917739868164,-29.78253936767578,26.7447509765625,0.38044261932373047,-0.47731733322143555,0.9078212976455688,3.753448009490967,8.049444198608398,0.2685931921005249
6_20251106_215314,1762437158639,6,0.15252335369586945,0.36027830839157104,0.5696274638175964,0.7228144407272339,0.15636193752288818,2.9830987453460693,0.7739918828010559,4.94549036026001,8.106011390686035,2.1556010246276855,-1.235473871231079,-0.05161425098776817,0.9159114956855774,15.762733459472656,-30.512489318847656,26.047073364257812,0.9536337852478027,0.045253753662109375,1.5096063613891602,3.991856575012207,8.060757637023926,0.6459947228431702
6_20251106_215314,1762437158659,6,0.15050707757472992,0.3639088571071625,0.5576782822608948,0.7306934595108032,0.1961216926574707,2.983736991882324,0.814696729183197,5.3189697265625,8.44357967376709,2.135251045227051,-1.1267399787902832,-0.021071013063192368,0.7131044268608093,15.245399475097656,-31.153221130371094,25.379257202148438,1.061690330505371,0.3062582015991211,1.1914050579071045,4.257279396057129,8.137321472167969,0.9438459873199463
6_20251106_215314,1762437158676,6,0.14927618205547333,0.3663095533847809,0.5469819903373718,0.7377971410751343,0.22974717617034912,2.984872579574585,0.8490258455276489,4.9490814208984375,8.419637680053711,1.6085493564605713,-1.1267399787902832,-0.021071013063192368,0.7131044268608093,15.245399475097656,-31.153221130371094,25.379257202148438,0.5534415245056152,0.22585296630859375,0.5317627191543579,4.395639896392822,8.193784713745117,1.0767866373062134
6_20251106_215314,1762437158696,6,0.1493377387523651,0.36631837487220764,0.5371427536010742,0.7449743151664734,0.2679229974746704,2.986697196960449,0.8883479237556458,4.591163635253906,8.376544952392578,1.3906863927841187,-1.3863574266433716,0.2855830788612366,0.3551376461982727,14.740447998046875,-31.792892456054688,24.684898376464844,0.1564188003540039,0.1462078094482422,0.2511197328567505,4.434744834899902,8.230337142944336,1.1395666599273682
6_20251106_215314,1762437158715,6,0.14999406039714813,0.3643108904361725,0.5262776613235474,0.7535324692726135,0.30268099904060364,2.988344430923462,0.9250308275222778,4.545675754547119,8.230504989624023,1.5750319957733154,-1.5354083776474,0.24221168458461761,0.5237363576889038,14.226118087768555,-32.394737243652344,23.896228790283203,0.0887446403503418,0.00013446807861328125,0.348372220993042,4.456931114196777,8.23037052154541,1.2266597747802734
6_20251106_215314,1762437158735,6,0.15019452571868896,0.36315590143203735,0.5136942863464355,0.7626779079437256,0.30268099904060364,2.988344430923462,0.9250308275222778,4.545675754547119,8.230504989624023,1.5750319957733154,-1.5354083776474,0.24221168458461761,0.5237363576889038,13.760234832763672,-32.993812561035156,23.150070190429688,0.0887446403503418,0.00013446807861328125,0.348372220993042,4.456931114196777,8.23037052154541,1.2266597747802734
6_20251106_215314,1762437158753,6,0.14929614961147308,0.36510446667671204,0.4993792176246643,0.7713817358016968,0.34379512071609497,2.990227222442627,0.969609260559082,5.239964008331299,8.249656677246094,2.3758580684661865,-1.4731003046035767,-0.22387810051441193,1.0228127241134644,13.329375267028809,-33.63898468017578,22.228614807128906,0.6264262199401855,0.015428543090820312,0.9193586111068726,4.613537788391113,8.234228134155273,1.456499457359314
6_20251106_215314,1762437158772,6,0.14784519374370575,0.36970585584640503,0.4844411611557007,0.7789583802223206,0.417201429605484,2.994288206100464,1.04873788356781,7.041523456573486,8.563284873962402,3.7608442306518555,-1.3503164052963257,-0.34177500009536743,0.9464547038078308,12.787345886230469,-34.30493927001953,21.41061019897461,1.6609749794006348,0.24200725555419922,1.5285999774932861,5.380548477172852,8.321277618408203,2.2322442531585693
6_20251106_215314,1762437158791,6,0.14698436856269836,0.37495601177215576,0.47017061710357666,0.7853299975395203,0.46171802282333374,2.997826337814331,1.0954331159591675,7.241430759429932,8.73206901550293,3.9140665531158447,-1.4156789779663086,-0.25258874893188477,0.6953893303871155,12.274300575256348,-34.90503692626953,20.44622802734375,1.4887056350708008,0.32863330841064453,1.3454577922821045,5.752725124359131,8.403435707092285,2.5686087608337402
6_20251106_215314,1762437158812,6,0.14758996665477753,0.3781697750091553,0.45637083053588867,0.7917894124984741,0.5074199438095093,3.001570224761963,1.1443191766738892,6.996035575866699,8.54293441772461,4.218116760253906,-1.6062687635421753,-0.04367300868034363,0.40889376401901245,11.743331909179688,-35.60652160644531,19.492759704589844,0.9946484565734863,0.11159896850585938,1.3196063041687012,6.001387119293213,8.43133544921875,2.898510456085205
6_20251106_215314,1762437158832,6,0.15017633140087128,0.3782520592212677,0.4423580467700958,0.7991819381713867,0.5594573616981506,3.005244731903076,1.2040618658065796,6.481304168701172,8.310707092285156,4.520970344543457,-1.7351611852645874,0.08644117414951324,0.22074741125106812,11.28697395324707,-36.28960418701172,18.434368133544922,0.38393354415893555,-0.09650230407714844,1.2979679107666016,6.097370624542236,8.407209396362305,3.2230024337768555
6_20251106_215314,1762437158850,6,0.15402835607528687,0.3761747479438782,0.42817172408103943,0.8071163296699524,0.5978829860687256,3.007007122039795,1.251479148864746,6.199997901916504,7.981518268585205,4.844173431396484,-1.7351611852645874,0.08644117414951324,0.22074741125106812,10.870290756225586,-36.91967010498047,17.337955474853516,0.08210182189941406,-0.34055280685424805,1.2969367504119873,6.11789608001709,8.322071075439453,3.547236680984497
6_20251106_215314,1762437158868,6,0.05527010187506676,0.31955474615097046,0.45719778537750244,0.8281305432319641,0.6387659907341003,3.007418632507324,1.3049992322921753,6.148524761199951,7.789990425109863,4.704118728637695,-1.6337577104568481,-0.08215748518705368,0.3710201680660248,2.478987693786621,-31.499412536621094,16.509767532348633,0.02450275421142578,-0.42566490173339844,0.9255056381225586,6.124022006988525,8.215655326843262,3.7786130905151367
6_20251106_215314,1762437158888,6,0.05759446322917938,0.32108259201049805,0.4428136646747589,0.8351675868034363,0.6387659907341003,3.007418632507324,1.3049992322921753,6.148524761199951,7.789990425109863,4.704118728637695,-1.5897754430770874,-0.2666386365890503,0.5280123949050903,2.0745761394500732,-32.140159606933594,15.305452346801758,0.02450275421142578,-0.42566490173339844,0.9255056381225586,6.124022006988525,8.215655326843262,3.7786130905151367
6_20251106_215314,1762437158906,6,0.05950239673256874,0.3247944116592407,0.4280753433704376,0.8412606716156006,0.7202199101448059,3.007429838180542,1.4155101776123047,7.389864921569824,8.425623893737793,5.804206848144531,-1.5897754430770874,-0.2666386365890503,0.5280123949050903,1.7205162048339844,-32.752349853515625,14.076593399047852,0.9317593574523926,0.19988250732421875,1.4277677536010742,6.458105564117432,8.225741386413574,4.376439094543457
6_20251106_215314,1762437158926,6,0.06203891709446907,0.32819947600364685,0.4128200113773346,0.847358226776123,0.7649780511856079,3.0086135864257812,1.4788182973861694,7.656806945800781,8.50103759765625,6.760649681091309,-1.7571524381637573,-0.11392244696617126,0.1700456738471985,1.502703070640564,-33.329612731933594,12.745525360107422,0.9589614868164062,0.22023677825927734,1.9073686599731445,6.697845458984375,8.280800819396973,4.853281021118164
6_20251106_215314,1762437158944,6,0.06686542928218842,0.3291080594062805,0.3976263403892517,0.8538795113563538,0.8046230673789978,3.008685350418091,1.5395889282226562,7.256992340087891,7.898921012878418,7.550702095031738,-1.7412699460983276,0.0320742130279541,-0.15310178697109222,1.285693645477295,-33.89418029785156,11.401205062866211,0.44731760025024414,-0.30550384521484375,2.1579370498657227,6.8096747398376465,8.204424858093262,5.392765045166016
6_20251106_215314,1762437158963,6,0.07368791848421097,0.3274537920951843,0.38349056243896484,0.8603947162628174,0.8046230673789978,3.008685350418091,1.5395889282226562,7.256992340087891,7.898921012878418,7.550702095031738,-1.5885536670684814,0.013137411326169968,-0.24961841106414795,1.2342503070831299,-34.322715759277344,10.052385330200195,0.44731760025024414,-0.30550384521484375,2.1579370498657227,6.8096747398376465,8.204424858093262,5.392765045166016
6_20251106_215314,1762437158982,6,0.08077961951494217,0.32544979453086853,0.3707270324230194,0.8660938739776611,0.8805955052375793,3.001910448074341,1.6758673191070557,6.28857946395874,7.240544319152832,7.462120532989502,-1.3521490097045898,-0.2244889885187149,-0.07735457271337509,1.2723382711410522,-34.67034912109375,8.708581924438477,-0.40532398223876953,-0.6299071311950684,1.276505470275879,6.69390344619751,7.8704514503479,6.185615062713623
6_20251106_215314,1762437159001,6,0.08654836565256119,0.3260381817817688,0.3590988516807556,0.8702048659324646,0.8805955052375793,3.001910448074341,1.6758673191070557,6.28857946395874,7.240544319152832,7.462120532989502,-1.1310160160064697,-0.4969346523284912,0.20242148637771606,1.3356879949569702,-35.01518249511719,7.244112014770508,-0.40532398223876953,-0.6299071311950684,1.276505470275879,6.69390344619751,7.8704514503479,6.185615062713623
6_20251106_215314,1762437159020,6,0.0904691070318222,0.33000272512435913,0.3481895327568054,0.8727414011955261,0.9450464248657227,2.991361618041992,1.808562994003296,6.514822006225586,7.827098846435547,6.431461334228516,-1.0888663530349731,-0.5433603525161743,0.33681172132492065,1.4298784732818604,-35.2220458984375,5.959238052368164,-0.07056093215942383,0.03181934356689453,0.05544900894165039,6.58538293838501,7.795279502868652,6.376012325286865
6_20251106_215314,1762437159039,6,0.09356946498155594,0.3348959684371948,0.3371626138687134,0.8748775720596313,0.9752638339996338,2.98685884475708,1.8688665628433228,6.798522472381592,7.909694671630859,5.998129367828369,-1.1957677602767944,-0.457228422164917,0.29160773754119873,1.499387264251709,-35.44252014160156,4.619054794311523,0.17051172256469727,0.09153223037719727,-0.3023066520690918,6.6280107498168945,7.818162441253662,6.300436019897461
6_20251106_215314,1762437159059,6,0.09718941152095795,0.33890166878700256,0.3255589008331299,0.8773319125175476,1.0071167945861816,2.9824159145355225,1.928382158279419,7.166016578674316,7.83787202835083,6.041223049163818,-1.3032798767089844,-0.39675283432006836,0.1957019567489624,1.6476513147354126,-35.557769775390625,3.283926010131836,0.4304046630859375,0.015767574310302734,-0.20737028121948242,6.735611915588379,7.822104454040527,6.248593330383301
6_20251106_215314,1762437159081,6,0.10179043561220169,0.3420441746711731,0.31345292925834656,0.8799953460693359,1.0396971702575684,2.9782612323760986,1.984691858291626,7.498796463012695,7.843857288360596,6.172898292541504,-1.2776235342025757,-0.4608936011791229,0.11262436956167221,1.823304533958435,-35.620933532714844,1.9238014221191406,0.6105475425720215,0.017402172088623047,-0.06055593490600586,6.888248920440674,7.826455116271973,6.23345422744751
6_20251106_215314,1762437159101,6,0.10746826231479645,0.3455858528614044,0.30160006880760193,0.8820762038230896,1.0396971702575684,2.9782612323760986,1.984691858291626,7.498796463012695,7.843857288360596,6.172898292541504,-1.2776235342025757,-0.4608936011791229,0.11262436956167221,1.823304533958435,-35.620933532714844,1.9238014221191406,0.6105475425720215,0.017402172088623047,-0.06055593490600586,6.888248920440674,7.826455116271973,6.23345422744751
6_20251106_215314,1762437159116,6,0.1143525242805481,0.3496691882610321,0.2902461588382721,0.8834093809127808,1.079228162765503,2.9744997024536133,2.045870542526245,7.867487907409668,8.01982307434082,6.148957252502441,-1.2806779146194458,-0.60322505235672,-0.2160208523273468,1.989900827407837,-35.622642517089844,0.6185703277587891,0.783390998840332,0.1546945571899414,-0.0675973892211914,7.084096908569336,7.865128517150879,6.216554641723633
6_20251106_215314,1762437159136,6,0.12331337481737137,0.3534488081932068,0.2791954278945923,0.8842610716819763,1.138890266418457,2.971996307373047,2.133236885070801,7.916566848754883,8.392107009887695,7.209543228149414,-1.327103614807129,-0.6001707911491394,-0.5080142021179199,2.143507242202759,-35.637840270996094,-0.6738986968994141,0.5044345855712891,0.3608245849609375,0.7364482879638672,7.412132263183594,8.031282424926758,6.473094940185547
6_20251106_215314,1762437159155,6,0.13490194082260132,0.3562590479850769,0.2686817944049835,0.8846982717514038,1.138890266418457,2.971996307373047,2.133236885070801,7.916566848754883,8.392107009887695,7.209543228149414,-1.3209949731826782,-0.5519124865531921,-0.7749620676040649,2.300130844116211,-35.6025390625,-1.9923439025878906,0.5044345855712891,0.3608245849609375,0.7364482879638672,7.412132263183594,8.031282424926758,6.473094940185547
6_20251106_215314,1762437159174,6,0.1487303376197815,0.357805073261261,0.25907444953918457,0.8847232460975647,1.1973973512649536,2.9724156856536865,2.2294681072235107,6.721911430358887,8.128755569458008,7.6584367752075195,-1.2696822881698608,-0.5445820689201355,-0.9307325482368469,2.5538604259490967,-35.54981231689453,-3.1579227447509766,-0.5453581809997559,0.025800704956054688,0.7766227722167969,7.267269611358643,8.102954864501953,6.881814002990723
6_20251106_215314,1762437159193,6,0.16363415122032166,0.3587237596511841,0.25041791796684265,0.8842126727104187,1.2221671342849731,2.9723289012908936,2.281414747238159,6.1102190017700195,7.991094589233398,7.730259895324707,-1.1548397541046143,-0.6075011491775513,-0.9563888907432556,2.8825113773345947,-35.46666717529297,-4.374095916748047,-0.9256401062011719,-0.08948802947998047,0.6787567138671875,7.035859107971191,8.080582618713379,7.0515031814575195
6_20251106_215314,1762437159212,6,0.17721568048000336,0.35971587896347046,0.24318967759609222,0.8832088708877563,1.2409905195236206,2.972047805786133,2.330674648284912,5.748710632324219,8.006656646728516,7.918196678161621,-1.1548397541046143,-0.6075011491775513,-0.9563888907432556,3.338240146636963,-35.29888916015625,-5.7189435958862305,-1.0297188758850098,-0.05914115905761719,0.6933550834655762,6.7784295082092285,8.065797805786133,7.224841594696045
6_20251106_215314,1762437159230,6,0.1911076009273529,0.36152103543281555,0.23633231222629547,0.8814348578453064,1.2546708583831787,2.971652030944824,2.377258062362671,5.454236030578613,8.007853507995605,8.138453483581543,-0.8830049633979797,-0.7089046835899353,-0.8812524676322937,3.9189581871032715,-35.06092071533203,-7.003501892089844,-1.0593547821044922,-0.046355247497558594,0.7308893203735352,6.5135908126831055,8.054208755493164,7.407564163208008
6_20251106_215314,1762437159251,6,0.20440270006656647,0.3639507591724396,0.23045895993709564,0.8790040016174316,1.2651447057724,2.971198797225952,2.4286623001098633,5.208841323852539,8.04256820678711,8.142045021057129,-0.7345648407936096,-0.7180676460266113,-0.8507092595100403,4.563636779785156,-34.756866455078125,-8.216707229614258,-1.0437994003295898,-0.009312629699707031,0.5875844955444336,6.252640724182129,8.051880836486816,7.554460525512695
6_20251106_215314,1762437159270,6,0.21713393926620483,0.36671096086502075,0.2255801409482956,0.8760647773742676,1.2711502313613892,2.970601797103882,2.4792098999023438,4.955066680908203,7.997079849243164,8.11810302734375,-0.6246092319488525,-0.6826375126838684,-0.8207768797874451,5.328765869140625,-34.46998596191406,-9.425536155700684,-1.0380592346191406,-0.04384136199951172,0.4509139060974121,5.993125915527344,8.040921211242676,7.667189121246338
6_20251106_215314,1762437159289,6,0.2291775643825531,0.36937087774276733,0.2215520739555359,0.8729017376899719,1.2735875844955444,2.9693384170532227,2.525869131088257,4.905987739562988,7.776823043823242,8.046280860900879,-0.5244273543357849,-0.6630898118019104,-0.7499166131019592,6.022386074066162,-34.16249084472656,-10.663812637329102,-0.8697104454040527,-0.21127843856811523,0.30327320098876953,5.775698184967041,7.988101482391357,7.743007659912109
6_20251106_215314,1762437159308,6,0.24025775492191315,0.3721504211425781,0.2181049883365631,0.8696036338806152,1.2743215560913086,2.967653751373291,2.571533203125,5.1992645263671875,7.81153678894043,8.230627059936523,-0.38270676136016846,-0.7199002504348755,-0.6650064587593079,6.853194713592529,-33.77239227294922,-11.746431350708008,-0.4611473083496094,-0.1412520408630371,0.39009571075439453,5.660411834716797,7.952788829803467,7.840531349182129
6_20251106_215314,1762437159326,6,0.2501993179321289,0.37584853172302246,0.2153286188840866,0.8658936023712158,1.2745835781097412,2.9659783840179443,2.6132142543792725,5.498526573181152,7.888148307800293,8.077404022216797,-0.20677770674228668,-0.7510543465614319,-0.6601194739341736,7.6097869873046875,-33.40016174316406,-12.778190612792969,-0.12950801849365234,-0.0517125129699707,0.1894979476928711,5.628034591674805,7.939860820770264,7.887906074523926
6_20251106_215314,1762437159346,6,0.25970658659935,0.38025808334350586,0.21372903883457184,0.8615545034408569,1.2745835781097412,2.9659783840179443,2.6132142543792725,5.498526573181152,7.888148307800293,8.077404022216797,-0.12247838079929352,-0.7388370633125305,-0.7438079714775085,8.340004920959473,-33.055442810058594,-13.730361938476562,-0.12950801849365234,-0.0517125129699707,0.1894979476928711,5.628034591674805,7.939860820770264,7.887906074523926
6_20251106_215314,1762437159365,6,0.2695271670818329,0.38463154435157776,0.21308866143226624,0.8567420244216919,1.2752867937088013,2.9624452590942383,2.694355010986328,5.553591251373291,7.901315689086914,7.921787261962891,-0.09071341156959534,-0.7101264595985413,-0.8855286240577698,9.056343078613281,-32.72541809082031,-14.548125267028809,-0.06871175765991211,-0.02620077133178711,0.04792356491088867,5.622303009033203,7.927516460418701,7.873863697052002
6_20251106_215314,1762437159385,6,0.280317097902298,0.38860630989074707,0.21322165429592133,0.8514364361763,1.2739676237106323,2.960024833679199,2.73506236076355,5.158565044403076,7.756472587585449,7.659633636474609,-0.035735584795475006,-0.6111662983894348,-1.0138102769851685,9.748828887939453,-32.373085021972656,-15.244694709777832,-0.3709902763366699,-0.13683509826660156,-0.17138385772705078,5.529555320739746,7.893307685852051,7.83101749420166
6_20251106_215314,1762437159402,6,0.29175254702568054,0.391583114862442,0.21444089710712433,0.8459067344665527,1.271709680557251,2.957573652267456,2.76548171043396,4.963445663452148,7.624797344207764,7.427406311035156,-0.00824667327105999,-0.5610754489898682,-1.0382448434829712,10.388750076293945,-32.087120056152344,-15.903997421264648,-0.45288801193237305,-0.21480798721313477,-0.3228888511657715,5.4163336753845215,7.839605331420898,7.750295162200928
6_20251106_215314,1762437159421,6,0.30379724502563477,0.39428433775901794,0.21576161682605743,0.8400559425354004,1.271709680557251,2.957573652267456,2.76548171043396,4.963445663452148,7.624797344207764,7.427406311035156,0.06017017364501953,-0.6075011491775513,-1.023584008216858,14.916650772094727,-33.94725036621094,-18.27605628967285,-0.45288801193237305,-0.21480798721313477,-0.3228888511657715,5.4163336753845215,7.839605331420898,7.750295162200928
6_20251106_215314,1762437159440,6,0.31546613574028015,0.39754143357276917,0.21738655865192413,0.8337775468826294,1.261967658996582,2.9535443782806396,2.829763412475586,4.579193115234375,8.218534469604492,8.108528137207031,0.17684532701969147,-0.5696275234222412,-1.0370230674743652,15.642803192138672,-33.619667053222656,-18.768938064575195,-0.5759906768798828,0.2965254783630371,0.27657651901245117,5.155183792114258,7.922008991241455,7.83195161819458
6_20251106_215314,1762437159461,6,0.3265916705131531,0.4006827771663666,0.2200840264558792,0.8272570371627808,1.2546032667160034,2.9532527923583984,2.860323667526245,4.455897331237793,8.315494537353516,7.990019798278809,0.2861901521682739,-0.5024324059486389,-1.0009820461273193,16.34197425842285,-33.33201599121094,-19.19601058959961,-0.5594291687011719,0.314788818359375,0.12645435333251953,5.015326499938965,8.00070571899414,7.863565444946289
6_20251106_215314,1762437159479,6,0.33685243129730225,0.4036005437374115,0.2236807942390442,0.8207337856292725,1.2546032667160034,2.9532527923583984,2.860323667526245,4.455897331237793,8.315494537353516,7.990019798278809,0.4071413278579712,-0.5036541819572449,-0.9179044365882874,17.06390953063965,-33.06816101074219,-19.595598220825195,-0.5594291687011719,0.314788818359375,0.12645435333251953,5.015326499938965,8.00070571899414,7.863565444946289
6_20251106_215314,1762437159500,6,0.346036434173584,0.4070935547351837,0.22779545187950134,0.814028799533844,1.2449686527252197,2.95487380027771,2.895334243774414,4.598345756530762,8.528570175170898,8.242596626281738,0.5598574876785278,-0.49571290612220764,-0.9062979817390442,17.79814338684082,-32.79176330566406,-19.913333892822266,-0.3335847854614258,0.42229175567626953,0.3032245635986328,4.9319305419921875,8.106278419494629,7.9393720626831055
6_20251106_215314,1762437159520,6,0.35439449548721313,0.4109971821308136,0.23299750685691833,0.8069683909416199,1.2282973527908325,2.963148832321167,2.9555888175964355,4.739597797393799,8.934369087219238,8.532281875610352,0.7418951988220215,-0.42302000522613525,-0.9673844575881958,18.520612716674805,-32.492393493652344,-20.095870971679688,-0.1307539939880371,0.5500888824462891,0.39305973052978516,4.870351791381836,8.38428020477295,8.139222145080566
6_20251106_215314,1762437159537,6,0.3621869385242462,0.4147709906101227,0.24000971019268036,0.7994879484176636,1.220154047012329,2.9693315029144287,2.9829437732696533,4.606724739074707,9.076818466186523,8.298858642578125,0.7418951988220215,-0.42302000522613525,-0.9673844575881958,18.520612716674805,-32.492393493652344,-20.095870971679688,-0.21090173721313477,0.5540304183959961,0.12770938873291016,4.817626476287842,8.522788047790527,8.171149253845215
6_20251106_215314,1762437159555,6,0.3693714439868927,0.4173712432384491,0.24884699285030365,0.7921118140220642,1.2113531827926636,2.9763481616973877,3.0087265968322754,4.385271072387695,8.987039566040039,8.088176727294922,0.9221002459526062,-0.10292688757181168,-1.0767292976379395,19.237060546875,-32.28240966796875,-20.131574630737305,-0.3458843231201172,0.3714008331298828,-0.06637763977050781,4.7311553955078125,8.615638732910156,8.15455436706543
6_20251106_215314,1762437159575,6,0.37626636028289795,0.41901010274887085,0.25863733887672424,0.7848317623138428,1.200688123703003,2.9848546981811523,3.0354197025299072,4.278733730316162,8.977462768554688,7.982837677001953,1.0015127658843994,-0.1328592598438263,-1.0504621267318726,20.02683448791504,-32.05577850341797,-20.09649085998535,-0.3619370460510254,0.289459228515625,-0.1373729705810547,4.6406707763671875,8.688003540039062,8.120210647583008
6_20251106_215314,1762437159594,6,0.38265398144721985,0.4212069809436798,0.2686893045902252,0.777152955532074,1.1896297931671143,2.993112325668335,3.058712959289551,4.118329048156738,8.89965534210205,7.829614639282227,1.164002776145935,-0.2403714507818222,-1.023584008216858,20.77804946899414,-31.857452392578125,-19.982309341430664,-0.4178733825683594,0.16932201385498047,-0.23247718811035156,4.536202430725098,8.73033332824707,8.062091827392578
6_20251106_215314,1762437159613,6,0.3882722854614258,0.4247977137565613,0.2793591618537903,0.7686026096343994,1.1896297931671143,2.993112325668335,3.058712959289551,4.118329048156738,8.89965534210205,7.829614639282227,1.3277145624160767,-0.2758015990257263,-1.0150319337844849,21.462310791015625,-31.752479553222656,-19.72374725341797,-0.4178733825683594,0.16932201385498047,-0.23247718811035156,4.536202430725098,8.73033332824707,8.062091827392578
6_20251106_215314,1762437159632,6,0.3908986747264862,0.4283660054206848,0.292181134223938,0.7604807615280151,1.1767115592956543,3.0017502307891846,3.0788140296936035,3.9244070053100586,8.855363845825195,7.012030124664307,1.3753619194030762,-0.29046234488487244,-1.009534239768982,22.181438446044922,-31.659027099609375,-19.32881736755371,-0.48943614959716797,0.10002422332763672,-0.8400492668151855,4.413843154907227,8.755339622497559,7.852079391479492
6_20251106_215314,1762437159652,6,0.3954204320907593,0.43308523297309875,0.30395132303237915,0.7507952451705933,1.1498605012893677,3.0170302391052246,3.103142261505127,3.778367042541504,8.852970123291016,6.23275089263916,1.3753619194030762,-0.29046234488487244,-1.009534239768982,22.86382293701172,-31.556617736816406,-18.813446044921875,-0.40478944778442383,0.07071876525878906,-1.0855927467346191,4.183156490325928,8.782251358032227,7.318343639373779
6_20251106_215314,1762437159671,6,0.39958468079566956,0.43792712688446045,0.31593573093414307,0.7407675385475159,1.1498605012893677,3.0170302391052246,3.103142261505127,3.778367042541504,8.852970123291016,6.23275089263916,1.5286890268325806,-0.34116411209106445,-1.0101450681686401,23.568675994873047,-31.478408813476562,-18.23004150390625,-0.40478944778442383,0.07071876525878906,-1.0855927467346191,4.183156490325928,8.782251358032227,7.318343639373779
6_20251106_215314,1762437159690,6,0.403261661529541,0.44351842999458313,0.32833626866340637,0.7299771904945374,1.1183675527572632,3.0312390327453613,3.1060268878936768,3.2516651153564453,8.715309143066406,4.734045028686523,1.5561779737472534,-0.44317853450775146,-0.9661627411842346,24.353513717651367,-31.471466064453125,-17.496109008789062,-0.6499736309051514,-0.05241966247558594,-1.7590994834899902,3.9016387462615967,8.767728805541992,6.493144512176514
6_20251106_215314,1762437159709,6,0.4066416323184967,0.4500691294670105,0.34024912118911743,0.7185477614402771,1.1183675527572632,3.0312390327453613,3.1060268878936768,3.2516651153564453,8.715309143066406,4.734045028686523,1.5561779737472534,-0.44317853450775146,-0.9661627411842346,25.055770874023438,-31.41998291015625,-16.75103759765625,-0.6499736309051514,-0.05241966247558594,-1.7590994834899902,3.9016387462615967,8.767728805541992,6.493144512176514
6_20251106_215314,1762437159729,6,0.40962252020835876,0.45647749304771423,0.35156163573265076,0.7072779536247253,1.0800902843475342,3.044886350631714,3.0886459350585938,3.0960488319396973,8.785935401916504,4.748409271240234,1.4944804906845093,-0.3643769919872284,-0.9600540995597839,25.672033309936523,-31.37500762939453,-15.91478443145752,-0.5339641571044922,0.0070552825927734375,-1.1348257064819336,3.6300129890441895,8.77888011932373,5.883234977722168
6_20251106_215314,1762437159746,6,0.4124547243118286,0.4620177149772644,0.3631596565246582,0.696086049079895,1.0800902843475342,3.044886350631714,3.0886459350585938,3.0960488319396973,8.785935401916504,4.748409271240234,1.4944804906845093,-0.3643769919872284,-0.9600540995597839,26.32314682006836,-31.353164672851562,-15.037038803100586,-0.5339641571044922,0.0070552825927734375,-1.1348257064819336,3.6300129890441895,8.77888011932373,5.883234977722168
6_20251106_215314,1762437159766,6,0.4152162969112396,0.4666791558265686,0.3754754066467285,0.6847074031829834,1.0608294010162354,3.050049066543579,3.075333595275879,2.6232142448425293,8.568073272705078,4.167840957641602,1.4468331336975098,-0.13469184935092926,-1.0816162824630737,27.041040420532227,-31.215011596679688,-14.086885452270508,-0.8054389953613281,-0.16864585876464844,-1.3723154067993164,3.4286532402038574,8.736719131469727,5.540156364440918
6_20251106_215314,1762437159785,6,0.4178182780742645,0.46986714005470276,0.38802897930145264,0.6738592386245728,1.0129859447479248,3.0569980144500732,3.0376758575439453,1.8942111730575562,8.15030288696289,4.0589094161987305,1.4468331336975098,-0.13469184935092926,-1.0816162824630737,27.663461685180664,-31.045677185058594,-13.126346588134766,-1.0320316553115845,-0.4141864776611328,-0.9430184364318848,2.9262428283691406,8.564489364624023,5.001927852630615
6_20251106_215314,1762437159805,6,0.41966626048088074,0.47192418575286865,0.40084099769592285,0.6636974215507507,0.9837866425514221,3.0576398372650146,3.014207124710083,1.5566432476043701,7.901315689086914,3.8386523723602295,1.4914262294769287,0.09316068887710571,-0.9441716074943542,28.187591552734375,-30.8953857421875,-12.156478881835938,-1.095679759979248,-0.5305385589599609,-0.9306204319000244,2.652323007583618,8.431854248046875,4.769272804260254
6_20251106_215314,1762437159823,6,0.419949471950531,0.4740171730518341,0.4137916564941406,0.654008150100708,0.9837866425514221,3.0576398372650146,3.014207124710083,1.5566432476043701,7.901315689086914,3.8386523723602295,1.5561779737472534,0.04429151117801666,-0.6802780032157898,28.799434661865234,-30.701461791992188,-11.22293472290039,-1.095679759979248,-0.5305385589599609,-0.9306204319000244,2.652323007583618,8.431854248046875,4.769272804260254
6_20251106_215314,1762437159842,6,0.4182948172092438,0.47756367921829224,0.42569810152053833,0.6447817087173462,0.9236495494842529,3.054774522781372,2.963308811187744,1.322021484375,8.144317626953125,3.3969411849975586,1.5952732563018799,-0.1475200206041336,-0.3754565119743347,29.31702995300293,-30.439895629882812,-10.15656852722168,-0.8402843475341797,-0.12445831298828125,-0.8577985763549805,2.1623058319091797,8.268775939941406,4.254739761352539
6_20251106_215314,1762437159862,6,0.41532382369041443,0.48368385434150696,0.43556755781173706,0.6354816555976868,0.8904749155044556,3.053493022918701,2.9334123134613037,1.5961458683013916,8.387317657470703,3.2592806816101074,1.6362011432647705,-0.1530178040266037,-0.2520618438720703,29.758281707763672,-30.24547576904297,-9.135013580322266,-0.4529280662536621,0.0948333740234375,-0.7963671684265137,2.0490739345550537,8.292484283447266,4.055647850036621
6_20251106_215314,1762437159880,6,0.4110567271709442,0.4902004599571228,0.445137619972229,0.6265687346458435,0.8611132502555847,3.052781105041504,2.903888463973999,1.644027829170227,8.448368072509766,2.446484088897705,1.6337577104568481,-0.021681878715753555,-0.28993546962738037,30.15089988708496,-30.04248809814453,-8.034058570861816,-0.32403695583343506,0.12470722198486328,-1.2873311042785645,1.968064785003662,8.323660850524902,3.7338151931762695
6_20251106_215314,1762437159900,6,0.40635597705841064,0.4957229197025299,0.45518916845321655,0.6180100440979004,0.8285566568374634,3.052401542663574,2.866576671600342,1.4536969661712646,8.44597339630127,1.7114956378936768,1.5702277421951294,0.08155426383018494,-0.3449133038520813,30.46920394897461,-29.857498168945312,-6.8687286376953125,-0.41149425506591797,0.09784984588623047,-1.6178557872772217,1.8651912212371826,8.348123550415039,3.3293514251708984
6_20251106_215314,1762437159920,6,0.40161415934562683,0.5001246929168701,0.46549609303474426,0.6098317503929138,0.8285566568374634,3.052401542663574,2.866576671600342,1.4536969661712646,8.44597339630127,1.7114956378936768,1.4700459241867065,0.15302543342113495,-0.350411057472229,30.702415466308594,-29.666183471679688,-5.638986587524414,-0.41149425506591797,0.09784984588623047,-1.6178557872772217,1.8651912212371826,8.348123550415039,3.3293514251708984
6_20251106_215314,1762437159941,6,0.39691048860549927,0.5036594271659851,0.475504606962204,0.6022330522537231,0.7633833289146423,3.052694082260132,2.781348943710327,0.9102365970611572,8.377742767333984,0.7885705828666687,1.3863575458526611,0.21289017796516418,-0.3357503414154053,30.82172393798828,-29.557357788085938,-4.4152421951293945,-0.6540732383728027,-0.0009622573852539062,-1.7084567546844482,1.56430983543396,8.378705024719238,2.4970273971557617
6_20251106_215314,1762437159958,6,0.39205649495124817,0.5064331293106079,0.48523765802383423,0.595282793045044,0.7633833289146423,3.052694082260132,2.781348943710327,0.9102365970611572,8.377742767333984,0.7885705828666687,1.3063342571258545,0.2642028033733368,-0.2832159399986267,30.82172393798828,-29.557357788085938,-4.4152421951293945,-0.6540732383728027,-0.0009622573852539062,-1.7084567546844482,1.56430983543396,8.378705024719238,2.4970273971557617
6_20251106_215314,1762437159976,6,0.38699644804000854,0.5088355541229248,0.4944002032279968,0.5889724493026733,0.7009153962135315,3.0519134998321533,2.6894612312316895,1.0203652381896973,8.125164031982422,0.44501736760139465,1.3185515403747559,0.2794744372367859,-0.23801197111606598,30.98121452331543,-29.38323211669922,-3.2022228240966797,-0.3260989189147949,-0.18793106079101562,-1.3558056354522705,1.3464641571044922,8.313095092773438,1.8008229732513428
6_20251106_215314,1762437159996,6,0.38145196437835693,0.511313796043396,0.503386914730072,0.5827985405921936,0.66768479347229,3.050065755844116,2.6353416442871094,0.8575664162635803,7.938424110412598,-0.15231028199195862,1.339931845664978,0.2373247593641281,-0.2319033443927765,30.98159408569336,-29.220375061035156,-1.9009647369384766,-0.39111822843551636,-0.29973697662353516,-1.5625066757202148,1.2486846446990967,8.238161087036133,1.4101964235305786
6_20251106_215314,1762437160015,6,0.3758046627044678,0.5140553712844849,0.5122518539428711,0.5762950778007507,0.636089026927948,3.047273635864258,2.582129716873169,0.6636444330215454,7.828295707702637,-0.18223650753498077,1.219591498374939,0.3149045705795288,-0.24961841106414795,30.895557403564453,-29.087783813476562,-0.6442165374755859,-0.46803224086761475,-0.3278923034667969,-1.2739464044570923,1.1316766738891602,8.156188011169434,1.091709852218628
6_20251106_215314,1762437160034,6,0.37023013830184937,0.5157090425491333,0.5209149718284607,0.5706323981285095,0.6044605374336243,3.0432748794555664,2.5276432037353516,0.5439395308494568,7.665496826171875,-0.34264111518859863,1.0943642854690552,0.539091944694519,-0.2569487690925598,30.813751220703125,-28.879852294921875,0.6141147613525391,-0.47018975019454956,-0.39255332946777344,-1.1474807262420654,1.0141292810440063,8.058050155639648,0.8048396706581116
6_20251106_215314,1762437160053,6,0.3642008304595947,0.5156084895133972,0.5296180248260498,0.5665777921676636,0.5729198455810547,3.038159132003784,2.4711761474609375,0.4697224199771881,7.578112602233887,-0.9100425839424133,0.9923496842384338,0.6655409336090088,-0.20319269597530365,30.79387664794922,-28.654991149902344,1.8346138000488281,-0.435525506734848,-0.38395023345947266,-1.37190580368042,0.9052479267120361,7.962062835693359,0.4618632197380066
6_20251106_215314,1762437160071,6,0.3571484386920929,0.5141618251800537,0.5383851528167725,0.5641134977340698,0.5438056588172913,3.0323235988616943,2.4169392585754395,0.6097772121429443,7.46199893951416,-0.9256042242050171,0.9049960970878601,0.6704278588294983,-0.07613283395767212,30.719104766845703,-28.333099365234375,3.0007076263427734,-0.2363765835762024,-0.4000511169433594,-1.1099740266799927,0.8461537957191467,7.8620500564575195,0.184369757771492
6_20251106_215314,1762437160091,6,0.3503977656364441,0.5136661529541016,0.545465886592865,0.5619924068450928,0.513206958770752,3.0249805450439453,2.355776309967041,0.889886736869812,7.472772121429443,-1.1027674674987793,0.9111047387123108,0.593458890914917,0.055203087627887726,30.532644271850586,-28.055892944335938,4.148078918457031,0.03498637676239014,-0.31142187118530273,-1.029709815979004,0.8549003601074219,7.784193992614746,-0.07305768132209778
6_20251106_215314,1762437160111,6,0.34322625398635864,0.5142212510108948,0.5516204237937927,0.5598992109298706,0.48498693108558655,3.017723798751831,2.2939953804016113,1.134084939956665,7.691832065582275,-1.2823249101638794,0.9043851494789124,0.5305398106575012,0.11934387683868408,30.296846389770508,-27.782676696777344,5.37458610534668,0.22334766387939453,-0.07388973236083984,-0.9674137830734253,0.9107372760772705,7.765721797943115,-0.3149110972881317
6_20251106_215314,1762437160132,6,0.33587390184402466,0.5153040289878845,0.5572482347488403,0.5577857494354248,0.4576542377471924,3.0102455615997314,2.2282516956329346,1.1544346809387207,7.694226264953613,-1.5432815551757812,0.8420769572257996,0.5769655108451843,0.10529398918151855,30.085519790649414,-27.507736206054688,6.588558197021484,0.1949579119682312,-0.05719614028930664,-0.9826963543891907,0.9594767689704895,7.75142240524292,-0.5605852007865906
6_20251106_215314,1762437160148,6,0.3285142779350281,0.5157686471939087,0.5627616047859192,0.5562017560005188,0.43797504901885986,3.0043280124664307,2.1777944564819336,1.0131828784942627,7.49192476272583,-2.036465883255005,0.8420769572257996,0.5769655108451843,0.10529398918151855,29.78837013244629,-27.26226043701172,7.676921844482422,0.042964935302734375,-0.20759820938110352,-1.1807045936584473,0.9702179431915283,7.699522972106934,-0.8557612895965576
6_20251106_215314,1762437160168,6,0.32110655307769775,0.5150980949401855,0.567802369594574,0.5560261011123657,0.4150059223175049,2.996429443359375,2.114672899246216,1.1017645597457886,7.412919998168945,-1.9095786809921265,0.4382954239845276,0.8542981743812561,0.17676515877246857,29.468456268310547,-26.99298858642578,8.737800598144531,0.10523730516433716,-0.22928237915039062,-0.843053936958313,0.9965272545814514,7.642202377319336,-1.0665247440338135
6_20251106_215314,1762437160187,6,0.31383755803108215,0.5132781863212585,0.5716027021408081,0.5579622387886047,0.3960987329483032,2.989450454711914,2.057793378829956,1.6607866287231445,7.696619987487793,-1.0345356464385986,0.2880226969718933,0.9770819544792175,0.23968422412872314,29.086116790771484,-26.741317749023438,9.904092788696289,0.5314074754714966,0.043534278869628906,0.025591254234313965,1.129379153251648,7.653085708618164,-1.0601269006729126
6_20251106_215314,1762437160205,6,0.30610719323158264,0.5104693174362183,0.5747502446174622,0.56158846616745,0.38172903656959534,2.983748197555542,2.0066471099853516,2.204246997833252,7.888148307800293,-1.0417180061340332,0.3649916648864746,1.041833519935608,0.22868865728378296,28.576560974121094,-26.60926055908203,10.927942276000977,0.8598942756652832,0.1880502700805664,0.014727115631103516,1.3443527221679688,7.700098037719727,-1.0564451217651367
6_20251106_215314,1762437160225,6,0.29754647612571716,0.5072242021560669,0.578470766544342,0.565297544002533,0.38172903656959534,2.983748197555542,2.0066471099853516,2.204246997833252,7.888148307800293,-1.0417180061340332,0.4425715208053589,0.9892992377281189,0.1847064048051834,28.056438446044922,-26.440994262695312,12.019674301147461,0.8598942756652832,0.1880502700805664,0.014727115631103516,1.3443527221679688,7.700098037719727,-1.0564451217651367
6_20251106_215314,1762437160244,6,0.28912481665611267,0.5043135285377502,0.5824819803237915,0.5681455731391907,0.3682204484939575,2.977290391921997,1.9454478025436401,2.2078380584716797,7.744502067565918,-1.5492669343948364,0.4230238199234009,0.8958369493484497,0.18837159872055054,27.519493103027344,-26.36102294921875,13.068519592285156,0.6907882690429688,0.035523414611816406,-0.39425742626190186,1.517049789428711,7.708978652954102,-1.1550095081329346
6_20251106_215314,1762437160262,6,0.28116506338119507,0.50180983543396,0.5861735343933105,0.5705556273460388,0.35151541233062744,2.967566967010498,1.8521567583084106,2.0258865356445312,7.6738762855529785,-1.4439265727996826,0.33200496435165405,0.9141628742218018,0.1950910985469818,26.98796272277832,-26.204086303710938,13.95675277709961,0.3277623653411865,-0.023423194885253906,-0.14008939266204834,1.6981241703033447,7.697299480438232,-1.3038371801376343
6_20251106_215314,1762437160281,6,0.27342671155929565,0.4988686442375183,0.5894434452056885,0.5735192894935608,0.345108300447464,2.9631099700927734,1.8045822381973267,2.236567497253418,7.86540412902832,-1.491808533668518,0.2568686008453369,1.0687116384506226,0.17187824845314026,26.34413719177246,-26.104263305664062,14.812484741210938,0.4307546615600586,0.13448333740234375,-0.15037715435028076,1.8058128356933594,7.730920791625977,-1.3414313793182373
6_20251106_215314,1762437160301,6,0.26531365513801575,0.49467840790748596,0.5927216410636902,0.5775664448738098,0.34066569805145264,2.958544969558716,1.7546800374984741,2.452036142349243,7.695423126220703,-2.1070919036865234,0.21288634836673737,1.2061561346054077,0.1700456440448761,25.745037078857422,-26.064720153808594,15.736438751220703,0.5169786214828491,-0.02839803695678711,-0.6125283241271973,1.935057520866394,7.72382116317749,-1.4945635795593262
6_20251106_215314,1762437160323,6,0.25658997893333435,0.48955851793289185,0.5960347056388855,0.5824403166770935,0.33813178539276123,2.953494071960449,1.6983240842819214,2.5082976818084717,7.647541046142578,-2.6385817527770996,0.1542433351278305,1.145680546760559,0.25006893277168274,25.127092361450195,-25.93805694580078,16.580162048339844,0.45859217643737793,-0.06102418899536133,-0.9152145385742188,2.0497055053710938,7.7085652351379395,-1.7233672142028809
6_20251106_215314,1762437160340,6,0.24799442291259766,0.4851800501346588,0.5984270572662354,0.587353527545929,0.33749714493751526,2.950096607208252,1.6552327871322632,2.6076526641845703,7.849842071533203,-2.506906270980835,0.01435532234609127,1.0186206102371216,0.3740744888782501,24.494129180908203,-25.87403106689453,17.32746124267578,0.44635772705078125,0.1130213737487793,-0.6268312931060791,2.161294937133789,7.736820697784424,-1.8800749778747559
6_20251106_215314,1762437160359,6,0.239939346909523,0.4818178713321686,0.5992217659950256,0.592633068561554,0.33749714493751526,2.950096607208252,1.6552327871322632,2.6076526641845703,7.849842071533203,-2.506906270980835,0.01435532234609127,1.0186206102371216,0.3740744888782501,24.494129180908203,-25.87403106689453,17.32746124267578,0.44635772705078125,0.1130213737487793,-0.6268312931060791,2.161294937133789,7.736820697784424,-1.8800749778747559
6_20251106_215314,1762437160381,6,0.23224660754203796,0.47911587357521057,0.5988247990608215,0.5982627868652344,0.3455900251865387,2.9460666179656982,1.5639979839324951,3.744849681854248,8.224519729614258,-1.6977009773254395,-0.06933314353227615,0.9098867774009705,0.45104342699050903,23.163734436035156,-25.82434844970703,18.723411560058594,1.1080899238586426,0.3328123092651367,0.14410781860351562,2.6367597579956055,7.891707420349121,-1.841808795928955
6_20251106_215314,1762437160403,6,0.22470255196094513,0.47646060585975647,0.5983173847198486,0.6037468910217285,0.35845518112182617,2.946503162384033,1.5129454135894775,3.980668067932129,8.351407051086426,-1.7264301776885986,-0.06933314353227615,0.9098867774009705,0.45104342699050903,23.163734436035156,-25.82434844970703,18.723411560058594,1.0751266479492188,0.36775970458984375,0.09230291843414307,2.90554141998291,7.983647346496582,-1.8187330961227417
6_20251106_215314,1762437160415,6,0.21787475049495697,0.4735342264175415,0.5978310108184814,0.609010636806488,0.35845518112182617,2.946503162384033,1.5129454135894775,3.980668067932129,8.351407051086426,-1.7264301776885986,-0.15118901431560516,0.8170353770256042,0.28977513313293457,22.43194580078125,-25.81488037109375,19.262989044189453,1.0751266479492188,0.36775970458984375,0.09230291843414307,2.90554141998291,7.983647346496582,-1.8187330961227417
6_20251106_215314,1762437160434,6,0.21195700764656067,0.47022274136543274,0.5972824096679688,0.6141811609268188,0.3788928687572479,2.9498376846313477,1.4536800384521484,3.870539665222168,8.592013359069824,-1.435547113418579,-0.19150610268115997,0.8255874514579773,0.19936716556549072,21.695419311523438,-25.893043518066406,19.773685455322266,0.5957646369934082,0.40180397033691406,0.26669013500213623,3.2747750282287598,8.19020938873291,-1.7022372484207153
6_20251106_215314,1762437160453,6,0.20673517882823944,0.4662339985370636,0.5968542098999023,0.6193960905075073,0.3788928687572479,2.9498376846313477,1.4536800384521484,3.870539665222168,8.592013359069824,-1.435547113418579,-0.2360992282629013,0.8714023232460022,0.14011327922344208,21.058595657348633,-25.927047729492188,20.27558135986328,0.5957646369934082,0.40180397033691406,0.26669013500213623,3.2747750282287598,8.19020938873291,-1.7022372484207153
6_20251106_215314,1762437160474,6,0.2017909288406372,0.46145087480545044,0.5965120196342468,0.6249135732650757,0.40915048122406006,2.95780611038208,1.3857643604278564,3.8944807052612305,8.505825996398926,-1.720444917678833,-0.2813032269477844,0.8561307191848755,0.14072415232658386,20.385299682617188,-25.97491455078125,20.66761016845703,0.41021013259887695,0.19203472137451172,-0.03597688674926758,3.4842705726623535,8.313791275024414,-1.6844680309295654
6_20251106_215314,1762437160492,6,0.19724127650260925,0.4567701816558838,0.5957719683647156,0.6304860711097717,0.40915048122406006,2.95780611038208,1.3857643604278564,3.8944807052612305,8.505825996398926,-1.720444917678833,-0.31612247228622437,0.7693879008293152,0.17798689007759094,19.71873664855957,-26.1337890625,20.936107635498047,0.41021013259887695,0.19203472137451172,-0.03597688674926758,3.4842705726623535,8.313791275024414,-1.6844680309295654
6_20251106_215314,1762437160510,6,0.1930650919675827,0.4527481198310852,0.594491183757782,0.6358657479286194,0.43885910511016846,2.965799331665039,1.3319185972213745,4.12910270690918,8.44357967376709,-1.454699993133545,-0.3173442482948303,0.686310350894928,0.2525123953819275,19.050861358642578,-26.317642211914062,21.190563201904297,0.4349098205566406,0.08306503295898438,0.14896678924560547,3.694192886352539,8.360514640808105,-1.6036667823791504
6_20251106_215314,1762437160530,6,0.18884387612342834,0.4495619237422943,0.5927063822746277,0.6410391330718994,0.4570280909538269,2.9707672595977783,1.3051353693008423,4.415197372436523,8.59919548034668,-1.3996357917785645,-0.3552178144454956,0.5787981152534485,0.32642704248428345,18.458215713500977,-26.45905303955078,21.448753356933594,0.57680344581604,0.19094467163085938,0.16322481632232666,3.8383939266204834,8.40825080871582,-1.5628606081008911
6_20251106_215314,1762437160549,6,0.18489788472652435,0.4473595917224884,0.5901618003845215,0.646058201789856,0.47564855217933655,2.97642183303833,1.2826987504959106,4.648621559143066,8.835014343261719,-0.9303923845291138,-0.3820958733558655,0.47678375244140625,0.35330507159233093,17.843908309936523,-26.563575744628906,21.625656127929688,0.6481819152832031,0.34141063690185547,0.505974531173706,4.000439643859863,8.493603706359863,-1.4363669157028198
6_20251106_215314,1762437160569,6,0.1814499795436859,0.4458964169025421,0.5871102213859558,0.650810182094574,0.47564855217933655,2.97642183303833,1.2826987504959106,4.648621559143066,8.835014343261719,-0.9303923845291138,-0.35827213525772095,0.4334123432636261,0.3294813632965088,17.311859130859375,-26.73625946044922,21.6422119140625,0.6481819152832031,0.34141063690185547,0.505974531173706,4.000439643859863,8.493603706359863,-1.4363669157028198
6_20251106_215314,1762437160588,6,0.17821384966373444,0.44448643922805786,0.5842013359069824,0.6552712917327881,0.4969891309738159,2.9837074279785156,1.262619137763977,4.895214080810547,9.030133247375488,-0.6610562801361084,-0.3026834726333618,0.40103650093078613,0.276336133480072,16.81526756286621,-26.919662475585938,21.714038848876953,0.7158193588256836,0.42922306060791016,0.6202484369277954,4.179394721984863,8.600910186767578,-1.2813047170639038
6_20251106_215314,1762437160606,6,0.17530781030654907,0.4431118667125702,0.581707775592804,0.6591927409172058,0.5378231406211853,2.9982426166534424,1.23049795627594,4.673759460449219,8.852970123291016,-1.2452163696289062,-0.3051269054412842,0.40470170974731445,0.2879425585269928,16.341426849365234,-27.138473510742188,21.718475341796875,0.2930269241333008,0.15346527099609375,-0.04642796516418457,4.380732536315918,8.699504852294922,-1.1987884044647217
6_20251106_215314,1762437160625,6,0.1723039746284485,0.44176387786865234,0.5791869759559631,0.663097620010376,0.5590608716011047,3.005964994430542,1.2150408029556274,4.87845516204834,8.906837463378906,-1.2440192699432373,-0.3448331356048584,0.3619411587715149,0.340476930141449,15.919855117797852,-27.29132080078125,21.726192474365234,0.3981781005859375,0.16586589813232422,-0.03618466854095459,4.480277061462402,8.740971565246582,-1.2078346014022827
6_20251106_215314,1762437160644,6,0.16944164037704468,0.4409855902194977,0.5761505365371704,0.6669871211051941,0.5590608716011047,3.005964994430542,1.2150408029556274,4.87845516204834,8.906837463378906,-1.2440192699432373,-0.35827213525772095,0.2831396162509918,0.349639892578125,15.458498001098633,-27.508934020996094,21.690570831298828,0.3981781005859375,0.16586589813232422,-0.03618466854095459,4.480277061462402,8.740971565246582,-1.2078346014022827
6_20251106_215314,1762437160663,6,0.16699939966201782,0.4407559335231781,0.5728351473808289,0.6706007122993469,0.6037263870239258,3.0236916542053223,1.1881146430969238,5.32016658782959,9.252784729003906,-0.7831553220748901,-0.3814849853515625,0.22388574481010437,0.30015984177589417,15.021400451660156,-27.73670196533203,21.574569702148438,0.5723876953125,0.3428821563720703,0.3179529905319214,4.74777889251709,8.909902572631836,-1.1011083126068115
6_20251106_215314,1762437160683,6,0.16523398458957672,0.44053295254707336,0.5694869160652161,0.6740275621414185,0.6286473870277405,3.0339369773864746,1.1777969598770142,5.467403411865234,9.245601654052734,-0.3689762353897095,-0.42363470792770386,0.20067287981510162,0.2164713740348816,14.547449111938477,-27.967262268066406,21.49764633178711,0.5756998062133789,0.26855945587158203,0.5857056975364685,4.8917036056518555,8.977042198181152,-0.954681932926178
6_20251106_215314,1762437160702,6,0.164308100938797,0.4399300217628479,0.5661206245422363,0.6774746179580688,0.6528921127319336,3.043785572052002,1.1707490682601929,5.530847549438477,9.196523666381836,-0.12956634163856506,-0.4370737075805664,0.1860121339559555,0.12728512287139893,14.168560028076172,-28.24114990234375,21.369525909423828,0.5113153457641602,0.1755847930908203,0.6600924730300903,5.019532203674316,9.020938873291016,-0.789658784866333
6_20251106_215314,1762437160721,6,0.16396911442279816,0.43879133462905884,0.5630264282226562,0.6808652877807617,0.6528921127319336,3.043785572052002,1.1707490682601929,5.530847549438477,9.196523666381836,-0.12956634163856506,-0.41935861110687256,0.14447332918643951,0.03870973736047745,13.893306732177734,-28.39594268798828,21.274734497070312,0.5113153457641602,0.1755847930908203,0.6600924730300903,5.019532203674316,9.020938873291016,-0.789658784866333
6_20251106_215314,1762437160740,6,0.16437380015850067,0.43748152256011963,0.5602961778640747,0.6838562488555908,0.6982911229133606,3.0639209747314453,1.1614844799041748,4.938307762145996,9.373686790466309,-0.4240404963493347,-0.42485642433166504,0.11087577044963837,-0.045589596033096313,13.631425857543945,-28.548324584960938,21.018238067626953,-0.12725448608398438,0.23169612884521484,0.20584112405776978,5.0655622482299805,9.141990661621094,-0.6298816204071045
6_20251106_215314,1762437160759,6,0.16559867560863495,0.43596458435058594,0.5578340888023376,0.6865370273590088,0.7190979719161987,3.0752201080322266,1.1578662395477295,4.514552116394043,9.416780471801758,-0.41207000613212585,-0.5091557502746582,0.1090431734919548,-0.07368937879800797,13.365934371948242,-28.75201416015625,20.868816375732422,-0.4408078193664551,0.2198324203491211,0.17424926161766052,4.955359935760498,9.196948051452637,-0.5863192677497864
6_20251106_215314,1762437160779,6,0.16750748455524445,0.43420150876045227,0.5549570322036743,0.6895164847373962,0.7365123629570007,3.0862672328948975,1.1564549207687378,4.458291053771973,9.506559371948242,0.08949369192123413,-0.6227765679359436,0.13286688923835754,-0.04803305119276047,13.365934371948242,-28.75201416015625,20.868816375732422,-0.39765501022338867,0.24768924713134766,0.5406503677368164,4.855946063995361,9.258870124816895,-0.4511566758155823
6_20251106_215314,1762437160798,6,0.16953234374523163,0.4320847690105438,0.5513796210289001,0.6932113766670227,0.7531436681747437,3.0983400344848633,1.1589033603668213,4.598345756530762,9.596338272094727,0.8184967637062073,-0.6783652901649475,0.14325159788131714,-0.0462004616856575,12.9659423828125,-29.235992431640625,20.31671142578125,-0.20607995986938477,0.2699747085571289,1.0157227516174316,4.8044257164001465,9.326363563537598,-0.19722600281238556
6_20251106_215314,1762437160818,6,0.1717744618654251,0.429777055978775,0.5473576188087463,0.6972695589065552,0.7531436681747437,3.0983400344848633,1.1589033603668213,4.598345756530762,9.596338272094727,0.8184967637062073,-0.6380482316017151,0.11331922560930252,-0.06758072227239609,12.9659423828125,-29.235992431640625,20.31671142578125,-0.20607995986938477,0.2699747085571289,1.0157227516174316,4.8044257164001465,9.326363563537598,-0.19722600281238556
6_20251106_215314,1762437160836,6,0.17408958077430725,0.42750808596611023,0.5435609817504883,0.7010499835014343,0.7816453576087952,3.122431516647339,1.1753780841827393,4.777902603149414,9.909965515136719,1.6109434366226196,-0.5763508677482605,0.04856756329536438,-0.0871284008026123,12.898022651672363,-29.400238037109375,20.013469696044922,0.0016031265258789062,0.42196178436279297,1.2118139266967773,4.776299476623535,9.488003730773926,0.3991295099258423
6_20251106_215314,1762437160854,6,0.17660832405090332,0.42562684416770935,0.540077805519104,0.7042494416236877,0.7944086790084839,3.1351895332336426,1.188348650932312,4.910776138305664,10.144586563110352,2.008363723754883,-0.47128212451934814,-0.0021342081017792225,-0.143938809633255,12.879947662353516,-29.54821014404297,19.658390045166016,0.10758113861083984,0.5252666473388672,1.2873873710632324,4.803194999694824,9.619319915771484,0.7209763526916504
6_20251106_215314,1762437160875,6,0.17926928400993347,0.4238775670528412,0.537443995475769,0.7066429853439331,0.8080928325653076,3.151627779006958,1.2069950103759766,4.665380477905273,10.304990768432617,1.9951963424682617,-0.31673336029052734,-0.008242854848504066,-0.2526727318763733,12.861985206604004,-29.684432983398438,19.38467025756836,-0.11025142669677734,0.5485363006591797,1.0193760395050049,4.775631904602051,9.756454467773438,0.9758203029632568
6_20251106_215314,1762437160894,6,0.1819680631160736,0.42177021503448486,0.5362768769264221,0.7080993056297302,0.8182680606842041,3.16676926612854,1.22488272190094,4.197334289550781,10.125433921813965,1.6540372371673584,-0.31673336029052734,-0.008242854848504066,-0.2526727318763733,12.86457347869873,-29.88226318359375,19.151161193847656,-0.46263790130615234,0.2951831817626953,0.5425735712051392,4.659972190856934,9.83025074005127,1.1114636659622192
6_20251106_215314,1762437160913,6,0.18447549641132355,0.4188123941421509,0.536526083946228,0.709016740322113,0.82529616355896,3.180663585662842,1.2413008213043213,3.795125722885132,9.93869400024414,1.2410552501678467,-0.12675443291664124,0.17257310450077057,-0.37301307916641235,12.966073036193848,-30.037010192871094,19.016979217529297,-0.6918771266937256,0.08675479888916016,0.10367321968078613,4.487002849578857,9.85193920135498,1.1373820304870605
6_20251106_215314,1762437160931,6,0.18659022450447083,0.4153392016887665,0.5374018549919128,0.7098426818847656,0.8299660682678223,3.1945159435272217,1.2571227550506592,3.620356559753418,9.822580337524414,0.9034873247146606,-0.12675443291664124,0.17257310450077057,-0.37301307916641235,13.096963882446289,-30.113746643066406,18.777233123779297,-0.6933169364929199,-0.023487091064453125,-0.18711578845977783,4.313673496246338,9.846067428588867,1.0906031131744385
6_20251106_215314,1762437160952,6,0.18786901235580444,0.4119700491428375,0.5385251641273499,0.7106170058250427,0.8299660682678223,3.1945159435272217,1.2571227550506592,3.620356559753418,9.822580337524414,0.9034873247146606,-0.08521562814712524,0.19945114850997925,-0.3125374913215637,13.178926467895508,-30.18231964111328,18.65743637084961,-0.6933169364929199,-0.023487091064453125,-0.18711578845977783,4.313673496246338,9.846067428588867,1.0906031131744385
6_20251106_215314,1762437160972,6,0.1886068880558014,0.41004306077957153,0.539514422416687,0.7107857465744019,0.8352635502815247,3.225282669067383,1.2841107845306396,4.059673309326172,10.452228546142578,0.4126970171928406,0.13225220143795013,-0.10353775322437286,-0.07857628911733627,13.297348976135254,-30.248641967773438,18.552627563476562,-0.11582756042480469,0.44942283630371094,-0.4685264229774475,4.175500869750977,10.002805709838867,0.8812234401702881
6_20251106_215314,1762437160989,6,0.18902167677879333,0.41041749715805054,0.5407047271728516,0.7095538377761841,0.837171196937561,3.238959789276123,1.2922441959381104,4.204516410827637,10.536022186279297,0.21877503395080566,0.2415970116853714,-0.28435370326042175,0.003279581665992737,13.445695877075195,-30.201438903808594,18.559303283691406,0.023212432861328125,0.4265727996826172,-0.5299587249755859,4.181303977966309,10.10944938659668,0.7487337589263916
6_20251106_215314,1762437161009,6,0.1894305944442749,0.4127275049686432,0.5419554710388184,0.7071465849876404,0.8392319083213806,3.2553460597991943,1.3000837564468384,4.157831192016602,10.471380233764648,0.3372828960418701,0.17928878962993622,-0.30084705352783203,0.015496876090765,13.588602066040039,-30.254425048828125,18.536834716796875,-0.018778324127197266,0.28954505920410156,-0.3291606903076172,4.176609516143799,10.181835174560547,0.6664435863494873
6_20251106_215314,1762437161027,6,0.19004355370998383,0.4151071608066559,0.5427229404449463,0.7049973607063293,0.8409210443496704,3.269963264465332,1.3070991039276123,4.147058010101318,10.428287506103516,0.7933586835861206,-0.012522723525762558,-0.12613974511623383,-0.07430023699998856,13.763521194458008,-30.179443359375,18.4368896484375,-0.023641109466552734,0.19716167449951172,0.10153204202651978,4.170699119567871,10.231125831604004,0.6918266415596008
6_20251106_215314,1762437161047,6,0.19114167988300323,0.4154929518699646,0.5428381562232971,0.7043842673301697,0.8418537378311157,3.284771203994751,1.315706491470337,3.8932836055755615,10.28583812713623,1.26499605178833,-0.012522723525762558,-0.12613974511623383,-0.07430023699998856,13.951541900634766,-30.0792236328125,18.40554428100586,-0.22193217277526855,0.043768882751464844,0.4585355520248413,4.11521577835083,10.242069244384766,0.8064604997634888
6_20251106_215314,1762437161065,6,0.19281084835529327,0.41306793689727783,0.5430335998535156,0.7052044868469238,0.8409321904182434,3.298048973083496,1.3252334594726562,3.4563608169555664,9.954256057739258,1.298513650894165,-0.2055559903383255,0.29108086228370667,-0.3711804747581482,14.04025650024414,-30.022628784179688,18.328937530517578,-0.5270838737487793,-0.23025131225585938,0.3936425447463989,3.9834446907043457,10.184507369995117,0.9048711061477661
6_20251106_215314,1762437161085,6,0.19447346031665802,0.40858596563339233,0.543702244758606,0.7068418860435486,0.8373711705207825,3.3095242977142334,1.33534574508667,3.115201473236084,9.59154987335205,1.0974092483520508,-0.2055559903383255,0.29108086228370667,-0.3711804747581482,14.117898941040039,-29.942115783691406,18.29291534423828,-0.6945946216583252,-0.4743661880493164,0.15403050184249878,3.809796094894409,10.065916061401367,0.943378746509552
6_20251106_215314,1762437161104,6,0.19592784345149994,0.4040820300579071,0.5444275140762329,0.7084692716598511,0.8373711705207825,3.3095242977142334,1.33534574508667,3.115201473236084,9.59154987335205,1.0974092483520508,-0.1902843713760376,0.3094068169593811,-0.3540762662887573,14.245298385620117,-29.83385467529297,18.313446044921875,-0.6945946216583252,-0.4743661880493164,0.15403050184249878,3.809796094894409,10.065916061401367,0.943378746509552
6_20251106_215314,1762437161123,6,0.19715005159378052,0.4012552797794342,0.5448907613754272,0.7093800902366638,0.8314908742904663,3.318561553955078,1.3460538387298584,2.988314390182495,9.452692031860352,1.3056957721710205,-0.0064140791073441505,-0.013129770755767822,-0.13721930980682373,14.374404907226562,-29.7000732421875,18.293956756591797,-0.6571855545043945,-0.49057960510253906,0.28985369205474854,3.6454999446868896,9.94327163696289,1.015842080116272
6_20251106_215314,1762437161142,6,0.19802039861679077,0.40028589963912964,0.5454854965209961,0.7092282176017761,0.8242692351341248,3.325207471847534,1.3566149473190308,2.9476146697998047,9.392839431762695,1.3428043127059937,-0.0064140791073441505,-0.013129770755767822,-0.13721930980682373,14.50894546508789,-29.690658569335938,18.231769561767578,-0.5583081245422363,-0.44034576416015625,0.2615697383880615,3.505922794342041,9.833185195922852,1.0812345743179321
6_20251106_215314,1762437161163,6,0.19897109270095825,0.40026259422302246,0.546111524105072,0.708493173122406,0.8051126003265381,3.3333747386932373,1.3792450428009033,2.7153868675231934,9.256376266479492,1.438568353652954,0.054672397673130035,-0.07360538095235825,-0.12194769829511642,14.683273315429688,-29.616485595703125,18.21292495727539,-0.5331401824951172,-0.3729877471923828,0.23827004432678223,3.2485270500183105,9.629364013671875,1.2002983093261719
6_20251106_215314,1762437161180,6,0.199905663728714,0.3999488949775696,0.546880304813385,0.7078139185905457,0.7951216697692871,3.335085391998291,1.3884854316711426,2.5885000228881836,9.168991088867188,1.0866358280181885,0.10109811276197433,0.018024327233433723,-0.12744545936584473,14.833833694458008,-29.531478881835938,18.206878662109375,-0.5280215740203857,-0.3682985305786133,-0.09092998504638672,3.1165215969085693,9.5372896194458,1.1775658130645752
6_20251106_215314,1762437161200,6,0.20023185014724731,0.3990372121334076,0.5481662750244141,0.7072412967681885,0.7835050821304321,3.3359665870666504,1.395876169204712,2.7489047050476074,9.196523666381836,0.2953861951828003,0.10109811276197433,0.018024327233433723,-0.12744545936584473,14.88469123840332,-29.490631103515625,18.209632873535156,-0.29409337043762207,-0.2726125717163086,-0.705743670463562,3.0429980754852295,9.469136238098145,1.0011298656463623
6_20251106_215314,1762437161220,6,0.20051966607570648,0.39885684847831726,0.5494427680969238,0.7062702775001526,0.7703781723976135,3.336050510406494,1.4023382663726807,2.7656631469726562,9.218070983886719,0.6138013005256653,0.09132428467273712,-0.18661536276340485,-0.06025034934282303,14.961641311645508,-29.41106414794922,18.26822280883789,-0.22186779975891113,-0.2008523941040039,-0.3098628520965576,2.9875309467315674,9.418923377990723,0.9236641526222229
6_20251106_215314,1762437161239,6,0.20148980617523193,0.39982450008392334,0.5501342415809631,0.7049074769020081,0.7592665553092957,3.3353207111358643,1.4072999954223633,2.81593918800354,9.09477424621582,0.8017381429672241,0.09010255336761475,-0.17134372889995575,-0.07430023699998856,15.036575317382812,-29.369033813476562,18.31250762939453,-0.13727355003356934,-0.2593193054199219,-0.09754085540771484,2.9532127380371094,9.354093551635742,0.899278998374939
6_20251106_215314,1762437161257,6,0.20247307419776917,0.400564044713974,0.5508554577827454,0.7036415338516235,0.7479740977287292,3.3337526321411133,1.4116007089614868,2.89853572845459,9.049286842346191,0.6533039808273315,0.08093957602977753,-0.0809357613325119,-0.10850866883993149,15.036575317382812,-29.369033813476562,18.31250762939453,-0.043741703033447266,-0.24384498596191406,-0.1967800259590149,2.942277431488037,9.293131828308105,0.8500840067863464
6_20251106_215314,1762437161275,6,0.20322106778621674,0.40047699213027954,0.5517852902412415,0.7027463316917419,0.7379153966903687,3.331611156463623,1.415369987487793,2.9847230911254883,8.99661636352539,0.8089203834533691,0.019853105768561363,-0.002745071891695261,-0.16226476430892944,15.162752151489258,-29.297225952148438,18.210601806640625,0.03395652770996094,-0.2372121810913086,-0.03293091058731079,2.9507665634155273,9.2338285446167,0.8418512940406799
6_20251106_215314,1762437161294,6,0.20425017178058624,0.39959412813186646,0.5525970458984375,0.7023125886917114,0.7277740836143494,3.3284482955932617,1.419325351715088,2.9308557510375977,8.863743782043457,0.9058813452720642,0.019853105768561363,-0.002745071891695261,-0.16226476430892944,15.227811813354492,-29.218048095703125,18.228153228759766,-0.01592874526977539,-0.2960681915283203,0.05122405290603638,2.946784496307373,9.159811973571777,0.8546572923660278
6_20251106_215314,1762437161314,6,0.20527413487434387,0.39769911766052246,0.5535991787910461,0.7023004293441772,0.7172641158103943,3.3238468170166016,1.4225594997406006,2.8255157470703125,8.686580657958984,0.6173924803733826,-0.0180205088108778,0.10537798702716827,-0.2428988814353943,15.284212112426758,-29.076881408691406,18.246532440185547,-0.0970149040222168,-0.3785848617553711,-0.1898118257522583,2.9225306510925293,9.065165519714355,0.8072043061256409
6_20251106_215314,1762437161333,6,0.206308513879776,0.39551618695259094,0.5546640753746033,0.7023898959159851,0.7073681950569153,3.318878650665283,1.4245601892471313,2.7728452682495117,8.767979621887207,0.4725494980812073,-0.05100720375776291,0.040626320987939835,-0.18608848750591278,15.36286735534668,-28.97179412841797,18.26510238647461,-0.11974835395812988,-0.2377481460571289,-0.26772385835647583,2.8925936222076416,9.005727767944336,0.7402733564376831
6_20251106_215314,1762437161352,6,0.20754952728748322,0.3941355347633362,0.5551298260688782,0.7024323344230652,0.7073681950569153,3.318878650665283,1.4245601892471313,2.7728452682495117,8.767979621887207,0.4725494980812073,-0.09193514287471771,-0.038175228983163834,-0.08590666949748993,15.426715850830078,-28.917457580566406,18.25509262084961,-0.11974835395812988,-0.2377481460571289,-0.26772385835647583,2.8925936222076416,9.005727767944336,0.7402733564376831
6_20251106_215314,1762437161372,6,0.20861294865608215,0.3936786949634552,0.5548606514930725,0.7025862336158752,0.6886085271835327,3.3103089332580566,1.4271001815795898,3.0577430725097656,9.406007766723633,0.6305599808692932,-0.0876590833067894,-0.10414861142635345,0.011220823042094707,15.565696716308594,-28.820823669433594,18.262332916259766,0.1411280632019043,0.3228311538696289,-0.05910789966583252,2.9166150093078613,9.083176612854004,0.6896678805351257
6_20251106_215314,1762437161391,6,0.20937243103981018,0.3941863179206848,0.5541092157363892,0.7026686668395996,0.6818568706512451,3.308668851852417,1.427677035331726,3.3306705951690674,9.689708709716797,0.5228255987167358,-0.029626939445734024,-0.1420222371816635,0.06864210963249207,15.715848922729492,-28.747970581054688,18.215473175048828,0.33124446868896484,0.4852256774902344,-0.13347387313842773,2.9994261264801025,9.204483032226562,0.6562994718551636
6_20251106_215314,1762437161411,6,0.2096709907054901,0.3953341841697693,0.5534699559211731,0.7024385929107666,0.675832986831665,3.308300733566284,1.4266453981399536,3.4348137378692627,9.637038230895996,0.1577255129814148,-0.029626939445734024,-0.1420222371816635,0.06864210963249207,15.80657958984375,-28.653839111328125,18.15317153930664,0.3483102321624756,0.34604454040527344,-0.3988592028617859,3.086503505706787,9.290993690490723,0.5565847158432007
6_20251106_215314,1762437161430,6,0.2097427099943161,0.39715275168418884,0.5533100962638855,0.7015166878700256,0.6717943549156189,3.3085081577301025,1.423953652381897,3.4384050369262695,9.49698257446289,-0.1954040378332138,0.0717766061425209,-0.18172843754291534,0.08635718375444412,15.833969116210938,-28.60175323486328,18.128177642822266,0.2815213203430176,0.16479110717773438,-0.6015909910202026,3.156883716583252,9.332191467285156,0.40618696808815
6_20251106_215314,1762437161449,6,0.20954768359661102,0.39915236830711365,0.5535154342651367,0.7002769708633423,0.6682161688804626,3.3088788986206055,1.4195891618728638,3.382143497467041,9.38206672668457,-0.09485191106796265,0.08949168026447296,-0.13530270755290985,0.06436605006456375,15.920173645019531,-28.58336639404297,18.104843139648438,0.1802077293395996,0.039900779724121094,-0.4008311331272125,3.2019357681274414,9.34216594696045,0.3059792220592499
6_20251106_215314,1762437161467,6,0.20947293937206268,0.40072101354599,0.5536860227584839,0.6992678642272949,0.665497362613678,3.3087899684906006,1.4157843589782715,3.3402469158172607,9.177370071411133,0.27623340487480164,0.022907428443431854,0.03818286210298538,0.020383793860673904,15.981203079223633,-28.579261779785156,18.093780517578125,0.11064887046813965,-0.1318368911743164,-0.023796647787094116,3.229598045349121,9.30920696258545,0.30003005266189575
6_20251106_215314,1762437161486,6,0.20899346470832825,0.40071383118629456,0.5539367198944092,0.699216902256012,0.662828266620636,3.3078596591949463,1.4119890928268433,3.2504682540893555,9.002601623535156,0.30735665559768677,0.022907428443431854,0.03818286210298538,0.020383793860673904,15.959043502807617,-28.543045043945312,18.080074310302734,0.01669621467590332,-0.2452840805053711,0.0058612823486328125,3.233772039413452,9.247885704040527,0.30149537324905396
6_20251106_215314,1762437161505,6,0.20798997581005096,0.39955031871795654,0.5541091561317444,0.7000448107719421,0.6601216793060303,3.3064441680908203,1.4089645147323608,3.1714630126953125,9.05407428741455,0.5132491588592529,-0.12186750769615173,0.19273163378238678,0.06558778136968613,15.948070526123047,-28.518997192382812,18.10714340209961,-0.04984736442565918,-0.15504932403564453,0.16940301656723022,3.2213103771209717,9.209123611450195,0.3438461422920227
6_20251106_215314,1762437161524,6,0.20689189434051514,0.39836132526397705,0.5535097718238831,0.7015204429626465,0.6601216793060303,3.3064441680908203,1.4089645147323608,3.1714630126953125,9.05407428741455,0.5132491588592529,-0.17684534192085266,0.12126046419143677,0.15599575638771057,15.858440399169922,-28.60003662109375,18.115642547607422,-0.04984736442565918,-0.15504932403564453,0.16940301656723022,3.2213103771209717,9.209123611450195,0.3438461422920227
6_20251106_215314,1762437161543,6,0.20578479766845703,0.39797070622444153,0.5520504117012024,0.7032156586647034,0.6554732322692871,3.302516460418701,1.4060523509979248,3.339049816131592,9.127094268798828,0.7754030227661133,-0.20250166952610016,-0.03328831121325493,0.2586210370063782,15.780797958374023,-28.68054962158203,18.15166473388672,0.09163308143615723,-0.03143119812011719,0.2943915128707886,3.2474167346954346,9.158525466918945,0.4810115098953247
6_20251106_215314,1762437161562,6,0.20483502745628357,0.39904919266700745,0.5497354865074158,0.7046937346458435,0.6541029810905457,3.3013179302215576,1.4069267511367798,3.475513458251953,9.402416229248047,1.1117738485336304,-0.23304490745067596,-0.1579046994447708,0.3227618336677551,15.68975830078125,-28.786697387695312,18.159637451171875,0.18247723579406738,0.1951122283935547,0.5046098828315735,3.2930362224578857,9.207304000854492,0.6071639657020569
6_20251106_215314,1762437161581,6,0.20428566634655,0.40126973390579224,0.5466907024383545,0.7059597969055176,0.6536762714385986,3.3014075756073,1.4099235534667969,3.6119771003723145,9.654994010925293,1.3966715335845947,-0.23304490745067596,-0.1579046994447708,0.3227618336677551,15.610311508178711,-28.892860412597656,18.249195098876953,0.25515270233154297,0.3581523895263672,0.6316061019897461,3.3568243980407715,9.296841621398926,0.7650654315948486
6_20251106_215314,1762437161601,6,0.20394685864448547,0.4029049277305603,0.5434671640396118,0.7076134085655212,0.6536762714385986,3.3014075756073,1.4099235534667969,3.6119771003723145,9.654994010925293,1.3966715335845947,-0.2367100864648819,-0.10353775322437286,0.19448024034500122,15.506677627563477,-29.011962890625,18.215862274169922,0.25515270233154297,0.3581523895263672,0.6316061019897461,3.3568243980407715,9.296841621398926,0.7650654315948486
6_20251106_215314,1762437161620,6,0.20389026403427124,0.4039272964000702,0.5409706830978394,0.7089585661888123,0.654813289642334,3.3054075241088867,1.4202526807785034,3.507833957672119,9.895600318908691,1.235069990158081,-0.20738857984542847,-0.04367300868034363,0.09063323587179184,15.390844345092773,-29.143470764160156,18.087162017822266,0.07423758506774902,0.40561485290527344,0.2672855257987976,3.43359637260437,9.489985466003418,0.9677844643592834
6_20251106_215314,1762437161639,6,0.20416861772537231,0.4040997326374054,0.5391589999198914,0.7101592421531677,0.6554399728775024,3.309072971343994,1.4261726140975952,3.415661096572876,9.824974060058594,1.1117738485336304,-0.2110537737607956,0.0009201153879985213,0.020383793860673904,15.286293029785156,-29.287010192871094,17.985721588134766,-0.014348268508911133,0.2679910659790039,0.1151915192604065,3.430009365081787,9.55698299407959,0.9965823292732239
6_20251106_215314,1762437161659,6,0.20478731393814087,0.4036481976509094,0.5377007126808167,0.7113425731658936,0.6558024883270264,3.313387870788574,1.4320193529129028,3.353414535522461,9.83095932006836,1.0698771476745605,-0.2110537737607956,0.0009201153879985213,0.020383793860673904,15.286293029785156,-29.287010192871094,17.985721588134766,-0.06127595901489258,0.21918106079101562,0.058635830879211426,3.4146904945373535,9.611778259277344,1.0112413167953491
6_20251106_215314,1762437161678,6,0.205518901348114,0.4032590985298157,0.5365419983863831,0.7122266292572021,0.6561126112937927,3.317972183227539,1.4374438524246216,3.4084787368774414,9.863279342651367,1.0650889873504639,-0.17318014800548553,-0.07177278399467468,-0.007105118595063686,15.194633483886719,-29.417198181152344,17.88503646850586,-0.004969358444213867,0.2012004852294922,0.04307818412780762,3.4134480953216553,9.662078857421875,1.0220108032226562
6_20251106_215314,1762437161696,6,0.20650053024291992,0.4031955301761627,0.5353785157203674,0.7128539085388184,0.6563994884490967,3.3222765922546387,1.4425305128097534,3.4240403175354004,9.847718238830566,1.2386610507965088,-0.19394956529140472,-0.08765526860952377,-0.03398317098617554,15.129844665527344,-29.519203186035156,17.63718032836914,0.008473873138427734,0.14851093292236328,0.17332017421722412,3.4155664443969727,9.699207305908203,1.0653408765792847
6_20251106_215314,1762437161715,6,0.20790252089500427,0.4031364321708679,0.5340960621833801,0.7134416103363037,0.6567503213882446,3.3272902965545654,1.4488568305969238,3.432419776916504,9.860885620117188,1.4026567935943604,-0.19944734871387482,-0.06688587367534637,-0.07063505053520203,15.091455459594727,-29.570465087890625,17.499488830566406,0.013482809066772461,0.12934303283691406,0.26985275745391846,3.4189369678497314,9.731542587280273,1.132804036140442
6_20251106_215314,1762437161735,6,0.2094075083732605,0.4026787579059601,0.5329667925834656,0.7141041159629822,0.6569601893424988,3.332777500152588,1.4559670686721802,3.3725671768188477,9.887221336364746,1.390686273574829,-0.18356485664844513,-0.03389917314052582,-0.1078977957367897,15.054264068603516,-29.608497619628906,17.294483184814453,-0.03709578514099121,0.1245431900024414,0.20630574226379395,3.409662961959839,9.762678146362305,1.1843805313110352
6_20251106_215314,1762437161753,6,0.21096274256706238,0.4018438458442688,0.5321173667907715,0.7147498726844788,0.6569601893424988,3.332777500152588,1.4559670686721802,3.3725671768188477,9.887221336364746,1.390686273574829,-0.15668679773807526,-0.003966802265495062,-0.12011510878801346,15.066522598266602,-29.63079833984375,17.09170150756836,-0.03709578514099121,0.1245431900024414,0.20630574226379395,3.409662961959839,9.762678146362305,1.1843805313110352
6_20251106_215314,1762437161772,6,0.21232573688030243,0.4007760286331177,0.53158038854599,0.7153450846672058,0.6568669080734253,3.3391194343566895,1.4638038873672485,3.3246850967407227,9.927921295166016,1.2949223518371582,-0.12736529111862183,0.019856922328472137,-0.12744547426700592,15.114944458007812,-29.65125274658203,16.9444580078125,-0.06798243522644043,0.13219451904296875,0.08843350410461426,3.392667531967163,9.795726776123047,1.206488847732544
6_20251106_215314,1762437161792,6,0.21360905468463898,0.3996536135673523,0.5312811732292175,0.715813159942627,0.6556025147438049,3.3486433029174805,1.475601077079773,3.1582956314086914,9.705269813537598,1.141700029373169,-0.12308923900127411,0.07055869698524475,-0.13538670539855957,15.127216339111328,-29.66193389892578,16.83655548095703,-0.16819310188293457,-0.07934284210205078,-0.0564039945602417,3.326488733291626,9.784612655639648,1.1981040239334106
6_20251106_215314,1762437161812,6,0.21458975970745087,0.39810416102409363,0.5311960577964783,0.7164461612701416,0.6556025147438049,3.3486433029174805,1.475601077079773,3.1582956314086914,9.705269813537598,1.141700029373169,-0.1444695144891739,0.130423441529274,-0.12683460116386414,15.211095809936523,-29.693099975585938,16.744583129882812,-0.16819310188293457,-0.07934284210205078,-0.0564039945602417,3.326488733291626,9.784612655639648,1.1981040239334106
6_20251106_215314,1762437161830,6,0.21528665721416473,0.3961489498615265,0.5310725569725037,0.7174117565155029,0.6509852409362793,3.3552045822143555,1.488608717918396,2.9176883697509766,9.474239349365234,1.692342758178711,-0.1444695144891739,0.130423441529274,-0.12683460116386414,15.28278923034668,-29.725059509277344,16.652118682861328,-0.26967644691467285,-0.20131969451904297,0.3701322078704834,3.1873648166656494,9.675559043884277,1.3222105503082275
6_20251106_215314,1762437161849,6,0.21540649235248566,0.3939124345779419,0.5307009816169739,0.7188807129859924,0.6476925611495972,3.3572187423706055,1.4971764087677002,2.9224765300750732,9.42635726928711,2.040684223175049,-0.15729767084121704,0.18906645476818085,0.0020578522235155106,15.320756912231445,-29.69756317138672,16.654117584228516,-0.21191072463989258,-0.19936180114746094,0.5747789144515991,3.134387254714966,9.62571907043457,1.4659053087234497
6_20251106_215314,1762437161868,6,0.2149302363395691,0.3920460343360901,0.5300983190536499,0.7204864025115967,0.6476925611495972,3.3572187423706055,1.4971764087677002,2.9224765300750732,9.42635726928711,2.040684223175049,-0.09560032188892365,0.1194278746843338,0.0924658253788948,15.294864654541016,-29.73601531982422,16.571247100830078,-0.21191072463989258,-0.19936180114746094,0.5747789144515991,3.134387254714966,9.62571907043457,1.4659053087234497
6_20251106_215314,1762437161888,6,0.2139066755771637,0.39116424322128296,0.5294178128242493,0.7217695116996765,0.6403631567955017,3.359398126602173,1.5201863050460815,3.082881212234497,9.413189888000488,2.320793867111206,0.022907428443431854,0.02230038121342659,0.1755434274673462,15.266868591308594,-29.800521850585938,16.582462310791016,-0.014577388763427734,-0.13755130767822266,0.5526829957962036,3.097458600997925,9.550741195678711,1.7681108713150024
6_20251106_215314,1762437161907,6,0.2123667448759079,0.39158931374549866,0.5290063619613647,0.7222952842712402,0.6376473307609558,3.3598198890686035,1.5314059257507324,3.273212194442749,9.434736251831055,1.9784376621246338,0.12797614932060242,-0.04978165775537491,0.22258001565933228,15.225278854370117,-29.89093780517578,16.59265899658203,0.14060282707214355,-0.092803955078125,0.16826152801513672,3.1326093673706055,9.52754020690918,1.810176134109497
6_20251106_215314,1762437161925,6,0.2104429006576538,0.39295119047164917,0.5289918780326843,0.7221292853355408,0.635401725769043,3.359968662261963,1.5420870780944824,3.306729555130005,9.4275541305542,1.6025640964508057,0.16218458116054535,-0.07788143306970596,0.1908150464296341,15.113996505737305,-29.92346954345703,16.614749908447266,0.1392960548400879,-0.07998847961425781,-0.16608965396881104,3.167433500289917,9.507542610168457,1.7686537504196167
6_20251106_215314,1762437161944,6,0.20876461267471313,0.3945052921772003,0.529280424118042,0.7215574383735657,0.635401725769043,3.359968662261963,1.5420870780944824,3.306729555130005,9.4275541305542,1.6025640964508057,0.10903935134410858,0.0015309791779145598,0.12728512287139893,15.054574966430664,-29.902191162109375,16.599308013916016,0.1392960548400879,-0.07998847961425781,-0.16608965396881104,3.167433500289917,9.507542610168457,1.7686537504196167
6_20251106_215314,1762437161963,6,0.20732776820659637,0.3951420187950134,0.5296381115913391,0.7213608622550964,0.6333662271499634,3.3599491119384766,1.5521758794784546,3.2636356353759766,9.455085754394531,1.4325830936431885,0.039400774985551834,0.12126046419143677,0.05886826664209366,14.921642303466797,-29.886215209960938,16.634990692138672,0.07696175575256348,-0.041965484619140625,-0.2688565254211426,3.186673879623413,9.497051239013672,1.701439619064331
6_20251106_215314,1762437161983,6,0.20611485838890076,0.39454856514930725,0.529990553855896,0.7217742800712585,0.6311575770378113,3.3599259853363037,1.565119981765747,3.355808734893799,9.609504699707031,1.171626329421997,-0.03145953267812729,0.16279926896095276,0.00022525805979967117,14.775310516357422,-29.89588165283203,16.642620086669922,0.11265158653259277,0.09820938110351562,-0.35708415508270264,3.243157148361206,9.511295318603516,1.5287104845046997
6_20251106_215314,1762437162001,6,0.20537912845611572,0.3929552137851715,0.5304168462753296,0.7225396633148193,0.6305601000785828,3.3603389263153076,1.571402907371521,3.353414535522461,9.609506607055664,1.7222689390182495,-0.03145953267812729,0.16279926896095276,0.00022525805979967117,14.654268264770508,-29.8795166015625,16.719341278076172,0.08820581436157227,0.07856941223144531,0.1548466682434082,3.2652087211608887,9.530937194824219,1.5674222707748413
6_20251106_215314,1762437162020,6,0.20531129837036133,0.3912479281425476,0.5305946469306946,0.7233543992042542,0.6302312612533569,3.361156940460205,1.5789657831192017,3.352217435836792,9.686117172241211,2.148418664932251,-0.07116574048995972,0.18356867134571075,-0.060861214995384216,14.583477020263672,-29.83472442626953,16.7850341796875,0.06960678100585938,0.1241445541381836,0.46479713916778564,3.2826106548309326,9.561972618103027,1.6836215257644653
6_20251106_215314,1762437162040,6,0.20485734939575195,0.3886541724205017,0.5307899713516235,0.724736750125885,0.6302376985549927,3.3622395992279053,1.5872392654418945,3.3929171562194824,9.649007797241211,1.9173880815505981,-0.07116574048995972,0.18356867134571075,-0.060861214995384216,14.597679138183594,-29.79639434814453,16.79983139038086,0.08824515342712402,0.06962776184082031,0.18701326847076416,3.3046720027923584,9.57938003540039,1.730374813079834
6_20251106_215314,1762437162061,6,0.203998863697052,0.38586652278900146,0.5313358306884766,0.726067304611206,0.6305644512176514,3.3632006645202637,1.5947561264038086,3.4216463565826416,9.573594093322754,1.7486040592193604,0.05345065891742706,0.10965403914451599,-0.03703749179840088,14.562232971191406,-29.774070739746094,16.839435577392578,0.09357953071594238,-0.0046291351318359375,0.014583349227905273,3.328066825866699,9.57822322845459,1.734020709991455
6_20251106_215314,1762437162082,6,0.203366219997406,0.3841829299926758,0.5319032669067383,0.7267218232154846,0.6315041780471802,3.364311456680298,1.6050809621810913,3.4683313369750977,9.57957935333252,2.1520097255706787,0.03145953267812729,0.08827377110719681,-0.04009181261062622,14.478452682495117,-29.742767333984375,16.917892456054688,0.11221170425415039,0.0010852813720703125,0.3343912363052368,3.3561196327209473,9.57849407196045,1.817618489265442
6_20251106_215314,1762437162098,6,0.20290879905223846,0.382850706577301,0.5323662757873535,0.7272135019302368,0.6315041780471802,3.364311456680298,1.6050809621810913,3.4683313369750977,9.57957935333252,2.1520097255706787,0.049174610525369644,0.15363629162311554,-0.08896099030971527,14.389751434326172,-29.787750244140625,17.089378356933594,0.11221170425415039,0.0010852813720703125,0.3343912363052368,3.3561196327209473,9.57849407196045,1.817618489265442
6_20251106_215314,1762437162117,6,0.2021314799785614,0.38041672110557556,0.5329759120941162,0.7282600402832031,0.633353590965271,3.3658926486968994,1.6218689680099487,3.3929171562194824,9.599929809570312,2.104127883911133,0.07849612087011337,0.22083140909671783,-0.13172152638435364,14.389751434326172,-29.787750244140625,17.089378356933594,0.009377241134643555,0.01659107208251953,0.14506053924560547,3.383539915084839,9.583338737487793,1.9590673446655273
6_20251106_215314,1762437162135,6,0.2011239379644394,0.3772233724594116,0.5339071750640869,0.7295168042182922,0.633353590965271,3.3658926486968994,1.6218689680099487,3.3929171562194824,9.599929809570312,2.104127883911133,0.09621119499206543,0.23854650557041168,-0.1280563324689865,14.319355010986328,-29.74242401123047,17.101009368896484,0.009377241134643555,0.01659107208251953,0.14506053924560547,3.383539915084839,9.583338737487793,1.9590673446655273
6_20251106_215314,1762437162155,6,0.2001144289970398,0.374227911233902,0.5351813435554504,0.7304030656814575,0.6353606581687927,3.3667991161346436,1.6406371593475342,3.427631378173828,9.450298309326172,1.9544966220855713,0.19211694598197937,0.18540126085281372,-0.10240001976490021,14.261863708496094,-29.672134399414062,17.208271026611328,0.03664588928222656,-0.09338188171386719,-0.030313730239868164,3.3909854888916016,9.543680191040039,1.9848103523254395
6_20251106_215314,1762437162174,6,0.19877488911151886,0.3718990981578827,0.5368755459785461,0.7307149171829224,0.6363348960876465,3.3666014671325684,1.647878646850586,3.3941140174865723,9.380868911743164,1.5642585754394531,0.2672533392906189,0.08644117414951324,-0.08285234868526459,14.275274276733398,-29.63488006591797,17.331199645996094,0.002502918243408203,-0.1302490234375,-0.33644139766693115,3.391611099243164,9.511117935180664,1.9006999731063843
6_20251106_215314,1762437162194,6,0.19753079116344452,0.37077951431274414,0.5388546586036682,0.7301642298698425,0.6372179985046387,3.3659939765930176,1.6537529230117798,3.3761582374572754,9.358124732971191,1.534332275390625,0.24342958629131317,0.02901989407837391,-0.0718567818403244,14.228954315185547,-29.58837127685547,17.384357452392578,-0.012362480163574219,-0.12239456176757812,-0.2930941581726074,3.3885207176208496,9.48051929473877,1.8274264335632324
6_20251106_215314,1762437162212,6,0.1969173550605774,0.3706374168395996,0.5406529307365417,0.7290719151496887,0.6381577253341675,3.3648741245269775,1.658499836921692,3.4252374172210693,9.282711029052734,1.5235588550567627,0.241596981883049,0.05162188783288002,-0.07124591618776321,14.15909194946289,-29.507530212402344,17.613040924072266,0.0293734073638916,-0.1582469940185547,-0.24309396743774414,3.3958640098571777,9.440958023071289,1.7666528224945068
6_20251106_215314,1762437162232,6,0.1960832178592682,0.3702561557292938,0.5425159931182861,0.728105902671814,0.6392320394515991,3.363429546356201,1.6610827445983887,3.488680839538574,9.263557434082031,1.0806505680084229,0.2208275943994522,0.08705204725265503,-0.0773545578122139,14.105026245117188,-29.374588012695312,17.735137939453125,0.07425355911254883,-0.1419200897216797,-0.5488018989562988,3.4144272804260254,9.405477523803711,1.6294524669647217
6_20251106_215314,1762437162250,6,0.19503839313983917,0.36958134174346924,0.5442630648612976,0.7274251580238342,0.640766441822052,3.361389636993408,1.6618424654006958,3.5461392402648926,9.236026763916016,0.9824925661087036,0.1340848058462143,0.06628264486789703,-0.08407407253980637,14.11098861694336,-29.250503540039062,17.886455535888672,0.10536956787109375,-0.1355609893798828,-0.5175679922103882,3.440769672393799,9.371587753295898,1.5000605583190918
6_20251106_215314,1762437162270,6,0.19460181891918182,0.3694896399974823,0.5455948114395142,0.7265905737876892,0.6426281332969666,3.359072208404541,1.6615257263183594,3.573671340942383,9.24679946899414,1.1584587097167969,0.0717766061425209,0.06139571964740753,-0.1030108854174614,14.133153915405273,-29.062164306640625,17.972003936767578,0.10632133483886719,-0.09983062744140625,-0.273281455039978,3.4673500061035156,9.346630096435547,1.431740164756775
