session_id,timestamp,label,quaternion_w,quaternion_x,quaternion_y,quaternion_z,position_x,position_y,position_z,accelerometer_x,accelerometer_y,accelerometer_z,gyroscope_x,gyroscope_y,gyroscope_z,magnetometer_x,magnetometer_y,magnetometer_z,linear_acceleration_x,linear_acceleration_y,linear_acceleration_z,gravity_x,gravity_y,gravity_z
1_20251106_212354,1762435396915,1,0.3461145758628845,0.5057218670845032,0.6601973176002502,0.43426910042762756,0.3460172116756439,2.9687769412994385,1.3953490257263184,-0.6471246480941772,6.478023529052734,-2.600276231765747,0.0056428611278533936,0.18077778816223145,0.15636228024959564,33.14009475708008,-14.652870178222656,19.214744567871094,-0.15574347972869873,0.8766136169433594,0.8961572647094727,-0.4913811683654785,5.601409912109375,-3.4964334964752197
1_20251106_212354,1762435396934,1,0.344030499458313,0.5053538680076599,0.6605226397514343,0.435855895280838,0.3248847723007202,2.904503107070923,1.280866026878357,-0.21858097612857819,7.378205299377441,-2.4829654693603516,0.11804196238517761,0.264466255903244,0.12520816922187805,33.10728454589844,-14.5689697265625,19.377315521240234,0.20351286232471466,1.2013111114501953,0.619124174118042,-0.42209383845329285,6.176894187927246,-3.1020896434783936
1_20251106_212354,1762435396952,1,0.34134939312934875,0.5052798390388489,0.6612914800643921,0.43688270449638367,0.3157943785190582,2.8805482387542725,1.228433609008789,-0.3023744225502014,7.537412643432617,-3.324491024017334,0.19745437800884247,0.2815704643726349,0.060456518083810806,33.03166961669922,-14.600334167480469,19.522525787353516,0.09577551484107971,1.0884146690368652,-0.17792105674743652,-0.39814993739128113,6.448997974395752,-3.1465699672698975
1_20251106_212354,1762435396971,1,0.33808237314224243,0.5044852495193481,0.6631278991699219,0.4375572204589844,0.306593656539917,2.860888957977295,1.176052451133728,-0.6040308475494385,7.578112602233887,-4.083420276641846,0.179739311337471,0.1630626916885376,0.08183678984642029,33.003108978271484,-14.642425537109375,19.804595947265625,-0.16470474004745483,0.9032917022705078,-0.7494802474975586,-0.43932610750198364,6.674820899963379,-3.333940029144287
1_20251106_212354,1762435396990,1,0.3355412185192108,0.5043817758560181,0.6644225716590881,0.4376685321331024,0.2971843481063843,2.8451178073883057,1.1240205764770508,-0.6830361485481262,7.733728885650635,-4.161229133605957,0.179739311337471,0.1630626916885376,0.08183678984642029,32.864662170410156,-14.703544616699219,20.014404296875,-0.19496804475784302,0.8471264839172363,-0.6618311405181885,-0.4880681037902832,6.886602401733398,-3.4993979930877686
1_20251106_212354,1762435397010,1,0.33357977867126465,0.5052553415298462,0.66434246301651,0.4382815361022949,0.2882230877876282,2.833293914794922,1.069798469543457,-0.34068000316619873,8.185016632080078,-4.219883918762207,-0.05483274161815643,0.0805959701538086,0.3640563189983368,32.751983642578125,-14.749580383300781,20.130844116210938,0.11791050434112549,1.038731575012207,-0.5763888359069824,-0.4585905075073242,7.146285057067871,-3.6434950828552246
1_20251106_212354,1762435397030,1,0.3315160870552063,0.5065652132034302,0.6631154417991638,0.4401893615722656,0.2819278836250305,2.8266091346740723,1.0170265436172485,0.27101224660873413,8.642290115356445,-4.058282375335693,-0.15806889533996582,0.1270216852426529,0.44835564494132996,32.54716491699219,-14.914863586425781,20.309059143066406,0.5836821794509888,1.1968040466308594,-0.3318297863006592,-0.312669962644577,7.445486068725586,-3.726452589035034
1_20251106_212354,1762435397048,1,0.3293057382106781,0.5079629421234131,0.6611050367355347,0.4432510733604431,0.27960097789764404,2.8245480060577393,0.9719117879867554,0.9281923770904541,8.929582595825195,-3.7243056297302246,-0.17211878299713135,0.13435205817222595,0.43858179450035095,32.38141632080078,-15.03955078125,20.435470581054688,0.9926899075508118,1.1872773170471191,0.0017175674438476562,-0.06449753046035767,7.742305278778076,-3.7260231971740723
1_20251106_212354,1762435397067,1,0.3270467519760132,0.509171187877655,0.6590759754180908,0.4465467035770416,0.27960097789764404,2.8245480060577393,0.9719117879867554,0.9281923770904541,8.929582595825195,-3.7243056297302246,-0.11958441138267517,0.09220239520072937,0.3371782600879669,32.17708969116211,-15.204154968261719,20.546100616455078,0.9926899075508118,1.1872773170471191,0.0017175674438476562,-0.06449753046035767,7.742305278778076,-3.7260231971740723
1_20251106_212354,1762435397086,1,0.32518988847732544,0.510133683681488,0.6575106382369995,0.4491046071052551,0.28596392273902893,2.8324270248413086,0.8841930627822876,1.378282904624939,9.316228866577148,-3.469334125518799,-0.060330525040626526,0.0005726855015382171,0.19118157029151917,31.982131958007812,-15.418197631835938,20.656166076660156,0.9281677007675171,1.0124826431274414,0.2002880573272705,0.4501152038574219,8.303746223449707,-3.6696221828460693
1_20251106_212354,1762435397105,1,0.3241821229457855,0.5107579231262207,0.6565912961959839,0.4504666328430176,0.29257291555404663,2.8409664630889893,0.8447415232658386,1.2310458421707153,9.48261833190918,-3.4118757247924805,-0.040171995759010315,0.013400844298303127,0.0659543052315712,31.800262451171875,-15.618614196777344,20.73995590209961,0.6247445344924927,0.9430971145629883,0.20619726181030273,0.6063013076782227,8.539521217346191,-3.618072986602783
1_20251106_212354,1762435397125,1,0.3235399127006531,0.5105634331703186,0.656402587890625,0.4514228403568268,0.30071359872817993,2.8523874282836914,0.8054837584495544,1.110143780708313,9.487406730651855,-3.5543246269226074,-0.07254782319068909,0.07937423884868622,-0.037281837314367294,31.642751693725586,-15.829055786132812,20.729846954345703,0.4030739665031433,0.7583084106445312,0.050998687744140625,0.7070698142051697,8.729098320007324,-3.605323314666748
1_20251106_212354,1762435397143,1,0.32311320304870605,0.5092963576316833,0.6567943692207336,0.45258840918540955,0.3079516589641571,2.863065242767334,0.7741081118583679,1.0095916986465454,9.391642570495605,-3.4573636054992676,-0.12447132170200348,0.13496293127536774,-0.10569868981838226,31.509910583496094,-16.037506103515625,20.680171966552734,0.24201750755310059,0.5300350189208984,0.11836791038513184,0.7675741910934448,8.861607551574707,-3.5757315158843994
1_20251106_212354,1762435397162,1,0.3229380249977112,0.5072771310806274,0.6574283242225647,0.4540582597255707,0.3164021670818329,2.876432180404663,0.7395356893539429,0.8862956166267395,9.332986831665039,-3.4130728244781494,-0.11653007566928864,0.13374119997024536,-0.1502918154001236,31.40205955505371,-16.2203369140625,20.740135192871094,0.09497708082199097,0.3771028518676758,0.130126953125,0.7913185358047485,8.955883979797363,-3.5431997776031494
1_20251106_212354,1762435397181,1,0.32295241951942444,0.5050117373466492,0.6582933068275452,0.4553183317184448,0.3236718773841858,2.889317035675049,0.7085859775543213,0.6612503528594971,9.255179405212402,-3.451378345489502,-0.11653007566928864,0.13374119997024536,-0.1502918154001236,31.31051254272461,-16.338775634765625,20.720809936523438,-0.10405457019805908,0.23943614959716797,0.07345724105834961,0.7653049230575562,9.015743255615234,-3.5248355865478516
1_20251106_212354,1762435397201,1,0.3230421841144562,0.5032094120979309,0.6593453884124756,0.45572763681411743,0.3301703929901123,2.902667760848999,0.6767132878303528,0.5116192102432251,9.168991088867188,-3.82844877243042,0.014805832877755165,0.03783543407917023,-0.13257673382759094,31.241025924682617,-16.493568420410156,20.72870635986328,-0.20294857025146484,0.12259864807128906,-0.2428903579711914,0.7145677804946899,9.046392440795898,-3.5855584144592285
1_20251106_212354,1762435397219,1,0.3229702115058899,0.5018137097358704,0.6604484915733337,0.45572030544281006,0.335017591714859,2.914396286010742,0.648383617401123,0.42662864923477173,9.17378044128418,-4.023568153381348,0.014805832877755165,0.03783543407917023,-0.13257673382759094,31.229543685913086,-16.48180389404297,20.72848129272461,-0.23035132884979248,0.10191059112548828,-0.35040760040283203,0.6569799780845642,9.071869850158691,-3.6731605529785156
1_20251106_212354,1762435397241,1,0.3229660093784332,0.5007959604263306,0.6611600518226624,0.4558110535144806,0.33978521823883057,2.928420066833496,0.6143372654914856,0.42303749918937683,9.182159423828125,-3.986459255218506,-0.07315868139266968,0.011568250134587288,-0.037281837314367294,31.241222381591797,-16.49329376220703,20.701675415039062,-0.18715396523475647,0.08823204040527344,-0.2506389617919922,0.6101914644241333,9.093927383422852,-3.7358202934265137
1_20251106_212354,1762435397260,1,0.32307085394859314,0.4999235272407532,0.6613785624504089,0.4563770890235901,0.3431715965270996,2.9396908283233643,0.5879612565040588,0.4804958701133728,9.244405746459961,-3.700364589691162,-0.07315868139266968,0.011568250134587288,-0.037281837314367294,31.241222381591797,-16.49329376220703,20.701675415039062,-0.10375648736953735,0.12038230895996094,0.02836465835571289,0.5842523574829102,9.1240234375,-3.728729248046875
1_20251106_212354,1762435397278,1,0.32344454526901245,0.4992445409297943,0.661083459854126,0.4572823643684387,0.34615790843963623,2.951287031173706,0.5622893571853638,0.4350079894065857,9.23123836517334,-3.4453928470611572,-0.11775180697441101,-0.029359685257077217,0.02013944834470749,31.26800537109375,-16.453636169433594,20.662899017333984,-0.11939549446105957,0.08577251434326172,0.2266690731048584,0.5544034838676453,9.145465850830078,-3.6720619201660156
1_20251106_212354,1762435397296,1,0.32380977272987366,0.4987815022468567,0.6606507897377014,0.45815369486808777,0.3486400246620178,2.961867094039917,0.539837121963501,0.4709194600582123,9.203705787658691,-3.4070873260498047,-0.11775180697441101,-0.029359685257077217,0.02013944834470749,31.26800537109375,-16.453636169433594,20.662899017333984,-0.06678721308708191,0.046591758728027344,0.21197962760925293,0.5377066731452942,9.157114028930664,-3.6190669536590576
1_20251106_212354,1762435397316,1,0.32395464181900024,0.49840304255485535,0.6603406667709351,0.4589096009731293,0.3511006832122803,2.972921848297119,0.5164799094200134,0.48528406023979187,9.119913101196289,-3.5064425468444824,-0.08415424823760986,-0.026305362582206726,0.0299132838845253,31.30536651611328,-16.438560485839844,20.651119232177734,-0.04193809628486633,-0.029760360717773438,0.09009957313537598,0.5272221565246582,9.149673461914062,-3.5965421199798584
1_20251106_212354,1762435397335,1,0.3239787220954895,0.4981042444705963,0.6600930690765381,0.4595727324485779,0.35299617052078247,2.982666015625,0.4956701993942261,0.40867292881011963,9.064847946166992,-3.498063087463379,-0.06216312199831009,-0.036690060049295425,0.03541106358170509,31.279783248901367,-16.464988708496094,20.622577667236328,-0.09483939409255981,-0.06786060333251953,0.07878327369689941,0.5035123229026794,9.132708549499512,-3.5768463611602783
1_20251106_212354,1762435397354,1,0.32405856251716614,0.49792152643203735,0.6598058342933655,0.4601265490055084,0.35299617052078247,2.982666015625,0.4956701993942261,0.40867292881011963,9.064847946166992,-3.498063087463379,-0.0768238753080368,-0.009812015108764172,0.04274144023656845,31.351675033569336,-16.496681213378906,20.503082275390625,-0.09483939409255981,-0.06786060333251953,0.07878327369689941,0.5035123229026794,9.132708549499512,-3.5768463611602783
1_20251106_212354,1762435397373,1,0.3240853548049927,0.49771398305892944,0.6594371795654297,0.46086016297340393,0.35586169362068176,2.9998183250427246,0.4580528438091278,0.4661312699317932,8.99661636352539,-3.4394075870513916,-0.0823216587305069,0.03600284084677696,0.041519712656736374,31.340391159057617,-16.484649658203125,20.47582244873047,-0.013198316097259521,-0.08997249603271484,0.08853554725646973,0.47932958602905273,9.086588859558105,-3.5279431343078613
1_20251106_212354,1762435397391,1,0.3240581750869751,0.49756062030792236,0.6589763760566711,0.46170321106910706,0.3572561740875244,3.006711959838867,0.44218963384628296,0.545136570930481,8.897260665893555,-3.3460378646850586,-0.0823216587305069,0.03600284084677696,0.041519712656736374,31.335655212402344,-16.572280883789062,20.446941375732422,0.05264556407928467,-0.15146255493164062,0.145524263381958,0.4924910068511963,9.048723220825195,-3.4915621280670166
1_20251106_212354,1762435397411,1,0.32365068793296814,0.4969906210899353,0.6589155197143555,0.4626888334751129,0.3588554263114929,3.0127859115600586,0.4254690408706665,0.5343630313873291,8.65306282043457,-3.4836983680725098,-0.014515673741698265,0.025618137791752815,0.028691552579402924,31.297378540039062,-16.611793518066406,20.390613555908203,0.033497631549835205,-0.3165283203125,0.00629115104675293,0.5008653998374939,8.96959114074707,-3.4899895191192627
1_20251106_212354,1762435397431,1,0.3231360912322998,0.49664270877838135,0.6590546369552612,0.46322351694107056,0.3588554263114929,3.0127859115600586,0.4254690408706665,0.5343630313873291,8.65306282043457,-3.4836983680725098,0.02274707518517971,-0.03424660116434097,0.041519712656736374,31.285587310791016,-16.612045288085938,20.3360595703125,0.033497631549835205,-0.3165283203125,0.00629115104675293,0.5008653998374939,8.96959114074707,-3.4899895191192627
1_20251106_212354,1762435397451,1,0.322782039642334,0.4968312680721283,0.6590932011604309,0.4632132947444916,0.3616623878479004,3.019099473953247,0.3951066732406616,0.4409932494163513,8.202972412109375,-3.73148775100708,0.05573377013206482,-0.08861355483531952,0.06656516343355179,31.28155517578125,-16.687118530273438,20.30744171142578,-0.050575971603393555,-0.532963752746582,-0.1836709976196289,0.4915692210197449,8.735936164855957,-3.547816753387451
1_20251106_212354,1762435397469,1,0.3225054144859314,0.4975470304489136,0.6589911580085754,0.4627828001976013,0.3616623878479004,3.019099473953247,0.3951066732406616,0.4409932494163513,8.202972412109375,-3.73148775100708,0.077114038169384,-0.11671333760023117,0.1227647215127945,31.268354415893555,-16.712486267089844,20.252357482910156,-0.050575971603393555,-0.532963752746582,-0.1836709976196289,0.4915692210197449,8.735936164855957,-3.547816753387451
1_20251106_212354,1762435397487,1,0.32204669713974,0.4988289177417755,0.6586559414863586,0.46219906210899353,0.3630903363227844,3.0160202980041504,0.36524149775505066,0.4481755495071411,7.6427531242370605,-3.7374730110168457,0.077114038169384,-0.11671333760023117,0.1227647215127945,31.30289649963379,-16.747642517089844,20.239521026611328,-0.011109024286270142,-0.7385172843933105,-0.11027145385742188,0.45928457379341125,8.381270408630371,-3.627201557159424
1_20251106_212354,1762435397507,1,0.3215935528278351,0.5006974339485168,0.6577261686325073,0.46181806921958923,0.3644837439060211,3.0109434127807617,0.35094743967056274,0.6959647536277771,7.617615222930908,-3.500457286834717,-0.09148462116718292,-0.08128318190574646,0.2363855540752411,31.28708839416504,-16.811355590820312,20.25122833251953,0.1893441081047058,-0.610924243927002,0.1013953685760498,0.5066206455230713,8.22853946685791,-3.6018526554107666
1_20251106_212354,1762435397525,1,0.32120245695114136,0.5020442605018616,0.6562246084213257,0.46276330947875977,0.3644837439060211,3.0109434127807617,0.35094743967056274,0.6959647536277771,7.617615222930908,-3.500457286834717,-0.20999237895011902,-0.009201150387525558,0.1948467493057251,31.28546714782715,-16.848350524902344,20.18285369873047,0.1893441081047058,-0.610924243927002,0.1013953685760498,0.5066206455230713,8.22853946685791,-3.6018526554107666
1_20251106_212354,1762435397545,1,0.32113003730773926,0.5025075674057007,0.6545364260673523,0.4646974802017212,0.3701404631137848,2.9969229698181152,0.3249457776546478,0.9054484367370605,7.578112602233887,-3.8320398330688477,-0.28512871265411377,-0.047074757516384125,0.10260618478059769,31.269235610961914,-16.935829162597656,20.058868408203125,0.24873781204223633,-0.4103355407714844,-0.17700648307800293,0.6567106246948242,7.988448143005371,-3.6550333499908447
1_20251106_212354,1762435397564,1,0.32200005650520325,0.5023786425590515,0.652834415435791,0.46662500500679016,0.37273675203323364,2.989248275756836,0.31232792139053345,0.543939471244812,7.631979465484619,-4.035538673400879,-0.3651520013809204,-0.09594394266605377,0.021361175924539566,31.274965286254883,-17.059799194335938,19.97562026977539,-0.09021693468093872,-0.2851748466491699,-0.30440425872802734,0.6341564059257507,7.917154312133789,-3.7311344146728516
1_20251106_212354,1762435397583,1,0.32393333315849304,0.5017738342285156,0.650999128818512,0.4684979319572449,0.37273675203323364,2.989248275756836,0.31232792139053345,0.543939471244812,7.631979465484619,-4.035538673400879,-0.490379273891449,-0.043409571051597595,0.01341993547976017,31.291175842285156,-17.20848846435547,19.932884216308594,-0.09021693468093872,-0.2851748466491699,-0.30440425872802734,0.6341564059257507,7.917154312133789,-3.7311344146728516
1_20251106_212354,1762435397602,1,0.3262050449848175,0.5004757642745972,0.6488499641418457,0.47128334641456604,0.3742390275001526,2.971764326095581,0.2837523818016052,0.13694271445274353,7.718167304992676,-4.292904376983643,-0.6406520009040833,0.028672462329268456,0.08061505854129791,31.243623733520508,-17.422996520996094,19.791763305664062,-0.3268355131149292,-0.11624288558959961,-0.397263765335083,0.46377822756767273,7.834410190582275,-3.8956406116485596
1_20251106_212354,1762435397621,1,0.3284497857093811,0.49871405959129333,0.6459895968437195,0.4755024015903473,0.37392133474349976,2.963834762573242,0.2696399688720703,0.30213552713394165,7.8797688484191895,-4.114543914794922,-0.8074181079864502,-0.01836412213742733,0.19240328669548035,31.19425392150879,-17.674766540527344,19.609302520751953,-0.12931415438652039,0.03628683090209961,-0.17512273788452148,0.43144968152046204,7.84348201751709,-3.9394211769104004
1_20251106_212354,1762435397641,1,0.3312884271144867,0.49741262197494507,0.6416430473327637,0.4807523488998413,0.37364572286605835,2.957219123840332,0.2573816776275635,0.4409932494163513,8.177834510803223,-3.5208072662353516,-0.9308127760887146,-0.15825214982032776,0.301137238740921,31.121288299560547,-17.93865966796875,19.222850799560547,0.007634878158569336,0.26748228073120117,0.33489108085632324,0.433358371257782,7.9103522300720215,-3.855698347091675
1_20251106_212354,1762435397660,1,0.3350752294063568,0.49706006050109863,0.6356629729270935,0.4864036440849304,0.37425941228866577,2.952955722808838,0.2484849989414215,0.7258909940719604,8.684186935424805,-2.7499072551727295,-0.9888449311256409,-0.21384082734584808,0.3677214980125427,31.045713424682617,-18.24089813232422,18.90319061279297,0.23402613401412964,0.6190681457519531,0.8846328258514404,0.4918648600578308,8.065118789672852,-3.63454008102417
1_20251106_212354,1762435397679,1,0.3391953408718109,0.49712324142456055,0.628779411315918,0.4923936426639557,0.37617459893226624,2.9522910118103027,0.2441800981760025,0.9880448579788208,9.225252151489258,-2.2770729064941406,-0.9656320214271545,-0.17108029127120972,0.33595651388168335,31.038110733032227,-18.638160705566406,18.516780853271484,0.39694398641586304,0.9281063079833984,1.0859737396240234,0.5911008715629578,8.29714584350586,-3.363046646118164
1_20251106_212354,1762435397699,1,0.34302401542663574,0.4966665506362915,0.6222178339958191,0.4984996020793915,0.37617459893226624,2.9522910118103027,0.2441800981760025,0.9880448579788208,9.225252151489258,-2.2770729064941406,-0.8996586799621582,-0.12465458363294601,0.24493765830993652,31.038110733032227,-18.638160705566406,18.516780853271484,0.39694398641586304,0.9281063079833984,1.0859737396240234,0.5911008715629578,8.29714584350586,-3.363046646118164
1_20251106_212354,1762435397717,1,0.34668150544166565,0.4956011474132538,0.6164296269416809,0.5041884183883667,0.38405928015708923,2.960548162460327,0.2469126135110855,1.1424641609191895,9.706466674804688,-1.8976083993911743,-0.8416265249252319,-0.1154916062951088,0.15758401155471802,30.981653213500977,-19.05034637451172,18.047046661376953,0.3519148826599121,0.9421863555908203,0.9558840990066528,0.7905492782592773,8.764280319213867,-2.853492498397827
1_20251106_212354,1762435397735,1,0.3504275679588318,0.4941670000553131,0.611260175704956,0.5092744827270508,0.38405928015708923,2.960548162460327,0.2469126135110855,1.1424641609191895,9.706466674804688,-1.8976083993911743,-0.7750422358512878,-0.16069559752941132,0.11482348293066025,30.951372146606445,-19.435287475585938,17.52475357055664,0.3519148826599121,0.9421863555908203,0.9558840990066528,0.7905492782592773,8.764280319213867,-2.853492498397827
1_20251106_212354,1762435397755,1,0.3543161451816559,0.4928908944129944,0.6064246296882629,0.5135833024978638,0.3948532044887543,2.9791762828826904,0.26224011182785034,1.1711933612823486,9.92432975769043,-1.343374490737915,-0.6992950439453125,-0.23949715495109558,0.1117691621184349,30.856327056884766,-19.899002075195312,16.94436264038086,0.2533801794052124,0.7615842819213867,1.0178048610687256,0.9178131818771362,9.162745475769043,-2.3611793518066406
1_20251106_212354,1762435397774,1,0.3582933247089386,0.49216774106025696,0.6016890406608582,0.5170755386352539,0.3948532044887543,2.9791762828826904,0.26224011182785034,1.1711933612823486,9.92432975769043,-1.343374490737915,-0.6803582310676575,-0.270651251077652,0.09344321489334106,30.812746047973633,-20.3094482421875,16.380504608154297,0.2533801794052124,0.7615842819213867,1.0178048610687256,0.9178131818771362,9.162745475769043,-2.3611793518066406
1_20251106_212354,1762435397793,1,0.36243632435798645,0.49150550365448,0.5969755053520203,0.5202715992927551,0.4020555913448334,2.9935643672943115,0.27627599239349365,1.2825188636779785,10.198453903198242,-1.0680530071258545,-0.6479824185371399,-0.2694295346736908,0.02013944834470749,30.757783889770508,-20.70800018310547,15.802902221679688,0.2917645573616028,0.8285665512084961,1.034501075744629,0.9907543063163757,9.369887351989746,-2.1025540828704834
1_20251106_212354,1762435397812,1,0.3668702244758606,0.4906125068664551,0.5926156044006348,0.5229840874671936,0.41608667373657227,3.0239410400390625,0.3084406554698944,1.316036343574524,10.661711692810059,-0.5257896780967712,-0.5642939209938049,-0.280425101518631,-0.10325522720813751,30.762353897094727,-21.11608123779297,15.322101593017578,0.1936243772506714,0.8719682693481445,1.038816213607788,1.1224119663238525,9.789743423461914,-1.5646058320999146
1_20251106_212354,1762435397831,1,0.3714507520198822,0.48918962478637695,0.5892627835273743,0.5248687863349915,0.4229382574558258,3.0425634384155273,0.32878318428993225,1.0095916986465454,10.665303230285645,-0.47671061754226685,-0.4280710816383362,-0.2932532727718353,-0.24069979786872864,30.79833221435547,-21.408615112304688,14.750045776367188,-0.0902562141418457,0.7004480361938477,0.870316207408905,1.0998479127883911,9.964855194091797,-1.3470268249511719
1_20251106_212354,1762435397851,1,0.37615782022476196,0.4874950647354126,0.5871638655662537,0.5254450440406799,0.42832550406455994,3.0627365112304688,0.3507925570011139,0.6181565523147583,10.47497272491455,-0.7987169623374939,-0.30101120471954346,-0.2639317512512207,-0.3311077654361725,30.809036254882812,-21.715560913085938,14.203777313232422,-0.38535308837890625,0.4080944061279297,0.43864792585372925,1.0035096406936646,10.066878318786621,-1.2373648881912231
1_20251106_212354,1762435397870,1,0.3806135058403015,0.4855935573577881,0.5862120985984802,0.5250596404075623,0.42832550406455994,3.0627365112304688,0.3507925570011139,0.6181565523147583,10.47497272491455,-0.7987169623374939,-0.3199480175971985,-0.18513019382953644,-0.30850574374198914,30.864164352416992,-21.87024688720703,13.743244171142578,-0.38535308837890625,0.4080944061279297,0.43864792585372925,1.0035096406936646,10.066878318786621,-1.2373648881912231
1_20251106_212354,1762435397890,1,0.38465216755867004,0.48341232538223267,0.5853632092475891,0.5250763297080994,0.4318026006221771,3.101243734359741,0.38908952474594116,0.09863711893558502,10.364843368530273,-1.4570941925048828,-0.3199480175971985,-0.18513019382953644,-0.30850574374198914,30.97971534729004,-22.033248901367188,13.257865905761719,-0.6061238646507263,0.16924571990966797,-0.1774001121520996,0.7047609686851501,10.195597648620605,-1.2796940803527832
1_20251106_212354,1762435397908,1,0.3882957100868225,0.4813961386680603,0.5839099287986755,0.5258644223213196,0.4318026006221771,3.101243734359741,0.38908952474594116,0.09863711893558502,10.364843368530273,-1.4570941925048828,-0.3969169855117798,-0.2181168794631958,-0.06843593716621399,31.15166473388672,-22.055084228515625,12.790870666503906,-0.6061238646507263,0.16924571990966797,-0.1774001121520996,0.7047609686851501,10.195597648620605,-1.2796940803527832
1_20251106_212354,1762435397927,1,0.39171457290649414,0.4805486500263214,0.5814876556396484,0.5267872214317322,0.4297015368938446,3.137500286102295,0.4238559305667877,0.3560027480125427,10.264291763305664,-1.0776294469833374,-0.3969169855117798,-0.2181168794631958,-0.06843593716621399,31.311626434326172,-22.07744598388672,12.29635238647461,-0.20405250787734985,0.030556678771972656,0.15287935733795166,0.5600552558898926,10.233735084533691,-1.230508804321289
1_20251106_212354,1762435397946,1,0.3946877717971802,0.48098522424697876,0.5787326693534851,0.5272032022476196,0.4280051290988922,3.1541659832000732,0.4399976432323456,0.41944634914398193,10.181695938110352,-1.296689510345459,-0.19899682700634003,-0.3573940694332123,0.06289997696876526,31.4953670501709,-22.099021911621094,11.8839111328125,-0.11248713731765747,-0.04163074493408203,-0.05294454097747803,0.5319334864616394,10.223326683044434,-1.243744969367981
1_20251106_212354,1762435397965,1,0.3972768187522888,0.48229196667671204,0.5761064887046814,0.5269410610198975,0.42596668004989624,3.1702849864959717,0.4550490975379944,0.37635257840156555,10.327735900878906,-1.3469655513763428,-0.1953316330909729,-0.37999603152275085,0.05923478677868843,31.657146453857422,-22.08411407470703,11.430732727050781,-0.1244647204875946,0.0835275650024414,-0.08257651329040527,0.5008172988891602,10.244208335876465,-1.2643890380859375
1_20251106_212354,1762435397984,1,0.3999703824520111,0.48376137018203735,0.5734245181083679,0.5264816880226135,0.42596668004989624,3.1702849864959717,0.4550490975379944,0.37635257840156555,10.327735900878906,-1.3469655513763428,-0.2619158625602722,-0.30119451880455017,0.031745877116918564,31.804737091064453,-22.095924377441406,11.057636260986328,-0.1244647204875946,0.0835275650024414,-0.08257651329040527,0.5008172988891602,10.244208335876465,-1.2643890380859375
1_20251106_212354,1762435398004,1,0.40270963311195374,0.4844666123390198,0.5708063244819641,0.5265901684761047,0.42049384117126465,3.201559066772461,0.4866297245025635,0.3009384870529175,10.28583812713623,-0.7436526417732239,-0.29062652587890625,-0.16252818703651428,0.015863394364714622,31.956260681152344,-22.032798767089844,10.72667121887207,-0.1279224455356598,0.01821613311767578,0.3702360987663269,0.42886093258857727,10.267621994018555,-1.1138887405395508
1_20251106_212354,1762435398021,1,0.4048937261104584,0.4841696619987488,0.5686610341072083,0.5275086760520935,0.42049384117126465,3.201559066772461,0.4866297245025635,0.3009384870529175,10.28583812713623,-0.7436526417732239,-0.2613050043582916,-0.09716566652059555,0.03968711569905281,32.101226806640625,-22.094566345214844,10.325485229492188,-0.1279224455356598,0.01821613311767578,0.3702360987663269,0.42886093258857727,10.267621994018555,-1.1138887405395508
1_20251106_212354,1762435398041,1,0.4064636528491974,0.4837433099746704,0.5667966604232788,0.5286977291107178,0.4149106442928314,3.226979970932007,0.5165985822677612,0.43979620933532715,10.097902297973633,-0.9172248244285583,-0.24603340029716492,-0.1301523745059967,0.10443878173828125,32.154052734375,-22.062637329101562,9.963035583496094,0.02595984935760498,-0.10191726684570312,0.11533087491989136,0.41383635997772217,10.199819564819336,-1.0325556993484497
1_20251106_212354,1762435398061,1,0.4078579545021057,0.48398616909980774,0.5645344257354736,0.5298208594322205,0.4127882122993469,3.238900661468506,0.532945990562439,0.6193535923957825,9.99734878540039,-0.6490858197212219,-0.24603340029716492,-0.1301523745059967,0.10443878173828125,32.18775177001953,-22.14532470703125,9.678817749023438,0.16441380977630615,-0.16197681427001953,0.30677586793899536,0.4549397826194763,10.15932559967041,-0.9558616876602173
1_20251106_212354,1762435398079,1,0.4092562198638916,0.4849350154399872,0.5618533492088318,0.5307242274284363,0.4127882122993469,3.238900661468506,0.532945990562439,0.6193535923957825,9.99734878540039,-0.6490858197212219,-0.16234493255615234,-0.23766455054283142,0.16796870529651642,32.173606872558594,-22.218360900878906,9.365869522094727,0.16441380977630615,-0.16197681427001953,0.30677586793899536,0.4549397826194763,10.15932559967041,-0.9558616876602173
1_20251106_212354,1762435398100,1,0.4104140102863312,0.4863201379776001,0.5593167543411255,0.5312418341636658,0.4118102788925171,3.249765634536743,0.5500600337982178,0.7965168952941895,10.008123397827148,-0.434813916683197,-0.12080612778663635,-0.22483637928962708,0.13070596754550934,32.173606872558594,-22.218360900878906,9.365869522094727,0.2732616662979126,-0.12096214294433594,0.41683822870254517,0.5232552289962769,10.129085540771484,-0.8516521453857422
1_20251106_212354,1762435398119,1,0.4115425944328308,0.4876481890678406,0.5571244955062866,0.5314548015594482,0.4119521379470825,3.259221076965332,0.5671306848526001,0.8755221962928772,9.844127655029297,-0.5844451189041138,-0.12080612778663635,-0.22483637928962708,0.13070596754550934,32.19739532470703,-22.298744201660156,8.770286560058594,0.2818135619163513,-0.22796630859375,0.21376562118530273,0.5937086343765259,10.072093963623047,-0.7982107400894165
1_20251106_212354,1762435398138,1,0.4130648374557495,0.48846858739852905,0.5550282597541809,0.5317137241363525,0.41377660632133484,3.2741973400115967,0.5945535898208618,0.7199057340621948,9.844127655029297,-1.2440192699432373,-0.1641775369644165,-0.19612574577331543,0.07267381250858307,32.19739532470703,-22.298744201660156,8.770286560058594,0.05969804525375366,-0.15834808349609375,-0.32783663272857666,0.6602076888084412,10.00247573852539,-0.9161826372146606
1_20251106_212354,1762435398156,1,0.4151703119277954,0.4882487654685974,0.5531228184700012,0.5322611331939697,0.4142451584339142,3.2799949645996094,0.60541832447052,0.4804958701133728,9.722028732299805,-1.305068850517273,-0.407301664352417,-0.09044615924358368,-0.08737274259328842,32.18648147583008,-22.309402465820312,8.49920654296875,-0.14376944303512573,-0.22435760498046875,-0.3111090064048767,0.6242653131484985,9.946386337280273,-0.9939598441123962
1_20251106_212354,1762435398175,1,0.41800180077552795,0.4867784380912781,0.5510613918304443,0.5335284471511841,0.4137195646762848,3.284621477127075,0.6157848238945007,0.2614358365535736,9.513741493225098,-1.1865609884262085,-0.6125522255897522,0.009735655970871449,-0.10692040622234344,32.18544006347656,-22.357200622558594,8.254858016967773,-0.2902636229991913,-0.3461160659790039,-0.15408098697662354,0.5516994595527649,9.859857559204102,-1.032480001449585
1_20251106_212354,1762435398194,1,0.4213496446609497,0.4838451147079468,0.5484887361526489,0.5362075567245483,0.41197723150253296,3.2876269817352295,0.6257718801498413,0.09863713383674622,9.353336334228516,-0.9818655252456665,-0.7695444822311401,0.05066359415650368,-0.05927296355366707,32.13777160644531,-22.370506286621094,8.00933837890625,-0.36244988441467285,-0.40521717071533203,0.040491580963134766,0.46108701825141907,9.758553504943848,-1.0223571062088013
1_20251106_212354,1762435398214,1,0.4250076115131378,0.4803135097026825,0.545027494430542,0.5400115847587585,0.409376859664917,3.289318084716797,0.6362245678901672,0.11659286171197891,9.334184646606445,-0.6706326603889465,-0.8404048085212708,-0.009201150387525558,0.040908847004175186,32.1447868347168,-22.492721557617188,7.75037956237793,-0.2755953371524811,-0.3394947052001953,0.2813795804977417,0.3921881914138794,9.67367935180664,-0.9520122408866882
1_20251106_212354,1762435398232,1,0.428801953792572,0.4772825241088867,0.5404691696166992,0.5442640781402588,0.4064032733440399,3.2899208068847656,0.6477706432342529,0.2087656706571579,9.307849884033203,-0.36299097537994385,-0.8666719794273376,-0.06173551455140114,0.13620373606681824,32.168907165527344,-22.537857055664062,7.398881912231445,-0.14673803746700287,-0.29266357421875,0.4712170362472534,0.35550370812416077,9.600513458251953,-0.8342080116271973
1_20251106_212354,1762435398251,1,0.4323911666870117,0.4747663140296936,0.5351502299308777,0.5488616228103638,0.4064032733440399,3.2899208068847656,0.6477706432342529,0.2087656706571579,9.307849884033203,-0.36299097537994385,-0.8959935307502747,-0.06295724213123322,0.20645318925380707,32.191226959228516,-22.608642578125,7.100921630859375,-0.14673803746700287,-0.29266357421875,0.4712170362472534,0.35550370812416077,9.600513458251953,-0.8342080116271973
1_20251106_212354,1762435398271,1,0.43573445081710815,0.4724547564983368,0.529285192489624,0.553876519203186,0.4034792482852936,3.289368152618408,0.6624924540519714,0.41465815901756287,9.24679946899414,-0.058940425515174866,-0.9381431937217712,-0.06051378324627876,0.24310506880283356,32.188255310058594,-22.705459594726562,6.7338714599609375,0.0473235547542572,-0.2829713821411133,0.6202141046524048,0.36733460426330566,9.529770851135254,-0.6791545152664185
1_20251106_212354,1762435398291,1,0.43900763988494873,0.4700954556465149,0.5229710340499878,0.5592707991600037,0.4018254578113556,3.288135290145874,0.6777740120887756,0.6935706734657288,9.2886962890625,-0.033802397549152374,-1.002284049987793,-0.09533306956291199,0.24921371042728424,32.23070526123047,-22.861618041992188,6.340429306030273,0.26098889112472534,-0.19285964965820312,0.5162817239761353,0.4325817823410034,9.481555938720703,-0.550084114074707
1_20251106_212354,1762435398309,1,0.44274604320526123,0.467803031206131,0.5159832835197449,0.5647101402282715,0.40230610966682434,3.285353422164917,0.7094340920448303,0.9988182783126831,9.505362510681152,0.6904124617576599,-1.0157231092453003,-0.13687187433242798,0.2052314579486847,32.2498779296875,-23.006263732910156,5.892206192016602,0.38384246826171875,0.04377460479736328,0.8732103705406189,0.6149758100509644,9.461587905883789,-0.1827978938817978
1_20251106_212354,1762435398330,1,0.4468308389186859,0.4653308689594269,0.5089561343193054,0.5698885917663574,0.40423649549484253,3.2846157550811768,0.730786144733429,0.96170973777771,9.664569854736328,1.0291774272918701,-1.0395468473434448,-0.07089848816394806,0.10871483385562897,32.20519256591797,-23.21685791015625,5.359113693237305,0.2773871421813965,0.1623849868774414,0.9695802927017212,0.6843225955963135,9.502184867858887,0.059597164392471313
1_20251106_212354,1762435398348,1,0.45121538639068604,0.46186864376068115,0.5023984909057617,0.5750459432601929,0.40625035762786865,3.2842774391174316,0.7525522708892822,0.7833493947982788,9.621477127075195,0.9693249464035034,-1.0615378618240356,0.007292197551578283,0.02624809369444847,32.196048736572266,-23.44964599609375,4.772899627685547,0.07922142744064331,0.09543418884277344,0.7277822494506836,0.7041279673576355,9.526042938232422,0.24154269695281982
1_20251106_212354,1762435398366,1,0.45574870705604553,0.4574111998081207,0.4963618516921997,0.5802525281906128,0.40625035762786865,3.2842774391174316,0.7525522708892822,0.7833493947982788,9.621477127075195,0.9693249464035034,-1.074976921081543,0.0005726855015382171,0.02380463480949402,32.15468978881836,-23.59772491455078,4.268157958984375,0.07922142744064331,0.09543418884277344,0.7277822494506836,0.7041279673576355,9.526042938232422,0.24154269695281982
1_20251106_212354,1762435398385,1,0.46042007207870483,0.4529503285884857,0.4901733100414276,0.5853028893470764,0.40885984897613525,3.2839276790618896,0.7983244061470032,0.5044368505477905,9.395234107971191,1.2458434104919434,-1.0218316316604614,-0.042798709124326706,0.07878246903419495,32.04846954345703,-23.82471466064453,3.718832015991211,-0.14101779460906982,-0.12202262878417969,0.6697579026222229,0.6454546451568604,9.517256736755371,0.5760855078697205
1_20251106_212354,1762435398404,1,0.46465811133384705,0.4490940570831299,0.4839007556438446,0.5901249051094055,0.40885984897613525,3.2839276790618896,0.7983244061470032,0.5044368505477905,9.395234107971191,1.2458434104919434,-1.0218316316604614,-0.042798709124326706,0.07878246903419495,31.99359893798828,-24.01018524169922,3.1046791076660156,-0.14101779460906982,-0.12202262878417969,0.6697579026222229,0.6454546451568604,9.517256736755371,0.5760855078697205
1_20251106_212354,1762435398424,1,0.468372642993927,0.4457375705242157,0.47738489508628845,0.5950199365615845,0.40980884432792664,3.2830135822296143,0.8264221549034119,0.5954126119613647,9.364110946655273,1.4433565139770508,-0.9912883639335632,-0.05745945870876312,0.1539188176393509,31.91094398498535,-24.248275756835938,2.5695877075195312,-0.04003363847732544,-0.12251663208007812,0.6938167810440063,0.6354462504386902,9.486627578735352,0.7495397329330444
1_20251106_212354,1762435398442,1,0.4719749987125397,0.4424246847629547,0.4703442454338074,0.6002302169799805,0.4123328626155853,3.2810921669006348,0.878251850605011,0.8384135961532593,9.451496124267578,2.0909602642059326,-1.0755877494812012,-0.09716566652059555,0.22844430804252625,31.863208770751953,-24.31964874267578,1.849679946899414,0.14273148775100708,-0.014631271362304688,0.9280338287353516,0.6956821084022522,9.466127395629883,1.162926435470581
1_20251106_212354,1762435398461,1,0.4757731258869171,0.4392472803592682,0.46267208456993103,0.6055049896240234,0.4123328626155853,3.2810921669006348,0.878251850605011,0.8384135961532593,9.451496124267578,2.0909602642059326,-1.0132795572280884,-0.14908915758132935,0.2553223669528961,31.79725456237793,-24.492813110351562,1.181234359741211,0.14273148775100708,-0.014631271362304688,0.9280338287353516,0.6956821084022522,9.466127395629883,1.162926435470581
1_20251106_212354,1762435398482,1,0.47940462827682495,0.43672975897789,0.4548933207988739,0.6103363037109375,0.4138028919696808,3.279083013534546,0.9125333428382874,0.6540680527687073,9.183356285095215,2.570977210998535,-0.9198172092437744,-0.15275435149669647,0.332902193069458,31.7364444732666,-24.566192626953125,0.5824832916259766,-0.03329122066497803,-0.22621726989746094,1.1264406442642212,0.6873592734336853,9.409573554992676,1.444536566734314
1_20251106_212354,1762435398499,1,0.4821682572364807,0.4348255693912506,0.44730085134506226,0.6151117086410522,0.4154418110847473,3.2720775604248047,0.9762752056121826,0.7258909940719604,8.726083755493164,2.8307366371154785,-0.870337188243866,-0.13442841172218323,0.4263645112514496,31.68580436706543,-24.676315307617188,-0.030086517333984375,0.05587935447692871,-0.46692848205566406,0.9007666110992432,0.6700116395950317,9.193012237548828,1.9299700260162354
1_20251106_212354,1762435398520,1,0.4840337634086609,0.4333246946334839,0.43970558047294617,0.6201612949371338,0.4154418110847473,3.2720775604248047,0.9762752056121826,0.7258909940719604,8.726083755493164,2.8307366371154785,-0.8782784342765808,-0.13992619514465332,0.49600306153297424,31.556297302246094,-24.903411865234375,-0.7290725708007812,0.05587935447692871,-0.46692848205566406,0.9007666110992432,0.6700116395950317,9.193012237548828,1.9299700260162354
1_20251106_212354,1762435398539,1,0.4855581521987915,0.4321451783180237,0.4316442608833313,0.6254335045814514,0.4215904772281647,3.2596957683563232,1.0539517402648926,1.408209204673767,8.69495964050293,3.3490591049194336,-0.9045456051826477,-0.06478983908891678,0.5045551657676697,31.431724548339844,-25.04261016845703,-1.4262104034423828,0.5241590738296509,-0.32871341705322266,0.9396274089813232,0.8840501308441162,9.023673057556152,2.4094316959381104
1_20251106_212354,1762435398559,1,0.48673030734062195,0.4303758144378662,0.423667311668396,0.6311705708503723,0.42726925015449524,3.252776622772217,1.0920791625976562,1.6392396688461304,8.688974380493164,3.295192003250122,-0.9253149628639221,0.012789979577064514,0.48989441990852356,31.24542999267578,-25.186859130859375,-2.017669677734375,0.6041516065597534,-0.2677583694458008,0.7086081504821777,1.035088062286377,8.956732749938965,2.5865838527679443
1_20251106_212354,1762435398577,1,0.48770663142204285,0.42797714471817017,0.41589468717575073,0.6371886730194092,0.4340711832046509,3.246556043624878,1.12723970413208,1.7218360900878906,8.959507942199707,2.9300918579101562,-0.9320344924926758,0.014622574672102928,0.46423810720443726,31.24542999267578,-25.186859130859375,-2.017669677734375,0.5493984222412109,0.00222015380859375,0.27480649948120117,1.1724376678466797,8.957287788391113,2.655285358428955
1_20251106_212354,1762435398596,1,0.4887603521347046,0.42543160915374756,0.40817275643348694,0.6430522799491882,0.4340711832046509,3.246556043624878,1.12723970413208,1.7218360900878906,8.959507942199707,2.9300918579101562,-0.9864014983177185,-0.02447276934981346,0.45996204018592834,31.04422950744629,-25.381996154785156,-2.6241912841796875,0.5493984222412109,0.00222015380859375,0.27480649948120117,1.1724376678466797,8.957287788391113,2.655285358428955
1_20251106_212354,1762435398615,1,0.49021169543266296,0.42294958233833313,0.3999415934085846,0.6487317681312561,0.452942818403244,3.2382447719573975,1.2022991180419922,1.9181522130966187,9.781881332397461,3.5214343070983887,-0.9864014983177185,-0.02447276934981346,0.45996204018592834,30.8149356842041,-25.64177703857422,-3.205982208251953,0.5004322528839111,0.5976476669311523,0.6292228698730469,1.4177199602127075,9.184233665466309,2.892211437225342
1_20251106_212354,1762435398635,1,0.4920324385166168,0.42006805539131165,0.39127081632614136,0.6544876098632812,0.46478843688964844,3.238198757171631,1.24311101436615,2.078556776046753,10.112266540527344,4.249239921569824,-1.08230721950531,0.013400844298303127,0.4068168103694916,30.561071395874023,-25.903411865234375,-3.761720657348633,0.5286693572998047,0.742426872253418,1.085622787475586,1.5498874187469482,9.369839668273926,3.1636171340942383
1_20251106_212354,1762435398653,1,0.4939633905887604,0.4165917932987213,0.3827839493751526,0.660248339176178,0.4766043722629547,3.2405357360839844,1.2817808389663696,2.23537015914917,10.334917068481445,4.69693660736084,-0.9888449311256409,0.06837867200374603,0.3493955433368683,30.3311710357666,-26.175613403320312,-4.357292175292969,0.5483860969543457,0.7720623016357422,1.2266554832458496,1.6869840621948242,9.562854766845703,3.4702811241149902
1_20251106_212354,1762435398672,1,0.4954100549221039,0.412756085395813,0.37543901801109314,0.6657678484916687,0.4905652701854706,3.2458317279815674,1.324435830116272,2.456824541091919,10.638967514038086,4.883676528930664,-0.8825544714927673,0.08609375357627869,0.27853521704673767,30.043567657470703,-26.389404296875,-4.913446426391602,0.6158723831176758,0.8608903884887695,1.130716323852539,1.8409521579742432,9.778077125549316,3.752960205078125
1_20251106_212354,1762435398692,1,0.4969380795955658,0.4090917408466339,0.3689815104007721,0.6704842448234558,0.5055539608001709,3.2533955574035645,1.3687729835510254,2.469992160797119,10.701214790344238,5.143435955047607,-0.8825544714927673,0.08609375357627869,0.27853521704673767,29.78476333618164,-26.52599334716797,-5.494068145751953,0.5032320022583008,0.7385101318359375,1.1123805046081543,1.9667601585388184,9.9627046585083,4.031055450439453
1_20251106_212354,1762435398710,1,0.49883291125297546,0.4053305685520172,0.36338362097740173,0.6744073033332825,0.5055539608001709,3.2533955574035645,1.3687729835510254,2.469992160797119,10.701214790344238,5.143435955047607,-0.8141376376152039,0.09953277558088303,0.17224475741386414,29.52454948425293,-26.687698364257812,-6.075218200683594,0.5032320022583008,0.7385101318359375,1.1123805046081543,1.9667601585388184,9.9627046585083,4.031055450439453
1_20251106_212354,1762435398730,1,0.5010479688644409,0.40143072605133057,0.35853517055511475,0.6776849031448364,0.5356623530387878,3.272463321685791,1.460118293762207,2.1300299167633057,10.553977966308594,5.265535354614258,-0.7047927975654602,0.09953277558088303,0.025637228041887283,29.32718276977539,-26.808029174804688,-6.626091957092285,0.0749971866607666,0.3646240234375,0.8046236038208008,2.055032730102539,10.189353942871094,4.460911750793457
1_20251106_212354,1762435398749,1,0.5034767389297485,0.39764487743377686,0.354183554649353,0.6803996562957764,0.5356623530387878,3.272463321685791,1.460118293762207,2.1300299167633057,10.553977966308594,5.265535354614258,-0.6168283224105835,0.09831104427576065,-0.0030734119936823845,29.19487762451172,-26.84918212890625,-7.1594133377075195,0.0749971866607666,0.3646240234375,0.8046236038208008,2.055032730102539,10.189353942871094,4.460911750793457
1_20251106_212354,1762435398768,1,0.5057194232940674,0.39413073658943176,0.35054680705070496,0.6826608180999756,0.5511425733566284,3.2837796211242676,1.5134199857711792,1.849920392036438,10.306188583374023,5.261943817138672,-0.5404701828956604,0.09525671601295471,0.03296760469675064,29.087661743164062,-26.86457061767578,-7.596611976623535,-0.16408979892730713,0.09346771240234375,0.6408257484436035,2.014010190963745,10.21272087097168,4.621118068695068
1_20251106_212354,1762435398787,1,0.5075111389160156,0.3911031484603882,0.34725522994995117,0.6847514510154724,0.5726520419120789,3.299915313720703,1.5973607301712036,1.7589446306228638,9.923131942749023,4.974652290344238,-0.5404701828956604,0.09525671601295471,0.03296760469675064,28.97319221496582,-26.79285430908203,-8.032453536987305,-0.1548147201538086,-0.21770477294921875,0.20481109619140625,1.9137593507766724,10.140836715698242,4.769841194152832
1_20251106_212354,1762435398805,1,0.5086235404014587,0.3887662887573242,0.34392067790031433,0.6869362592697144,0.5827912092208862,3.306532144546509,1.6369060277938843,2.0881333351135254,9.931511878967285,4.950711250305176,-0.46472296118736267,0.025007272139191628,0.18629464507102966,28.868894577026367,-26.75788116455078,-8.482112884521484,0.13949918746948242,-0.16746044158935547,0.14469623565673828,1.948634147644043,10.09897232055664,4.8060150146484375
1_20251106_212354,1762435398824,1,0.509342610836029,0.3870927393436432,0.3402412533760071,0.6891771554946899,0.5940900444984436,3.312685012817383,1.677716851234436,2.361060380935669,9.923131942749023,5.227229595184326,-0.46472296118736267,0.025007272139191628,0.18629464507102966,28.80408477783203,-26.658546447753906,-8.847883224487305,0.3299410343170166,-0.1406726837158203,0.3369717597961426,2.0311193466186523,10.063804626464844,4.890257835388184
1_20251106_212354,1762435398844,1,0.5102644562721252,0.38577723503112793,0.33644935488700867,0.6910918354988098,0.6059426665306091,3.3178813457489014,1.7179535627365112,2.438868522644043,9.827367782592773,5.424742698669434,-0.4518948197364807,-0.016531527042388916,0.1691904366016388,28.77342414855957,-26.59490966796875,-9.172425270080566,0.3261992931365967,-0.1891489028930664,0.42758798599243164,2.1126692295074463,10.01651668548584,4.997154712677002
1_20251106_212354,1762435398864,1,0.5116615295410156,0.3842274844646454,0.33333849906921387,0.692428469657898,0.6059426665306091,3.3178813457489014,1.7179535627365112,2.438868522644043,9.827367782592773,5.424742698669434,-0.3492695093154907,0.05860483646392822,-0.059883829206228256,28.75345230102539,-26.544113159179688,-9.38861083984375,0.3261992931365967,-0.1891489028930664,0.42758798599243164,2.1126692295074463,10.01651668548584,4.997154712677002
1_20251106_212354,1762435398881,1,0.5134267210960388,0.38215968012809753,0.3313470184803009,0.6932215690612793,0.619533121585846,3.3219857215881348,1.7631659507751465,2.26290225982666,9.57838249206543,5.255958557128906,-0.31078505516052246,0.0494418665766716,-0.11791597306728363,28.730649948120117,-26.555160522460938,-9.700730323791504,0.12018656730651855,-0.3505067825317383,0.20704317092895508,2.1427156925201416,9.928889274597168,5.048915386199951
1_20251106_212354,1762435398901,1,0.5153982043266296,0.38011878728866577,0.32983845472335815,0.6935999989509583,0.6384838223457336,3.323979377746582,1.8310637474060059,1.7721121311187744,9.236026763916016,5.032110214233398,-0.32727840542793274,0.02073122002184391,-0.1038660854101181,28.665557861328125,-26.444618225097656,-9.931074142456055,-0.26917147636413574,-0.46066951751708984,0.008397102355957031,2.04128360748291,9.696696281433105,5.023713111877441
1_20251106_212354,1762435398920,1,0.5174887180328369,0.37825965881347656,0.32805997133255005,0.6939032077789307,0.6466429829597473,3.3225693702697754,1.8648715019226074,1.7960530519485474,9.09357738494873,5.2511701583862305,-0.32727840542793274,0.02073122002184391,-0.1038660854101181,28.58565902709961,-26.38483428955078,-10.189996719360352,-0.19618451595306396,-0.4824953079223633,0.18196582794189453,1.9922375679016113,9.576072692871094,5.069204330444336
1_20251106_212354,1762435398941,1,0.5193402171134949,0.37640610337257385,0.32632237672805786,0.694347083568573,0.6546169519424438,3.3196780681610107,1.8996036052703857,1.9313197135925293,9.088788986206055,5.373269081115723,-0.31628283858299255,0.03661370649933815,-0.07454457879066467,28.565784454345703,-26.333900451660156,-10.419698715209961,-0.048734188079833984,-0.38982677459716797,0.24325180053710938,1.9800539016723633,9.478615760803223,5.130017280578613
1_20251106_212354,1762435398959,1,0.5208938717842102,0.3748766779899597,0.3247487545013428,0.6947483420372009,0.6546169519424438,3.3196780681610107,1.8996036052703857,1.9313197135925293,9.088788986206055,5.373269081115723,-0.26924628019332886,0.025618137791752815,-0.05438604578375816,28.565784454345703,-26.333900451660156,-10.419698715209961,-0.048734188079833984,-0.38982677459716797,0.24325180053710938,1.9800539016723633,9.478615760803223,5.130017280578613
1_20251106_212354,1762435398980,1,0.5225055813789368,0.37377938628196716,0.3234860301017761,0.6947184205055237,0.6678478121757507,3.310204267501831,1.9630922079086304,1.6739541292190552,8.833818435668945,5.095554351806641,-0.20938152074813843,-0.007979420945048332,-0.08370755612850189,28.533937454223633,-26.271881103515625,-10.582045555114746,-0.23210275173187256,-0.4398670196533203,-0.04810380935668945,1.9060568809509277,9.273685455322266,5.14365816116333
1_20251106_212354,1762435398998,1,0.5243107080459595,0.3725111782550812,0.3226020336151123,0.6944506168365479,0.6678478121757507,3.310204267501831,1.9630922079086304,1.6739541292190552,8.833818435668945,5.095554351806641,-0.2258748710155487,0.051885321736335754,-0.14296144247055054,28.538042068481445,-26.21990203857422,-10.756701469421387,-0.23210275173187256,-0.4398670196533203,-0.04810380935668945,1.9060568809509277,9.273685455322266,5.14365816116333
1_20251106_212354,1762435399016,1,0.5262110829353333,0.37076154351234436,0.32177576422691345,0.6943328380584717,0.6752777099609375,3.2952585220336914,2.0164031982421875,1.4369382858276367,8.424427032470703,5.081189155578613,-0.24908772110939026,0.03966803103685379,-0.08615101128816605,28.584640502929688,-26.064674377441406,-10.96832275390625,-0.30847156047821045,-0.568232536315918,-0.024658203125,1.7454098463058472,8.992659568786621,5.105847358703613
1_20251106_212354,1762435399036,1,0.5279501080513,0.36917048692703247,0.3205035626888275,0.6944488883018494,0.6779900193214417,3.2855308055877686,2.043574810028076,1.588963508605957,8.557299613952637,5.313416957855225,-0.24481168389320374,-0.0012599086621776223,-0.009182059206068516,28.6417179107666,-25.934173583984375,-11.139432907104492,-0.12515699863433838,-0.34828758239746094,0.16605520248413086,1.7141205072402954,8.905587196350098,5.147361755371094
1_20251106_212354,1762435399054,1,0.5291659235954285,0.3680213391780853,0.31883710622787476,0.6949004530906677,0.6804194450378418,3.2764737606048584,2.0677194595336914,1.7589446306228638,8.605180740356445,5.518112659454346,-0.24481168389320374,-0.0012599086621776223,-0.009182059206068516,28.687116622924805,-25.79218292236328,-11.283737182617188,0.03585934638977051,-0.2403249740600586,0.2966008186340332,1.7230852842330933,8.845505714416504,5.2215118408203125
1_20251106_212354,1762435399074,1,0.530215859413147,0.3669819235801697,0.3172871172428131,0.6953591108322144,0.683172881603241,3.2661101818084717,2.0938560962677,1.7852797508239746,8.581239700317383,5.435516357421875,-0.2215988039970398,0.006070468109101057,0.0012026410549879074,28.776931762695312,-25.722488403320312,-11.41414737701416,0.04975557327270508,-0.2114124298095703,0.17120361328125,1.7355241775512695,8.792652130126953,5.264312744140625
1_20251106_212354,1762435399093,1,0.5313972234725952,0.3658183515071869,0.3161240518093109,0.6956000924110413,0.6854255795478821,3.2566049098968506,2.116751194000244,1.6943039894104004,8.530963897705078,5.4869890213012695,-0.20266202092170715,0.03966803103685379,-0.08004236221313477,28.831893920898438,-25.629661560058594,-11.586050033569336,-0.03297615051269531,-0.2093505859375,0.17814111709594727,1.7272801399230957,8.740314483642578,5.308847904205322
1_20251106_212354,1762435399111,1,0.5325199961662292,0.3643072247505188,0.31526535749435425,0.6959241628646851,0.687433123588562,3.246229648590088,2.1399621963500977,1.635648488998413,8.432806015014648,5.400801658630371,-0.20815980434417725,0.06960040330886841,-0.08492927998304367,28.874277114868164,-25.538169860839844,-11.704377174377441,-0.07330536842346191,-0.24600696563720703,0.0735630989074707,1.708953857421875,8.678812980651855,5.3272385597229
1_20251106_212354,1762435399131,1,0.5339158773422241,0.3626754879951477,0.314383864402771,0.6961056590080261,0.6892032623291016,3.235328435897827,2.1630802154541016,1.6308602094650269,8.50582504272461,5.296658039093018,-0.20815980434417725,0.06960040330886841,-0.08492927998304367,28.944246292114258,-25.394317626953125,-11.874732971191406,-0.062474846839904785,-0.13839054107666016,-0.024464130401611328,1.6933350563049316,8.64421558380127,5.321122169494629
1_20251106_212354,1762435399151,1,0.5350916981697083,0.36147087812423706,0.3132552206516266,0.6963381767272949,0.690895140171051,3.2250428199768066,2.184873342514038,1.6966980695724487,8.667427062988281,5.265535354614258,-0.16784271597862244,-0.02202931046485901,-0.009182059206068516,28.925090789794922,-25.3192138671875,-12.009292602539062,0.002690434455871582,0.018568992614746094,-0.04446983337402344,1.6940076351165771,8.648858070373535,5.310005187988281
1_20251106_212354,1762435399169,1,0.5361347198486328,0.36091700196266174,0.31193509697914124,0.6964158415794373,0.6925899982452393,3.2166216373443604,2.2034294605255127,1.794856071472168,8.800300598144531,5.278702735900879,-0.180060014128685,-0.020196715369820595,-0.021399352699518204,28.938785552978516,-25.293174743652344,-12.021790504455566,0.08067870140075684,0.1211538314819336,-0.025042057037353516,1.7141773700714111,8.679146766662598,5.303744792938232
1_20251106_212354,1762435399189,1,0.5372481346130371,0.36026471853256226,0.31061866879463196,0.696483850479126,0.6946497559547424,3.2082138061523438,2.223748207092285,1.803235411643982,8.837408065795898,5.544447898864746,-0.21304671466350555,0.018898626789450645,-0.06965766102075577,28.97684097290039,-25.27715301513672,-12.128185272216797,0.07124638557434082,0.12660884857177734,0.19256258010864258,1.7319890260696411,8.710799217224121,5.3518853187561035
1_20251106_212354,1762435399208,1,0.5386384129524231,0.3590557873249054,0.3094649612903595,0.6965479850769043,0.6962885856628418,3.201162815093994,2.2421047687530518,1.6823334693908691,8.766782760620117,5.751537322998047,-0.21304671466350555,0.018898626789450645,-0.06965766102075577,29.01923370361328,-25.174041748046875,-12.15163516998291,-0.03972446918487549,0.04478645324707031,0.3197212219238281,1.7220579385757446,8.721996307373047,5.431816101074219
1_20251106_212354,1762435399226,1,0.5401491522789001,0.3575294315814972,0.3086983263492584,0.6965033411979675,0.697488009929657,3.194110155105591,2.2612876892089844,1.5602343082427979,8.728477478027344,5.714428901672363,-0.15318197011947632,0.047609273344278336,-0.11180733144283295,28.954055786132812,-25.052024841308594,-12.273584365844727,-0.12945890426635742,0.005185127258300781,0.2260904312133789,1.6896932125091553,8.723292350769043,5.488338470458984
1_20251106_212354,1762435399245,1,0.5414862036705017,0.3562101721763611,0.3082311451435089,0.6963480114936829,0.697488009929657,3.194110155105591,2.2612876892089844,1.5602343082427979,8.728477478027344,5.714428901672363,-0.13668861985206604,0.02989419363439083,-0.0782097727060318,28.970569610595703,-24.975753784179688,-12.285026550292969,-0.12945890426635742,0.005185127258300781,0.2260904312133789,1.6896932125091553,8.723292350769043,5.488338470458984
1_20251106_212354,1762435399264,1,0.5426988005638123,0.35522475838661194,0.30763766169548035,0.6961698532104492,0.6986327767372131,3.1809744834899902,2.298703908920288,1.5590373277664185,8.673412322998047,5.810192108154297,-0.13668861985206604,0.02989419363439083,-0.0782097727060318,28.977296829223633,-24.873817443847656,-12.431593894958496,-0.0813213586807251,-0.04207420349121094,0.22609663009643555,1.6403586864471436,8.715486526489258,5.584095478057861
1_20251106_212354,1762435399283,1,0.5437558889389038,0.35436826944351196,0.30701783299446106,0.6960551142692566,0.698643147945404,3.1745493412017822,2.3170394897460938,1.5003818273544312,8.608772277832031,5.8365278244018555,-0.10186932981014252,0.01706603355705738,-0.0574403740465641,29.03036880493164,-24.79515838623047,-12.441564559936523,-0.11198151111602783,-0.08537101745605469,0.20194578170776367,1.612363338470459,8.694143295288086,5.634582042694092
1_20251106_212354,1762435399302,1,0.5447564721107483,0.3537042737007141,0.3065017759799957,0.6958378553390503,0.6983556151390076,3.168158769607544,2.3349661827087402,1.5039730072021484,8.589618682861328,5.819768905639648,-0.08354338258504868,0.01706603355705738,-0.04461221396923065,29.12311553955078,-24.663490295410156,-12.489557266235352,-0.08671224117279053,-0.08362007141113281,0.1481494903564453,1.590685248374939,8.673238754272461,5.671619415283203
1_20251106_212354,1762435399321,1,0.5456518530845642,0.353111207485199,0.3063053786754608,0.6955239772796631,0.6978839635848999,3.1617565155029297,2.35241961479187,1.5183377265930176,8.552511215209961,5.825754165649414,-0.08354338258504868,0.01706603355705738,-0.04461221396923065,29.17868423461914,-24.55823516845703,-12.647679328918457,-0.05787801742553711,-0.09658241271972656,0.12330770492553711,1.5762157440185547,8.649093627929688,5.702446460723877
1_20251106_212354,1762435399340,1,0.5464709997177124,0.3525008261203766,0.30627480149269104,0.6952038407325745,0.6971752643585205,3.1550216674804688,2.369197368621826,1.4812290668487549,8.411258697509766,5.774281024932861,-0.04811323434114456,0.07082213461399078,-0.050109997391700745,29.197608947753906,-24.443885803222656,-12.698878288269043,-0.07598936557769775,-0.19026756286621094,0.05746746063232422,1.5572184324264526,8.601526260375977,5.716813564300537
1_20251106_212354,1762435399360,1,0.5471671223640442,0.35181573033332825,0.3065011203289032,0.6949034929275513,0.6971752643585205,3.1550216674804688,2.369197368621826,1.4812290668487549,8.411258697509766,5.774281024932861,-0.024900373071432114,0.06593520939350128,-0.01956675946712494,29.200416564941406,-24.4052734375,-12.792699813842773,-0.07598936557769775,-0.19026756286621094,0.05746746063232422,1.5572184324264526,8.601526260375977,5.716813564300537
1_20251106_212354,1762435399380,1,0.5474719405174255,0.3512762188911438,0.30678632855415344,0.6948105096817017,0.6957178115844727,3.1406617164611816,2.4001758098602295,1.6093133687973022,8.365772247314453,5.667743682861328,-0.01879172772169113,0.04883100092411041,0.007311287801712751,29.272926330566406,-24.412933349609375,-12.803537368774414,0.04827988147735596,-0.15088272094726562,-0.03561878204345703,1.5610334873199463,8.516654968261719,5.703362464904785
1_20251106_212354,1762435399399,1,0.5476210713386536,0.351080983877182,0.30690082907676697,0.6947411298751831,0.6955526471138,3.1321961879730225,2.415313959121704,1.707471489906311,8.254446029663086,5.530082702636719,-0.00962875597178936,0.0341702476143837,0.014030799269676208,29.313404083251953,-24.34722900390625,-12.854811668395996,0.11715030670166016,-0.20976734161376953,-0.1386241912841797,1.5903211832046509,8.464213371276855,5.668706893920898
1_20251106_212354,1762435399419,1,0.5477133989334106,0.3511958122253418,0.3068789839744568,0.69461989402771,0.6957978010177612,3.1243247985839844,2.4277548789978027,1.7314125299453735,8.247262954711914,5.460654258728027,-0.00962875597178936,0.0341702476143837,0.014030799269676208,29.337886810302734,-24.333892822265625,-12.772469520568848,0.11287307739257812,-0.17356014251708984,-0.1664419174194336,1.6185394525527954,8.420823097229004,5.627096176147461
1_20251106_212354,1762435399437,1,0.5479451417922974,0.35166049003601074,0.3064897656440735,0.6943738460540771,0.6962904930114746,3.1169722080230713,2.438972234725952,1.7290183305740356,8.311904907226562,5.63542366027832,-0.06277398765087128,-0.0006490439409390092,-0.00612773559987545,29.337886810302734,-24.333892822265625,-12.772469520568848,0.08838307857513428,-0.08713436126708984,0.006661891937255859,1.6406352519989014,8.399039268493652,5.6287617683410645
1_20251106_212354,1762435399455,1,0.5483670234680176,0.3519531786441803,0.30594533681869507,0.6941325664520264,0.6970434188842773,3.1094093322753906,2.4507808685302734,1.7350035905838013,8.32986068725586,5.832936763763428,-0.06277398765087128,-0.0006490439409390092,-0.00612773559987545,29.324291229248047,-24.35980224609375,-12.77348804473877,0.07549464702606201,-0.055342674255371094,0.16334009170532227,1.6595089435577393,8.38520336151123,5.6695966720581055
1_20251106_212354,1762435399476,1,0.5489735007286072,0.3517324924468994,0.30555352568626404,0.6939375996589661,0.6975421905517578,3.1017608642578125,2.462562084197998,1.580584168434143,8.216140747070312,5.874833106994629,-0.05849793553352356,0.04150062054395676,-0.0678250715136528,29.30133056640625,-24.336280822753906,-12.773941040039062,-0.06313979625701904,-0.13525009155273438,0.16418933868408203,1.643723964691162,8.351390838623047,5.710643768310547
1_20251106_212354,1762435399494,1,0.5496500134468079,0.3512566387653351,0.3052990734577179,0.6937550902366638,0.6974560022354126,3.093435525894165,2.4746859073638916,1.4513028860092163,8.128755569458008,5.823359966278076,-0.05849793553352356,0.04150062054395676,-0.0678250715136528,29.302949905395508,-24.299285888671875,-12.705568313598633,-0.15393686294555664,-0.17810821533203125,0.09017276763916016,1.605239748954773,8.306863784790039,5.733187198638916
1_20251106_212354,1762435399513,1,0.5501669049263,0.3506963551044464,0.3052107095718384,0.6936677098274231,0.6970445513725281,3.0854332447052,2.4855334758758545,1.4836232662200928,8.128755569458008,5.698866844177246,-0.027954697608947754,0.024396410211920738,-0.008571195416152477,29.3419189453125,-24.258827209472656,-12.743853569030762,-0.09729325771331787,-0.142486572265625,-0.027456283569335938,1.5809165239334106,8.271242141723633,5.726323127746582
1_20251106_212354,1762435399532,1,0.5502524375915527,0.35016441345214844,0.30518850684165955,0.6938783526420593,0.6965771913528442,3.077568292617798,2.4958324432373047,1.5530520677566528,8.175439834594727,5.724004745483398,-0.037117667496204376,0.007292197551578283,0.007922152057290077,29.380184173583984,-24.230926513671875,-12.782402992248535,-0.02229154109954834,-0.07664203643798828,-0.0018548965454101562,1.5753436088562012,8.252081871032715,5.725859642028809
1_20251106_212354,1762435399550,1,0.5505587458610535,0.3500468134880066,0.3048723042011261,0.6938336491584778,0.6961164474487305,3.0702009201049805,2.505164623260498,1.5590373277664185,8.134740829467773,5.751537322998047,-0.04261545091867447,0.01767689734697342,-0.008571195416152477,29.441410064697266,-24.22655487060547,-12.820499420166016,-0.013044953346252441,-0.0938730239868164,0.020542144775390625,1.572082281112671,8.22861385345459,5.730995178222656
1_20251106_212354,1762435399571,1,0.5509305596351624,0.34987306594848633,0.30457252264022827,0.6937578320503235,0.6951568126678467,3.061628580093384,2.5154201984405518,1.4381353855133057,8.107208251953125,5.704852104187012,-0.04261545091867447,0.01767689734697342,-0.008571195416152477,29.468502044677734,-24.17487335205078,-12.804946899414062,-0.10715758800506592,-0.09712409973144531,-0.020914554595947266,1.5452929735183716,8.20433235168457,5.725766658782959
1_20251106_212354,1762435399590,1,0.5513512492179871,0.3494405746459961,0.3043336272239685,0.6937464475631714,0.6939230561256409,3.0541679859161377,2.524223804473877,1.3962385654449463,8.170652389526367,5.721611022949219,-0.05238928645849228,0.04883100092411041,-0.018345028162002563,29.519756317138672,-24.13348388671875,-12.856258392333984,-0.11924362182617188,-0.02694416046142578,-0.0033245086669921875,1.5154821872711182,8.197596549987793,5.724935531616211
1_20251106_212354,1762435399608,1,0.5517674088478088,0.34887009859085083,0.30426323413848877,0.6937335729598999,0.6926281452178955,3.047283887863159,2.5320916175842285,1.4405293464660645,8.128755569458008,5.702457904815674,-0.05422188341617584,0.04883100092411041,-0.009182059206068516,29.55933380126953,-24.080604553222656,-12.88076400756836,-0.05996227264404297,-0.055072784423828125,-0.017982006072998047,1.5004916191101074,8.183828353881836,5.720439910888672
1_20251106_212354,1762435399629,1,0.5521618723869324,0.34831324219703674,0.3042178452014923,0.6937194466590881,0.6909277439117432,3.0393409729003906,2.5409040451049805,1.4213767051696777,8.090450286865234,5.747945785522461,-0.05422188341617584,0.04883100092411041,-0.009182059206068516,29.608386993408203,-24.065406799316406,-12.82447338104248,-0.06329190731048584,-0.07470226287841797,0.02200460433959961,1.4846686124801636,8.165152549743652,5.725941181182861
1_20251106_212354,1762435399647,1,0.5525446534156799,0.3478597402572632,0.30404767394065857,0.693716824054718,0.6892693638801575,3.032792568206787,2.5485055446624756,1.3734947443008423,8.132347106933594,5.898774147033691,-0.0719369500875473,0.025618137791752815,0.012809070758521557,29.58340835571289,-24.07941436767578,-12.839234352111816,-0.08893918991088867,-0.026244163513183594,0.13826656341552734,1.462433934211731,8.158591270446777,5.760507583618164
1_20251106_212354,1762435399666,1,0.5528244376182556,0.3473891317844391,0.30364125967025757,0.6939077377319336,0.6875889897346497,3.0264363288879395,2.556875228881836,1.4560911655426025,8.235292434692383,6.032843589782715,-0.04566977173089981,0.008513926528394222,0.03602192923426628,29.62057113647461,-24.064613342285156,-12.823983192443848,-0.005074262619018555,0.06136131286621094,0.21786880493164062,1.461165428161621,8.173931121826172,5.814974784851074
1_20251106_212354,1762435399685,1,0.552956223487854,0.34705981612205505,0.3032321333885193,0.6941463351249695,0.6875889897346497,3.0264363288879395,2.556875228881836,1.4560911655426025,8.235292434692383,6.032843589782715,-0.018180862069129944,0.02012035623192787,0.015863394364714622,29.63477325439453,-24.026283264160156,-12.809185028076172,-0.005074262619018555,0.06136131286621094,0.21786880493164062,1.461165428161621,8.173931121826172,5.814974784851074
1_20251106_212354,1762435399704,1,0.5530446767807007,0.34675079584121704,0.30304187536239624,0.6943134069442749,0.6852302551269531,3.0155911445617676,2.5737714767456055,1.5470668077468872,8.279583930969238,6.013690948486328,-0.01573740318417549,0.04577667638659477,-0.03239491954445839,29.601642608642578,-23.96601104736328,-12.795820236206055,0.05172097682952881,0.06321239471435547,0.13158321380615234,1.4953458309173584,8.216371536254883,5.882107734680176
1_20251106_212354,1762435399722,1,0.5533491373062134,0.34639638662338257,0.3030952513217926,0.6942244172096252,0.6841263175010681,3.0109236240386963,2.5815303325653076,1.4333471059799194,8.20895767211914,5.9442620277404785,-0.01573740318417549,0.04577667638659477,-0.03239491954445839,29.554208755493164,-23.94420623779297,-12.783738136291504,-0.04959893226623535,-0.005930900573730469,0.04972362518310547,1.4829460382461548,8.214888572692871,5.894538402557373
1_20251106_212354,1762435399742,1,0.55377596616745,0.3457803726196289,0.3033987581729889,0.6940585970878601,0.6826537847518921,3.0058624744415283,2.5895583629608154,1.3818740844726562,8.170652389526367,5.841315269470215,-0.009017891250550747,0.0702112689614296,-0.06415988504886627,29.556520462036133,-23.906265258789062,-12.809978485107422,-0.08085763454437256,-0.035388946533203125,-0.042578697204589844,1.4627317190170288,8.20604133605957,5.883893966674805
1_20251106_212354,1762435399762,1,0.5541800260543823,0.34505099058151245,0.3038291931152344,0.6939107179641724,0.6813194751739502,3.0013890266418457,2.5965237617492676,1.43215012550354,8.146711349487305,5.925108909606934,-0.012683079577982426,0.08609375357627869,-0.04949913173913956,29.58139991760254,-23.89238739013672,-12.78170108795166,-0.024465322494506836,-0.04746437072753906,0.032971858978271484,1.4566154479980469,8.194175720214844,5.892137050628662
1_20251106_212354,1762435399780,1,0.5545752644538879,0.34436050057411194,0.3043024241924286,0.6937305927276611,0.6803388595581055,2.996537446975708,2.6042094230651855,1.597342848777771,8.151498794555664,6.001720428466797,-0.012683079577982426,0.08609375357627869,-0.04949913173913956,29.60777473449707,-23.86487579345703,-12.861289978027344,0.11258184909820557,-0.03414154052734375,0.08766651153564453,1.4847609996795654,8.185640335083008,5.914053916931152
1_20251106_212354,1762435399799,1,0.5547971725463867,0.34344542026519775,0.3047693073749542,0.6938018202781677,0.6798973679542542,2.9919140338897705,2.611586570739746,1.646422028541565,8.096435546875,6.074740409851074,-0.017569996416568756,0.1056414246559143,-0.05133172497153282,29.646150588989258,-23.825225830078125,-12.818477630615234,0.12932872772216797,-0.07136344909667969,0.12854909896850586,1.517093300819397,8.16779899597168,5.946191310882568
1_20251106_212354,1762435399819,1,0.5551499128341675,0.3427653908729553,0.30527424812316895,0.6936339735984802,0.6797617077827454,2.9870591163635254,2.618772268295288,1.6176928281784058,8.091647148132324,5.883212566375732,0.05817723274230957,0.12030217796564102,-0.1454048901796341,29.696514129638672,-23.785049438476562,-12.74814224243164,0.08047962188720703,-0.060921669006347656,-0.05038309097290039,1.5372132062911987,8.152568817138672,5.933595657348633
1_20251106_212354,1762435399838,1,0.5555372834205627,0.34197452664375305,0.30623483657836914,0.693290650844574,0.6798830628395081,2.9819817543029785,2.624701976776123,1.6260720491409302,7.898921489715576,5.731186866760254,0.11743110418319702,0.12824341654777527,-0.18205678462982178,29.696514129638672,-23.785049438476562,-12.74814224243164,0.07108712196350098,-0.20291757583618164,-0.1619272232055664,1.5549849271774292,8.101839065551758,5.89311408996582
1_20251106_212354,1762435399857,1,0.5559589862823486,0.34153038263320923,0.3078368604183197,0.6924616098403931,0.6799405217170715,2.9762697219848633,2.6296019554138184,1.5338993072509766,7.778019905090332,5.625846862792969,0.2108934074640274,0.12946513295173645,-0.2071022391319275,29.749797821044922,-23.69451141357422,-12.690267562866211,-0.0168684720993042,-0.25905513763427734,-0.21381378173828125,1.5507677793502808,8.03707504272461,5.83966064453125
1_20251106_212354,1762435399876,1,0.5562455058097839,0.34157809615135193,0.31001654267311096,0.6912344694137573,0.6791474223136902,2.969843626022339,2.6330726146698,1.2418192625045776,7.6726789474487305,5.407983779907227,0.2567082643508911,0.2033797800540924,-0.2376454621553421,29.787370681762695,-23.667556762695312,-12.63420295715332,-0.24715888500213623,-0.2915172576904297,-0.34534168243408203,1.4889781475067139,7.96419620513916,5.753325462341309
1_20251106_212354,1762435399896,1,0.5563493371009827,0.3412180542945862,0.3130030632019043,0.6899816989898682,0.6791474223136902,2.969843626022339,2.6330726146698,1.2418192625045776,7.6726789474487305,5.407983779907227,0.1601916253566742,0.35487422347068787,-0.2687995731830597,29.9112606048584,-23.61046600341797,-12.520112991333008,-0.24715888500213623,-0.2915172576904297,-0.34534168243408203,1.4889781475067139,7.96419620513916,5.753325462341309
1_20251106_212354,1762435399917,1,0.5566045045852661,0.33913514018058777,0.31654977798461914,0.689184308052063,0.6764368414878845,2.9613282680511475,2.635021209716797,0.9892418384552002,7.570930480957031,5.245184898376465,0.004421131685376167,0.43917354941368103,-0.2474192976951599,30.024076461791992,-23.529457092285156,-12.365436553955078,-0.3997889757156372,-0.31461238861083984,-0.4065127372741699,1.3890308141708374,7.885542869567871,5.651697635650635
1_20251106_212354,1762435399935,1,0.5571094155311584,0.3356795907020569,0.3196399509906769,0.689041793346405,0.6725602746009827,2.9531922340393066,2.635326385498047,0.8839014768600464,7.628388404846191,5.198500633239746,-0.11653007566928864,0.3536525070667267,-0.18755456805229187,30.13014793395996,-23.34905242919922,-12.182106018066406,-0.4041033983230591,-0.20572376251220703,-0.36255741119384766,1.2880048751831055,7.834112167358398,5.561058044433594
1_20251106_212354,1762435399953,1,0.5578708052635193,0.3323775827884674,0.3214154839515686,0.6892005205154419,0.663534939289093,2.9395487308502197,2.6342320442199707,0.8096844553947449,7.827098369598389,5.489383697509766,-0.11653007566928864,0.3536525070667267,-0.18755456805229187,30.244287490844727,-23.23145294189453,-11.91850757598877,-0.30631667375564575,0.025197982788085938,-0.0020112991333007812,1.1160011291503906,7.801900386810303,5.491394996643066
1_20251106_212354,1762435399971,1,0.5587255358695984,0.33027514815330505,0.32139790058135986,0.6895270347595215,0.657672643661499,2.9333245754241943,2.635254383087158,0.8443988561630249,8.088055610656738,6.0711493492126465,-0.19166645407676697,0.14046069979667664,-0.08920533210039139,30.384605407714844,-23.08660888671875,-11.707465171813965,-0.21728181838989258,0.22892427444458008,0.463803768157959,1.0616806745529175,7.859131336212158,5.6073455810546875
1_20251106_212354,1762435399991,1,0.5597409605979919,0.32947999238967896,0.3201926648616791,0.6896446347236633,0.6511898636817932,2.928389549255371,2.6381235122680664,0.8575664162635803,8.283174514770508,6.214795112609863,-0.12202785909175873,-0.02202931046485901,-0.01101465430110693,30.441017150878906,-22.933822631835938,-11.594205856323242,-0.16329139471054077,0.3392343521118164,0.485959529876709,1.020857810974121,7.943940162658691,5.728835582733154
1_20251106_212354,1762435400010,1,0.5603989958763123,0.32855120301246643,0.31920871138572693,0.6900092959403992,0.6448550224304199,2.9252736568450928,2.6410443782806396,0.8443988561630249,8.431609153747559,5.849695205688477,-0.12202785909175873,-0.02202931046485901,-0.01101465430110693,30.542055130004883,-22.841453552246094,-11.39920711517334,-0.14116716384887695,0.3901357650756836,0.09668779373168945,0.9855660200119019,8.041473388671875,5.753007411956787
1_20251106_212354,1762435400029,1,0.5609629154205322,0.3273490071296692,0.318778932094574,0.6903210878372192,0.6385382413864136,2.923623561859131,2.643733024597168,0.8767192363739014,8.518993377685547,5.721611022949219,-0.13974294066429138,0.03233765438199043,-0.03239491954445839,30.692134857177734,-22.745506286621094,-11.24279499053955,-0.08707737922668457,0.3820161819458008,-0.025116920471191406,0.9637966156005859,8.136977195739746,5.74672794342041
1_20251106_212354,1762435400048,1,0.5617612600326538,0.3264946937561035,0.31835904717445374,0.6902702450752258,0.6385382413864136,2.923623561859131,2.643733024597168,0.8767192363739014,8.518993377685547,5.721611022949219,-0.18250347673892975,-0.006757691036909819,-0.031173188239336014,30.78338623046875,-22.627471923828125,-11.182921409606934,-0.08707737922668457,0.3820161819458008,-0.025116920471191406,0.9637966156005859,8.136977195739746,5.74672794342041
1_20251106_212354,1762435400067,1,0.5628481507301331,0.32596591114997864,0.3175332248210907,0.6900150775909424,0.6256754994392395,2.923600196838379,2.6512577533721924,0.7929257750511169,8.50103759765625,6.201627731323242,-0.17700569331645966,-0.020196715369820595,-0.01895589753985405,30.837373733520508,-22.524375915527344,-11.12478256225586,-0.11472010612487793,0.22591209411621094,0.3192901611328125,0.9076458811759949,8.275125503540039,5.88233757019043
1_20251106_212354,1762435400087,1,0.5638700723648071,0.32524895668029785,0.3165329694747925,0.6899786591529846,0.6256754994392395,2.923600196838379,2.6512577533721924,0.7929257750511169,8.50103759765625,6.201627731323242,-0.17700569331645966,-0.020196715369820595,-0.01895589753985405,30.83917808532715,-22.49872589111328,-11.178319931030273,-0.11472010612487793,0.22591209411621094,0.3192901611328125,0.9076458811759949,8.275125503540039,5.88233757019043
1_20251106_212354,1762435400105,1,0.5647138953208923,0.32473912835121155,0.3155474066734314,0.689980149269104,0.6187527179718018,2.924877166748047,2.6568846702575684,0.8623546361923218,8.536949157714844,6.242327690124512,-0.08415424823760986,-0.06967675685882568,-0.01895589381456375,30.840970993041992,-22.48468780517578,-11.32673454284668,-0.03623300790786743,0.2094593048095703,0.287992000579834,0.8985876441001892,8.327489852905273,5.954335689544678
1_20251106_212354,1762435400124,1,0.5655246376991272,0.32467782497406006,0.31476208567619324,0.6897035837173462,0.6079323291778564,2.928415536880493,2.6679439544677734,0.934177577495575,8.566875457763672,6.267465591430664,-0.06399571150541306,-0.03913351893424988,-0.05866210535168648,30.843778610229492,-22.446075439453125,-11.420557022094727,0.024692833423614502,0.15761184692382812,0.20136070251464844,0.9094847440719604,8.409263610839844,6.066104888916016
1_20251106_212354,1762435400143,1,0.5664413571357727,0.32449159026145935,0.31430885195732117,0.6892454624176025,0.6024910807609558,2.9306583404541016,2.6737096309661865,0.8360195159912109,8.507022857666016,6.085514068603516,-0.040171992033720016,0.009124791249632835,-0.11119646579027176,30.884553909301758,-22.379966735839844,-11.51237964630127,-0.05877220630645752,0.07820796966552734,0.015527725219726562,0.8947917222976685,8.428814888000488,6.069986343383789
1_20251106_212354,1762435400162,1,0.5674400329589844,0.3240000903606415,0.31443366408348083,0.6885979771614075,0.5970128774642944,2.932918071746826,2.6787238121032715,0.7821522951126099,8.475899696350098,5.901167869567871,-0.03650680184364319,0.032337650656700134,-0.13746365904808044,30.899744033813477,-22.340286254882812,-11.632743835449219,-0.09011149406433105,0.03766822814941406,-0.1350545883178711,0.8722637891769409,8.438231468200684,6.036222457885742
1_20251106_212354,1762435400182,1,0.5686562061309814,0.32341259717941284,0.31490349769592285,0.6876555681228638,0.5912061333656311,2.935248851776123,2.683403968811035,0.7641966342926025,8.461535453796387,5.926306247711182,-0.03650680184364319,0.032337650656700134,-0.13746365904808044,30.968414306640625,-22.209800720214844,-11.72226619720459,-0.08645373582839966,0.01864337921142578,-0.08793306350708008,0.8506503701210022,8.442892074584961,6.014239311218262
1_20251106_212354,1762435400201,1,0.5699883103370667,0.3230707347393036,0.31531664729118347,0.6865231394767761,0.5860520601272583,2.9374585151672363,2.687575101852417,0.7737729549407959,8.530963897705078,6.0831193923950195,-0.02306777983903885,-0.04157697781920433,-0.1405179798603058,31.02107810974121,-22.14330291748047,-11.773049354553223,-0.061501920223236084,0.07045745849609375,0.05510425567626953,0.835274875164032,8.460506439208984,6.02801513671875
1_20251106_212354,1762435400220,1,0.5714301466941833,0.32313841581344604,0.3155682384967804,0.6851757764816284,0.5803846716880798,2.939746618270874,2.6921744346618652,0.7606054544448853,8.445974349975586,6.092696189880371,-0.0022983793169260025,-0.04463130235671997,-0.1557895839214325,31.05027198791504,-22.06555938720703,-11.851582527160645,-0.05973553657531738,-0.011626243591308594,0.051744937896728516,0.8203409910202026,8.457600593566895,6.040951251983643
1_20251106_212354,1762435400239,1,0.5727533102035522,0.32303929328918457,0.31574931740760803,0.6840333342552185,0.5749778747558594,2.9415366649627686,2.696408271789551,0.713920533657074,8.357391357421875,6.071148872375488,-0.0029092440381646156,-0.04524216428399086,-0.17228293418884277,31.139493942260742,-21.996673583984375,-11.900895118713379,-0.08513641357421875,-0.08016681671142578,0.024158000946044922,0.7990569472312927,8.4375581741333,6.046990871429443
1_20251106_212354,1762435400259,1,0.5742161870002747,0.32289648056030273,0.3159481883049011,0.6827813386917114,0.5691739916801453,2.943053960800171,2.701093912124634,0.6684326529502869,8.34781551361084,6.195642471313477,-0.004130973480641842,-0.05807032436132431,-0.1857219636440277,31.197797775268555,-21.82971954345703,-11.949566841125488,-0.1044994592666626,-0.07179450988769531,0.11892127990722656,0.7729321122169495,8.419610023498535,6.07672119140625
1_20251106_212354,1762435400279,1,0.57576584815979,0.3227600157260895,0.3161270022392273,0.6814568042755127,0.5631206035614014,2.944164276123047,2.706278085708618,0.5954126119613647,8.310707092285156,6.317741394042969,-0.0016875145956873894,-0.02569449692964554,-0.21015655994415283,31.265764236450195,-21.7117919921875,-12.039353370666504,-0.14201557636260986,-0.08712196350097656,0.19281578063964844,0.7374281883239746,8.397829055786133,6.12492561340332
1_20251106_212354,1762435400296,1,0.577480673789978,0.32224157452583313,0.3165830075740814,0.6800379753112793,0.5577391982078552,2.9446723461151123,2.7104828357696533,0.5128161907196045,8.220928192138672,6.133395671844482,-0.0016875145956873894,-0.02569449692964554,-0.21015655994415283,31.265764236450195,-21.7117919921875,-12.039353370666504,-0.17968964576721191,-0.14152050018310547,0.006776332855224609,0.6925058364868164,8.362448692321777,6.126619338989258
1_20251106_212354,1762435400315,1,0.5789429545402527,0.3212190866470337,0.3174061179161072,0.6788937449455261,0.5577391982078552,2.9446723461151123,2.7104828357696533,0.5128161907196045,8.220928192138672,6.133395671844482,0.0129732396453619,0.029894191771745682,-0.211989164352417,31.357410430908203,-21.593215942382812,-12.033544540405273,-0.17968964576721191,-0.14152050018310547,0.006776332855224609,0.6925058364868164,8.362448692321777,6.126619338989258
1_20251106_212354,1762435400336,1,0.5800889134407043,0.3209076523780823,0.3182026743888855,0.6776888370513916,0.543717622756958,2.9435441493988037,2.717855215072632,0.29255911707878113,8.044961929321289,5.978976249694824,0.09543997794389725,-0.08678096532821655,-0.0574403740465641,31.425981521606445,-21.462867736816406,-12.109550476074219,-0.26152023673057556,-0.21047019958496094,-0.08759689331054688,0.5540793538093567,8.25543212890625,6.066573143005371
1_20251106_212354,1762435400354,1,0.5808026194572449,0.32154175639152527,0.31875869631767273,0.6765146851539612,0.5363601446151733,2.9420456886291504,2.72076153755188,0.3931112587451935,8.027006149291992,5.937079906463623,0.10948987305164337,-0.07883971929550171,0.020750312134623528,31.45738983154297,-21.347320556640625,-12.200807571411133,-0.128774493932724,-0.1827411651611328,-0.10359477996826172,0.5218857526779175,8.209747314453125,6.040674686431885
1_20251106_212354,1762435400373,1,0.5809889435768127,0.3223147392272949,0.3191594183444977,0.6757975220680237,0.5288622975349426,2.939744234085083,2.722825288772583,0.47570767998695374,7.945606231689453,5.763507843017578,0.10948987305164337,-0.07883971929550171,0.020750312134623528,31.49020767211914,-21.20665740966797,-12.291537284851074,-0.03694245219230652,-0.21131324768066406,-0.22173357009887695,0.5126501321792603,8.156919479370117,5.985241413116455
1_20251106_212354,1762435400393,1,0.5805298686027527,0.3230760097503662,0.31954318284988403,0.6756471991539001,0.5225168466567993,2.937418222427368,2.7242088317871094,0.5391513109207153,8.011444091796875,5.83054256439209,0.07100538909435272,-0.0482964888215065,0.08244764804840088,31.531192779541016,-21.128662109375,-12.31551456451416,0.021200954914093018,-0.11638069152832031,-0.12375926971435547,0.5179503560066223,8.127824783325195,5.954301834106445
1_20251106_212354,1762435400410,1,0.5802599787712097,0.32393911480903625,0.31955644488334656,0.6754594445228577,0.5163761973381042,2.9347665309906006,2.725709915161133,0.5990037322044373,8.011444091796875,5.995735168457031,0.07100538909435272,-0.0482964888215065,0.08244764804840088,31.521726608276367,-21.079360961914062,-12.301432609558105,0.06484270095825195,-0.09310436248779297,0.03314685821533203,0.5341610312461853,8.104548454284668,5.962588310241699
1_20251106_212354,1762435400431,1,0.5799118876457214,0.3244272768497467,0.3195945620536804,0.675506055355072,0.5163761973381042,2.9347665309906006,2.725709915161133,0.5990037322044373,8.011444091796875,5.995735168457031,0.05756636708974838,0.04088975861668587,0.06289997696876526,31.57077980041504,-21.064163208007812,-12.245141983032227,0.06484270095825195,-0.09310436248779297,0.03314685821533203,0.5341610312461853,8.104548454284668,5.962588310241699
1_20251106_212354,1762435400450,1,0.579314112663269,0.32441142201423645,0.3199082016944885,0.6758780479431152,0.504848062992096,2.9281721115112305,2.727508544921875,0.5774568915367126,7.874980926513672,5.737172603607178,0.03862956166267395,0.06349175423383713,0.08061505854129791,31.584684371948242,-21.02623748779297,-12.189794540405273,0.024836421012878418,-0.16128826141357422,-0.16495084762573242,0.5526204705238342,8.036269187927246,5.90212345123291
1_20251106_212354,1762435400469,1,0.5786716341972351,0.3243315815925598,0.3201947808265686,0.6763309240341187,0.5000941157341003,2.924436092376709,2.7272791862487793,0.6468857526779175,7.830689430236816,5.63542366027832,0.03862956166267395,0.06349175423383713,0.08061505854129791,31.545814514160156,-21.066558837890625,-12.16502571105957,0.07541221380233765,-0.16446399688720703,-0.21335983276367188,0.5714735388755798,7.995153427124023,5.848783493041992
1_20251106_212354,1762435400488,1,0.5778355598449707,0.32472285628318787,0.3200972080230713,0.6769039034843445,0.4961985647678375,2.9209578037261963,2.7263805866241455,0.7977139949798584,8.021020889282227,5.600708961486816,0.04534906893968582,-0.059902917593717575,0.17774254083633423,31.578157424926758,-21.127906799316406,-12.070260047912598,0.18099236488342285,0.02069377899169922,-0.19845962524414062,0.6167216300964355,8.000327110290527,5.799168586730957
1_20251106_212354,1762435400506,1,0.5769124031066895,0.3259213864803314,0.31950443983078003,0.677395224571228,0.4935126006603241,2.9182467460632324,2.7254486083984375,0.9497392177581787,8.170652389526367,5.749143123626709,0.012362373992800713,-0.07578539848327637,0.1630817949771881,31.500219345092773,-21.208824157714844,-11.993688583374023,0.2664141058921814,0.1362600326538086,-0.04002046585083008,0.6833251118659973,8.034392356872559,5.789163589477539
1_20251106_212354,1762435400526,1,0.5761938691139221,0.3272908627986908,0.3186519742012024,0.677747905254364,0.4935126006603241,2.9182467460632324,2.7254486083984375,0.9497392177581787,8.170652389526367,5.749143123626709,-0.03161988407373428,-0.02202930860221386,0.10443878173828125,31.384313583374023,-21.317237854003906,-11.919116973876953,0.2664141058921814,0.1362600326538086,-0.04002046585083008,0.6833251118659973,8.034392356872559,5.789163589477539
1_20251106_212354,1762435400545,1,0.5758092403411865,0.32800111174583435,0.3178265690803528,0.6781189441680908,0.4910096526145935,2.9153172969818115,2.725189447402954,1.0383208990097046,8.40168285369873,6.030449390411377,-0.03161988407373428,-0.02202930860221386,0.10443878173828125,31.33114242553711,-21.396026611328125,-11.8956298828125,0.22604811191558838,0.24751567840576172,0.16380739212036133,0.8122727870941162,8.154167175292969,5.866641998291016
1_20251106_212354,1762435400563,1,0.5756116509437561,0.328029066324234,0.3175703287124634,0.6783931255340576,0.4910096526145935,2.9153172969818115,2.725189447402954,1.0383208990097046,8.40168285369873,6.030449390411377,0.004421132616698742,0.0799851045012474,-0.03972529619932175,31.31502342224121,-21.471763610839844,-11.938253402709961,0.22604811191558838,0.24751567840576172,0.16380739212036133,0.8122727870941162,8.154167175292969,5.866641998291016
1_20251106_212354,1762435400583,1,0.5756604671478271,0.3277759253978729,0.3178664445877075,0.6783353686332703,0.4899303615093231,2.9143028259277344,2.7247955799102783,0.7175116539001465,8.094040870666504,5.676122665405273,0.004421132616698742,0.0799851045012474,-0.03972529619932175,31.286619186401367,-21.548423767089844,-11.967850685119629,-0.09454751014709473,-0.0756378173828125,-0.14491558074951172,0.8120591640472412,8.169678688049316,5.821038246154785
1_20251106_212354,1762435400602,1,0.5758171677589417,0.3277561068534851,0.318450391292572,0.677937924861908,0.4899303615093231,2.9143028259277344,2.7247955799102783,0.7175116539001465,8.094040870666504,5.676122665405273,0.017860157415270805,0.03722456842660904,0.005478694103658199,31.2687931060791,-21.649673461914062,-11.970453262329102,-0.09454751014709473,-0.0756378173828125,-0.14491558074951172,0.8120591640472412,8.169678688049316,5.821038246154785
1_20251106_212354,1762435400621,1,0.5758498907089233,0.3278166651725769,0.3188028335571289,0.6777151823043823,0.4887848496437073,2.913297653198242,2.7236440181732178,0.6624473929405212,8.044961929321289,5.588738441467285,-0.004130973480641842,0.009735655970871449,0.05190441384911537,31.240995407104492,-21.713912963867188,-11.9862699508667,-0.11968940496444702,-0.09977340698242188,-0.18584012985229492,0.7821367979049683,8.144735336303711,5.77457857131958
1_20251106_212354,1762435400640,1,0.5757308602333069,0.32804983854293823,0.31882044672966003,0.6776952147483826,0.4870189130306244,2.9120113849639893,2.7210047245025635,0.8695369362831116,8.252052307128906,5.76231050491333,-0.037117667496204376,0.01767689734697342,0.038465388119220734,31.1052303314209,-21.759780883789062,-12.04652214050293,0.07049214839935303,0.07998275756835938,0.011684417724609375,0.7990447878837585,8.172069549560547,5.750626087188721
1_20251106_212354,1762435400661,1,0.5757359266281128,0.3281799554824829,0.31863126158714294,0.6777169108390808,0.4864344000816345,2.9118173122406006,2.720410108566284,0.8575664162635803,8.274795532226562,5.98256778717041,-0.06460657715797424,0.0341702476143837,0.010365611873567104,31.114103317260742,-21.809890747070312,-11.979506492614746,0.04681730270385742,0.08218097686767578,0.18555307388305664,0.8107491135597229,8.192614555358887,5.7970147132873535
1_20251106_212354,1762435400681,1,0.5759076476097107,0.32799288630485535,0.3183169960975647,0.6778092384338379,0.4859400689601898,2.911824941635132,2.7207274436950684,0.8228520154953003,8.259233474731445,6.10825777053833,-0.035895936191082,0.03600284084677696,-0.0024625472724437714,31.133441925048828,-21.896339416503906,-11.966856956481934,0.009682297706604004,0.053295135498046875,0.2489943504333496,0.8131697177886963,8.205938339233398,5.8592634201049805
1_20251106_212354,1762435400698,1,0.5759792327880859,0.3276449739933014,0.3181692957878113,0.6779859662055969,0.48549044132232666,2.9119620323181152,2.7215871810913086,0.820457935333252,8.25324821472168,6.062769889831543,0.005031997337937355,0.03355938196182251,-0.001240817829966545,31.09809684753418,-21.873878479003906,-11.940768241882324,0.005830585956573486,0.03784751892089844,0.16280508041381836,0.8146273493766785,8.215400695800781,5.899964809417725
1_20251106_212354,1762435400717,1,0.5758928060531616,0.32734301686286926,0.31823620200157166,0.678173840045929,0.4850333333015442,2.9120876789093018,2.7224040031433105,0.8036991953849792,8.213746070861816,5.899971008300781,0.005031997337937355,0.03355938196182251,-0.001240817829966545,31.09809684753418,-21.873878479003906,-11.940768241882324,-0.00874251127243042,-0.001323699951171875,4.76837158203125e-06,0.8124417066574097,8.215069770812988,5.899966239929199
1_20251106_212354,1762435400736,1,0.5757715106010437,0.3273988664150238,0.31835246086120605,0.6781952977180481,0.48454880714416504,2.912476062774658,2.72294020652771,0.7941228151321411,8.313100814819336,5.812586784362793,0.044127337634563446,-3.817921970039606e-05,0.02258290722966194,31.06386375427246,-21.826705932617188,-11.873601913452148,-0.014655113220214844,0.07842445373535156,-0.06990337371826172,0.808777928352356,8.234676361083984,5.882490158081055
1_20251106_212354,1762435400756,1,0.5755889415740967,0.32778677344322205,0.3185068368911743,0.6780903935432434,0.48454880714416504,2.912476062774658,2.72294020652771,0.7941228151321411,8.313100814819336,5.812586784362793,0.04534906893968582,0.016455167904496193,0.0012026410549879074,31.024288177490234,-21.87958526611328,-11.849096298217773,-0.014655113220214844,0.07842445373535156,-0.06990337371826172,0.808777928352356,8.234676361083984,5.882490158081055
1_20251106_212354,1762435400775,1,0.575546145439148,0.3281659185886383,0.3189164698123932,0.6777507066726685,0.4828929603099823,2.9137892723083496,2.7231802940368652,0.6612503528594971,8.205366134643555,5.786251544952393,0.025190534070134163,0.06898953765630722,-0.024453677237033844,30.987531661987305,-21.882240295410156,-11.823534965515137,-0.10744160413742065,-0.04193305969238281,-0.0614013671875,0.7686919569969177,8.247299194335938,5.847652912139893
1_20251106_212354,1762435400793,1,0.5755921602249146,0.328012615442276,0.3196377158164978,0.6774460077285767,0.48167553544044495,2.913771629333496,2.7230560779571533,0.631324052810669,8.040173530578613,5.795827865600586,0.004421132616698742,0.09159153699874878,-0.012236381880939007,30.963468551635742,-21.871810913085938,-11.770186424255371,-0.10989433526992798,-0.16569995880126953,-0.04146003723144531,0.7412183880805969,8.205873489379883,5.837287902832031
1_20251106_212354,1762435400812,1,0.5755460262298584,0.3274427354335785,0.32031235098838806,0.6774422526359558,0.48167553544044495,2.913771629333496,2.7230560779571533,0.631324052810669,8.040173530578613,5.795827865600586,0.006253726780414581,0.06593520939350128,0.040908847004175186,30.988460540771484,-21.84618377685547,-11.660547256469727,-0.10989433526992798,-0.16569995880126953,-0.04146003723144531,0.7412183880805969,8.205873489379883,5.837287902832031
1_20251106_212354,1762435400831,1,0.5751073360443115,0.3270041346549988,0.3206790089607239,0.6778531074523926,0.4801692068576813,2.913132905960083,2.7231884002685547,0.6684325933456421,8.00186824798584,5.923912048339844,0.028244858607649803,0.03966803103685379,0.08305851370096207,30.977684020996094,-21.821861267089844,-11.660510063171387,-0.05822861194610596,-0.16320419311523438,0.06929922103881836,0.726661205291748,8.165072441101074,5.854612827301025
1_20251106_212354,1762435400850,1,0.5744384527206421,0.3268835246562958,0.3207480311393738,0.6784455180168152,0.4784475862979889,2.9114863872528076,2.7233009338378906,0.9425569176673889,8.162273406982422,5.852088928222656,0.028244858607649803,0.03966803103685379,0.08305851370096207,30.941125869750977,-21.824241638183594,-11.661981582641602,0.16153967380523682,0.01621246337890625,0.00164031982421875,0.7810172438621521,8.146060943603516,5.8504486083984375
1_20251106_212354,1762435400869,1,0.573853611946106,0.32726728916168213,0.32045066356658936,0.6788957715034485,0.4786507189273834,2.910935878753662,2.7235782146453857,1.0574736595153809,8.220928192138672,5.931094646453857,0.017860155552625656,0.004237873945385218,0.09466494619846344,30.984922409057617,-21.920578002929688,-11.756745338439941,0.22116518020629883,0.05989360809326172,0.06451702117919922,0.836308479309082,8.16103458404541,5.866577625274658
1_20251106_212354,1762435400888,1,0.573519229888916,0.327661395072937,0.3199739456176758,0.6792130470275879,0.4793322682380676,2.91048526763916,2.724173069000244,1.014379858970642,8.187411308288574,5.987356185913086,-0.01634826883673668,0.021952951326966286,-0.008571195416152477,30.983104705810547,-21.957847595214844,-11.798086166381836,0.14245706796646118,0.021101951599121094,0.09662294387817383,0.8719227910041809,8.166309356689453,5.890733242034912
1_20251106_212354,1762435400908,1,0.5736233592033386,0.3277594745159149,0.31961503624916077,0.6792467832565308,0.4799264967441559,2.909640312194824,2.7251017093658447,0.8432018756866455,8.036582946777344,6.000523567199707,0.003199402242898941,0.032337650656700134,-0.0525534562766552,31.00436019897461,-22.00688934326172,-11.757612228393555,-0.02297675609588623,-0.10378074645996094,0.08783197402954102,0.8661786317825317,8.140363693237305,5.912691593170166
1_20251106_212354,1762435400927,1,0.5738623738288879,0.327602356672287,0.3196013569831848,0.6791270971298218,0.479854553937912,2.908501148223877,2.725790023803711,0.6444916129112244,8.00306510925293,5.858074188232422,0.027633992955088615,0.04333321750164032,-0.043390482664108276,31.025405883789062,-22.06781768798828,-11.78498363494873,-0.17734962701797485,-0.10983848571777344,-0.04369401931762695,0.8218412399291992,8.112903594970703,5.901768207550049
1_20251106_212354,1762435400945,1,0.5739193558692932,0.32719385623931885,0.3198990523815155,0.6791357398033142,0.47927647829055786,2.9070932865142822,2.7258007526397705,0.6133683919906616,7.957576751708984,5.654576301574707,0.027633992955088615,0.04333321750164032,-0.043390482664108276,31.023080825805664,-22.11737060546875,-11.853620529174805,-0.1667783260345459,-0.12426185607910156,-0.1977534294128418,0.7801467180252075,8.081838607788086,5.852329730987549
1_20251106_212354,1762435400965,1,0.5738542675971985,0.32687172293663025,0.3204161524772644,0.6791020631790161,0.478326678276062,2.9051969051361084,2.7247560024261475,0.6684325933456421,7.946804046630859,5.504944801330566,0.01602756418287754,0.02745073288679123,0.04335230588912964,31.042308807373047,-22.215560913085938,-11.922332763671875,-0.08937132358551025,-0.10802745819091797,-0.2779078483581543,0.7578039169311523,8.054831504821777,5.782852649688721
1_20251106_212354,1762435400984,1,0.5736706852912903,0.3268842101097107,0.3206314444541931,0.6791495680809021,0.478326678276062,2.9051969051361084,2.7247560024261475,0.6684325933456421,7.946804046630859,5.504944801330566,-0.010850485414266586,-0.031192278489470482,0.08550197631120682,30.979461669921875,-22.256935119628906,-11.952609062194824,-0.08937132358551025,-0.10802745819091797,-0.2779078483581543,0.7578039169311523,8.054831504821777,5.782852649688721
1_20251106_212354,1762435401003,1,0.5734332799911499,0.3274478614330292,0.32027655839920044,0.6792459487915039,0.4767189621925354,2.901434898376465,2.7230465412139893,0.8348225355148315,8.055734634399414,5.937079906463623,-0.012072214856743813,-0.03546833246946335,0.09588667750358582,31.01490592956543,-22.279258728027344,-11.99221420288086,0.06652939319610596,0.014943122863769531,0.1331806182861328,0.7682931423187256,8.040791511535645,5.80389928817749
1_20251106_212354,1762435401022,1,0.5731134414672852,0.32789021730422974,0.31968724727630615,0.6795800924301147,0.47655731439590454,2.9000699520111084,2.7227885723114014,0.9461480975151062,8.146711349487305,5.917926788330078,-0.012683079577982426,0.02745073102414608,0.061067380011081696,30.978063583374023,-22.270431518554688,-11.858259201049805,0.14228397607803345,0.08473587036132812,0.09122228622436523,0.8038641214370728,8.061975479125977,5.826704502105713
1_20251106_212354,1762435401041,1,0.5727496147155762,0.3277519941329956,0.31937041878700256,0.6801022291183472,0.47691020369529724,2.898916006088257,2.7224843502044678,0.9760743379592896,8.156288146972656,5.816177845001221,-0.03956113010644913,0.07082213461399078,0.020750312134623528,30.936275482177734,-22.361122131347656,-11.821029663085938,0.13776814937591553,0.07544994354248047,-0.00842142105102539,0.838306188583374,8.080838203430176,5.824599266052246
1_20251106_212354,1762435401060,1,0.5725324153900146,0.3272789716720581,0.31920474767684937,0.6805905103683472,0.4775311052799225,2.8978383541107178,2.7225544452667236,0.9485421776771545,8.067705154418945,5.950247287750244,-0.047502368688583374,0.04150062054395676,0.006089558359235525,30.889249801635742,-22.327171325683594,-11.768134117126465,0.08818882703781128,-0.010506629943847656,0.10051870346069336,0.8603533506393433,8.078211784362793,5.849728584289551
1_20251106_212354,1762435401079,1,0.5725043416023254,0.32706373929977417,0.3189268112182617,0.6808478832244873,0.47816917300224304,2.8968021869659424,2.7231266498565674,0.8779162764549255,8.073690414428711,6.034040451049805,-0.0255112387239933,0.01706603355705738,0.008533017709851265,30.803354263305664,-22.333541870117188,-11.690469741821289,0.01405036449432373,-0.0036172866821289062,0.14744949340820312,0.8638659119606018,8.07730770111084,5.886590957641602
1_20251106_212354,1762435401099,1,0.5724372863769531,0.3268868029117584,0.31857046484947205,0.6811559796333313,0.4788026213645935,2.8958933353424072,2.7238924503326416,0.8623546361923218,8.119178771972656,5.950247764587402,-0.021235186606645584,0.021952951326966286,0.015863394364714622,30.738998413085938,-22.400161743164062,-11.707757949829102,-0.0012090206146240234,0.033496856689453125,0.050925254821777344,0.8635636568069458,8.085681915283203,5.899322509765625
1_20251106_212354,1762435401120,1,0.5723041892051697,0.3265516459941864,0.3182937800884247,0.681557834148407,0.47926607728004456,2.895066261291504,2.7246181964874268,0.8180637955665588,8.097631454467773,5.898774147033691,-0.021846050396561623,0.025618137791752815,0.015863394364714622,30.72751808166504,-22.388397216796875,-11.707984924316406,-0.036399900913238525,0.00955963134765625,-0.000438690185546875,0.8544636964797974,8.088071823120117,5.899212837219238
1_20251106_212354,1762435401138,1,0.5722735524177551,0.32634517550468445,0.31809160113334656,0.681776762008667,0.4795418083667755,2.8944315910339355,2.7251834869384766,0.8025021553039551,8.128755569458008,5.866454124450684,-0.029787292703986168,0.04027889668941498,0.03541106358170509,30.736799240112305,-22.426353454589844,-11.6001558303833,-0.04156923294067383,0.0325469970703125,-0.02620697021484375,0.8440713882446289,8.096208572387695,5.892661094665527
1_20251106_212354,1762435401156,1,0.5721142888069153,0.3260542154312134,0.31793567538261414,0.6821222305297852,0.4798821210861206,2.8939521312713623,2.7257161140441895,0.881507396697998,8.133543968200684,5.902365207672119,-0.03528507426381111,0.02073122002184391,0.07694986462593079,30.736799240112305,-22.426353454589844,-11.6001558303833,0.029948770999908447,0.029868125915527344,0.007763385772705078,0.8515586256980896,8.103675842285156,5.894601821899414
1_20251106_212354,1762435401177,1,0.5716981291770935,0.32598569989204407,0.317616730928421,0.6826523542404175,0.48096951842308044,2.8935370445251465,2.726577043533325,1.0634589195251465,8.13833236694336,5.975385665893555,-0.020624320954084396,-0.0012599086621776223,0.09588667750358582,30.740039825439453,-22.35236358642578,-11.463409423828125,0.16952019929885864,0.0277252197265625,0.06462717056274414,0.8939387202262878,8.110607147216797,5.9107584953308105
1_20251106_212354,1762435401194,1,0.5711862444877625,0.32625967264175415,0.3171110451221466,0.683184802532196,0.48236480355262756,2.893360137939453,2.727323293685913,1.148449420928955,8.175440788269043,5.949049949645996,-0.0035201087594032288,0.0017944149440154433,0.06289997696876526,30.65383529663086,-22.370750427246094,-11.44007396697998,0.20360851287841797,0.05186653137207031,0.03063344955444336,0.9448409080505371,8.123574256896973,5.918416500091553
1_20251106_212354,1762435401214,1,0.5707217454910278,0.3266197741031647,0.3166247606277466,0.6836263537406921,0.4843539595603943,2.893254518508911,2.727999448776245,1.08620285987854,8.153894424438477,5.866454124450684,-0.00962875597178936,0.018898626789450645,0.01341993547976017,30.65565299987793,-22.333480834960938,-11.398733139038086,0.11308956146240234,0.024255752563476562,-0.04156970977783203,0.9731132984161377,8.129638671875,5.908023834228516
1_20251106_212354,1762435401234,1,0.5705225467681885,0.3268343210220337,0.3163009583950043,0.6838399171829224,0.48621970415115356,2.8931634426116943,2.7287354469299316,0.9988182783126831,8.131149291992188,5.953838348388672,-0.03528507798910141,0.025618137791752815,-0.005516870878636837,30.66693687438965,-22.34551239013672,-11.371474266052246,0.020563960075378418,0.0012083053588867188,0.036651611328125,0.9782543182373047,8.1299409866333,5.917186737060547
1_20251106_212354,1762435401253,1,0.5704981088638306,0.3267918825149536,0.31604260206222534,0.6840000748634338,0.4879631996154785,2.8931000232696533,2.729929208755493,0.9676949977874756,8.13833236694336,6.097484588623047,-0.04811323434114456,0.025007274001836777,0.012809070758521557,30.69977378845215,-22.40618133544922,-11.344289779663086,-0.008447408676147461,0.006712913513183594,0.14423847198486328,0.976142406463623,8.131619453430176,5.953246116638184
1_20251106_212354,1762435401271,1,0.5704636573791504,0.32654663920402527,0.3156641125679016,0.6843205690383911,0.48969486355781555,2.8931829929351807,2.731261968612671,1.0036064386367798,8.183820724487305,6.025661468505859,-0.04811323434114456,0.025007274001836777,0.012809070758521557,30.713382720947266,-22.36865997314453,-11.248394012451172,0.02197122573852539,0.04176139831542969,0.05793190002441406,0.9816352128982544,8.142059326171875,5.967729568481445
1_20251106_212354,1762435401291,1,0.5701583027839661,0.3265315592288971,0.3152156472206116,0.6847888231277466,0.49171164631843567,2.893669366836548,2.7327635288238525,1.0754294395446777,8.274795532226562,6.023266792297363,-0.018180862069129944,-0.003703367430716753,0.04579576477408409,30.616710662841797,-22.3507080078125,-11.170692443847656,0.07503533363342285,0.10618877410888672,0.044429779052734375,1.0003941059112549,8.168606758117676,5.978837013244629
1_20251106_212354,1762435401309,1,0.5698379278182983,0.32722538709640503,0.31461820006370544,0.6849990487098694,0.49386247992515564,2.8944411277770996,2.7341980934143066,1.173587441444397,8.313100814819336,6.04002571105957,0.009308049455285072,-0.05196167528629303,0.0708412230014801,30.57743263244629,-22.403182983398438,-11.186736106872559,0.13855469226837158,0.11559486389160156,0.048951148986816406,1.0350327491760254,8.197505950927734,5.991074562072754
1_20251106_212354,1762435401329,1,0.5695803761482239,0.32801932096481323,0.31411847472190857,0.685062825679779,0.49644118547439575,2.895570755004883,2.735450029373169,1.1364789009094238,8.301130294799805,5.904759407043457,0.01602756232023239,-0.018974987789988518,-0.005516869947314262,30.5113582611084,-22.506935119628906,-11.258881568908691,0.08115684986114502,0.08289909362792969,-0.06905174255371094,1.0553220510482788,8.218231201171875,5.973811149597168
1_20251106_212354,1762435401347,1,0.5695174336433411,0.3285022974014282,0.31391891837120056,0.684975266456604,0.4984508454799652,2.896484136581421,2.736196994781494,0.9760742783546448,8.19698715209961,5.842513084411621,-0.009017891250550747,-0.0006490439409390092,-0.04888826608657837,30.556577682495117,-22.566543579101562,-11.25823974609375,-0.06339818239212036,-0.01699542999267578,-0.10503864288330078,1.0394724607467651,8.213982582092285,5.947551727294922
1_20251106_212354,1762435401367,1,0.5698620080947876,0.32872793078422546,0.3138696253299713,0.6846028566360474,0.49994730949401855,2.89709734916687,2.7370781898498535,0.8503841161727905,8.103617668151855,5.995735168457031,-0.034063346683979034,0.004848738666623831,-0.04644480720162392,30.567241668701172,-22.60260772705078,-11.339638710021973,-0.15127062797546387,-0.08829212188720703,0.03854656219482422,1.0016547441482544,8.191909790039062,5.957188606262207
1_20251106_212354,1762435401386,1,0.5702923536300659,0.32859495282173157,0.3138407766819,0.6843215227127075,0.49994730949401855,2.89709734916687,2.7370781898498535,0.8503841161727905,8.103617668151855,5.995735168457031,-0.005352702923119068,-0.01836412213742733,-0.015290706418454647,30.552927017211914,-22.652687072753906,-11.435798645019531,-0.15127062797546387,-0.08829212188720703,0.03854656219482422,1.0016547441482544,8.191909790039062,5.957188606262207
1_20251106_212354,1762435401405,1,0.5705840587615967,0.3285113573074341,0.3137396275997162,0.6841648817062378,0.5008390545845032,2.8970961570739746,2.7383294105529785,0.7989109754562378,7.999474048614502,6.0543904304504395,-0.005352702923119068,-0.01836412213742733,-0.015290706418454647,30.55443572998047,-22.62744140625,-11.448786735534668,-0.16219502687454224,-0.15394830703735352,0.07776165008544922,0.96110600233078,8.153422355651855,5.97662878036499
1_20251106_212354,1762435401424,1,0.5705782771110535,0.3287501335144043,0.313549667596817,0.6841421127319336,0.5014117956161499,2.896031379699707,2.740001916885376,0.8623546361923218,8.048552513122559,5.897577285766602,0.02274707518517971,-0.06784415990114212,0.040908847004175186,30.568130493164062,-22.601402282714844,-11.461284637451172,-0.05783814191818237,-0.057539939880371094,-0.056912899017333984,0.9201927781105042,8.10609245300293,5.9544901847839355
1_20251106_212354,1762435401442,1,0.5704842805862427,0.3292112350463867,0.31323689222335815,0.684141993522644,0.5015327334403992,2.8955178260803223,2.740912437438965,0.9006602168083191,8.127557754516602,6.054390907287598,-0.027954697608947754,-0.020807581022381783,0.024415500462055206,30.66460418701172,-22.61962127685547,-11.511954307556152,-0.015626072883605957,0.017171859741210938,0.07992076873779297,0.916286289691925,8.11038589477539,5.974470138549805
1_20251106_212354,1762435401462,1,0.5705970525741577,0.3292044997215271,0.3128914535045624,0.6842092871665955,0.5016201734542847,2.8949806690216064,2.742607831954956,0.9030542969703674,8.1119966506958,6.215991973876953,-0.02306777983903885,0.023174678906798363,0.0018135057762265205,30.66499900817871,-22.61907958984375,-11.566019058227539,-0.010585606098175049,0.0012884140014648438,0.19321727752685547,0.9136399030685425,8.110708236694336,6.022774696350098
1_20251106_212354,1762435401481,1,0.570663332939148,0.32879704236984253,0.31280988454818726,0.68438720703125,0.5015479922294617,2.8943564891815186,2.7440998554229736,0.8539752960205078,8.0437650680542,6.04002571105957,0.025190534070134163,0.010346520692110062,0.004867828916758299,30.6648006439209,-22.619346618652344,-11.538986206054688,-0.047731637954711914,-0.053554534912109375,0.013801097869873047,0.9017069339752197,8.097319602966309,6.026224613189697
1_20251106_212354,1762435401500,1,0.5705101490020752,0.3285331428050995,0.31288662552833557,0.6846064925193787,0.5012211799621582,2.8936331272125244,2.7452945709228516,0.819260835647583,8.076085090637207,5.901167869567871,0.025190534070134163,0.010346520692110062,0.004867828916758299,30.657140731811523,-22.544395446777344,-11.578441619873047,-0.06595689058303833,-0.01698780059814453,-0.10004520416259766,0.8852177262306213,8.093072891235352,6.001213073730469
1_20251106_212354,1762435401519,1,0.5703375935554504,0.3287188708782196,0.31283608078956604,0.6846842765808105,0.5008437633514404,2.8929433822631836,2.746279001235962,0.855172336101532,8.079675674438477,5.967005729675293,0.00014507956802845,-0.03424660116434097,0.04946095496416092,30.59571647644043,-22.549041748046875,-11.513312339782715,-0.024036288261413574,-0.010717391967773438,-0.027365684509277344,0.8792086243629456,8.09039306640625,5.99437141418457
1_20251106_212354,1762435401540,1,0.5703247785568237,0.3290225863456726,0.31256845593452454,0.6846712231636047,0.5007721781730652,2.892251491546631,2.747377395629883,0.9760743379592896,8.100027084350586,6.013690948486328,0.00014507956802845,-0.03424660116434097,0.04946095496416092,30.59571647644043,-22.549041748046875,-11.513312339782715,0.07749253511428833,0.0077075958251953125,0.015455245971679688,0.8985818028450012,8.09231948852539,5.998235702514648
1_20251106_212354,1762435401559,1,0.5701900720596313,0.32909074425697327,0.3124413788318634,0.6848086714744568,0.5009593963623047,2.8916451930999756,2.7478647232055664,0.9892418384552002,8.088055610656738,5.83173942565918,0.027023127302527428,0.0011835502227768302,0.0299132838845253,30.478185653686523,-22.48150634765625,-11.530149459838867,0.07252800464630127,-0.0034112930297851562,-0.13319730758666992,0.9167138338088989,8.091466903686523,5.96493673324585
1_20251106_212354,1762435401576,1,0.5699867010116577,0.32929110527038574,0.3124106526374817,0.6848956942558289,0.5011883974075317,2.8910934925079346,2.748002052307129,0.9485421776771545,8.074888229370117,5.838921546936035,0.013584103435277939,-0.01897498592734337,0.03052414581179619,30.478185653686523,-22.48150634765625,-11.530149459838867,0.025462687015533447,-0.013262748718261719,-0.10081195831298828,0.9230794906616211,8.088150978088379,5.939733505249023
1_20251106_212354,1762435401596,1,0.5698299407958984,0.32971787452697754,0.31230518221855164,0.6848689317703247,0.5015981793403625,2.890272617340088,2.747903823852539,0.9736802577972412,8.021020889282227,5.856877326965332,0.003810267895460129,-0.017753254622220993,0.03602192923426628,30.414535522460938,-22.535568237304688,-11.547173500061035,0.040480613708496094,-0.053704261779785156,-0.0662846565246582,0.9331996440887451,8.074725151062012,5.92316198348999
1_20251106_212354,1762435401615,1,0.5697212815284729,0.33004021644592285,0.3121456205844879,0.6848767995834351,0.5021119117736816,2.889315605163574,2.747321367263794,0.9856507182121277,7.995882511138916,5.743157863616943,0.01969275064766407,-0.02508363127708435,0.03235674276947975,30.376667022705078,-22.56292724609375,-11.562688827514648,0.041960835456848145,-0.06307363510131836,-0.14400339126586914,0.9436898827552795,8.058956146240234,5.8871612548828125
1_20251106_212354,1762435401635,1,0.5697068572044373,0.3304975628852844,0.31194183230400085,0.684761106967926,0.5027807950973511,2.8883252143859863,2.746005058288574,1.0095916986465454,8.029399871826172,5.60908842086792,0.004421131685376167,-0.04157697781920433,0.03968711569905281,30.37566566467285,-22.575889587402344,-11.522403717041016,0.052721500396728516,-0.023645401000976562,-0.2224583625793457,0.9568701982498169,8.053045272827148,5.831546783447266
1_20251106_212354,1762435401654,1,0.569532036781311,0.3310098648071289,0.31168001890182495,0.6847782731056213,0.5036134123802185,2.887516498565674,2.7446959018707275,1.0287444591522217,8.10122299194336,5.810192108154297,-0.03833939880132675,-0.06723329424858093,0.03602192923426628,30.361055374145508,-22.626373291015625,-11.578015327453613,0.05749940872192383,0.03854179382324219,-0.01708364486694336,0.9712450504302979,8.062681198120117,5.82727575302124
1_20251106_212354,1762435401672,1,0.5697028636932373,0.3316757082939148,0.3110518753528595,0.6845996379852295,0.5045030117034912,2.8869788646698,2.7442593574523926,1.007197618484497,8.146711349487305,6.121425628662109,-0.040782853960990906,-0.05257254093885422,0.004867829382419586,30.33155059814453,-22.71613311767578,-11.553811073303223,0.02876204252243042,0.06722354888916016,0.2353196144104004,0.9784355759620667,8.079487800598145,5.886106014251709
1_20251106_212354,1762435401691,1,0.5699715614318848,0.33195576071739197,0.31052330136299133,0.6844801306724548,0.5052562952041626,2.8868298530578613,2.744335889816284,0.944951057434082,8.21135139465332,6.065164089202881,-0.02001345530152321,0.0030161445029079914,-0.03544924035668373,30.381309509277344,-22.688377380371094,-11.4972562789917,-0.026787638664245605,0.10549068450927734,0.14324665069580078,0.9717386960983276,8.105860710144043,5.92191743850708
1_20251106_212354,1762435401710,1,0.5702298879623413,0.3315257430076599,0.3104369640350342,0.6845126152038574,0.5055962800979614,2.886770725250244,2.74416446685791,0.8348225355148315,8.13593864440918,5.8329362869262695,-0.02001345530152321,0.0030161445029079914,-0.03544924035668373,30.354328155517578,-22.728309631347656,-11.431447982788086,-0.10953295230865479,0.024062156677246094,-0.07118511199951172,0.9443554878234863,8.111876487731934,5.904121398925781
1_20251106_212354,1762435401730,1,0.5705575346946716,0.3311154544353485,0.31067144870758057,0.6843317747116089,0.5055760145187378,2.8867084980010986,2.743638753890991,0.819260835647583,8.109602928161621,5.771886825561523,-0.02612210251390934,-0.008590285666286945,-0.024453677237033844,30.354822158813477,-22.727638244628906,-11.499029159545898,-0.10007572174072266,-0.0018186569213867188,-0.10578775405883789,0.9193365573883057,8.111421585083008,5.877674579620361
1_20251106_212354,1762435401749,1,0.5709449052810669,0.3309239447116852,0.31076183915138245,0.6840602159500122,0.5052515268325806,2.886404037475586,2.7432682514190674,0.819260835647583,8.031794548034668,5.9287004470825195,-0.02612210251390934,-0.008590285666286945,-0.024453677237033844,30.390478134155273,-22.738082885742188,-11.470788955688477,-0.08006060123443604,-0.06370162963867188,0.04082059860229492,0.899321436882019,8.09549617767334,5.887879848480225
1_20251106_212354,1762435401769,1,0.5713744163513184,0.3309486508369446,0.310619056224823,0.6837543845176697,0.5052515268325806,2.886404037475586,2.7432682514190674,0.819260835647583,8.031794548034668,5.9287004470825195,-0.014515673741698265,-0.033635735511779785,0.0030352347530424595,30.376176834106445,-22.77655029296875,-11.472070693969727,-0.08006060123443604,-0.06370162963867188,0.04082059860229492,0.899321436882019,8.09549617767334,5.887879848480225
1_20251106_212354,1762435401787,1,0.5713700652122498,0.3307739794254303,0.3105742037296295,0.6838629245758057,0.5041016936302185,2.8854665756225586,2.74322772026062,0.803699254989624,8.04256820678711,5.891592025756836,0.012973237782716751,-0.03913351893424988,0.004867828916758299,30.36528968811035,-22.76397705078125,-11.553394317626953,-0.06579482555389404,-0.03406524658203125,-0.014670372009277344,0.8694940805435181,8.07663345336914,5.906262397766113
1_20251106_212354,1762435401807,1,0.5715073347091675,0.330843061208725,0.31050971150398254,0.6837440729141235,0.5041016936302185,2.8854665756225586,2.74322772026062,0.803699254989624,8.04256820678711,5.891592025756836,-0.010239620693027973,-0.012866337783634663,0.0018135053105652332,30.39520263671875,-22.662071228027344,-11.536785125732422,-0.06579482555389404,-0.03406524658203125,-0.014670372009277344,0.8694940805435181,8.07663345336914,5.906262397766113
1_20251106_212354,1762435401825,1,0.5718249082565308,0.3307616412639618,0.3104695677757263,0.683536171913147,0.5016823410987854,2.8843331336975098,2.7423455715179443,0.6887824535369873,8.034188270568848,5.819768905639648,-0.010239620693027973,-0.012866337783634663,0.0018135053105652332,30.42118263244629,-22.635101318359375,-11.562309265136719,-0.12216740846633911,-0.031378746032714844,-0.051908016204833984,0.8109498620033264,8.065567016601562,5.871676921844482
1_20251106_212354,1762435401843,1,0.5722180604934692,0.3304431140422821,0.31034398078918457,0.6834182143211365,0.500328779220581,2.883983850479126,2.7421212196350098,0.7665906548500061,8.144316673278809,5.969399929046631,-0.060941390693187714,0.00668133283033967,0.047628358006477356,30.392568588256836,-22.723648071289062,-11.659751892089844,-0.035487353801727295,0.06299972534179688,0.07817840576171875,0.8020780086517334,8.081316947937012,5.891221523284912
1_20251106_212354,1762435401864,1,0.572388768196106,0.3300594389438629,0.31010836362838745,0.6835676431655884,0.4990025460720062,2.884249210357666,2.742704153060913,0.8539752960205078,8.275993347167969,6.139381408691406,-0.03345248103141785,-0.023251038044691086,0.05679132789373398,30.404542922973633,-22.73473358154297,-11.727107048034668,0.04151785373687744,0.15574073791503906,0.19852781295776367,0.8124574422836304,8.12025260925293,5.940853595733643
1_20251106_212354,1762435401882,1,0.5723015666007996,0.3299756646156311,0.30983659625053406,0.6838042736053467,0.4980100989341736,2.8849873542785645,2.743773937225342,0.8479900360107422,8.332254409790039,6.1824750900268555,0.00991891510784626,-0.020196715369820595,0.040908847004175186,30.42820930480957,-22.745704650878906,-11.72638988494873,0.02842611074447632,0.1696014404296875,0.1932969093322754,0.8195639252662659,8.162652969360352,5.98917818069458
