session_id,timestamp,label,quaternion_w,quaternion_x,quaternion_y,quaternion_z,position_x,position_y,position_z,accelerometer_x,accelerometer_y,accelerometer_z,gyroscope_x,gyroscope_y,gyroscope_z,magnetometer_x,magnetometer_y,magnetometer_z,linear_acceleration_x,linear_acceleration_y,linear_acceleration_z,gravity_x,gravity_y,gravity_z
2_20251106_213647,1762436170483,2,0.34934866428375244,0.4960121810436249,0.6342800259590149,0.4791829586029053,0.3400236964225769,3.0215883255004883,1.0707982778549194,-0.034235358238220215,9.311440467834473,-2.880385637283325,0.004127155989408493,0.06262127310037613,0.25245511531829834,25.746938705444336,-16.7650146484375,16.50698471069336,0.10108041763305664,0.5967512130737305,-0.386005163192749,-0.13531577587127686,8.714689254760742,-2.494380474090576
2_20251106_213647,1762436170502,2,0.3475381135940552,0.496713250875473,0.6337162256240845,0.48051732778549194,0.32823166251182556,3.024991512298584,1.0374515056610107,0.22552436590194702,9.53887939453125,-3.089869499206543,-0.00625754427164793,0.06811905652284622,0.2994917035102844,25.69586944580078,-16.81774139404297,16.436386108398438,0.2886721193790436,0.6593523025512695,-0.4763913154602051,-0.06314775347709656,8.87952709197998,-2.613478183746338
2_20251106_213647,1762436170521,2,0.34548667073249817,0.49765920639038086,0.632906973361969,0.4820820391178131,0.31861600279808044,3.030404567718506,1.0045044422149658,0.5152103304862976,9.674145698547363,-3.075504779815674,-0.0019814912229776382,0.03574322164058685,0.31903937458992004,25.666563034057617,-16.9072265625,16.433555603027344,0.4626864790916443,0.6356945037841797,-0.36962127685546875,0.05252385511994362,9.038451194763184,-2.705883502960205
2_20251106_213647,1762436170540,2,0.34343093633651733,0.4988666772842407,0.6319522261619568,0.4835531413555145,0.3114435076713562,3.0377869606018066,0.972413957118988,0.767787754535675,9.854900360107422,-2.994105339050293,-0.0019814912229776382,0.03574322164058685,0.31903937458992004,25.62447738647461,-16.998313903808594,16.511333465576172,0.5722111463546753,0.6531591415405273,-0.2305774688720703,0.19557662308216095,9.201741218566895,-2.7635278701782227
2_20251106_213647,1762436170559,2,0.3414182662963867,0.5001543164253235,0.6309409737586975,0.4849667251110077,0.3067381680011749,3.0469141006469727,0.9413840174674988,0.9641038179397583,9.972211837768555,-2.961785078048706,-0.00625754427164793,0.03024543821811676,0.2915504574775696,25.53494644165039,-17.07921600341797,16.506317138671875,0.6148217916488647,0.6163768768310547,-0.15860581398010254,0.34928205609321594,9.3558349609375,-2.8031792640686035
2_20251106_213647,1762436170579,2,0.33947062492370605,0.5012076497077942,0.6300332546234131,0.48642435669898987,0.304029256105423,3.058286190032959,0.9103704690933228,1.0060005187988281,10.094310760498047,-2.7977893352508545,-0.036189913749694824,0.034521494060754776,0.24268126487731934,25.342992782592773,-17.254371643066406,16.495529174804688,0.5253747701644897,0.5907802581787109,0.004312038421630859,0.4806257486343384,9.503530502319336,-2.8021013736724854
2_20251106_213647,1762436170599,2,0.33791103959083557,0.5019411444664001,0.6291463971138,0.4878995716571808,0.3029799163341522,3.070183515548706,0.8832891583442688,0.9892418384552002,10.099098205566406,-2.470994710922241,-0.055126722902059555,0.047960516065359116,0.19930988550186157,25.174705505371094,-17.44049835205078,16.485458374023438,0.40689289569854736,0.4764537811279297,0.26488518714904785,0.5823489427566528,9.622644424438477,-2.735879898071289
2_20251106_213647,1762436170618,2,0.33654460310935974,0.5022236108779907,0.6284389495849609,0.48946261405944824,0.3029799163341522,3.070183515548706,0.8832891583442688,0.9892418384552002,10.099098205566406,-2.470994710922241,-0.055126722902059555,0.047960516065359116,0.19930988550186157,25.174705505371094,-17.44049835205078,16.485458374023438,0.40689289569854736,0.4764537811279297,0.26488518714904785,0.5823489427566528,9.622644424438477,-2.735879898071289
2_20251106_213647,1762436170637,2,0.33513709902763367,0.5021384358406067,0.6281325817108154,0.49090686440467834,0.30459535121917725,3.0962607860565186,0.8366215825080872,1.0119857788085938,10.108675003051758,-2.0388598442077637,-0.02152916230261326,0.09682969748973846,0.09179770201444626,25.02094268798828,-17.564659118652344,16.639392852783203,0.2701793909072876,0.3087615966796875,0.4907188415527344,0.7418063879013062,9.79991340637207,-2.529578685760498
2_20251106_213647,1762436170657,2,0.33377423882484436,0.5014898777008057,0.6282978057861328,0.49228498339653015,0.30608710646629333,3.1106863021850586,0.817437469959259,0.8264431953430176,10.218803405761719,-1.6713659763336182,-0.045963749289512634,0.23549596965312958,-0.016936222091317177,24.85407829284668,-17.71405792236328,16.724727630615234,0.06770944595336914,0.3351116180419922,0.6865701675415039,0.7587337493896484,9.883691787719727,-2.357936143875122
2_20251106_213647,1762436170674,2,0.33226218819618225,0.49946126341819763,0.6292566061019897,0.4941421151161194,0.306851327419281,3.1236302852630615,0.8025930523872375,0.5511218309402466,10.131420135498047,-1.7252330780029297,-0.06428968906402588,0.4975569546222687,-0.15499165654182434,24.758399963378906,-17.90770721435547,16.690303802490234,-0.16608953475952148,0.1981830596923828,0.5061624050140381,0.7172113656997681,9.933237075805664,-2.2313954830169678
2_20251106_213647,1762436170694,2,0.33002936840057373,0.495312362909317,0.6315261721611023,0.4969114363193512,0.306851327419281,3.1236302852630615,0.8025930523872375,0.5511218309402466,10.131420135498047,-1.7252330780029297,-0.08811341226100922,0.7767221331596375,-0.24784308671951294,24.655384063720703,-18.002769470214844,16.765628814697266,-0.16608953475952148,0.1981830596923828,0.5061624050140381,0.7172113656997681,9.933237075805664,-2.2313954830169678
2_20251106_213647,1762436170714,2,0.3265717625617981,0.48902490735054016,0.6351050138473511,0.5008464455604553,0.30421775579452515,3.1492273807525635,0.7724485993385315,0.08786368370056152,9.696889877319336,-2.6685080528259277,-0.13637173175811768,0.9984660148620605,-0.223408505320549,24.467981338500977,-18.078948974609375,16.90563201904297,-0.42844724655151367,-0.19339847564697266,-0.3720684051513672,0.5163109302520752,9.890288352966309,-2.2964396476745605
2_20251106_213647,1762436170733,2,0.321826308965683,0.4816134572029114,0.6390610933303833,0.5060407519340515,0.301235169172287,3.160212278366089,0.7551110982894897,0.1979922354221344,9.62865924835205,-3.0826869010925293,-0.180964857339859,1.0528329610824585,-0.04564686119556427,24.32813835144043,-18.15357208251953,17.209793090820312,-0.2546549439430237,-0.2093038558959961,-0.628997802734375,0.4526471793651581,9.837963104248047,-2.4536890983581543
2_20251106_213647,1762436170752,2,0.3165273368358612,0.4755215048789978,0.6416879892349243,0.5117872953414917,0.301235169172287,3.160212278366089,0.7551110982894897,0.1979922354221344,9.62865924835205,-3.0826869010925293,-0.15836286544799805,0.9007276892662048,0.23657262325286865,24.215682983398438,-18.176109313964844,17.488956451416016,-0.2546549439430237,-0.2093038558959961,-0.628997802734375,0.4526471793651581,9.837963104248047,-2.4536890983581543
2_20251106_213647,1762436170770,2,0.3102250099182129,0.4715110957622528,0.6430158615112305,0.5176565647125244,0.2981366515159607,3.1784839630126953,0.7205157279968262,1.1304936408996582,9.899190902709961,-2.9821348190307617,-0.0477963462471962,0.6111777424812317,0.5212355852127075,24.007854461669922,-18.167327880859375,17.76498794555664,0.5253720879554749,0.07193660736083984,-0.3067946434020996,0.6051215529441833,9.827254295349121,-2.675340175628662
2_20251106_213647,1762436170790,2,0.3037795126438141,0.4710858166217804,0.6426390409469604,0.5223133563995361,0.30074524879455566,3.1884539127349854,0.702392578125,1.6787422895431519,10.065581321716309,-2.7834248542785645,-0.0477963462471962,0.6111777424812317,0.5212355852127075,23.758533477783203,-18.24883270263672,18.037700653076172,0.8588966131210327,0.19066143035888672,-0.08646774291992188,0.8198456764221191,9.874919891357422,-2.6969571113586426
2_20251106_213647,1762436170811,2,0.297397643327713,0.47404003143310547,0.6411461234092712,0.5251402854919434,0.30717724561691284,3.198996067047119,0.6850546002388,2.120453357696533,10.22718334197998,-2.7367396354675293,0.2973422408103943,0.019860737025737762,0.8492699861526489,23.49826431274414,-18.283058166503906,18.527240753173828,1.0404860973358154,0.2818107604980469,-0.031826019287109375,1.0799672603607178,9.945372581481934,-2.70491361618042
2_20251106_213647,1762436170828,2,0.29122394323349,0.47950729727745056,0.6391465663909912,0.5260732173919678,0.30717724561691284,3.198996067047119,0.6850546002388,2.120453357696533,10.22718334197998,-2.7367396354675293,0.2973422408103943,0.019860737025737762,0.8492699861526489,23.161157608032227,-18.385101318359375,19.03955078125,1.0404860973358154,0.2818107604980469,-0.031826019287109375,1.0799672603607178,9.945372581481934,-2.70491361618042
2_20251106_213647,1762436170847,2,0.2854255735874176,0.48620688915252686,0.6369515657424927,0.525763988494873,0.32898804545402527,3.2197470664978027,0.6559805870056152,2.80157470703125,10.364843368530273,-2.5428178310394287,0.3999674916267395,-0.10597739368677139,0.8278896808624268,22.699851989746094,-18.556259155273438,19.383441925048828,1.1562227010726929,0.2809104919433594,0.11887192726135254,1.6453520059585571,10.083932876586914,-2.6616897583007812
2_20251106_213647,1762436170865,2,0.279712051153183,0.4925614893436432,0.6349213719367981,0.5253753066062927,0.34435802698135376,3.230198860168457,0.6433985233306885,3.1894187927246094,10.36723804473877,-2.539226531982422,0.36087214946746826,-0.02167806215584278,0.7228209972381592,22.34136962890625,-18.845565795898438,19.702072143554688,1.2352533340454102,0.22664451599121094,0.09797048568725586,1.9541654586791992,10.140593528747559,-2.6371970176696777
2_20251106_213647,1762436170885,2,0.27392250299453735,0.49742257595062256,0.6335699558258057,0.5254772305488586,0.36538875102996826,3.241298198699951,0.6304371356964111,3.5353660583496094,10.162542343139648,-2.5320444107055664,0.35720694065093994,0.03268889710307121,0.5884307026863098,21.92587661743164,-19.075523376464844,19.96550750732422,1.264960527420044,0.017559051513671875,0.0841221809387207,2.2704055309295654,10.144983291625977,-2.616166591644287
2_20251106_213647,1762436170904,2,0.26846590638160706,0.5012090802192688,0.6329035758972168,0.5254983901977539,0.38868027925491333,3.250640869140625,0.6185926198959351,3.841810703277588,9.899190902709961,-2.6697049140930176,0.38775020837783813,0.015584684908390045,0.47236642241477966,21.511186599731445,-19.29278564453125,20.21569061279297,1.2571241855621338,-0.19663429260253906,-0.042830467224121094,2.584686517715454,10.0958251953125,-2.6268744468688965
2_20251106_213647,1762436170924,2,0.2634662687778473,0.5044315457344055,0.6328825950622559,0.5249704122543335,0.41689246892929077,3.258457899093628,0.6063413023948669,4.203319549560547,9.593944549560547,-2.760680675506592,0.44333887100219727,-0.09925787150859833,0.38012585043907166,21.204267501831055,-19.5286865234375,20.537338256835938,1.2949063777923584,-0.4015045166015625,-0.10704493522644043,2.9084131717681885,9.99544906616211,-2.6536357402801514
2_20251106_213647,1762436170944,2,0.25933411717414856,0.5078862905502319,0.6332274079322815,0.5232784748077393,0.44879138469696045,3.2637646198272705,0.5938058495521545,4.585178375244141,9.298273086547852,-2.948617458343506,0.5154209136962891,-0.28923681378364563,0.30865466594696045,20.886262893676758,-19.752288818359375,20.80469512939453,1.3414123058319092,-0.5577411651611328,-0.23598527908325195,3.2437660694122314,9.856014251708984,-2.712632179260254
2_20251106_213647,1762436170961,2,0.25625133514404297,0.512019157409668,0.6337994933128357,0.5200671553611755,0.4761009216308594,3.2659928798675537,0.583565890789032,4.81980037689209,8.928384780883789,-3.0790958404541016,0.5850594639778137,-0.5164784789085388,0.24268127977848053,20.619091033935547,-19.958267211914062,20.885051727294922,1.2608275413513184,-0.7421035766601562,-0.2931709289550781,3.5589728355407715,9.670488357543945,-2.7859249114990234
2_20251106_213647,1762436170980,2,0.25450456142425537,0.5171539783477783,0.6343767046928406,0.5151168704032898,0.4761009216308594,3.2659928798675537,0.583565890789032,4.81980037689209,8.928384780883789,-3.0790958404541016,0.6180461645126343,-0.6801902651786804,0.147386372089386,20.43057632446289,-20.059158325195312,20.983978271484375,1.2608275413513184,-0.7421035766601562,-0.2931709289550781,3.5589728355407715,9.670488357543945,-2.7859249114990234
2_20251106_213647,1762436171000,2,0.2540111541748047,0.5226330757141113,0.6351093649864197,0.5088900327682495,0.549885630607605,3.2619802951812744,0.5552991032600403,4.701292037963867,8.352603912353516,-3.500457286834717,0.6003310680389404,-0.7675438523292542,-0.015103626996278763,20.38033676147461,-20.075965881347656,21.089881896972656,0.7134637832641602,-0.8970727920532227,-0.49924540519714355,3.987828254699707,9.249676704406738,-3.0012118816375732
2_20251106_213647,1762436171020,2,0.25492745637893677,0.5275246500968933,0.6362805366516113,0.5018733739852905,0.549885630607605,3.2619802951812744,0.5552991032600403,4.701292037963867,8.352603912353516,-3.500457286834717,0.6003310680389404,-0.7675438523292542,-0.015103626996278763,20.327667236328125,-19.929527282714844,21.117630004882812,0.7134637832641602,-0.8970727920532227,-0.49924540519714355,3.987828254699707,9.249676704406738,-3.0012118816375732
2_20251106_213647,1762436171040,2,0.2573787569999695,0.5310840606689453,0.6380177140235901,0.4946102201938629,0.6209919452667236,3.243422031402588,0.5208187699317932,3.8908896446228027,7.647541046142578,-3.996035575866699,0.3895828127861023,-0.795032799243927,-0.4451524019241333,20.370569229125977,-19.814132690429688,21.121475219726562,-0.14286518096923828,-1.074972152709961,-0.669438362121582,4.033754825592041,8.722513198852539,-3.326597213745117
2_20251106_213647,1762436171058,2,0.2615363597869873,0.5329627990722656,0.6402410864830017,0.48748406767845154,0.6483123302459717,3.230409860610962,0.5037033557891846,3.212162494659424,7.29800271987915,-4.000823974609375,0.23931007087230682,-0.7559374570846558,-0.6510137915611267,20.500986099243164,-19.655372619628906,21.116031646728516,-0.6572737693786621,-1.1396079063415527,-0.5393815040588379,3.869436264038086,8.437610626220703,-3.461442470550537
2_20251106_213647,1762436171077,2,0.2671872675418854,0.5329671502113342,0.6429154276847839,0.4808500409126282,0.6708973050117493,3.214505195617676,0.48554667830467224,2.501115322113037,6.998740196228027,-4.231854438781738,0.10919588804244995,-0.694240152835846,-0.7933452725410461,20.500986099243164,-19.655372619628906,21.116031646728516,-1.0946569442749023,-1.1510963439941406,-0.6163296699523926,3.5957722663879395,8.149836540222168,-3.6155247688293457
2_20251106_213647,1762436171095,2,0.2738126218318939,0.5313796401023865,0.6458833813667297,0.4748651683330536,0.6888405084609985,3.195000648498535,0.46507057547569275,1.881043553352356,6.853897571563721,-4.442535400390625,-0.022140026092529297,-0.6728598475456238,-0.8727576732635498,20.757875442504883,-19.424400329589844,20.96813201904297,-1.3717831373214722,-1.0367512702941895,-0.6616086959838867,3.252826690673828,7.89064884185791,-3.7809267044067383
2_20251106_213647,1762436171115,2,0.2814037799835205,0.5288418531417847,0.6486809849739075,0.4694157838821411,0.6888405084609985,3.195000648498535,0.46507057547569275,1.881043553352356,6.853897571563721,-4.442535400390625,-0.17485620081424713,-0.6869097352027893,-0.9087986946105957,21.120698928833008,-19.047996520996094,20.732444763183594,-1.3717831373214722,-1.0367512702941895,-0.6616086959838867,3.252826690673828,7.89064884185791,-3.7809267044067383
2_20251106_213647,1762436171133,2,0.2900788187980652,0.5257154703140259,0.6508800983428955,0.46457788348197937,0.7048487663269043,3.150103807449341,0.4210839867591858,0.46134307980537415,6.675537109375,-4.45091438293457,-0.3037486672401428,-0.7266159653663635,-0.8923053741455078,21.505977630615234,-18.707412719726562,20.46991729736328,-1.9056799411773682,-0.8004631996154785,-0.40983104705810547,2.36702299118042,7.4760003089904785,-4.041083335876465
2_20251106_213647,1762436171152,2,0.2996138632297516,0.5224180817604065,0.6522889733314514,0.4602499306201935,0.7023276090621948,3.1253092288970947,0.3994588851928711,-0.11443766951560974,6.45527982711792,-4.290510177612305,-0.3862153887748718,-0.7565483450889587,-0.7866257429122925,21.980985641479492,-18.28565216064453,20.18537139892578,-1.9851685762405396,-0.8165764808654785,-0.19954156875610352,1.8707308769226074,7.271856307983398,-4.090968608856201
2_20251106_213647,1762436171172,2,0.3096578121185303,0.5199965834617615,0.6523348093032837,0.45626187324523926,0.7023276090621948,3.1253092288970947,0.3994588851928711,-0.11443766951560974,6.45527982711792,-4.290510177612305,-0.47234731912612915,-0.785869836807251,-0.6119184494018555,22.601804733276367,-17.878128051757812,19.771018981933594,-1.9851685762405396,-0.8165764808654785,-0.19954156875610352,1.8707308769226074,7.271856307983398,-4.090968608856201
2_20251106_213647,1762436171191,2,0.31918418407440186,0.5178578495979309,0.6514708399772644,0.4533546268939972,0.6915424466133118,3.0960164070129395,0.37651702761650085,-0.5573459267616272,6.299663543701172,-4.161228179931641,-0.5847464799880981,-0.8616170287132263,-0.40055927634239197,23.274471282958984,-17.42840576171875,19.224258422851562,-1.9424614906311035,-0.7777543067932129,-0.05620765686035156,1.385115623474121,7.077417850494385,-4.105020523071289
2_20251106_213647,1762436171210,2,0.32892030477523804,0.5170413851737976,0.6487114429473877,0.4512794017791748,0.6572256684303284,3.045621395111084,0.3409512937068939,-1.105594515800476,7.050213813781738,-3.620162010192871,-0.5847464799880981,-0.8616170287132263,-0.40055927634239197,23.967477798461914,-17.052169799804688,18.649864196777344,-1.6342754364013672,0.06264781951904297,0.3639373779296875,0.5286809206008911,6.987565994262695,-3.9840993881225586
2_20251106_213647,1762436171229,2,0.3388266861438751,0.5169655680656433,0.6445795297622681,0.44995585083961487,0.6572256684303284,3.045621395111084,0.3409512937068939,-1.105594515800476,7.050213813781738,-3.620162010192871,-0.7350192070007324,-0.8860516548156738,-0.2191324532032013,24.61968421936035,-16.765274047851562,17.977535247802734,-1.6342754364013672,0.06264781951904297,0.3639373779296875,0.5286809206008911,6.987565994262695,-3.9840993881225586
2_20251106_213647,1762436171250,2,0.3486844003200531,0.516616940498352,0.6400773525238037,0.4492516815662384,0.6300192475318909,3.0196990966796875,0.3259257972240448,-1.3378220796585083,7.113656997680664,-3.091066360473633,-0.7710602283477783,-0.7742634415626526,-0.2289063036441803,25.22020149230957,-16.555145263671875,17.12594985961914,-1.4932024478912354,0.10087251663208008,0.7144262790679932,0.15538036823272705,7.012784481048584,-3.805492639541626
2_20251106_213647,1762436171271,2,0.35810646414756775,0.5154881477355957,0.6357417702674866,0.449292927980423,0.5672854781150818,2.9769904613494873,0.30728814005851746,-2.1410422325134277,7.3937668800354,-2.8432772159576416,-0.8345901370048523,-0.6453709006309509,-0.24601048231124878,25.779029846191406,-16.435569763183594,16.298080444335938,-1.5436402559280396,0.2783036231994629,0.629608154296875,-0.5974019765853882,7.1154632568359375,-3.4728853702545166
2_20251106_213647,1762436171286,2,0.36726120114326477,0.5135633945465088,0.6314687132835388,0.4501323401927948,0.5374241471290588,2.9617276191711426,0.3027137219905853,-2.564797878265381,7.39496374130249,-2.6553404331207275,-0.9146134257316589,-0.5067046284675598,-0.22096505761146545,26.30965232849121,-16.39238739013672,15.413578033447266,-1.5739167928695679,0.22359991073608398,0.6540360450744629,-0.990881085395813,7.171363830566406,-3.3093764781951904
2_20251106_213647,1762436171306,2,0.37587693333625793,0.5107973217964172,0.6271941065788269,0.45213955640792847,0.49678969383239746,2.943911552429199,0.2996155619621277,-2.6928820610046387,7.27286434173584,-2.5416207313537598,-0.9860845804214478,-0.37597960233688354,-0.1061224713921547,26.74992561340332,-16.45440673828125,14.442436218261719,-1.3616008758544922,0.08120059967041016,0.6142046451568604,-1.3312811851501465,7.19166374206543,-3.15582537651062
2_20251106_213647,1762436171324,2,0.38360917568206787,0.5078316926956177,0.6224573254585266,0.45551931858062744,0.49678969383239746,2.943911552429199,0.2996155619621277,-2.6928820610046387,7.27286434173584,-2.5416207313537598,-1.070383906364441,-0.31367141008377075,0.05636754631996155,27.126041412353516,-16.582778930664062,13.426971435546875,-1.3616008758544922,0.08120059967041016,0.6142046451568604,-1.3312811851501465,7.19166374206543,-3.15582537651062
2_20251106_213647,1762436171344,2,0.39069435000419617,0.5052730441093445,0.6166815757751465,0.4601748585700989,0.4166549742221832,2.9163546562194824,0.300201416015625,-2.2858853340148926,8.13833236694336,-2.2196145057678223,-1.165678858757019,-0.2898476719856262,0.17854046821594238,27.422203063964844,-16.829605102539062,12.473770141601562,-0.5716835260391235,0.710442066192627,0.6326923370361328,-1.714201807975769,7.427890300750732,-2.852306842803955
2_20251106_213647,1762436171363,2,0.3976101875305176,0.5030914545059204,0.6097650527954102,0.4658236503601074,0.4166549742221832,2.9163546562194824,0.300201416015625,-2.2858853340148926,8.13833236694336,-2.2196145057678223,-1.2854083776474,-0.24647629261016846,0.19930988550186157,27.631752014160156,-17.106971740722656,11.503089904785156,-0.5716835260391235,0.710442066192627,0.6326923370361328,-1.714201807975769,7.427890300750732,-2.852306842803955
2_20251106_213647,1762436171382,2,0.40468570590019226,0.5003204941749573,0.602252721786499,0.47244107723236084,0.3733205199241638,2.909058094024658,0.3057105541229248,-2.1159040927886963,9.061256408691406,-1.6450309753417969,-1.2854083776474,-0.24647629261016846,0.19930988550186157,27.840595245361328,-17.396896362304688,10.532146453857422,-0.321361780166626,1.3066930770874023,0.9658207893371582,-1.7945423126220703,7.754563331604004,-2.610851764678955
2_20251106_213647,1762436171401,2,0.4117830991744995,0.49592047929763794,0.5953555703163147,0.47963452339172363,0.33740174770355225,2.9071271419525146,0.315469354391098,-2.0512635707855225,9.38326358795166,-0.4695283770561218,-1.2878518104553223,0.09316451102495193,-0.06824886053800583,27.986406326293945,-17.71685028076172,9.652837753295898,-0.2053769826889038,1.3029603958129883,1.7130587100982666,-1.8458865880966187,8.080303192138672,-2.182587146759033
2_20251106_213647,1762436171420,2,0.4180528223514557,0.4896242320537567,0.5901604890823364,0.487042635679245,0.30037635564804077,2.907993793487549,0.33214908838272095,-2.2128653526306152,9.101957321166992,0.3301006257534027,-1.2206566333770752,0.2910846769809723,-0.1623220443725586,28.168367385864258,-18.04657745361328,8.734188079833984,-0.2935830354690552,0.8173236846923828,2.010150194168091,-1.91928231716156,8.28463363647461,-1.6800496578216553
2_20251106_213647,1762436171440,2,0.42337286472320557,0.48202449083328247,0.5863389372825623,0.4945851266384125,0.22479084134101868,2.9155030250549316,0.3793697655200958,-3.188460350036621,9.215676307678223,0.5096580386161804,-1.2316521406173706,0.4346378743648529,-0.17881539463996887,28.342287063598633,-18.29027557373047,7.925025939941406,-0.8978867530822754,0.6326408386230469,1.41328763961792,-2.2905735969543457,8.583035469055176,-0.9036296606063843
2_20251106_213647,1762436171461,2,0.4280732572078705,0.47358688712120056,0.5830077528953552,0.5025641322135925,0.18280479311943054,2.922431468963623,0.40892985463142395,-3.487722873687744,9.295878410339355,0.44860851764678955,-1.2255436182022095,0.5794128775596619,-0.0902399867773056,28.414710998535156,-18.59217071533203,7.273078918457031,-0.9577195644378662,0.5702743530273438,1.081790566444397,-2.530003309249878,8.725604057312012,-0.6331820487976074
2_20251106_213647,1762436171478,2,0.4314480721950531,0.46477043628692627,0.5799176692962646,0.511406421661377,0.18280479311943054,2.922431468963623,0.40892985463142395,-3.487722873687744,9.295878410339355,0.44860851764678955,-1.179728627204895,0.6392775177955627,0.1260061115026474,28.414710998535156,-18.59217071533203,7.273078918457031,-0.9577195644378662,0.5702743530273438,1.081790566444397,-2.530003309249878,8.725604057312012,-0.6331820487976074
2_20251106_213647,1762436171497,2,0.433127760887146,0.4569067656993866,0.57634437084198,0.5210217833518982,0.10590201616287231,2.937561511993408,0.46730029582977295,-2.8532867431640625,9.143853187561035,0.5216284990310669,-1.1491855382919312,0.5678064227104187,0.3569129705429077,28.426725387573242,-18.87413787841797,6.740854263305664,-0.12894964218139648,0.26135921478271484,0.7632113099098206,-2.724337100982666,8.88249397277832,-0.24158279597759247
2_20251106_213647,1762436171516,2,0.4338799715042114,0.4508512020111084,0.5714848041534424,0.5309298634529114,0.0698472410440445,2.946136474609375,0.5005558729171753,-2.494171619415283,9.238420486450195,1.339213252067566,-1.1491855382919312,0.5678064227104187,0.3569129705429077,28.4146785736084,-19.145675659179688,6.2619781494140625,0.18413257598876953,0.2847414016723633,1.2646368741989136,-2.6783041954040527,8.953679084777832,0.07457637786865234
2_20251106_213647,1762436171535,2,0.4345944821834564,0.4460022449493408,0.5655534863471985,0.540702223777771,0.0698472410440445,2.946136474609375,0.5005558729171753,-2.494171619415283,9.238420486450195,1.339213252067566,-1.1339138746261597,0.5647520422935486,0.4803076684474945,28.381980895996094,-19.355743408203125,5.75640869140625,0.18413257598876953,0.2847414016723633,1.2646368741989136,-2.6783041954040527,8.953679084777832,0.07457637786865234
2_20251106_213647,1762436171554,2,0.43449482321739197,0.4405497610569,0.55991530418396,0.5510218143463135,0.008616121485829353,2.965378761291504,0.5757834911346436,-1.901632308959961,9.680130958557129,2.038290023803711,-1.0990945100784302,0.8506367802619934,0.4760316014289856,28.32120132446289,-19.61884307861328,5.370449066162109,0.5506980419158936,0.5131940841674805,1.229005217552185,-2.4523303508758545,9.166936874389648,0.8092848062515259
2_20251106_213647,1762436171574,2,0.4326164722442627,0.4334820508956909,0.5555265545845032,0.5624291300773621,-0.02037755399942398,2.978976249694824,0.6206345558166504,-1.8178389072418213,9.94108772277832,1.770150899887085,-1.1045924425125122,1.04611337184906,0.4357145428657532,28.136770248413086,-19.9039306640625,5.127998352050781,0.5075931549072266,0.6193208694458008,0.7686928510665894,-2.325432062149048,9.32176685333252,1.0014580488204956
2_20251106_213647,1762436171593,2,0.4297700822353363,0.4251164495944977,0.5519840121269226,0.5743581652641296,-0.04277805984020233,2.990206003189087,0.6598094701766968,-1.8345975875854492,9.38565731048584,2.0789897441864014,-1.1003164052963257,1.1603450775146484,0.44732096791267395,27.915807723999023,-20.168174743652344,5.073833465576172,0.3926675319671631,0.05111217498779297,0.8620253801345825,-2.2272651195526123,9.334545135498047,1.2169643640518188
2_20251106_213647,1762436171612,2,0.4258151054382324,0.415905237197876,0.5490133166313171,0.5867611765861511,-0.04277805984020233,2.990206003189087,0.6598094701766968,-1.8345975875854492,9.38565731048584,2.0789897441864014,-1.0264016389846802,1.269689917564392,0.6446303129196167,27.664030075073242,-20.547149658203125,5.029827117919922,0.3926675319671631,0.05111217498779297,0.8620253801345825,-2.2272651195526123,9.334545135498047,1.2169643640518188
2_20251106_213647,1762436171631,2,0.4200543761253357,0.40751805901527405,0.5457761883735657,0.5996763706207275,-0.08016583323478699,3.0099236965179443,0.7418011426925659,-0.8410466909408569,9.088788986206055,1.5199676752090454,-0.9219437837600708,1.2617486715316772,1.0056513547897339,27.41456413269043,-20.88818359375,4.95958137512207,1.00209641456604,-0.14579296112060547,0.11922633647918701,-1.843143105506897,9.23458194732666,1.4007413387298584
2_20251106_213647,1762436171650,2,0.41171589493751526,0.40142565965652466,0.5415470600128174,0.6132489442825317,-0.09036124497652054,3.0200469493865967,0.7811027765274048,0.20756861567497253,9.49937629699707,1.1752175092697144,-0.9219437837600708,1.2617486715316772,1.0056513547897339,26.9864559173584,-21.36725616455078,5.014991760253906,1.6405694484710693,0.2118358612060547,-0.18041908740997314,-1.4330008029937744,9.287540435791016,1.3556365966796875
2_20251106_213647,1762436171669,2,0.4019157886505127,0.39858853816986084,0.5354658961296082,0.6267911791801453,-0.09224367141723633,3.0320074558258057,0.8165668845176697,1.234636902809143,10.316961288452148,1.3535778522491455,-0.8431422710418701,0.7962698340415955,1.4686866998672485,26.47870445251465,-21.95276641845703,5.186994552612305,2.13411021232605,0.8235368728637695,-0.0016469955444335938,-0.8994733095169067,9.493424415588379,1.355224847793579
2_20251106_213647,1762436171690,2,0.3925463855266571,0.3981492817401886,0.5277214646339417,0.6394486427307129,-0.08575961738824844,3.0502350330352783,0.8573693633079529,1.6248750686645508,11.184822082519531,2.4189517498016357,-0.8877353668212891,0.5916301012039185,1.2304495573043823,25.93047523498535,-22.603981018066406,5.410270690917969,2.0194787979125977,1.353118896484375,0.850981593132019,-0.3946036994457245,9.831703186035156,1.5679701566696167
2_20251106_213647,1762436171707,2,0.38557109236717224,0.39755427837371826,0.5196629762649536,0.6505658626556396,-0.07770992815494537,3.067955732345581,0.8947295546531677,1.000015377998352,11.51760196685791,4.291136741638184,-0.933550238609314,0.6857032775878906,0.7215992212295532,25.261188507080078,-23.250450134277344,5.615390777587891,1.1156952381134033,1.348719596862793,2.1785333156585693,-0.11567991971969604,10.168882369995117,2.1126034259796143
2_20251106_213647,1762436171727,2,0.3813404142856598,0.3934558629989624,0.5134234428405762,0.6604304313659668,-0.06829917430877686,3.0880870819091797,0.9439935684204102,0.19918927550315857,10.648544311523438,5.61028528213501,-0.9445457458496094,1.3344415426254272,0.3361436128616333,24.60599136352539,-23.870338439941406,5.753948211669922,0.25189536809921265,0.3837299346923828,2.7981455326080322,-0.05270608514547348,10.264814376831055,2.8121397495269775
2_20251106_213647,1762436171745,2,0.3762652277946472,0.38274064660072327,0.5108210444450378,0.6715623140335083,-0.05803728848695755,3.10536789894104,0.9950294494628906,0.42902275919914246,9.59274673461914,4.355777740478516,-0.9195003509521484,2.094968318939209,0.42105379700660706,23.89531135559082,-24.606956481933594,5.942234039306641,0.38538306951522827,-0.5376548767089844,1.234910488128662,0.04363967478275299,10.130401611328125,3.1208672523498535
2_20251106_213647,1762436171764,2,0.36664262413978577,0.3670918345451355,0.5106155872344971,0.6856299638748169,-0.04473186656832695,3.1191763877868652,1.0428686141967773,1.3399773836135864,9.179764747619629,2.885801076889038,-0.9268307089805603,2.0546512603759766,0.785129189491272,23.13921356201172,-25.28423309326172,6.156909942626953,1.0370701551437378,-0.7605094909667969,-0.18805289268493652,0.30290719866752625,9.940274238586426,3.0738539695739746
2_20251106_213647,1762436171783,2,0.35462772846221924,0.3535573184490204,0.5087722539901733,0.7002764940261841,-0.027055833488702774,3.1306514739990234,1.0887950658798218,2.13840913772583,9.3413667678833,3.248507022857666,-0.9072830677032471,1.3790346384048462,1.154091477394104,22.321901321411133,-25.95427703857422,6.504560470581055,1.468401551246643,-0.4791259765625,0.13972234725952148,0.670007586479187,9.8204927444458,3.1087846755981445
2_20251106_213647,1762436171802,2,0.34321096539497375,0.34673139452934265,0.503339946269989,0.7131847143173218,-0.004996743053197861,3.1415584087371826,1.136539340019226,2.5896968841552734,9.822580337524414,4.6083550453186035,-0.7203584909439087,0.8310890793800354,1.3049750328063965,21.40536880493164,-26.679420471191406,6.698551177978516,1.535751461982727,0.0016698837280273438,1.1996562480926514,1.0539454221725464,9.820910453796387,3.408698797225952
2_20251106_213647,1762436171822,2,0.3325609564781189,0.34490862488746643,0.4966605603694916,0.7237192392349243,0.02274632267653942,3.152575969696045,1.1891096830368042,2.923673629760742,9.857294082641602,4.996198654174805,-0.4595191478729248,0.8292564749717712,1.2335039377212524,20.53112030029297,-27.313201904296875,6.787731170654297,1.4957826137542725,0.029107093811035156,1.2699999809265137,1.4278910160064697,9.828186988830566,3.726198673248291
2_20251106_213647,1762436171840,2,0.3213903605937958,0.34331589937210083,0.4917585849761963,0.7328137159347534,0.05109014734625816,3.1621384620666504,1.235094666481018,3.305532455444336,9.886024475097656,4.147491455078125,-0.3807176351547241,1.0986477136611938,1.1058331727981567,19.607730865478516,-27.950698852539062,6.929014205932617,1.5021131038665771,0.04627037048339844,0.3370342254638672,1.8034193515777588,9.839754104614258,3.810457229614258
2_20251106_213647,1762436171860,2,0.3095250725746155,0.3394187390804291,0.4884692132472992,0.7418807148933411,0.08675773441791534,3.17161226272583,1.2824755907058716,3.694573402404785,9.635839462280273,3.4292616844177246,-0.4845646619796753,1.2812963724136353,1.0007644891738892,18.75929069519043,-28.5345458984375,7.20945930480957,1.512923240661621,-0.1631317138671875,-0.30495643615722656,2.181650161743164,9.798971176147461,3.734218120574951
2_20251106_213647,1762436171880,2,0.29782921075820923,0.3335752487182617,0.4852893054485321,0.7513452172279358,0.1259945034980774,3.1799089908599854,1.3261964321136475,3.9423627853393555,9.567608833312988,3.309556484222412,-0.6336156129837036,1.2299836874008179,0.9421213865280151,17.784772872924805,-29.19007110595703,7.5782928466796875,1.4085700511932373,-0.1850900650024414,-0.33972930908203125,2.533792734146118,9.75269889831543,3.6492857933044434
2_20251106_213647,1762436171900,2,0.2870805859565735,0.32745373249053955,0.4810636043548584,0.7608788013458252,0.165109321475029,3.1864259243011475,1.3657865524291992,3.883707284927368,9.398824691772461,3.6974005699157715,-0.6641588807106018,1.0424481630325317,0.9610581994056702,16.803485870361328,-29.769424438476562,7.7860260009765625,1.0799314975738525,-0.2830991744995117,0.03849196434020996,2.8037757873535156,9.681923866271973,3.6589086055755615
2_20251106_213647,1762436171918,2,0.27693474292755127,0.3226025700569153,0.4760115146636963,0.7698361873626709,0.20641690492630005,3.191150665283203,1.4024451971054077,4.315842151641846,9.147444725036621,3.31195068359375,-0.4912841320037842,0.8543019890785217,1.1406524181365967,16.803485870361328,-29.769424438476562,7.7860260009765625,1.2096529006958008,-0.4275836944580078,-0.27756643295288086,3.106189250946045,9.575028419494629,3.589517116546631
2_20251106_213647,1762436171936,2,0.2658003270626068,0.32029369473457336,0.47103533148765564,0.7777453660964966,0.2482849359512329,3.194836378097534,1.433548927307129,5.011327743530273,9.34495735168457,2.822357416152954,-0.4912841320037842,0.8543019890785217,1.1406524181365967,15.820378303527832,-30.38604736328125,7.952417373657227,1.5241107940673828,-0.18405723571777344,-0.6137278079986572,3.4872169494628906,9.529014587402344,3.4360852241516113
2_20251106_213647,1762436171955,2,0.25421932339668274,0.32136693596839905,0.46583279967308044,0.7842803001403809,0.2964443564414978,3.198969841003418,1.4632917642593384,5.737936973571777,9.68851089477539,2.9085450172424316,-0.3208528757095337,0.3106323480606079,1.3312422037124634,14.801095962524414,-31.016128540039062,7.968395233154297,1.8005759716033936,0.12759685516357422,-0.42203211784362793,3.937361001968384,9.560914039611816,3.3305771350860596
2_20251106_213647,1762436171974,2,0.24353331327438354,0.3246249258518219,0.4600304067134857,0.7897355556488037,0.3481670916080475,3.204251766204834,1.4922057390213013,6.1138105392456055,10.054807662963867,3.5705134868621826,-0.3208528757095337,0.3106323480606079,1.3312422037124634,13.79330825805664,-31.64635467529297,8.079477310180664,1.7411599159240723,0.3951148986816406,0.19194912910461426,4.372650623321533,9.659692764282227,3.3785643577575684
2_20251106_213647,1762436171994,2,0.2345563918352127,0.3273376226425171,0.4540908932685852,0.7947545647621155,0.4018574059009552,3.211049795150757,1.5227065086364746,6.032410621643066,10.308582305908203,4.483861923217773,-0.48700809478759766,0.41692280769348145,0.7802422642707825,12.775547981262207,-32.23957061767578,8.177345275878906,1.327807903289795,0.5191116333007812,0.8842380046844482,4.7046027183532715,9.789470672607422,3.599623918533325
2_20251106_213647,1762436172012,2,0.22792302072048187,0.32693520188331604,0.4488004446029663,0.7998391389846802,0.45474255084991455,3.218630075454712,1.5564203262329102,5.389595031738281,10.198453903198242,5.326584815979004,-0.5493162870407104,0.7229660153388977,0.38073670864105225,11.810253143310547,-32.76655578613281,8.251461029052734,0.5479941368103027,0.32718658447265625,1.3815686702728271,4.8416008949279785,9.871267318725586,3.9450161457061768
2_20251106_213647,1762436172032,2,0.22360415756702423,0.32239940762519836,0.4446944296360016,0.8051748871803284,0.5072848796844482,3.225552797317505,1.5942540168762207,4.728824138641357,9.654993057250977,5.300249099731445,-0.5493162870407104,0.7229660153388977,0.38073670864105225,10.84503173828125,-33.31663513183594,8.122304916381836,-0.09022140502929688,-0.1730194091796875,1.0841865539550781,4.819045543670654,9.828012466430664,4.216062545776367
2_20251106_213647,1762436172051,2,0.21908779442310333,0.3142993748188019,0.44236722588539124,0.8108808398246765,0.5532613396644592,3.229834794998169,1.629728078842163,4.293097972869873,9.111532211303711,4.700527191162109,-0.35994821786880493,1.012515902519226,0.23657262325286865,10.00840950012207,-33.745216369628906,7.94636344909668,-0.4207582473754883,-0.5731840133666992,0.3875718116760254,4.713856220245361,9.68471622467041,4.312955379486084
2_20251106_213647,1762436172070,2,0.21376146376132965,0.3067609667778015,0.440839022397995,0.8160053491592407,0.5960571765899658,3.231755495071411,1.66251802444458,4.392453193664551,8.902050018310547,3.9811015129089355,-0.35994821786880493,1.012515902519226,0.23657262325286865,9.221446990966797,-34.14617919921875,7.840494155883789,-0.2571225166320801,-0.6261329650878906,-0.26548290252685547,4.649575710296631,9.528182983398438,4.246584415435791
2_20251106_213647,1762436172089,2,0.20642158389091492,0.30308958888053894,0.4389885663986206,0.8202535510063171,0.6378698945045471,3.2325026988983154,1.6923718452453613,5.07118034362793,9.135473251342773,3.7740116119384766,-0.07956130802631378,0.3173518478870392,0.9488409161567688,8.434471130371094,-34.558753967285156,7.639745712280273,0.3372840881347656,-0.31416797637939453,-0.37805843353271484,4.733896255493164,9.449641227722168,4.152070045471191
2_20251106_213647,1762436172108,2,0.19743674993515015,0.3044792711734772,0.43636345863342285,0.8233456611633301,0.6806849241256714,3.2337496280670166,1.7201687097549438,5.861232757568359,9.645416259765625,3.9463868141174316,0.002294560894370079,-0.010682493448257446,1.1027787923812866,7.735630989074707,-34.9039306640625,7.538364410400391,0.9018692970275879,0.15662002563476562,-0.16454648971557617,4.9593634605407715,9.48879623413086,4.110933303833008
2_20251106_213647,1762436172127,2,0.18848009407520294,0.3094174563884735,0.43322592973709106,0.8252583742141724,0.7250849008560181,3.2362539768218994,1.7471883296966553,6.31730842590332,9.969817161560059,4.334230422973633,0.020620502531528473,-0.146905317902565,0.9635016918182373,7.05602502822876,-35.12274169921875,7.440113067626953,1.0863561630249023,0.38481616973876953,0.17863798141479492,5.230952262878418,9.585000991821289,4.155592441558838
2_20251106_213647,1762436172146,2,0.18129950761795044,0.31504860520362854,0.4302521347999573,0.8262916803359985,0.7703964710235596,3.2400174140930176,1.774828314781189,6.372372627258301,10.089522361755371,4.8740997314453125,-0.028859538957476616,-0.0540538914501667,0.6476845741271973,6.414979934692383,-35.31324768066406,7.262763977050781,0.9131360054016113,0.40361690521240234,0.574805736541748,5.4592366218566895,9.685905456542969,4.2992939949035645
2_20251106_213647,1762436172165,2,0.17627449333667755,0.3185027241706848,0.42795512080192566,0.8272470831871033,0.7703964710235596,3.2400174140930176,1.774828314781189,6.372372627258301,10.089522361755371,4.8740997314453125,-0.028859538957476616,-0.0540538914501667,0.6476845741271973,5.761959552764893,-35.49266052246094,7.152769088745117,0.9131360054016113,0.40361690521240234,0.574805736541748,5.4592366218566895,9.685905456542969,4.2992939949035645
2_20251106_213647,1762436172184,2,0.17312143743038177,0.3184942603111267,0.4269961714744568,0.8284109234809875,0.8594425320625305,3.2480661869049072,1.831422209739685,5.8911590576171875,9.601126670837402,4.881281852722168,-0.022750891745090485,0.3405647277832031,-0.03159697353839874,5.183478355407715,-35.630584716796875,7.141122817993164,0.22337722778320312,-0.10750293731689453,0.34470081329345703,5.667781829833984,9.708629608154297,4.536581039428711
2_20251106_213647,1762436172203,2,0.17146918177604675,0.31575140357017517,0.427514910697937,0.8295362591743469,0.900033712387085,3.250241756439209,1.858005404472351,5.3261518478393555,9.210887908935547,4.482665061950684,-0.022750891745090485,0.3405647277832031,-0.03159697353839874,4.713966369628906,-35.77391815185547,7.133626937866211,-0.2733039855957031,-0.398193359375,-0.043132781982421875,5.599455833435059,9.609081268310547,4.5257978439331055
2_20251106_213647,1762436172222,2,0.1710999757051468,0.31224700808525085,0.42897629737854004,0.830184280872345,0.9362691044807434,3.2501683235168457,1.882346272468567,4.751567840576172,8.829029083251953,4.192978858947754,0.023674827069044113,0.347895085811615,-0.21546727418899536,4.281111240386963,-35.91473388671875,7.114086151123047,-0.6783103942871094,-0.6240415573120117,-0.26625537872314453,5.429878234863281,9.453070640563965,4.459234237670898
2_20251106_213647,1762436172241,2,0.17163287103176117,0.309964120388031,0.4308866858482361,0.8299403786659241,0.9678694009780884,3.247663974761963,1.9040794372558594,4.400832653045654,8.565678596496582,3.9523720741271973,0.10553070157766342,0.2086179256439209,-0.24662137031555176,3.866502285003662,-35.93052673339844,7.232837677001953,-0.8232364654541016,-0.7099132537841797,-0.405489444732666,5.224069118499756,9.275591850280762,4.357861518859863
2_20251106_213647,1762436172261,2,0.17165501415729523,0.3091321885585785,0.4330565929412842,0.8291162848472595,0.9968032836914062,3.242910623550415,1.9235137701034546,4.346965789794922,8.535752296447754,3.6016364097595215,0.199603870511055,-0.0491669736802578,-0.0389273539185524,3.572232484817505,-35.975242614746094,7.274604797363281,-0.7016830444335938,-0.5918712615966797,-0.6049799919128418,5.048648834228516,9.127623558044434,4.206616401672363
2_20251106_213647,1762436172279,2,0.17094846069812775,0.3095707297325134,0.4348999261856079,0.828133225440979,0.9968032836914062,3.242910623550415,1.9235137701034546,4.346965789794922,8.535752296447754,3.6016364097595215,0.14523689448833466,-0.135909765958786,0.04598284512758255,3.489354372024536,-35.931114196777344,7.326292037963867,-0.7016830444335938,-0.5918712615966797,-0.6049799919128418,5.048648834228516,9.127623558044434,4.206616401672363
2_20251106_213647,1762436172299,2,0.1702098846435547,0.3110402822494507,0.43592509627342224,0.8271951675415039,1.0423184633255005,3.2310943603515625,1.9529324769973755,4.595951557159424,8.684186935424805,3.862593412399292,0.06093757599592209,-0.15301397442817688,0.08080213516950607,3.462188720703125,-35.95970153808594,7.514011383056641,-0.26099681854248047,-0.2675189971923828,-0.17152619361877441,4.856948375701904,8.951705932617188,4.034119606018066
2_20251106_213647,1762436172318,2,0.1695285141468048,0.31266680359840393,0.43615207076072693,0.826602041721344,1.0423184633255005,3.2310943603515625,1.9529324769973755,4.595951557159424,8.684186935424805,3.862593412399292,0.06093757599592209,-0.15301397442817688,0.08080213516950607,3.462188720703125,-35.95970153808594,7.514011383056641,-0.26099681854248047,-0.2675189971923828,-0.17152619361877441,4.856948375701904,8.951705932617188,4.034119606018066
2_20251106_213647,1762436172338,2,0.16914908587932587,0.313895046710968,0.4362790286540985,0.8261471390724182,1.0861905813217163,3.217589855194092,1.9821982383728027,4.959855079650879,8.905641555786133,4.219314098358154,0.05482892692089081,-0.1365206390619278,-0.06152934581041336,3.511650800704956,-35.93235778808594,7.611114501953125,0.08156538009643555,-0.010137557983398438,0.13097381591796875,4.878289699554443,8.915779113769531,4.0883402824401855
2_20251106_213647,1762436172356,2,0.1695227175951004,0.31479156017303467,0.43679940700531006,0.8254541754722595,1.1046864986419678,3.2117090225219727,1.9950778484344482,4.922745704650879,8.815861701965332,4.286348342895508,0.07193314284086227,-0.14995965361595154,-0.16415463387966156,3.511650800704956,-35.93235778808594,7.611114501953125,0.03556489944458008,-0.07993412017822266,0.15840625762939453,4.887180805206299,8.895795822143555,4.127942085266113
2_20251106_213647,1762436172375,2,0.17070777714252472,0.3153987526893616,0.4377261698246002,0.8244866728782654,1.1046864986419678,3.2117090225219727,1.9950778484344482,4.922745704650879,8.815861701965332,4.286348342895508,0.08781562745571136,-0.15423570573329926,-0.23073887825012207,3.551239013671875,-35.86786651611328,7.681486129760742,0.03556489944458008,-0.07993412017822266,0.15840625762939453,4.887180805206299,8.895795822143555,4.127942085266113
2_20251106_213647,1762436172394,2,0.17238155007362366,0.3157705068588257,0.4389454424381256,0.8233471512794495,1.1241215467453003,3.205233097076416,2.008918046951294,4.858105182647705,8.80748176574707,4.208540439605713,0.09392426908016205,-0.18538980185985565,-0.28449496626853943,3.6017024517059326,-35.82756042480469,7.738304138183594,-0.02326059341430664,-0.07065105438232422,0.06447887420654297,4.881365776062012,8.878132820129395,4.14406156539917
2_20251106_213647,1762436172414,2,0.17463302612304688,0.3161894381046295,0.44030991196632385,0.821982204914093,1.141614317893982,3.199221134185791,2.0215396881103516,4.864090919494629,8.817058563232422,4.191781997680664,0.08659389615058899,-0.23181553184986115,-0.3486357629299164,3.7129969596862793,-35.783416748046875,7.811090469360352,-0.013819694519042969,-0.048859596252441406,0.038176536560058594,4.877910614013672,8.865918159484863,4.1536054611206055
2_20251106_213647,1762436172433,2,0.17751048505306244,0.3166434168815613,0.44175341725349426,0.8204150795936584,1.172698736190796,3.1880111694335938,2.0461337566375732,4.582784175872803,8.817058563232422,4.413236141204834,0.08659389615058899,-0.23181553184986115,-0.3486357629299164,3.823376178741455,-35.763710021972656,7.815769195556641,-0.21626901626586914,-0.04103851318359375,0.1908707618713379,4.799053192138672,8.858097076416016,4.222365379333496
2_20251106_213647,1762436172451,2,0.1816028207540512,0.31727954745292664,0.44316306710243225,0.8185111880302429,1.172698736190796,3.1880111694335938,2.0461337566375732,4.582784175872803,8.817058563232422,4.413236141204834,0.09025908261537552,-0.25747182965278625,-0.4188852310180664,3.958325147628784,-35.742149353027344,7.794395446777344,-0.21626901626586914,-0.04103851318359375,0.1908707618713379,4.799053192138672,8.858097076416016,4.222365379333496
2_20251106_213647,1762436172471,2,0.18555961549282074,0.31758570671081543,0.4451158940792084,0.8164427876472473,1.1960017681121826,3.1762638092041016,2.0707011222839355,4.063264846801758,8.548919677734375,4.437176704406738,0.15562160313129425,-0.2861824929714203,-0.48852378129959106,4.12077522277832,-35.65675354003906,7.829387664794922,-0.5222339630126953,-0.22526264190673828,0.13211631774902344,4.585498809814453,8.774182319641113,4.305060386657715
2_20251106_213647,1762436172491,2,0.18957531452178955,0.31786519289016724,0.4473431408405304,0.8141910433769226,1.2038509845733643,3.169668197631836,2.0824081897735596,3.8334312438964844,8.489067077636719,4.347398281097412,0.15562160313129425,-0.2861824929714203,-0.48852378129959106,4.38243293762207,-35.527870178222656,7.923160552978516,-0.601654052734375,-0.22809219360351562,0.03387022018432617,4.435085296630859,8.717159271240234,4.313528060913086
2_20251106_213647,1762436172509,2,0.19320440292358398,0.3181857764720917,0.4496520161628723,0.8119377493858337,1.2095814943313599,3.162543535232544,2.0930020809173584,3.805899143218994,8.40407657623291,4.121155738830566,0.20143646001815796,-0.30817362666130066,-0.39628320932388306,4.705415725708008,-35.39447784423828,7.965320587158203,-0.5033488273620605,-0.25046634674072266,-0.15389776229858398,4.309247970581055,8.654542922973633,4.27505350112915
2_20251106_213647,1762436172530,2,0.19640259444713593,0.3189680278301239,0.45193761587142944,0.8095911145210266,1.214178442955017,3.1549267768859863,2.102262020111084,3.93637752532959,8.492658615112305,3.8362584114074707,0.21365375816822052,-0.38147735595703125,-0.3266446590423584,5.061347007751465,-35.31000518798828,8.116025924682617,-0.2982964515686035,-0.12950706481933594,-0.35103607177734375,4.234673976898193,8.62216567993164,4.1872944831848145
2_20251106_213647,1762436172549,2,0.19944927096366882,0.3207162022590637,0.4539247155189514,0.8070399165153503,1.214178442955017,3.1549267768859863,2.102262020111084,3.93637752532959,8.492658615112305,3.8362584114074707,0.21243201196193695,-0.476772278547287,-0.2967122793197632,5.43177604675293,-35.186798095703125,8.240982055664062,-0.2982964515686035,-0.12950706481933594,-0.35103607177734375,4.234673976898193,8.62216567993164,4.1872944831848145
2_20251106_213647,1762436172567,2,0.20260697603225708,0.32333484292030334,0.4556646943092346,0.8042230010032654,1.221506118774414,3.1406073570251465,2.1158180236816406,4.181772708892822,8.532161712646484,3.8254847526550293,0.2203732579946518,-0.5238088965415955,-0.31931424140930176,5.802192687988281,-35.07520294189453,8.271059036254883,-0.023322582244873047,-0.05319690704345703,-0.2317500114440918,4.205095291137695,8.585358619689941,4.057234764099121
2_20251106_213647,1762436172586,2,0.20617936551570892,0.32629576325416565,0.4573676288127899,0.8011466860771179,1.224926471710205,3.1338696479797363,2.120260000228882,4.234442710876465,8.566875457763672,3.535799026489258,0.2301471084356308,-0.5146458745002747,-0.3639073967933655,6.17634391784668,-34.888938903808594,8.37030029296875,0.023478031158447266,-0.014786720275878906,-0.4171485900878906,4.210964679718018,8.58166217803955,3.9529476165771484
2_20251106_213647,1762436172605,2,0.21001417934894562,0.32900750637054443,0.45926496386528015,0.7979497313499451,1.22856867313385,3.127546548843384,2.1221234798431396,4.354147911071777,8.609969139099121,3.094087600708008,0.20571251213550568,-0.508537232875824,-0.4042244553565979,6.538111209869385,-34.70374298095703,8.496084213256836,0.1145467758178711,0.022645950317382812,-0.6870880126953125,4.239601135253906,8.587323188781738,3.7811756134033203
2_20251106_213647,1762436172624,2,0.21425703167915344,0.3315129578113556,0.46109452843666077,0.7947231531143188,1.2326189279556274,3.1218249797821045,2.121443748474121,4.454699516296387,8.691368103027344,2.888195037841797,0.13118702173233032,-0.5506868958473206,-0.43293511867523193,6.9970574378967285,-34.524208068847656,8.571462631225586,0.17207860946655273,0.0832357406616211,-0.7143845558166504,4.282620906829834,8.608132362365723,3.6025795936584473
2_20251106_213647,1762436172643,2,0.21912260353565216,0.33412420749664307,0.462380588054657,0.7915494441986084,1.2371883392333984,3.1170382499694824,2.1192421913146973,4.545675754547119,8.84459114074707,3.0354323387145996,0.03833558037877083,-0.628877580165863,-0.47447389364242554,7.455286026000977,-34.36884307861328,8.551700592041016,0.21044397354125977,0.18916702270507812,-0.4537177085876465,4.335231781005859,8.655424118041992,3.489150047302246
2_20251106_213647,1762436172662,2,0.2250233143568039,0.3370342552661896,0.4628813564777374,0.788361132144928,1.2419753074645996,3.113121509552002,2.11677622795105,4.497793674468994,8.885290145874023,3.3526506423950195,0.03833558037877083,-0.628877580165863,-0.47447389364242554,7.865277290344238,-34.204368591308594,8.557271957397461,0.1300497055053711,0.18389320373535156,-0.10919952392578125,4.367743968963623,8.701396942138672,3.461850166320801
2_20251106_213647,1762436172683,2,0.23198258876800537,0.3400295674800873,0.4631905257701874,0.7848684787750244,1.2461637258529663,3.1098854541778564,2.114928722381592,4.2368364334106445,8.878108024597168,3.642336368560791,0.017566179856657982,-0.7198964357376099,-0.6644527912139893,8.327116012573242,-33.99769592285156,8.430435180664062,-0.10472583770751953,0.14136886596679688,0.14438891410827637,4.341562271118164,8.736739158630371,3.4979474544525146
2_20251106_213647,1762436172700,2,0.23975957930088043,0.34265467524528503,0.46379756927490234,0.7810217142105103,1.2461637258529663,3.1098854541778564,2.114928722381592,4.2368364334106445,8.878108024597168,3.642336368560791,0.023674827069044113,-0.6777467727661133,-0.7493630051612854,8.801141738891602,-33.79022979736328,8.304088592529297,-0.10472583770751953,0.14136886596679688,0.14438891410827637,4.341562271118164,8.736739158630371,3.4979474544525146
2_20251106_213647,1762436172720,2,0.24796010553836823,0.34449461102485657,0.4647548198699951,0.7770728468894958,1.2495627403259277,3.1036899089813232,2.11257004737854,3.5473363399505615,8.544132232666016,3.5274195671081543,0.023674827069044113,-0.6777467727661133,-0.7493630051612854,9.386249542236328,-33.550498962402344,8.182683944702148,-0.5623157024383545,-0.16904258728027344,-0.009292364120483398,4.109652042388916,8.713174819946289,3.5367119312286377
2_20251106_213647,1762436172739,2,0.25615981221199036,0.34589168429374695,0.46605876088142395,0.7730008363723755,1.2480074167251587,3.0997965335845947,2.110522985458374,3.335458755493164,8.417243957519531,3.183866500854492,0.058494120836257935,-0.6722490191459656,-0.7255393266677856,9.995731353759766,-33.309181213378906,8.062259674072266,-0.6193547248840332,-0.23674488067626953,-0.2822763919830322,3.9548134803771973,8.6539888381958,3.4661428928375244
2_20251106_213647,1762436172759,2,0.2640722095966339,0.34774506092071533,0.4671342670917511,0.7688463926315308,1.2444673776626587,3.0952634811401367,2.107450485229492,3.301941394805908,8.44357967376709,3.1288020610809326,0.03344866260886192,-0.7712090611457825,-0.6247466206550598,10.690995216369629,-33.0732421875,7.782810211181641,-0.5222976207733154,-0.16832733154296875,-0.26987266540527344,3.8242390155792236,8.611907005310059,3.398674726486206
2_20251106_213647,1762436172778,2,0.27177292108535767,0.35070377588272095,0.46743765473365784,0.7646230459213257,1.2444673776626587,3.0952634811401367,2.107450485229492,3.301941394805908,8.44357967376709,3.1288020610809326,0.018787909299135208,-0.8750560879707336,-0.552664577960968,10.690995216369629,-33.0732421875,7.782810211181641,-0.5222976207733154,-0.16832733154296875,-0.26987266540527344,3.8242390155792236,8.611907005310059,3.398674726486206
2_20251106_213647,1762436172796,2,0.2796105444431305,0.35478243231773376,0.4669988751411438,0.7601706385612488,1.2348458766937256,3.0874087810516357,2.1013691425323486,3.3414440155029297,8.632713317871094,3.3346948623657227,0.018787909299135208,-0.8750560879707336,-0.552664577960968,11.290589332580566,-32.806396484375,7.540777206420898,-0.30918025970458984,0.019636154174804688,-0.031179189682006836,3.6506242752075195,8.613077163696289,3.3658740520477295
2_20251106_213647,1762436172816,2,0.28743481636047363,0.35919085144996643,0.46644309163093567,0.755509078502655,1.228164792060852,3.0833663940429688,2.0980005264282227,3.2013893127441406,8.560890197753906,3.2724480628967285,0.03405952826142311,-0.9355316758155823,-0.5703796148300171,11.902679443359375,-32.5267333984375,7.35356330871582,-0.3593881130218506,-0.04174995422363281,-0.07474064826965332,3.560777425765991,8.602640151977539,3.347188711166382
2_20251106_213647,1762436172835,2,0.2954408526420593,0.3635047972202301,0.4659288823604584,0.7506592273712158,1.220983862876892,3.079813241958618,2.094550371170044,2.9643733501434326,8.563284873962402,3.1156344413757324,0.0065706148743629456,-0.9233143925666809,-0.5899273157119751,12.602766036987305,-32.21464538574219,6.994598388671875,-0.477123498916626,-0.03148365020751953,-0.1852436065673828,3.4414968490600586,8.594768524169922,3.3008780479431152
2_20251106_213647,1762436172853,2,0.30383047461509705,0.3676541745662689,0.46516504883766174,0.7457472085952759,1.2118631601333618,3.076140880584717,2.090510129928589,2.741722345352173,8.55490493774414,3.0892996788024902,-0.05757018178701401,-0.9055992960929871,-0.5923707485198975,13.252303123474121,-31.93138885498047,6.6872100830078125,-0.5598194599151611,-0.031890869140625,-0.16926264762878418,3.301541805267334,8.586795806884766,3.2585623264312744
2_20251106_213647,1762436172872,2,0.31227821111679077,0.3713688254356384,0.4640343487262726,0.7411070466041565,1.2011666297912598,3.072505474090576,2.086355209350586,2.5609679222106934,8.533357620239258,3.1431665420532227,-0.12904134392738342,-0.86833655834198,-0.5709905624389648,13.903645515441895,-31.622474670410156,6.326284408569336,-0.5924592018127441,-0.04275035858154297,-0.0923166275024414,3.1534271240234375,8.5761079788208,3.235483169555664
2_20251106_213647,1762436172891,2,0.3205660879611969,0.3745817542076111,0.46244683861732483,0.7369320392608643,1.2011666297912598,3.072505474090576,2.086355209350586,2.5609679222106934,8.533357620239258,3.1431665420532227,-0.1754670888185501,-0.8530649542808533,-0.5312843322753906,14.479349136352539,-31.36815643310547,5.920810699462891,-0.5924592018127441,-0.04275035858154297,-0.0923166275024414,3.1534271240234375,8.5761079788208,3.235483169555664
2_20251106_213647,1762436172911,2,0.32868698239326477,0.3776702284812927,0.460382878780365,0.7330604791641235,1.1764702796936035,3.064685583114624,2.0793235301971436,2.675884246826172,8.448368072509766,3.4017293453216553,-0.15164335072040558,-0.888495147228241,-0.4952433109283447,15.09471321105957,-31.072433471679688,5.382438659667969,-0.29202914237976074,-0.08558464050292969,0.11942148208618164,2.9679133892059326,8.533952713012695,3.2823078632354736
2_20251106_213647,1762436172930,2,0.3365866243839264,0.3811871409416199,0.45816367864608765,0.7290349006652832,1.1764702796936035,3.064685583114624,2.0793235301971436,2.675884246826172,8.448368072509766,3.4017293453216553,-0.07650698721408844,-0.9624097347259521,-0.48852378129959106,15.6620512008667,-30.755714416503906,4.937246322631836,-0.29202914237976074,-0.08558464050292969,0.11942148208618164,2.9679133892059326,8.533952713012695,3.2823078632354736
2_20251106_213647,1762436172950,2,0.34461161494255066,0.3855614960193634,0.45603880286216736,0.7243022322654724,1.149731993675232,3.056079626083374,2.0727078914642334,2.440065860748291,8.293949127197266,2.9265007972717285,-0.025194350630044937,-1.005170226097107,-0.450650155544281,16.190296173095703,-30.50281524658203,4.354099273681641,-0.3606142997741699,-0.17294597625732422,-0.2903461456298828,2.800680160522461,8.46689510345459,3.2168469429016113
2_20251106_213647,1762436172969,2,0.35234662890434265,0.39052289724349976,0.45394444465637207,0.7192205190658569,1.1358882188796997,3.0515756607055664,2.067178726196289,2.364651679992676,8.34422492980957,2.4668338298797607,-0.045963749289512634,-1.066867709159851,-0.37123775482177734,16.720046997070312,-30.22467041015625,3.757965087890625,-0.34882259368896484,-0.09813594818115234,-0.6000103950500488,2.7134742736816406,8.442360877990723,3.0668442249298096
2_20251106_213647,1762436172988,2,0.35987913608551025,0.3961895704269409,0.4511805772781372,0.7141126990318298,1.1358882188796997,3.0515756607055664,2.067178726196289,2.364651679992676,8.34422492980957,2.4668338298797607,-0.11071540415287018,-1.159108281135559,-0.304653525352478,17.149999618530273,-29.990821838378906,3.1841468811035156,-0.34882259368896484,-0.09813594818115234,-0.6000103950500488,2.7134742736816406,8.442360877990723,3.0668442249298096
2_20251106_213647,1762436173007,2,0.3676111102104187,0.40258756279945374,0.44737759232521057,0.7089701294898987,1.1079862117767334,3.0442392826080322,2.053412437438965,2.2880406379699707,8.717703819274902,2.636814832687378,-0.11071540415287018,-1.159108281135559,-0.304653525352478,17.581743240356445,-29.742935180664062,2.4619140625,-0.2787895202636719,0.21395015716552734,-0.2545340061187744,2.5668301582336426,8.503753662109375,2.8913488388061523
2_20251106_213647,1762436173025,2,0.3755440413951874,0.40900224447250366,0.44293615221977234,0.7039114832878113,1.0934544801712036,3.042275905609131,2.0458788871765137,2.2581143379211426,8.930778503417969,2.6751203536987305,-0.2328883558511734,-1.1261215209960938,-0.30343174934387207,18.011682510375977,-29.52069854736328,1.7932186126708984,-0.24697256088256836,0.34162044525146484,-0.17298269271850586,2.505086898803711,8.589158058166504,2.8481030464172363
2_20251106_213647,1762436173045,2,0.3836895525455475,0.4146990180015564,0.4382089674472809,0.6991279721260071,1.0934544801712036,3.042275905609131,2.0458788871765137,2.2581143379211426,8.930778503417969,2.6751203536987305,-0.31840938329696655,-1.028994083404541,-0.3474140167236328,18.356220245361328,-29.304161071777344,1.1346054077148438,-0.24697256088256836,0.34162044525146484,-0.17298269271850586,2.505086898803711,8.589158058166504,2.8481030464172363
2_20251106_213647,1762436173063,2,0.39198407530784607,0.41916534304618835,0.4334145784378052,0.6948386430740356,1.076393723487854,3.0419936180114746,2.0372109413146973,2.2126264572143555,9.09956169128418,2.74454927444458,-0.3507852554321289,-0.9966182112693787,-0.41766348481178284,18.661678314208984,-29.13982391357422,0.43291664123535156,-0.23396825790405273,0.4083232879638672,-0.08284306526184082,2.446594715118408,8.691238403320312,2.827392339706421
2_20251106_213647,1762436173082,2,0.4006352722644806,0.4229013919830322,0.42879781126976013,0.6904913187026978,1.062317967414856,3.0429093837738037,2.0304346084594727,2.1156654357910156,9.152233123779297,2.811583995819092,-0.36483514308929443,-0.9874551892280579,-0.4952433109283447,18.994918823242188,-28.92285919189453,-0.34783172607421875,-0.2647433280944824,0.36879539489746094,-0.012646675109863281,2.380408763885498,8.783437728881836,2.824230670928955
2_20251106_213647,1762436173102,2,0.4099276065826416,0.426228791475296,0.42429226636886597,0.6857582926750183,1.0476751327514648,3.0446343421936035,2.0246174335479736,1.8642849922180176,9.130685806274414,3.076131820678711,-0.40026527643203735,-0.9306448101997375,-0.5349494814872742,19.33742904663086,-28.755470275878906,-1.115631103515625,-0.4128990173339844,0.2777986526489258,0.2015209197998047,2.277184009552002,8.852887153625488,2.8746109008789062
2_20251106_213647,1762436173122,2,0.4194425344467163,0.4288013279438019,0.41983819007873535,0.6811264753341675,1.0129666328430176,3.0496273040771484,2.0166165828704834,1.3112481832504272,9.008586883544922,3.3406801223754883,-0.4039304852485657,-0.8597844243049622,-0.5184561610221863,19.634506225585938,-28.54035186767578,-1.9519176483154297,-0.6597603559494019,0.08758163452148438,0.3034553527832031,1.971008539199829,8.921005249023438,3.037224769592285
2_20251106_213647,1762436173142,2,0.428494930267334,0.43079882860183716,0.4155758023262024,0.6768317818641663,0.9915338754653931,3.05255126953125,2.013972282409668,1.2178783416748047,8.98584270477295,3.3011772632598877,-0.4039304852485657,-0.8597844243049622,-0.5184561610221863,20.008819580078125,-28.256874084472656,-2.8650379180908203,-0.6025042533874512,0.05187034606933594,0.21116209030151367,1.8203825950622559,8.933972358703613,3.090015172958374
2_20251106_213647,1762436173159,2,0.43703922629356384,0.4331594705581665,0.41097286343574524,0.6726595759391785,0.9736883044242859,3.0546693801879883,2.012286901473999,1.1999225616455078,8.874517440795898,3.248507022857666,-0.3917132019996643,-0.8658931255340576,-0.43782201409339905,20.346277236938477,-27.976181030273438,-3.7390804290771484,-0.49636805057525635,-0.04756450653076172,0.12679338455200195,1.6962906122207642,8.92208194732666,3.121713638305664
2_20251106_213647,1762436173179,2,0.4453469514846802,0.43676596879959106,0.405525267124176,0.6681697368621826,0.9520887136459351,3.057143211364746,2.0110652446746826,1.1520406007766724,8.957113265991211,3.3394827842712402,-0.3630025386810303,-1.0937457084655762,-0.22585196793079376,20.636598587036133,-27.67328643798828,-4.641590118408203,-0.43540000915527344,0.028024673461914062,0.17421531677246094,1.5874406099319458,8.929088592529297,3.1652674674987793
2_20251106_213647,1762436173200,2,0.45343390107154846,0.4415636360645294,0.39902639389038086,0.6634735465049744,0.9300380945205688,3.0606558322906494,2.012035369873047,1.0838087797164917,9.311440467834473,3.8661844730377197,-0.4295867681503296,-1.1163476705551147,-0.1769827902317047,20.92549705505371,-27.407119750976562,-5.639505386352539,-0.4029054641723633,0.3058815002441406,0.5607335567474365,1.486714243888855,9.005558967590332,3.305450916290283
2_20251106_213647,1762436173217,2,0.4614911377429962,0.4462922215461731,0.3917728662490845,0.659062385559082,0.9100600481033325,3.0648720264434814,2.0158402919769287,1.0299415588378906,9.498180389404297,4.513787746429443,-0.45585399866104126,-0.9648531675338745,-0.24662137031555176,20.92549705505371,-27.407119750976562,-5.639505386352539,-0.3654181957244873,0.39409732818603516,0.9666695594787598,1.395359754562378,9.104083061218262,3.5471181869506836
2_20251106_213647,1762436173235,2,0.4695117771625519,0.44954437017440796,0.3852442502975464,0.6550232172012329,0.8901398181915283,3.0700719356536865,2.021979570388794,1.0131828784942627,9.589156150817871,4.572443962097168,-0.4436366558074951,-0.7064574360847473,-0.3535226881504059,21.154071807861328,-27.13249969482422,-6.626092910766602,-0.305741548538208,0.3880586624145508,0.8202605247497559,1.3189244270324707,9.20109748840332,3.752183437347412
2_20251106_213647,1762436173256,2,0.4772414565086365,0.450725257396698,0.3802854120731354,0.6515138745307922,0.8680160641670227,3.076270818710327,2.0301601886749268,0.9581185579299927,9.434736251831055,4.311486721038818,-0.4436366558074951,-0.7064574360847473,-0.3535226881504059,21.3450870513916,-26.87322235107422,-7.573866844177246,-0.2886446714401245,0.18691062927246094,0.44744253158569336,1.2467632293701172,9.247825622558594,3.864044189453125
2_20251106_213647,1762436173273,2,0.48473525047302246,0.4507485628128052,0.37641704082489014,0.648203432559967,0.8480004072189331,3.0818426609039307,2.0381975173950195,0.8001080751419067,9.358125686645508,4.287545680999756,-0.397210955619812,-0.5439674258232117,-0.4103330969810486,21.479598999023438,-26.54230499267578,-8.549541473388672,-0.35732412338256836,0.08823966979980469,0.33880114555358887,1.157432198524475,9.269886016845703,3.948744535446167
2_20251106_213647,1762436173293,2,0.49202391505241394,0.4509556293487549,0.3726380169391632,0.6447421312332153,0.8253680467605591,3.087639331817627,2.0479259490966797,0.6624473929405212,9.242012023925781,4.358171463012695,-0.397210955619812,-0.5439674258232117,-0.4103330969810486,21.633054733276367,-26.298377990722656,-9.458501815795898,-0.3959878087043762,-0.022298812866210938,0.3275413513183594,1.0584352016448975,9.264310836791992,4.030630111694336
2_20251106_213647,1762436173312,2,0.49769729375839233,0.4510973393917084,0.36958128213882446,0.6420422792434692,0.803662121295929,3.0926027297973633,2.0571744441986084,0.5918214321136475,9.166597366333008,4.201358318328857,-0.3416222929954529,-0.5549629330635071,-0.3474140465259552,21.675945281982422,-26.06280517578125,-10.250229835510254,-0.373291015625,-0.0781707763671875,0.1365823745727539,0.9651124477386475,9.244768142700195,4.0647759437561035
2_20251106_213647,1762436173331,2,0.5031634569168091,0.4519781768321991,0.36615243554115295,0.6391202211380005,0.7824147343635559,3.0972018241882324,2.0652644634246826,0.7366644144058228,9.202508926391602,3.8111205101013184,-0.25610122084617615,-0.42240530252456665,-0.13483312726020813,23.339574813842773,-26.448593139648438,-10.686919212341309,-0.18275845050811768,-0.033806800842285156,-0.20292425155639648,0.9194228649139404,9.236315727233887,4.014044761657715
2_20251106_213647,1762436173350,2,0.5076258182525635,0.45296594500541687,0.36266276240348816,0.6368780136108398,0.7626183032989502,3.101931571960449,2.071930170059204,1.0610648393630981,9.36770248413086,3.642336368560791,-0.2732054591178894,-0.3949164152145386,-0.04564686864614487,23.368982315063477,-26.22718048095703,-11.398303985595703,0.11331355571746826,0.10510921478271484,-0.2973666191101074,0.9477512836456299,9.262593269348145,3.9397029876708984
2_20251106_213647,1762436173371,2,0.5115188360214233,0.45411184430122375,0.3587958812713623,0.6351349949836731,0.7439232468605042,3.107654094696045,2.078044891357422,1.3100510835647583,9.589155197143555,3.7584500312805176,-0.28542274236679077,-0.4138532280921936,-0.03159697353839874,23.459728240966797,-25.989646911621094,-12.066423416137695,0.28983986377716064,0.2612495422363281,-0.1450023651123047,1.0202112197875977,9.327905654907227,3.9034523963928223
2_20251106_213647,1762436173389,2,0.515353798866272,0.455405592918396,0.35469868779182434,0.633407473564148,0.7439232468605042,3.107654094696045,2.078044891357422,1.3100510835647583,9.589155197143555,3.7584500312805176,-0.28542274236679077,-0.4138532280921936,-0.03159697353839874,23.487133026123047,-25.794158935546875,-12.69723892211914,0.28983986377716064,0.2612495422363281,-0.1450023651123047,1.0202112197875977,9.327905654907227,3.9034523963928223
2_20251106_213647,1762436173408,2,0.5191861987113953,0.45649343729019165,0.35097652673721313,0.6315653920173645,0.7147254943847656,3.120629072189331,2.0885367393493652,1.6751511096954346,9.77230453491211,3.7321152687072754,-0.26526421308517456,-0.37536874413490295,-0.06397280842065811,23.47677993774414,-25.614288330078125,-13.26220703125,0.45536041259765625,0.30012035369873047,-0.1393425464630127,1.2197906970977783,9.472184181213379,3.871457815170288
2_20251106_213647,1762436173427,2,0.522999107837677,0.4569355249404907,0.3477911353111267,0.6298596262931824,0.7040523290634155,3.127808094024658,2.092649459838867,1.7816885709762573,9.893205642700195,3.766829490661621,-0.3006943464279175,-0.24036763608455658,-0.1678198277950287,23.48920440673828,-25.44659423828125,-13.704813003540039,0.4495183229446411,0.33681678771972656,-0.08370256423950195,1.3321702480316162,9.556388854980469,3.850532054901123
2_20251106_213647,1762436173446,2,0.5271837115287781,0.45678386092185974,0.3448645770549774,0.6280878186225891,0.6944022178649902,3.136019706726074,2.0974831581115723,1.715850830078125,9.925527572631836,4.109185218811035,-0.3355136513710022,-0.20066143572330475,-0.24295619130134583,23.504955291748047,-25.216384887695312,-14.11906623840332,0.30694448947906494,0.29531097412109375,0.2069225311279297,1.40890634059906,9.630216598510742,3.9022626876831055
2_20251106_213647,1762436173464,2,0.5317310690879822,0.4559380114078522,0.34230077266693115,0.6262689828872681,0.6944022178649902,3.136019706726074,2.0974831581115723,1.715850830078125,9.925527572631836,4.109185218811035,-0.3355136513710022,-0.20066143572330475,-0.24295619130134583,23.52494239807129,-25.123779296875,-14.508699417114258,0.30694448947906494,0.29531097412109375,0.2069225311279297,1.40890634059906,9.630216598510742,3.9022626876831055
2_20251106_213647,1762436173485,2,0.5360618829727173,0.4547424912452698,0.34042760729789734,0.6244645714759827,0.677196204662323,3.1531710624694824,2.1088552474975586,1.5602344274520874,9.711255073547363,4.007436275482178,-0.22128193080425262,-0.13957495987415314,-0.24601051211357117,23.57433319091797,-24.941551208496094,-14.909021377563477,0.08669888973236084,0.03960609436035156,0.03781580924987793,1.4735355377197266,9.671648979187012,3.9696204662323
2_20251106_213647,1762436173504,2,0.5399138927459717,0.45399919152259827,0.3388524353504181,0.6225405931472778,0.6700239777565002,3.1607394218444824,2.1144886016845703,1.557840347290039,9.659780502319336,4.178614616394043,-0.22128193080425262,-0.13957495987415314,-0.24601051211357117,23.58424949645996,-24.81207275390625,-15.29835319519043,0.06744384765625,-0.009494781494140625,0.16719532012939453,1.490396499633789,9.669275283813477,4.011419296264648
2_20251106_213647,1762436173522,2,0.5435688495635986,0.45392346382141113,0.33710601925849915,0.6203595399856567,0.6637939810752869,3.1674745082855225,2.119722604751587,1.581781268119812,9.638235092163086,4.078062057495117,-0.17791053652763367,-0.1829463392496109,-0.20935861766338348,23.586517333984375,-24.596023559570312,-15.63226318359375,0.07310783863067627,-0.024831771850585938,0.053314208984375,1.5086734294891357,9.663066864013672,4.024747848510742
2_20251106_213647,1762436173541,2,0.5465420484542847,0.454186350107193,0.3356214761734009,0.6183565258979797,0.6579016447067261,3.1740288734436035,2.1247036457061768,1.6380425691604614,9.590353012084961,3.927234172821045,-0.058791909366846085,-0.17133991420269012,-0.12811361253261566,23.697359085083008,-24.38592529296875,-15.907958984375,0.10349535942077637,-0.05817127227783203,-0.07801103591918945,1.534547209739685,9.648524284362793,4.005245208740234
2_20251106_213647,1762436173560,2,0.5491074323654175,0.45488783717155457,0.3342895209789276,0.6162860989570618,0.6525057554244995,3.1797609329223633,2.1291329860687256,1.6081163883209229,9.468254089355469,3.894913911819458,-0.058791909366846085,-0.17133991420269012,-0.12811361253261566,23.71938705444336,-24.232559204101562,-16.093528747558594,0.058855295181274414,-0.14421653747558594,-0.08826518058776855,1.5492610931396484,9.612470626831055,3.9831790924072266
2_20251106_213647,1762436173579,2,0.55165696144104,0.45551520586013794,0.3330440819263458,0.614216685295105,0.647068202495575,3.1843903064727783,2.133519172668457,1.4357413053512573,9.315031051635742,4.048135757446289,-0.08689168840646744,-0.06810377538204193,-0.15499165654182434,23.80595588684082,-24.023910522460938,-16.38372039794922,-0.09081578254699707,-0.23795127868652344,0.05196547508239746,1.5265570878982544,9.552982330322266,3.9961702823638916
2_20251106_213647,1762436173600,2,0.554088294506073,0.4553757309913635,0.3322397470474243,0.6125649809837341,0.6413072943687439,3.1880414485931396,2.1383252143859863,1.4201796054840088,9.231237411499023,4.134323596954346,-0.13698258996009827,0.041851870715618134,-0.1360548585653305,23.840961456298828,-23.868667602539062,-16.676929473876953,-0.08510196208953857,-0.25739574432373047,0.11052274703979492,1.5052815675735474,9.488633155822754,4.023800849914551
2_20251106_213647,1762436173620,2,0.5563672184944153,0.4543771743774414,0.3315906226634979,0.6115918159484863,0.6413072943687439,3.1880414485931396,2.1383252143859863,1.4201796054840088,9.231237411499023,4.134323596954346,-0.13698258996009827,0.041851870715618134,-0.1360548585653305,23.90066146850586,-23.688209533691406,-16.8199520111084,-0.08510196208953857,-0.25739574432373047,0.11052274703979492,1.5052815675735474,9.488633155822754,4.023800849914551
2_20251106_213647,1762436173638,2,0.5583917498588562,0.4528989791870117,0.3313077688217163,0.6109961867332458,0.6305865049362183,3.1915485858917236,2.1475329399108887,1.4764410257339478,9.09716796875,3.9595541954040527,-0.008701003156602383,-0.011904226616024971,-0.021212276071310043,23.90066146850586,-23.688209533691406,-16.8199520111084,-0.017691969871520996,-0.2532196044921875,-0.06697368621826172,1.4941329956054688,9.350387573242188,4.0265278816223145
2_20251106_213647,1762436173657,2,0.5596542954444885,0.4524249732494354,0.3309240937232971,0.6103998422622681,0.626383900642395,3.192111015319824,2.1505274772644043,1.5530520677566528,9.135473251342773,3.751267910003662,0.0242856927216053,-0.0491669736802578,0.05331321805715561,23.911531448364258,-23.49945068359375,-16.85654067993164,0.047135233879089355,-0.17193126678466797,-0.22020816802978516,1.5059168338775635,9.307404518127441,3.9714760780334473
2_20251106_213647,1762436173675,2,0.5604737997055054,0.45281463861465454,0.3302392065525055,0.609729528427124,0.6224124431610107,3.19262433052063,2.1533031463623047,1.7445800304412842,9.26954460144043,3.783588171005249,-0.017253108322620392,-0.06504945456981659,0.0997389405965805,23.95743751525879,-23.345169067382812,-16.973548889160156,0.19093060493469238,-0.030287742614746094,-0.15031027793884277,1.5536494255065918,9.299832344055176,3.933898448944092
2_20251106_213647,1762436173694,2,0.5612858533859253,0.4536232650279999,0.3289845883846283,0.6090593338012695,0.6198446750640869,3.1931557655334473,2.1557440757751465,1.9241373538970947,9.324607849121094,3.910475254058838,-0.017253108322620392,-0.06504945456981659,0.0997389405965805,24.02077865600586,-23.303123474121094,-17.010852813720703,0.2963902950286865,0.019820213317871094,-0.018738508224487305,1.6277470588684082,9.304787635803223,3.929213762283325
2_20251106_213647,1762436173713,2,0.5620212554931641,0.4542350172996521,0.32772383093833923,0.6086047887802124,0.6185468435287476,3.193531036376953,2.158050775527954,2.043842315673828,9.257572174072266,3.924839973449707,-0.02397262118756771,0.01986074075102806,0.04292852431535721,24.011301040649414,-23.26543426513672,-17.091650009155273,0.33287620544433594,-0.037772178649902344,-0.0034990310668945312,1.7109661102294922,9.295344352722168,3.9283390045166016
2_20251106_213647,1762436173732,2,0.5627115368843079,0.45452621579170227,0.3267688453197479,0.6082628965377808,0.6181976795196533,3.193547487258911,2.1595067977905273,2.033068895339966,9.171384811401367,3.660292148590088,-0.0019814912229776382,0.03879754617810249,0.008109230548143387,24.028308868408203,-23.188491821289062,-17.170673370361328,0.25768232345581055,-0.0991678237915039,-0.21443748474121094,1.7753865718841553,9.270552635192871,3.874729633331299
2_20251106_213647,1762436173752,2,0.5624092817306519,0.45427384972572327,0.32675260305404663,0.6087395548820496,0.6185881495475769,3.1929967403411865,2.1602964401245117,2.018704414367676,9.084001541137695,3.655503749847412,-0.025194350630044937,0.007643444929271936,-0.012049304321408272,24.051271438598633,-23.212020874023438,-17.17021942138672,0.19465422630310059,-0.14924144744873047,-0.17538070678710938,1.8240501880645752,9.233242988586426,3.8308844566345215
2_20251106_213647,1762436173770,2,0.5633279085159302,0.4548240900039673,0.32591143250465393,0.6079296469688416,0.6191684603691101,3.192155361175537,2.1610231399536133,1.9241374731063843,9.082803726196289,3.8518199920654297,-0.06001364067196846,-0.0015195258893072605,-0.024266598746180534,24.037675857543945,-23.237930297851562,-17.17123794555664,0.08006978034973145,-0.12035083770751953,0.016748428344726562,1.8440676927566528,9.203154563903809,3.835071563720703
2_20251106_213647,1762436173790,2,0.5644550919532776,0.45514917373657227,0.32489246129989624,0.6071857810020447,0.620042622089386,3.1908905506134033,2.1616628170013428,1.9301226139068604,9.079212188720703,3.7931647300720215,-0.055737584829330444,0.032078031450510025,-0.010827576741576195,24.063852310180664,-23.21068572998047,-17.22379493713379,0.06884396076202393,-0.09915351867675781,-0.03352546691894531,1.8612786531448364,9.178365707397461,3.826690196990967
2_20251106_213647,1762436173809,2,0.5654380917549133,0.4550025165081024,0.3240721523761749,0.6068193912506104,0.620042622089386,3.1908905506134033,2.1616628170013428,1.9301226139068604,9.079212188720703,3.7931647300720215,-0.0477963462471962,0.005199986044317484,0.007498365361243486,24.110172271728516,-23.25719451904297,-17.276954650878906,0.06884396076202393,-0.09915351867675781,-0.03352546691894531,1.8612786531448364,9.178365707397461,3.826690196990967
2_20251106_213647,1762436173830,2,0.5663501024246216,0.45520034432411194,0.32309967279434204,0.6063388586044312,0.6220371127128601,3.1878139972686768,2.1616291999816895,1.8535115718841553,9.026542663574219,3.6962037086486816,-0.05757018178701401,-0.023510655388236046,0.013607013039290905,24.10523796081543,-23.3450927734375,-17.27880096435547,-0.018569350242614746,-0.10961627960205078,-0.07948899269104004,1.87208092212677,9.13615894317627,3.7756927013397217
2_20251106_213647,1762436173848,2,0.5673413872718811,0.4557085335254669,0.3219490945339203,0.6056420207023621,0.6225237846374512,3.18561053276062,2.1614348888397217,1.7338066101074219,8.9056396484375,3.7596473693847656,-0.09361119568347931,0.014973819255828857,0.007498365361243486,24.071189880371094,-23.30926513671875,-17.333545684814453,-0.11061954498291016,-0.18441486358642578,-0.012836456298828125,1.844426155090332,9.090054512023926,3.7724838256835938
2_20251106_213647,1762436173867,2,0.5684046149253845,0.45563092827796936,0.3209276795387268,0.6052454113960266,0.6226215958595276,3.1828932762145996,2.161310911178589,1.706274390220642,8.79192066192627,3.7931647300720215,-0.1400369256734848,0.08705586194992065,0.028878631070256233,24.035348892211914,-23.2874755859375,-17.23987579345703,-0.11052143573760986,-0.23850727081298828,0.016544818878173828,1.816795825958252,9.030427932739258,3.7766199111938477
2_20251106_213647,1762436173886,2,0.5694278478622437,0.45476964116096497,0.31998491287231445,0.605430543422699,0.6228437423706055,3.1792891025543213,2.1610920429229736,1.8559056520462036,8.788330078125,3.7476766109466553,-0.1400369256734848,0.08705586194992065,0.028878631070256233,24.0494384765625,-23.260894775390625,-17.306438446044922,0.0312877893447876,-0.1936779022216797,-0.023154735565185547,1.824617862701416,8.98200798034668,3.770831346511841
2_20251106_213647,1762436173905,2,0.5700362324714661,0.45381373167037964,0.31892096996307373,0.6061363220214844,0.6228437423706055,3.1792891025543213,2.1610920429229736,1.8559056520462036,8.788330078125,3.7476766109466553,-0.11071540415287018,0.029634572565555573,0.12173006683588028,24.03957748413086,-23.212135314941406,-17.238292694091797,0.0312877893447876,-0.1936779022216797,-0.023154735565185547,1.824617862701416,8.98200798034668,3.770831346511841
2_20251106_213647,1762436173923,2,0.5705223083496094,0.45387840270996094,0.31728464365005493,0.6064891815185547,0.6247987747192383,3.1721420288085938,2.159785747528076,2.0989067554473877,8.874517440795898,3.724932909011841,-0.07223093509674072,-0.08398625999689102,0.11989747732877731,24.09164810180664,-23.146438598632812,-17.207977294921875,0.1885688304901123,-0.06400585174560547,-0.011754512786865234,1.9103379249572754,8.938523292541504,3.736687421798706
2_20251106_213647,1762436173942,2,0.570966362953186,0.455057293176651,0.31529009342193604,0.6062280535697937,0.6265094876289368,3.1689059734344482,2.159480571746826,2.0869362354278564,9.030134201049805,3.8578052520751953,-0.06551142036914825,-0.13468803465366364,0.0997389405965805,24.053878784179688,-23.173667907714844,-17.237010955810547,0.14127862453460693,0.0732889175415039,0.0968942642211914,1.9456576108932495,8.9568452835083,3.760910987854004
2_20251106_213647,1762436173962,2,0.571664035320282,0.45643308758735657,0.3130369186401367,0.6057036519050598,0.6287952661514282,3.166060209274292,2.1598410606384277,2.1348180770874023,9.085197448730469,3.9799041748046875,-0.06551142036914825,-0.13468803465366364,0.0997389405965805,23.967266082763672,-23.204208374023438,-17.254487991333008,0.151328444480896,0.10268211364746094,0.17519474029541016,1.9834896326065063,8.982515335083008,3.8047094345092773
2_20251106_213647,1762436173981,2,0.5725851058959961,0.45724695920944214,0.31111153960227966,0.6052116751670837,0.6311025619506836,3.1635961532592773,2.1601710319519043,2.0725717544555664,9.020557403564453,3.8063321113586426,-0.10033071041107178,-0.01923460140824318,0.003222312778234482,23.86613655090332,-23.07215118408203,-17.36412811279297,0.07126569747924805,0.03043365478515625,0.0012979507446289062,2.0013060569763184,8.990123748779297,3.8050341606140137
2_20251106_213647,1762436173999,2,0.5735894441604614,0.4572041630744934,0.3097791373729706,0.6049763560295105,0.6330068111419678,3.1615123748779297,2.160273551940918,1.9313197135925293,9.044498443603516,3.7261297702789307,-0.10033071041107178,-0.01923460140824318,0.003222312778234482,23.830381393432617,-23.061843872070312,-17.37885093688965,-0.05598902702331543,0.04349994659423828,-0.06312346458435059,1.9873087406158447,9.000998497009277,3.7892532348632812
2_20251106_213647,1762436174020,2,0.5749885439872742,0.45675891637802124,0.3086830675601959,0.6045446991920471,0.6344208717346191,3.1595797538757324,2.160080671310425,1.7912650108337402,9.088788986206055,3.690218210220337,-0.1858517825603485,0.05956694483757019,-0.034040436148643494,23.843259811401367,-23.060104370117188,-17.47297477722168,-0.15683495998382568,0.07023239135742188,-0.07922792434692383,1.948099970817566,9.018556594848633,3.7694461345672607
2_20251106_213647,1762436174040,2,0.5765473246574402,0.4559585452079773,0.3076830506324768,0.6041739583015442,0.63529372215271,3.1581642627716064,2.160433292388916,1.7876737117767334,9.171385765075684,3.9320223331451416,-0.2066211849451065,0.04124100133776665,-0.021212276071310043,23.81818199157715,-23.074249267578125,-17.474220275878906,-0.1283409595489502,0.12226390838623047,0.13006091117858887,1.9160146713256836,9.049121856689453,3.8019614219665527
2_20251106_213647,1762436174058,2,0.5783108472824097,0.45520034432411194,0.3065594732761383,0.6036310791969299,0.6357355713844299,3.1575748920440674,2.1620516777038574,1.8068265914916992,9.277922630310059,4.342609882354736,-0.21150809526443481,0.03574322164058685,-0.006551522761583328,23.81818199157715,-23.074249267578125,-17.474220275878906,-0.08735048770904541,0.18304061889648438,0.43251872062683105,1.8941770792007446,9.094882011413574,3.9100911617279053
2_20251106_213647,1762436174076,2,0.5799948573112488,0.45422109961509705,0.30531513690948486,0.6033836603164673,0.6359697580337524,3.157583713531494,2.165296792984009,1.818796992301941,9.325804710388184,4.603566646575928,-0.21150809526443481,0.03574322164058685,-0.006551522761583328,23.69881820678711,-23.05559539794922,-17.627275466918945,-0.06030404567718506,0.1847381591796875,0.5547804832458496,1.879101037979126,9.141066551208496,4.048786163330078
2_20251106_213647,1762436174096,2,0.5812961459159851,0.45291247963905334,0.30433258414268494,0.603611409664154,0.6360263228416443,3.1581547260284424,2.1704814434051514,1.8164029121398926,9.3258056640625,4.627508163452148,-0.12659789621829987,0.08705586940050125,0.017883066087961197,23.642202377319336,-22.995704650878906,-17.73653793334961,-0.05015850067138672,0.14779090881347656,0.46297740936279297,1.8665614128112793,9.178014755249023,4.1645307540893555
2_20251106_213647,1762436174115,2,0.5822585821151733,0.45144355297088623,0.3036353290081024,0.6041350960731506,0.6357788443565369,3.1587929725646973,2.176440715789795,1.7577475309371948,9.222858428955078,4.631098747253418,-0.11254800856113434,0.11820995807647705,0.01971565932035446,23.608760833740234,-22.94745635986328,-17.777502059936523,-0.0870511531829834,0.03587532043457031,0.37325429916381836,1.8447986841201782,9.186983108520508,4.2578444480896
2_20251106_213647,1762436174134,2,0.582976758480072,0.4498700201511383,0.30323755741119385,0.6048157215118408,0.6351242661476135,3.1591200828552246,2.183135986328125,1.691909909248352,9.085197448730469,4.634690284729004,-0.11254800856113434,0.11820995807647705,0.01971565932035446,23.6501407623291,-22.868927001953125,-17.855545043945312,-0.12231111526489258,-0.08142852783203125,0.30147695541381836,1.8142210245132446,9.1666259765625,4.3332133293151855
2_20251106_213647,1762436174154,2,0.5834364891052246,0.4482821524143219,0.30311524868011475,0.6056121587753296,0.6342620849609375,3.159069538116455,2.189831018447876,1.7266242504119873,9.034921646118164,4.455132484436035,-0.08566995710134506,0.14569886028766632,0.0331546813249588,23.747220993041992,-22.874725341796875,-17.892433166503906,-0.07007741928100586,-0.10536384582519531,0.09753561019897461,1.7967016696929932,9.14028549194336,4.3575968742370605
2_20251106_213647,1762436174172,2,0.5828223824501038,0.44663676619529724,0.3036772310733795,0.6071357727050781,0.6334432363510132,3.1585464477539062,2.1952388286590576,1.7792943716049194,8.946340560913086,4.1067914962768555,0.013290125876665115,0.12737293541431427,0.10645844787359238,23.80833625793457,-22.882095336914062,-18.011892318725586,-0.013925909996032715,-0.15515613555908203,-0.20064449310302734,1.7932202816009521,9.101496696472168,4.307435989379883
2_20251106_213647,1762436174191,2,0.5825555920600891,0.4461442232131958,0.3036762773990631,0.607754111289978,0.6327585577964783,3.157336950302124,2.2002899646759033,1.8523144721984863,8.88529109954834,4.091229438781738,0.009624939411878586,0.09316451102495193,0.13272562623023987,23.75849151611328,-22.89836883544922,-17.960052490234375,0.04727530479431152,-0.17296504974365234,-0.17296504974365234,1.8050391674041748,9.058256149291992,4.264194488525391
2_20251106_213647,1762436174210,2,0.5822539925575256,0.4464002847671509,0.3033486604690552,0.6080186367034912,0.6326085925102234,3.1559646129608154,2.2043936252593994,1.9756104946136475,8.955917358398438,4.098412036895752,-0.011144462041556835,0.09682969748973846,0.14555376768112183,23.734922409057617,-22.88726806640625,-17.974285125732422,0.13645708560943604,-0.08187103271484375,-0.13262605667114258,1.8391534090042114,9.037788391113281,4.2310380935668945
2_20251106_213647,1762436174229,2,0.5817590355873108,0.4465333819389343,0.30289527773857117,0.6086204051971436,0.6330474615097046,3.1545677185058594,2.2080464363098145,2.0510246753692627,9.003798484802246,4.141506195068359,-0.011144462041556835,0.09682969748973846,0.14555376768112183,23.81770133972168,-22.931533813476562,-18.0124568939209,0.16949701309204102,-0.027192115783691406,-0.0716257095336914,1.8815276622772217,9.030990600585938,4.213131904602051
2_20251106_213647,1762436174248,2,0.5813596844673157,0.44667285680770874,0.3022957444190979,0.6091974377632141,0.6330474615097046,3.1545677185058594,2.2080464363098145,2.0510246753692627,9.003798484802246,4.141506195068359,-0.049018073827028275,0.11882082372903824,0.1363908052444458,23.801694869995117,-22.995513916015625,-17.973718643188477,0.16949701309204102,-0.027192115783691406,-0.0716257095336914,1.8815276622772217,9.030990600585938,4.213131904602051
2_20251106_213647,1762436174269,2,0.5810293555259705,0.44664958119392395,0.30156055092811584,0.6098936796188354,0.6344815492630005,3.153214454650879,2.211714029312134,2.171926498413086,9.064847946166992,4.163052558898926,-0.04290942847728729,0.08339067548513412,0.12295179814100266,23.79979133605957,-23.02130126953125,-17.906665802001953,0.23231899738311768,0.027086257934570312,-0.04006338119506836,1.9396075010299683,9.037761688232422,4.203115940093994
2_20251106_213647,1762436174287,2,0.580758810043335,0.4469083249568939,0.300658255815506,0.6104070544242859,0.6394298672676086,3.151400089263916,2.21844482421875,2.3227548599243164,9.09357738494873,4.361762523651123,-0.00809013843536377,0.0485713817179203,0.10951277613639832,23.76787567138672,-23.149139404296875,-17.84270477294922,0.25076866149902344,0.03591346740722656,0.11474895477294922,2.071986198425293,9.057663917541504,4.247013568878174
2_20251106_213647,1762436174306,2,0.580352783203125,0.4474118649959564,0.2997760772705078,0.6108580827713013,0.6428957581520081,3.1506268978118896,2.2218222618103027,2.3323311805725098,9.068439483642578,4.2468461990356445,0.018787909299135208,0.05223656818270683,0.08813250809907913,23.70222282409668,-23.2291259765625,-17.779159545898438,0.20827603340148926,0.008620262145996094,-0.00013399124145507812,2.1240551471710205,9.059819221496582,4.2469801902771
2_20251106_213647,1762436174325,2,0.5798803567886353,0.44785451889038086,0.29916301369667053,0.6112827658653259,0.6467039585113525,3.1496927738189697,2.2245869636535645,2.311981439590454,8.987039566040039,4.085244178771973,-0.0025923559442162514,0.08094721287488937,0.05942186713218689,23.674846649169922,-23.26959991455078,-17.659284591674805,0.15034103393554688,-0.058223724365234375,-0.12938880920410156,2.1616404056549072,9.045263290405273,4.214632987976074
2_20251106_213647,1762436174344,2,0.5796875953674316,0.44812408089637756,0.2986607253551483,0.6115135550498962,0.6505457758903503,3.1484787464141846,2.2265796661376953,2.32993745803833,8.893670082092285,4.013421535491943,-0.04290942847728729,0.09621883183717728,0.038041599094867706,23.660137176513672,-23.320220947265625,-17.701379776000977,0.13463759422302246,-0.12127494812011719,-0.16096925735473633,2.1952998638153076,9.014945030212402,4.17439079284668
2_20251106_213647,1762436174362,2,0.5797256231307983,0.44817155599594116,0.2981722354888916,0.6116811037063599,0.6548004746437073,3.1469647884368896,2.2284746170043945,2.3419077396392822,8.906837463378906,4.136717796325684,-0.04290942847728729,0.09621883183717728,0.038041599094867706,23.704862594604492,-23.38050079345703,-17.633155822753906,0.11728644371032715,-0.0864858627319336,-0.030138492584228516,2.224621295928955,8.99332332611084,4.166856288909912
2_20251106_213647,1762436174381,2,0.5800347328186035,0.4482758939266205,0.29736775159835815,0.6117032170295715,0.6548004746437073,3.1469647884368896,2.2284746170043945,2.3419077396392822,8.906837463378906,4.136717796325684,-0.06673315167427063,0.030856303870677948,0.01055268943309784,23.689672470092773,-23.420181274414062,-17.512792587280273,0.11728644371032715,-0.0864858627319336,-0.030138492584228516,2.224621295928955,8.99332332611084,4.166856288909912
2_20251106_213647,1762436174402,2,0.580460786819458,0.44840458035469055,0.2964749038219452,0.6116381287574768,0.6641600131988525,3.143280506134033,2.2339022159576416,2.315572738647461,8.89965534210205,4.429994583129883,-0.04718548059463501,0.03757581487298012,-0.004718928597867489,23.696022033691406,-23.520111083984375,-17.487380981445312,0.05016469955444336,-0.06167125701904297,0.18219852447509766,2.2654080390930176,8.961326599121094,4.247796058654785
2_20251106_213647,1762436174420,2,0.5807968974113464,0.44827941060066223,0.2957723140716553,0.6117510199546814,0.6679472923278809,3.1415350437164307,2.236520767211914,2.279661178588867,8.869729042053223,4.339018821716309,-0.05146153271198273,0.06506473571062088,-0.011438440531492233,23.694303512573242,-23.55724334716797,-17.542238235473633,0.011402606964111328,-0.07327747344970703,0.07297801971435547,2.268258571624756,8.94300651550293,4.266040802001953
2_20251106_213647,1762436174440,2,0.5811657309532166,0.4478150010108948,0.2952461242675781,0.6119949817657471,0.6679472923278809,3.1415350437164307,2.236520767211914,2.279661178588867,8.869729042053223,4.339018821716309,-0.067954882979393,0.07667116075754166,0.0026114480569958687,23.75906753540039,-23.478469848632812,-17.4841365814209,0.011402606964111328,-0.07327747344970703,0.07297801971435547,2.268258571624756,8.94300651550293,4.266040802001953
2_20251106_213647,1762436174460,2,0.581565797328949,0.4473572373390198,0.2946530282497406,0.6122355461120605,0.676063060760498,3.1365418434143066,2.2430167198181152,2.3059961795806885,8.878108024597168,4.299516677856445,-0.067954882979393,0.07667116075754166,0.0026114480569958687,23.75906753540039,-23.478469848632812,-17.4841365814209,0.041581153869628906,-0.02927684783935547,0.01338052749633789,2.2644150257110596,8.907384872436523,4.286136150360107
2_20251106_213647,1762436174481,2,0.5816695094108582,0.4469544589519501,0.293949156999588,0.6127692461013794,0.6804525256156921,3.134303331375122,2.2465150356292725,2.405351161956787,8.960704803466797,4.40605354309082,-0.03374645859003067,0.007643444929271936,0.06614138185977936,23.78081703186035,-23.526840209960938,-17.51124382019043,0.11274886131286621,0.04265594482421875,0.09593391418457031,2.292602300643921,8.918048858642578,4.31011962890625
2_20251106_213647,1762436174498,2,0.5817564725875854,0.4473637640476227,0.29292240738868713,0.6128796935081482,0.68412846326828,3.1327385902404785,2.2494266033172607,2.4292922019958496,8.989433288574219,4.410841464996338,-0.00625754427164793,-0.011904226616024971,0.05636754631996155,23.78081703186035,-23.526840209960938,-17.51124382019043,0.10935187339782715,0.05710792541503906,0.08057737350463867,2.3199403285980225,8.93232536315918,4.330264091491699
2_20251106_213647,1762436174517,2,0.5817200541496277,0.4479416608810425,0.29196110367774963,0.61295086145401,0.68412846326828,3.1327385902404785,2.2494266033172607,2.4292922019958496,8.989433288574219,4.410841464996338,-0.00625754427164793,-0.011904226616024971,0.05636754631996155,23.81960105895996,-23.47503662109375,-17.42761993408203,0.10935187339782715,0.05710792541503906,0.08057737350463867,2.3199403285980225,8.93232536315918,4.330264091491699
2_20251106_213647,1762436174535,2,0.581712543964386,0.44837895035743713,0.29132479429244995,0.6129410266876221,0.6921160221099854,3.1298365592956543,2.254596471786499,2.406548500061035,8.999011039733887,4.19776725769043,-0.03313559293746948,0.016195550560951233,0.005054906941950321,23.772563934326172,-23.45269775390625,-17.469602584838867,0.05791902542114258,0.04938316345214844,-0.09226751327514648,2.3486294746398926,8.949627876281738,4.290034770965576
2_20251106_213647,1762436174554,2,0.5821037888526917,0.4487203061580658,0.29062050580978394,0.6126540303230286,0.6961080431938171,3.1285972595214844,2.257131338119507,2.390986680984497,8.970281600952148,4.374930381774902,-0.05512671917676926,0.025358520448207855,-0.00960584543645382,23.734695434570312,-23.480056762695312,-17.485116958618164,0.03388571739196777,0.016523361206054688,0.0679163932800293,2.3571009635925293,8.953758239746094,4.307013988494873
2_20251106_213647,1762436174573,2,0.5825819373130798,0.4489108920097351,0.2899717092514038,0.6123673319816589,0.700009822845459,3.127497911453247,2.259716033935547,2.396972179412842,8.982251167297363,4.371338844299316,-0.04413115605711937,0.03635408356785774,-0.016936222091317177,23.747587203979492,-23.466705322265625,-17.484363555908203,0.03189706802368164,0.02279376983642578,0.05145978927612305,2.36507511138916,8.959457397460938,4.319879055023193
2_20251106_213647,1762436174593,2,0.5830280184745789,0.448819100856781,0.2894435226917267,0.6122599244117737,0.7038105726242065,3.126526117324829,2.2621188163757324,2.3993661403656006,8.98584270477295,4.300713539123535,-0.025194350630044937,0.022304197773337364,-0.029153520241379738,23.761096954345703,-23.4293212890625,-17.374950408935547,0.027432680130004883,0.021108627319335938,-0.015332221984863281,2.3719334602355957,8.964734077453613,4.316045761108398
2_20251106_213647,1762436174612,2,0.5830761790275574,0.44870027899742126,0.28931450843811035,0.6123620867729187,0.7076219916343689,3.1256656646728516,2.2644495964050293,2.375424861907959,9.001404762268066,4.292334079742432,-0.025194350630044937,0.022304197773337364,-0.029153520241379738,23.674076080322266,-23.472015380859375,-17.43324089050293,0.0027930736541748047,0.029336929321289062,-0.01896953582763672,2.372631788253784,8.972067832946777,4.311303615570068
2_20251106_213647,1762436174631,2,0.5836715698242188,0.44895249605178833,0.2888338267803192,0.6118367314338684,0.7110661268234253,3.125058174133301,2.2664124965667725,2.374228000640869,9.033724784851074,4.260013580322266,-0.04107683524489403,-0.004573849495500326,-0.052977241575717926,23.65353775024414,-23.39879608154297,-17.378572463989258,0.0012769699096679688,0.04932594299316406,-0.04103231430053711,2.372951030731201,8.98439884185791,4.301045894622803
2_20251106_213647,1762436174650,2,0.584427535533905,0.4491325914859772,0.28831911087036133,0.6112253665924072,0.714318573474884,3.1246724128723145,2.2680792808532715,2.3658485412597656,9.054075241088867,4.228890419006348,-0.05085066705942154,-0.0027412553317844868,-0.0700814500451088,23.643564224243164,-23.361785888671875,-17.391788482666016,-0.0056819915771484375,0.055741310119628906,-0.0577244758605957,2.371530532836914,8.998333930969238,4.286614894866943
2_20251106_213647,1762436174670,2,0.5853649377822876,0.4492856562137604,0.2878190279006958,0.6104510426521301,0.7176083326339722,3.1245434284210205,2.269770622253418,2.3838045597076416,9.082803726196289,4.2947282791137695,-0.05757018178701401,-0.016791142523288727,-0.0902399867773056,23.5975284576416,-23.32648468017578,-17.474056243896484,0.009819269180297852,0.06757640838623047,0.0064907073974609375,2.3739852905273438,9.015227317810059,4.288237571716309
2_20251106_213647,1762436174690,2,0.5864822864532471,0.4494763910770416,0.2873122990131378,0.6094760894775391,0.7176083326339722,3.1245434284210205,2.269770622253418,2.3838045597076416,9.082803726196289,4.2947282791137695,-0.03985510393977165,-0.04305832460522652,-0.11895062774419785,23.672561645507812,-23.284317016601562,-17.443288803100586,0.009819269180297852,0.06757640838623047,0.0064907073974609375,2.3739852905273438,9.015227317810059,4.288237571716309
2_20251106_213647,1762436174708,2,0.5877515077590942,0.4497881829738617,0.28684261441230774,0.6082434058189392,0.7229450941085815,3.124460458755493,2.2737796306610107,2.2784640789031982,8.969083786010742,4.464709281921387,-0.01786397397518158,-0.04305832460522652,-0.14766128361225128,23.72653579711914,-23.192832946777344,-17.48002815246582,-0.0724337100982666,-0.043704986572265625,0.11868762969970703,2.350897789001465,9.012788772583008,4.34602165222168
2_20251106_213647,1762436174726,2,0.5890267491340637,0.44989731907844543,0.28665080666542053,0.607018232345581,0.7229450941085815,3.124460458755493,2.2737796306610107,2.2784640789031982,8.969083786010742,4.464709281921387,-0.01786397397518158,-0.04305832460522652,-0.14766128361225128,23.768930435180664,-23.0897216796875,-17.503477096557617,-0.0724337100982666,-0.043704986572265625,0.11868762969970703,2.350897789001465,9.012788772583008,4.34602165222168
2_20251106_213647,1762436174746,2,0.5903726816177368,0.44976261258125305,0.28665488958358765,0.6058074235916138,0.726438045501709,3.1231281757354736,2.2778148651123047,2.171926498413086,8.821847915649414,4.315077781677246,-0.026416080072522163,-0.04489091783761978,-0.17392846941947937,23.774457931518555,-23.001014709472656,-17.582727432250977,-0.11894679069519043,-0.1323528289794922,-0.02535867691040039,2.2908732891082764,8.954200744628906,4.3404364585876465
2_20251106_213647,1762436174764,2,0.591913104057312,0.4497118294239044,0.28656214475631714,0.6043842434883118,0.7274360060691833,3.1217119693756104,2.2799830436706543,2.13840913772583,8.741644859313965,4.467103004455566,-0.025194350630044937,-0.07115810364484787,-0.19164353609085083,23.867908477783203,-22.856788635253906,-17.630455017089844,-0.12197136878967285,-0.1700448989868164,0.1013331413269043,2.260380506515503,8.911689758300781,4.365769863128662
2_20251106_213647,1762436174784,2,0.5935922265052795,0.449771910905838,0.28640735149383545,0.6027638912200928,0.7276592254638672,3.119371175765991,2.282320976257324,2.0055367946624756,8.607575416564941,4.4216156005859375,-0.025194350630044937,-0.07115810364484787,-0.19164353609085083,23.932559967041016,-22.789764404296875,-17.653717041015625,-0.20387506484985352,-0.24329185485839844,0.044676780700683594,2.209411859512329,8.85086727142334,4.376938819885254
2_20251106_213647,1762436174803,2,0.5952499508857727,0.44973334670066833,0.28651660680770874,0.601103663444519,0.7268842458724976,3.1163218021392822,2.2840871810913086,1.8535114526748657,8.509416580200195,4.25163459777832,0.010235803201794624,-0.08215366303920746,-0.23623666167259216,23.9990177154541,-22.69708251953125,-17.730514526367188,-0.2847203016281128,-0.2731599807739258,-0.10024356842041016,2.1382317543029785,8.782576560974121,4.3518781661987305
2_20251106_213647,1762436174821,2,0.597051203250885,0.449563592672348,0.2867320477962494,0.599338948726654,0.7268842458724976,3.1163218021392822,2.2840871810913086,1.8535114526748657,8.509416580200195,4.25163459777832,-0.029470402747392654,-0.09376009553670883,-0.25761693716049194,24.1019344329834,-22.602157592773438,-17.79232406616211,-0.2847203016281128,-0.2731599807739258,-0.10024356842041016,2.1382317543029785,8.782576560974121,4.3518781661987305
2_20251106_213647,1762436174841,2,0.59930819272995,0.4492936134338379,0.2868264317512512,0.5972399711608887,0.7245995998382568,3.112260103225708,2.2855777740478516,1.6416337490081787,8.449563980102539,4.2612104415893555,-0.07406352460384369,-0.0693255066871643,-0.2649472951889038,24.133342742919922,-22.486610412597656,-17.883581161499023,-0.3972785472869873,-0.26640987396240234,-0.07253408432006836,2.038912296295166,8.715973854064941,4.333744525909424
2_20251106_213647,1762436174860,2,0.6018356084823608,0.44843581318855286,0.2869982421398163,0.5952572822570801,0.716159462928772,3.1031196117401123,2.2886545658111572,1.3172334432601929,8.40048599243164,4.445556640625,-0.07406352460384369,-0.0693255066871643,-0.2649472951889038,24.2273006439209,-22.330093383789062,-17.904014587402344,-0.48428332805633545,-0.20497703552246094,0.08113622665405273,1.8015167713165283,8.605463027954102,4.364420413970947
2_20251106_213647,1762436174881,2,0.6044077277183533,0.44689902663230896,0.2872835397720337,0.5936671495437622,0.7087944149971008,3.0973541736602783,2.2910807132720947,1.1855579614639282,8.426820755004883,4.562867164611816,-0.1455347090959549,-0.0021303906105458736,-0.21607813239097595,24.307662963867188,-22.199485778808594,-17.925464630126953,-0.4927670955657959,-0.142913818359375,0.15875720977783203,1.6783250570297241,8.569734573364258,4.404109954833984
2_20251106_213647,1762436174899,2,0.6068608164787292,0.4449481666088104,0.28747156262397766,0.5925379395484924,0.7015159726142883,3.09242844581604,2.2937536239624023,1.158025860786438,8.475898742675781,4.687359809875488,-0.16996930539608002,0.00642171548679471,-0.15865685045719147,24.436052322387695,-22.089874267578125,-18.04009437561035,-0.4162393808364868,-0.07506847381591797,0.22659969329833984,1.5742652416229248,8.5509672164917,4.460760116577148
2_20251106_213647,1762436174919,2,0.6091274619102478,0.4427892565727234,0.2874184846878052,0.5918547511100769,0.7015159726142883,3.09242844581604,2.2937536239624023,1.158025860786438,8.475898742675781,4.687359809875488,-0.16996930539608002,0.00642171548679471,-0.15865685045719147,24.436052322387695,-22.089874267578125,-18.04009437561035,-0.4162393808364868,-0.07506847381591797,0.22659969329833984,1.5742652416229248,8.5509672164917,4.460760116577148
2_20251106_213647,1762436174937,2,0.6111441254615784,0.4408511519432068,0.28709155321121216,0.5913810133934021,0.6838867664337158,3.0830209255218506,2.301724672317505,1.1269025802612305,8.645881652832031,4.801080226898193,-0.13209567964076996,-0.017402008175849915,-0.06152934581041336,24.45497703552246,-21.97552490234375,-18.091293334960938,-0.29014265537261963,0.07376956939697266,0.2156982421875,1.41704523563385,8.572112083435059,4.585381984710693
2_20251106_213647,1762436174956,2,0.6127640604972839,0.439164400100708,0.28668180108070374,0.5911585092544556,0.6743918657302856,3.0791051387786865,2.3063604831695557,1.0897940397262573,8.681793212890625,4.808261871337891,-0.13209567964076996,-0.017402008175849915,-0.06152934581041336,24.549428939819336,-21.818336486816406,-18.179306030273438,-0.26180100440979004,0.08774471282958984,0.17830371856689453,1.3515950441360474,8.594048500061035,4.629958152770996
2_20251106_213647,1762436174975,2,0.6140768527984619,0.43768295645713806,0.28623151779174805,0.5911131501197815,0.664768397808075,3.0759215354919434,2.3111519813537598,1.1316907405853271,8.789525985717773,4.771153450012207,-0.1247652918100357,-0.0021303906105458736,-0.013271035626530647,24.59484100341797,-21.66473388671875,-18.22873306274414,-0.17592346668243408,0.15638160705566406,0.11295604705810547,1.3076142072677612,8.63314437866211,4.658197402954102
2_20251106_213647,1762436174994,2,0.6147171854972839,0.4367615878582001,0.28534334897994995,0.5915583372116089,0.6553831696510315,3.0736939907073975,2.3160696029663086,1.219075322151184,8.923595428466797,4.791503429412842,-0.14797817170619965,0.07239510864019394,0.08202386647462845,24.653440475463867,-21.49737548828125,-18.31795310974121,-0.07083117961883545,0.23236083984375,0.1066446304321289,1.2899065017700195,8.691234588623047,4.684858798980713
2_20251106_213647,1762436175013,2,0.6151458621025085,0.4358064830303192,0.28436359763145447,0.5922884941101074,0.6464962363243103,3.0724122524261475,2.321194887161255,1.3004746437072754,8.9954195022583,4.85015869140625,-0.1247652992606163,0.08033635467290878,0.10096066445112228,24.721715927124023,-21.367431640625,-18.353410720825195,0.008454561233520508,0.2433481216430664,0.13223981857299805,1.2920200824737549,8.752071380615234,4.717918872833252
2_20251106_213647,1762436175032,2,0.6149287223815918,0.43481647968292236,0.2837825119495392,0.5935189723968506,0.63828045129776,3.0720036029815674,2.3263347148895264,1.3746917247772217,9.046892166137695,4.816641807556152,-0.0942220613360405,0.08888845890760422,0.12111920863389969,24.726736068725586,-21.29100799560547,-18.459957122802734,0.06613731384277344,0.2358570098876953,0.0789785385131836,1.3085544109344482,8.81103515625,4.737663269042969
2_20251106_213647,1762436175051,2,0.6147839426994324,0.4341827929019928,0.2830806374549866,0.594467282295227,0.6313968896865845,3.0723021030426025,2.3311963081359863,1.5159435272216797,9.0816068649292,4.833400726318359,-0.0942220613360405,0.08888845890760422,0.12111920863389969,24.75653648376465,-21.200843811035156,-18.524709701538086,0.16591131687164307,0.21645736694335938,0.07659006118774414,1.3500322103500366,8.86514949798584,4.756810665130615
2_20251106_213647,1762436175071,2,0.6144446730613708,0.4337078928947449,0.2823120951652527,0.5955292582511902,0.6313968896865845,3.0723021030426025,2.3311963081359863,1.5159435272216797,9.0816068649292,4.833400726318359,-0.061846230179071426,0.09560797363519669,0.16571231186389923,24.7222900390625,-21.165283203125,-18.55242156982422,0.16591131687164307,0.21645736694335938,0.07659006118774414,1.3500322103500366,8.86514949798584,4.756810665130615
2_20251106_213647,1762436175090,2,0.6138703227043152,0.43338096141815186,0.281631737947464,0.5966805815696716,0.6244417428970337,3.0736913681030273,2.3371405601501465,1.6320573091506958,9.148641586303711,4.838188171386719,-0.061846230179071426,0.09560797363519669,0.16571231186389923,24.784221649169922,-21.148353576660156,-18.590255737304688,0.22562003135681152,0.2267932891845703,0.06510210037231445,1.4064372777938843,8.92184829711914,4.773086071014404
2_20251106_213647,1762436175109,2,0.6131362318992615,0.4332912564277649,0.2810809314250946,0.5977593064308167,0.6197904944419861,3.075631618499756,2.3423593044281006,1.8523144721984863,9.165400505065918,4.801079750061035,-0.029470402747392654,0.09438624233007431,0.1718209683895111,24.782712936401367,-21.173599243164062,-18.577266693115234,0.35670173168182373,0.1948413848876953,0.02239513397216797,1.4956127405166626,8.970559120178223,4.778684616088867
2_20251106_213647,1762436175128,2,0.6123293042182922,0.433617502450943,0.2805521488189697,0.5985976457595825,0.6154033541679382,3.0801918506622314,2.350424289703369,2.028280735015869,9.160612106323242,4.704118728637695,0.012068398296833038,0.03268889710307121,0.14494290947914124,24.744447708129883,-21.201499938964844,-18.53871726989746,0.3499094247817993,0.12086772918701172,-0.04293394088745117,1.6783713102340698,9.03974437713623,4.7470526695251465
2_20251106_213647,1762436175146,2,0.6116557121276855,0.4340936243534088,0.27998849749565125,0.5992048978805542,0.6154033541679382,3.0801918506622314,2.350424289703369,2.028280735015869,9.160612106323242,4.704118728637695,-0.012977056205272675,0.05834521725773811,0.1156214252114296,24.678892135620117,-21.281349182128906,-18.48868751525879,0.3499094247817993,0.12086772918701172,-0.04293394088745117,1.6783713102340698,9.03974437713623,4.7470526695251465
2_20251106_213647,1762436175166,2,0.6111348271369934,0.4345656931400299,0.2794572114944458,0.5996420383453369,0.615801990032196,3.085706949234009,2.3590409755706787,2.188685417175293,9.106744766235352,4.892055511474609,-0.007479273714125156,0.10599266737699509,0.0795804038643837,24.56288719177246,-21.38990020751953,-18.40060043334961,0.33847570419311523,0.033878326416015625,0.09395122528076172,1.8502097129821777,9.072866439819336,4.798104286193848
2_20251106_213647,1762436175185,2,0.6106106042861938,0.4345247149467468,0.27925732731819153,0.6002984642982483,0.6175076365470886,3.0881590843200684,2.363004207611084,2.199458599090576,9.016965866088867,4.734045028686523,0.015733586624264717,0.10721439868211746,0.04415024816989899,24.547895431518555,-21.429306030273438,-18.307268142700195,0.27939915657043457,-0.04472064971923828,-0.051247596740722656,1.9200594425201416,9.061686515808105,4.785292625427246
2_20251106_213647,1762436175205,2,0.6100226044654846,0.4344831109046936,0.27932924032211304,0.6008926630020142,0.6197040677070618,3.0899291038513184,2.3661623001098633,2.1300299167633057,8.857759475708008,4.564064025878906,0.0346703939139843,0.0638430044054985,0.025824306532740593,24.48163604736328,-21.521713256835938,-18.257503509521484,0.16797637939453125,-0.16314125061035156,-0.17698287963867188,1.9620535373687744,9.02090072631836,4.741046905517578
2_20251106_213647,1762436175222,2,0.6096184849739075,0.434930682182312,0.27929967641830444,0.600992739200592,0.6220502853393555,3.091043710708618,2.3686277866363525,2.112074136734009,8.826635360717773,4.588005065917969,0.0346703939139843,0.0638430044054985,0.025824306532740593,24.47801399230957,-21.584632873535156,-18.24530601501465,0.12001645565032959,-0.1554126739501953,-0.12243366241455078,1.9920576810836792,8.982048034667969,4.7104387283325195
2_20251106_213647,1762436175242,2,0.609376072883606,0.4355609118938446,0.27897217869758606,0.6009342670440674,0.625066339969635,3.091886043548584,2.3710508346557617,2.1695327758789062,8.872123718261719,4.6514482498168945,0.005348885431885719,0.012530362233519554,0.03987419605255127,24.38828468322754,-21.665802001953125,-18.223289489746094,0.14198017120361328,-0.08793926239013672,-0.04719257354736328,2.027552604675293,8.960062980651855,4.698640823364258
2_20251106_213647,1762436175261,2,0.6092694997787476,0.43617701530456543,0.27845579385757446,0.6008349657058716,0.6281746029853821,3.092559337615967,2.373295307159424,2.168335437774658,8.928384780883789,4.719680309295654,-0.0013706265017390251,0.01069776900112629,0.02948949672281742,24.29986572265625,-21.722000122070312,-18.187231063842773,0.11262631416320801,-0.02534198760986328,0.016831398010253906,2.05570912361145,8.953726768493652,4.7028489112854
2_20251106_213647,1762436175280,2,0.6091815233230591,0.436687171459198,0.2779189944267273,0.6008021235466003,0.6281746029853821,3.092559337615967,2.373295307159424,2.168335437774658,8.928384780883789,4.719680309295654,-0.00625754427164793,0.022304197773337364,0.009330959990620613,24.319303512573242,-21.808311462402344,-18.18809700012207,0.11262631416320801,-0.02534198760986328,0.016831398010253906,2.05570912361145,8.953726768493652,4.7028489112854
2_20251106_213647,1762436175300,2,0.6091745495796204,0.4369600713253021,0.27754682302474976,0.6007828712463379,0.6344466805458069,3.0932741165161133,2.377413272857666,2.108483076095581,8.869729995727539,4.646660804748535,0.00351629126816988,0.022915061563253403,0.0013897181488573551,24.367046356201172,-21.818099975585938,-18.145851135253906,0.03051924705505371,-0.057013511657714844,-0.047835350036621094,2.0779638290405273,8.926743507385254,4.694496154785156
2_20251106_213647,1762436175319,2,0.6093302965164185,0.43726393580436707,0.2772033214569092,0.6005623936653137,0.6375679969787598,3.0931921005249023,2.3788564205169678,2.0833449363708496,8.818255424499512,4.537729263305664,0.03344866260886192,-0.007017308380454779,0.004444041755050421,24.452743530273438,-21.811996459960938,-18.196483612060547,0.0043048858642578125,-0.0867910385131836,-0.1254134178161621,2.079040050506592,8.905046463012695,4.663142681121826
2_20251106_213647,1762436175339,2,0.6108808517456055,0.4386371970176697,0.2758295238018036,0.5986151099205017,0.6404808759689331,3.092515707015991,2.3795294761657715,2.061798095703125,8.70812702178955,4.433586120605469,0.048720281571149826,-0.037560541182756424,0.0020005828700959682,24.451025009155273,-21.84912872314453,-18.251338958740234,-0.013793468475341797,-0.15753555297851562,-0.18364524841308594,2.075591564178467,8.865662574768066,4.617231369018555
2_20251106_213647,1762436175357,2,0.6121997237205505,0.44020581245422363,0.2746098041534424,0.5966739654541016,0.6428813934326172,3.0913164615631104,2.3797264099121094,2.0390541553497314,8.61355972290039,4.463511943817139,0.02489655837416649,-0.04611264914274216,-0.007162387482821941,24.451025009155273,-21.84912872314453,-18.251338958740234,-0.02922987937927246,-0.20168209075927734,-0.12297582626342773,2.068284034729004,8.815241813659668,4.586487770080566
2_20251106_213647,1762436175376,2,0.6135625839233398,0.4416358768939972,0.27334511280059814,0.5947950482368469,0.6428813934326172,3.0913164615631104,2.3797264099121094,2.0390541553497314,8.61355972290039,4.463511943817139,-0.0013706265017390251,-0.043669190257787704,-0.026710057631134987,24.40288734436035,-21.839881896972656,-18.239521026611328,-0.02922987937927246,-0.20168209075927734,-0.12297582626342773,2.068284034729004,8.815241813659668,4.586487770080566
2_20251106_213647,1762436175396,2,0.6149102449417114,0.44261670112609863,0.2721790075302124,0.5932068824768066,0.6471771597862244,3.086571455001831,2.3796308040618896,1.9600489139556885,8.473505020141602,4.532940864562988,-0.012977056205272675,-0.050388701260089874,-0.05542070418596268,24.37720489501953,-21.86644744873047,-18.254547119140625,-0.08229422569274902,-0.22503185272216797,-0.03197145462036133,2.0423431396484375,8.69853687286377,4.56491231918335
2_20251106_213647,1762436175414,2,0.6155104637145996,0.4429243206977844,0.2716882526874542,0.5925794243812561,0.6471771597862244,3.086571455001831,2.3796308040618896,1.9600489139556885,8.473505020141602,4.532940864562988,-0.028859538957476616,-0.04244745895266533,-0.07557923346757889,24.389291763305664,-21.86578369140625,-18.24053955078125,-0.08229422569274902,-0.22503185272216797,-0.03197145462036133,2.0423431396484375,8.69853687286377,4.56491231918335
2_20251106_213647,1762436175434,2,0.6162566542625427,0.4429131746292114,0.27135202288627625,0.5919659733772278,0.6486498713493347,3.079181432723999,2.3793575763702393,1.7134567499160767,8.436397552490234,4.5927934646606445,-0.0734526664018631,-0.017402008175849915,-0.06397280842065811,24.41558074951172,-21.82678985595703,-18.211734771728516,-0.22255349159240723,-0.1629810333251953,0.02703714370727539,1.9360102415084839,8.59937858581543,4.565756320953369
2_20251106_213647,1762436175453,2,0.6171368956565857,0.44235959649086,0.27103912830352783,0.5916061401367188,0.648311972618103,3.075216770172119,2.379584789276123,1.7098655700683594,8.469914436340332,4.676587104797363,-0.0734526664018631,-0.017402008175849915,-0.06397280842065811,24.392322540283203,-21.803665161132812,-18.17163848876953,-0.1809157133102417,-0.10357093811035156,0.08866453170776367,1.890781283378601,8.573485374450684,4.5879225730896
2_20251106_213647,1762436175472,2,0.6178874373435974,0.441476434469223,0.27063438296318054,0.5916677117347717,0.6476419568061829,3.0715203285217285,2.380222797393799,1.7421859502792358,8.521388053894043,4.763971328735352,-0.11499146372079849,-0.024121521040797234,0.0026114480569958687,24.353254318237305,-21.844261169433594,-18.119836807250977,-0.11887633800506592,-0.041678428649902344,0.1408390998840332,1.8610622882843018,8.563066482543945,4.623132228851318
