session_id,timestamp,label,quaternion_w,quaternion_x,quaternion_y,quaternion_z,position_x,position_y,position_z,accelerometer_x,accelerometer_y,accelerometer_z,gyroscope_x,gyroscope_y,gyroscope_z,magnetometer_x,magnetometer_y,magnetometer_z,linear_acceleration_x,linear_acceleration_y,linear_acceleration_z,gravity_x,gravity_y,gravity_z
1_20251106_212335,1762435378530,1,0.24485079944133759,0.46349671483039856,0.6917715668678284,0.4966598153114319,0.6038820743560791,2.5630581378936768,1.342873454093933,1.1687992811203003,9.110336303710938,-3.025228500366211,-0.2686353921890259,-0.07028761506080627,-0.06904679536819458,25.84400749206543,-15.76239013671875,28.210201263427734,0.08418035507202148,1.4775481224060059,-0.01681375503540039,1.0846189260482788,7.632788181304932,-3.0084147453308105
1_20251106_212335,1762435378550,1,0.2464277446269989,0.4620267450809479,0.6909838914871216,0.4983431398868561,0.6029941439628601,2.581516742706299,1.290946125984192,1.1280995607376099,9.146247863769531,-3.0192432403564453,-0.2002185583114624,-0.09838739037513733,-0.053164318203926086,25.898067474365234,-16.119895935058594,28.01626205444336,0.034784555435180664,1.2107677459716797,-0.008662700653076172,1.0933150053024292,7.935480117797852,-3.010580539703369
1_20251106_212335,1762435378569,1,0.24784483015537262,0.46102139353752136,0.6903533339500427,0.4994441568851471,0.6019072532653809,2.6016781330108643,1.2437262535095215,0.9892418384552002,9.212085723876953,-3.1401453018188477,-0.18739038705825806,-0.03546833246946335,-0.040336161851882935,25.90336799621582,-16.4921875,27.725482940673828,-0.08325850963592529,1.0212841033935547,-0.10365176200866699,1.0725003480911255,8.190801620483398,-3.0364935398101807
1_20251106_212335,1762435378588,1,0.2487357258796692,0.4598345458507538,0.689872145652771,0.5007585287094116,0.6005313396453857,2.6239585876464844,1.1979655027389526,0.9473451375961304,9.33059310913086,-3.3651907444000244,-0.17639482021331787,0.032337650656700134,0.012809070758521557,25.96437644958496,-16.72425079345703,27.547698974609375,-0.10012412071228027,0.9118328094482422,-0.2629578113555908,1.0474692583084106,8.418760299682617,-3.1022329330444336
1_20251106_212335,1762435378607,1,0.2489624172449112,0.45879223942756653,0.6893270015716553,0.5023501515388489,0.5994717478752136,2.6478466987609863,1.1529502868652344,1.1376758813858032,9.410795211791992,-3.6644530296325684,-0.17639482021331787,0.032337650656700134,0.012809070758521557,25.96666717529297,-16.9224853515625,27.354740142822266,0.07216525077819824,0.7936277389526367,-0.44977593421936035,1.065510630607605,8.617167472839355,-3.214677095413208
1_20251106_212335,1762435378626,1,0.24905331432819366,0.4584433138370514,0.6885694861412048,0.5036608576774597,0.5991025567054749,2.6715126037597656,1.1116297245025635,1.3028688430786133,9.49698257446289,-3.542354106903076,-0.15012764930725098,-0.14359137415885925,0.1276516318321228,26.008747100830078,-17.055953979492188,27.205120086669922,0.18988656997680664,0.7038516998291016,-0.26214146614074707,1.1129822731018066,8.793130874633789,-3.280212640762329
1_20251106_212335,1762435378645,1,0.24971988797187805,0.4591350257396698,0.6872552037239075,0.5044950842857361,0.5997013449668884,2.6987783908843994,1.0678316354751587,1.4381353855133057,9.544864654541016,-3.340052604675293,-0.15012764930725098,-0.14359137415885925,0.1276516318321228,26.065929412841797,-17.138267517089844,27.043529510498047,0.26012253761291504,0.6013870239257812,-0.047872066497802734,1.1780128479003906,8.943477630615234,-3.2921805381774902
1_20251106_212335,1762435378664,1,0.25050675868988037,0.4603655934333801,0.6858016848564148,0.5049612522125244,0.6012181639671326,2.725597381591797,1.0285732746124268,1.5338993072509766,9.749560356140137,-3.1940126419067383,-0.11653007566928864,-0.1918496936559677,0.1325385570526123,26.08673858642578,-17.23430633544922,26.758556365966797,0.28470921516418457,0.6448659896850586,0.07853436470031738,1.249190092086792,9.104694366455078,-3.2725470066070557
1_20251106_212335,1762435378683,1,0.25130000710487366,0.4614080786705017,0.6844468712806702,0.5054536461830139,0.6012181639671326,2.725597381591797,1.0285732746124268,1.5338993072509766,9.749560356140137,-3.1940126419067383,-0.15012764930725098,-0.09105701744556427,0.0708412230014801,26.15328598022461,-17.366050720214844,26.59640121459961,0.28470921516418457,0.6448659896850586,0.07853436470031738,1.249190092086792,9.104694366455078,-3.2725470066070557
1_20251106_212335,1762435378702,1,0.2519294023513794,0.46153324842453003,0.6833734512329102,0.506477415561676,0.6064334511756897,2.7796952724456787,0.9577136039733887,1.5793871879577637,9.590353012084961,-3.021637439727783,-0.15012764930725098,-0.09105701744556427,0.0708412230014801,26.147607803344727,-17.50135040283203,26.309654235839844,0.21477365493774414,0.29051971435546875,0.1588585376739502,1.3646135330200195,9.299833297729492,-3.1804959774017334
1_20251106_212335,1762435378721,1,0.2522045075893402,0.4606548547744751,0.6826484203338623,0.508115291595459,0.6096165180206299,2.8057990074157715,0.9257086515426636,1.5159435272216797,9.524515151977539,-3.0048789978027344,-0.18311433494091034,0.02683986909687519,0.004256964195519686,26.16864013671875,-17.573890686035156,26.18740463256836,0.1210639476776123,0.17974567413330078,0.14049363136291504,1.3948795795440674,9.344769477844238,-3.1453726291656494
1_20251106_212335,1762435378740,1,0.2525721490383148,0.4597715437412262,0.6819296479225159,0.5096954107284546,0.6128904819488525,2.830933094024658,0.8957517743110657,1.4860173463821411,9.467056274414062,-2.9821348190307617,-0.09392808377742767,-0.11854593455791473,0.03907625377178192,26.173751831054688,-17.721893310546875,25.995498657226562,0.07291018962860107,0.09782981872558594,0.13059020042419434,1.41310715675354,9.369226455688477,-3.112725019454956
1_20251106_212335,1762435378759,1,0.25327932834625244,0.45996445417404175,0.6811934113502502,0.510154664516449,0.6128904819488525,2.830933094024658,0.8957517743110657,1.4860173463821411,9.467056274414062,-2.9821348190307617,-0.03467421233654022,-0.2535470426082611,0.06778689473867416,26.202838897705078,-17.868850708007812,25.858638763427734,0.07291018962860107,0.09782981872558594,0.13059020042419434,1.41310715675354,9.369226455688477,-3.112725019454956
1_20251106_212335,1762435378779,1,0.2544936239719391,0.4611782133579254,0.6802690029144287,0.5096879005432129,0.6201651096343994,2.88036847114563,0.8384485244750977,1.5386874675750732,9.52331829071045,-3.0455784797668457,-0.03528507426381111,-0.3103574812412262,0.061067383736371994,26.228601455688477,-18.078323364257812,25.69342803955078,0.0796053409576416,0.08961772918701172,0.06519103050231934,1.4590821266174316,9.433700561523438,-3.110769510269165
1_20251106_212335,1762435378799,1,0.2560696303844452,0.46261367201805115,0.6792600154876709,0.5089427828788757,0.6201651096343994,2.88036847114563,0.8384485244750977,1.5386874675750732,9.52331829071045,-3.0455784797668457,-0.03528507426381111,-0.3103574812412262,0.061067383736371994,26.281356811523438,-18.236244201660156,25.55728530883789,0.0796053409576416,0.08961772918701172,0.06519103050231934,1.4590821266174316,9.433700561523438,-3.110769510269165
1_20251106_212335,1762435378818,1,0.25755754113197327,0.46385684609413147,0.678506076335907,0.508065402507782,0.6270041465759277,2.9249536991119385,0.7868144512176514,1.37708580493927,9.362913131713867,-3.258653163909912,-0.0358959399163723,-0.20528872311115265,-0.005516870878636837,26.33845329284668,-18.30707550048828,25.50408935546875,-0.07143890857696533,-0.05200767517089844,-0.12471532821655273,1.4485247135162354,9.414920806884766,-3.1339378356933594
1_20251106_212335,1762435378836,1,0.25879761576652527,0.46436330676078796,0.6780200004577637,0.5076212882995605,0.6293697357177734,2.9437520503997803,0.76459139585495,1.2717455625534058,9.362913131713867,-3.13655424118042,-0.0358959399163723,-0.20528872311115265,-0.005516870878636837,26.33845329284668,-18.30707550048828,25.50408935546875,-0.14142334461212158,-0.04160594940185547,-0.002093076705932617,1.4131689071655273,9.404519081115723,-3.1344611644744873
1_20251106_212335,1762435378855,1,0.2598153352737427,0.4641630947589874,0.6776562333106995,0.507770299911499,0.6314294338226318,2.9622092247009277,0.7421267628669739,1.2992775440216064,9.261163711547852,-3.199997901916504,-0.0719369500875473,-0.08189404755830765,-0.03544924035668373,26.346187591552734,-18.405120849609375,25.34027099609375,-0.09111309051513672,-0.1146841049194336,-0.05242919921875,1.3903906345367432,9.375847816467285,-3.147568702697754
1_20251106_212335,1762435378875,1,0.2606123983860016,0.4638109803199768,0.677433967590332,0.5079801082611084,0.6332248449325562,2.979363203048706,0.7204050421714783,1.331597924232483,9.237223625183105,-3.2861855030059814,-0.05971965938806534,-0.12709803879261017,-0.030562326312065125,26.440038681030273,-18.473297119140625,25.261512756347656,-0.04703414440155029,-0.1108999252319336,-0.11089348793029785,1.3786320686340332,9.348123550415039,-3.1752920150756836
1_20251106_212335,1762435378894,1,0.2616468369960785,0.4638114273548126,0.6771044731140137,0.5078871846199036,0.6346142292022705,2.9954044818878174,0.699530839920044,1.2633662223815918,9.255178451538086,-3.262244462966919,-0.04872409999370575,-0.18940624594688416,-0.021399352699518204,26.508602142333984,-18.5675048828125,25.113666534423828,-0.09221267700195312,-0.0743560791015625,-0.06956195831298828,1.355578899383545,9.329534530639648,-3.1926825046539307
1_20251106_212335,1762435378912,1,0.262971967458725,0.4642125368118286,0.6766380667686462,0.5074577927589417,0.6346142292022705,2.9954044818878174,0.699530839920044,1.2633662223815918,9.255178451538086,-3.262244462966919,-0.03161988407373428,-0.2223929464817047,-0.017734166234731674,26.578182220458984,-18.63713836669922,25.02041244506836,-0.09221267700195312,-0.0743560791015625,-0.06956195831298828,1.355578899383545,9.329534530639648,-3.1926825046539307
1_20251106_212335,1762435378932,1,0.2646195590496063,0.46508631110191345,0.6759788393974304,0.5066791772842407,0.6352829337120056,3.0110669136047363,0.6784852147102356,1.118523120880127,9.204902648925781,-3.2490768432617188,-0.030398156493902206,-0.21567341685295105,-0.004906006157398224,26.684009552001953,-18.716407775878906,24.874298095703125,-0.18964457511901855,-0.09970569610595703,-0.04511547088623047,1.3081676959991455,9.304608345031738,-3.2039613723754883
1_20251106_212335,1762435378951,1,0.26594775915145874,0.46552199125289917,0.6754608750343323,0.5062742829322815,0.6349705457687378,3.02530837059021,0.658460259437561,0.9964240789413452,9.09477424621582,-3.214362382888794,-0.041393719613552094,-0.16497164964675903,0.02685895934700966,26.794376373291016,-18.70831298828125,24.784099578857422,-0.24939489364624023,-0.16786766052246094,-0.00832056999206543,1.2458189725875854,9.262641906738281,-3.2060418128967285
1_20251106_212335,1762435378971,1,0.26696059107780457,0.4658271074295044,0.6749404668807983,0.5061545968055725,0.6338401436805725,3.0374674797058105,0.6399576663970947,0.9365717172622681,9.009783744812012,-3.3627967834472656,-0.06582830846309662,-0.15947386622428894,0.054347869008779526,26.903430938720703,-18.725196838378906,24.679855346679688,-0.247397780418396,-0.2022867202758789,-0.12540411949157715,1.183969497680664,9.21207046508789,-3.2373926639556885
1_20251106_212335,1762435378991,1,0.26790809631347656,0.46636131405830383,0.6743079423904419,0.5060051083564758,0.630255937576294,3.0585527420043945,0.6051333546638489,1.0119857788085938,8.967886924743652,-3.246682643890381,-0.08109992742538452,-0.15886300802230835,0.060456518083810806,27.083375930786133,-18.78673553466797,24.49639892578125,-0.10451531410217285,-0.16834449768066406,0.0074615478515625,1.1165010929107666,9.136231422424316,-3.2541441917419434
1_20251106_212335,1762435379009,1,0.2688671350479126,0.46691372990608215,0.6735209822654724,0.5060351490974426,0.6280598640441895,3.067194938659668,0.5891264081001282,0.9832565784454346,8.836212158203125,-3.2263331413269043,-0.08109992742538452,-0.15886300802230835,0.060456518083810806,27.24087905883789,-18.80084991455078,24.43466567993164,-0.10659563541412354,-0.24001502990722656,0.02224874496459961,1.089852213859558,9.076227188110352,-3.248581886291504
1_20251106_212335,1762435379027,1,0.2697750926017761,0.4676418900489807,0.6726710200309753,0.5060099959373474,0.6257354021072388,3.0741167068481445,0.5741648077964783,0.9485421776771545,8.728477478027344,-3.4741220474243164,-0.04811323434114456,-0.17779980599880219,0.086112841963768,27.311767578125,-18.845504760742188,24.355453491210938,-0.1130480170249939,-0.2782001495361328,-0.18043208122253418,1.0615901947021484,9.006677627563477,-3.2936899662017822
1_20251106_212335,1762435379046,1,0.2705662250518799,0.4685666561126709,0.6718389987945557,0.5058375000953674,0.6231206059455872,3.0799200534820557,0.558137834072113,0.9581185579299927,8.59201431274414,-3.6668472290039062,-0.0615522563457489,-0.2285015881061554,0.106882244348526,27.39603042602539,-18.88774871826172,24.11453628540039,-0.08277738094329834,-0.33173084259033203,-0.2985258102416992,1.040895938873291,8.923745155334473,-3.368321418762207
1_20251106_212335,1762435379066,1,0.27164527773857117,0.4701744019985199,0.6708025932312012,0.505142331123352,0.6203765869140625,3.0836167335510254,0.5420898795127869,0.9461480975151062,8.261628150939941,-3.668044090270996,-0.0774347335100174,-0.3011944890022278,0.10810396820306778,27.49057388305664,-18.954986572265625,23.941165924072266,-0.07579833269119263,-0.529693603515625,-0.2397782802581787,1.0219464302062988,8.791321754455566,-3.4282658100128174
1_20251106_212335,1762435379085,1,0.27329564094543457,0.47254452109336853,0.6694414615631104,0.5038445591926575,0.6171619892120361,3.085120677947998,0.5252693295478821,0.8671427965164185,8.070099830627441,-3.6824088096618652,-0.11530834436416626,-0.31829869747161865,0.08855629712343216,27.597206115722656,-19.021560668945312,23.78179931640625,-0.12384289503097534,-0.5769777297973633,-0.20331454277038574,0.9909856915473938,8.647077560424805,-3.4790942668914795
1_20251106_212335,1762435379104,1,0.2752027213573456,0.47485923767089844,0.668002188205719,0.502538800239563,0.6135367751121521,3.0838801860809326,0.5100696086883545,0.7270880937576294,7.700211524963379,-3.4860925674438477,-0.15806889533996582,-0.27614903450012207,0.06228911504149437,27.64138412475586,-19.12897491455078,23.53809356689453,-0.21111810207366943,-0.7574930191040039,-0.005598783493041992,0.9382061958312988,8.457704544067383,-3.4804937839508057
1_20251106_212335,1762435379123,1,0.27719810605049133,0.47674912214279175,0.6666382551193237,0.5014627575874329,0.6092278957366943,3.0798583030700684,0.49534517526626587,0.622944712638855,7.421298980712891,-3.5842506885528564,-0.21915535628795624,-0.12648716568946838,0.08489111065864563,27.7442684173584,-19.281829833984375,23.214683532714844,-0.2522091865539551,-0.8291244506835938,-0.08300566673278809,0.8751538991928101,8.250423431396484,-3.5012450218200684
1_20251106_212335,1762435379143,1,0.2784595191478729,0.4772145748138428,0.6650522351264954,0.5024261474609375,0.604661762714386,3.072908401489258,0.4802774488925934,0.7905316352844238,7.287229537963867,-3.6141772270202637,-0.3193371593952179,-0.01897498406469822,0.13559287786483765,27.785133361816406,-19.440139770507812,23.03750228881836,-0.06769782304763794,-0.7705554962158203,-0.09034585952758789,0.8582294583320618,8.057785034179688,-3.523831367492676
1_20251106_212335,1762435379161,1,0.2793503701686859,0.4773712158203125,0.6629667282104492,0.5045346617698669,0.6015042662620544,3.0662715435028076,0.4679854214191437,1.0993703603744507,7.591279983520508,-3.5806596279144287,-0.40424734354019165,-0.0739528015255928,0.1838511824607849,27.825986862182617,-19.610069274902344,22.76544189453125,0.19291269779205322,-0.37320423126220703,-0.045462608337402344,0.9064576625823975,7.964484214782715,-3.5351970195770264
1_20251106_212335,1762435379180,1,0.2806569039821625,0.4778428077697754,0.6601353883743286,0.5070692896842957,0.5989220142364502,3.0583889484405518,0.4557211697101593,1.2178783416748047,7.81153678894043,-3.0503668785095215,-0.3663737177848816,-0.2792033553123474,0.20217713713645935,27.905216217041016,-19.74034881591797,22.53619384765625,0.2491365671157837,-0.12235784530639648,0.3878641128540039,0.968741774559021,7.933894634246826,-3.4382309913635254
1_20251106_212335,1762435379199,1,0.282953143119812,0.47954145073890686,0.6568067669868469,0.5085099935531616,0.597288191318512,3.0511133670806885,0.44681376218795776,1.2226665019989014,7.874980449676514,-2.650552272796631,-0.1849469244480133,-0.4386390745639801,0.2351638227701187,27.945377349853516,-19.911216735839844,22.358749389648438,0.2031397819519043,-0.04713153839111328,0.6301429271697998,1.019526720046997,7.922111988067627,-3.2806951999664307
1_20251106_212335,1762435379219,1,0.28521597385406494,0.4825614392757416,0.65376216173172,0.5083122253417969,0.5963992476463318,3.044116735458374,0.43957817554473877,1.2645632028579712,8.013837814331055,-2.7307543754577637,-0.013904809020459652,-0.4655171036720276,0.2571549415588379,27.971717834472656,-20.131492614746094,22.017562866210938,0.1960291862487793,0.0733804702758789,0.4399528503417969,1.068534016609192,7.940457344055176,-3.1707072257995605
1_20251106_212335,1762435379239,1,0.286798357963562,0.4862762987613678,0.6513033509254456,0.5070364475250244,0.596302330493927,3.0388870239257812,0.43350958824157715,1.3256126642227173,8.335844993591309,-3.0024847984313965,-0.040782853960990906,-0.33967897295951843,0.23455294966697693,27.998369216918945,-20.339752197265625,21.73070526123047,0.20566296577453613,0.31630992889404297,0.13457798957824707,1.1199496984481812,8.019535064697266,-3.1370627880096436
1_20251106_212335,1762435379256,1,0.2878759801387787,0.48922768235206604,0.64910489320755,0.5064054727554321,0.5969426035881042,3.0359110832214355,0.4276629686355591,1.415391445159912,8.722492218017578,-3.293367862701416,-0.2582506835460663,-0.10327430814504623,0.1844620406627655,27.998369216918945,-20.339752197265625,21.73070526123047,0.23635339736938477,0.5623655319213867,-0.1250441074371338,1.1790380477905273,8.160126686096191,-3.1683237552642822
1_20251106_212335,1762435379276,1,0.28870242834091187,0.4901089370250702,0.6467754244804382,0.5080606937408447,0.5986244082450867,3.0354037284851074,0.42173367738723755,1.5099583864212036,9.026542663574219,-3.088672161102295,-0.6345433592796326,0.14962367713451385,0.10016272962093353,28.060367584228516,-20.570472717285156,21.41775894165039,0.2647362947463989,0.6931324005126953,0.0637214183807373,1.2452220916748047,8.333410263061523,-3.1523935794830322
1_20251106_212335,1762435379295,1,0.29017749428749084,0.48831576108932495,0.6436520218849182,0.5128906965255737,0.6012477874755859,3.036762237548828,0.41751962900161743,1.7266242504119873,9.061256408691406,-2.804971694946289,-0.9637994170188904,0.36220458149909973,0.006700423546135426,28.025184631347656,-20.79552459716797,21.155216217041016,0.3851217031478882,0.5822763442993164,0.277937650680542,1.3415025472640991,8.47898006439209,-3.082909345626831
1_20251106_212335,1762435379314,1,0.292339026927948,0.48397427797317505,0.6398674249649048,0.5204579830169678,0.6012477874755859,3.036762237548828,0.41751962900161743,1.7266242504119873,9.061256408691406,-2.804971694946289,-1.0426009893417358,0.369534969329834,-0.0934813916683197,27.989185333251953,-21.044883728027344,20.811050415039062,0.3851217031478882,0.5822763442993164,0.277937650680542,1.3415025472640991,8.47898006439209,-3.082909345626831
1_20251106_212335,1762435379333,1,0.2952682375907898,0.4787425398826599,0.6360689401626587,0.5282410383224487,0.610021710395813,3.045424461364746,0.41602012515068054,1.6955009698867798,9.277923583984375,-2.0604066848754883,-1.0426009893417358,0.369534969329834,-0.0934813916683197,27.90323257446289,-21.322265625,20.437362670898438,0.20798075199127197,0.5256881713867188,0.6904089450836182,1.4875202178955078,8.752235412597656,-2.7508156299591064
1_20251106_212335,1762435379353,1,0.29847532510757446,0.4737125337123871,0.6326043605804443,0.535089373588562,0.610021710395813,3.045424461364746,0.41602012515068054,1.6955009698867798,9.277923583984375,-2.0604066848754883,-0.8159701824188232,0.16856049001216888,-0.1399071216583252,27.825740814208984,-21.661911010742188,20.08987808227539,0.20798075199127197,0.5256881713867188,0.6904089450836182,1.4875202178955078,8.752235412597656,-2.7508156299591064
1_20251106_212335,1762435379371,1,0.3017479181289673,0.4696502983570099,0.6294955611228943,0.540473997592926,0.618777871131897,3.0591347217559814,0.42161762714385986,1.4740468263626099,9.650205612182617,-2.1992645263671875,-0.7835943698883057,0.01706603355705738,-0.07943150401115417,27.821861267089844,-21.996116638183594,19.677753448486328,-0.021646857261657715,0.6493968963623047,0.3418843746185303,1.4956936836242676,9.000808715820312,-2.5411489009857178
1_20251106_212335,1762435379391,1,0.30543211102485657,0.466787189245224,0.6258628368377686,0.5450840592384338,0.6227250695228577,3.07047963142395,0.42710137367248535,1.4070121049880981,10.170921325683594,-1.8269822597503662,-0.8300200700759888,-0.12160025537014008,-0.04583394527435303,27.79754066467285,-22.256973266601562,19.306781768798828,-0.0709453821182251,0.9360904693603516,0.5713334083557129,1.4779574871063232,9.234830856323242,-2.398315668106079
1_20251106_212335,1762435379409,1,0.3100935220718384,0.4648216664791107,0.6213170886039734,0.549315869808197,0.6258574724197388,3.082838296890259,0.43439945578575134,1.3794798851013184,10.314567565917969,-1.3385863304138184,-0.8300200700759888,-0.12160025537014008,-0.04583394527435303,27.72226333618164,-22.558807373046875,18.946571350097656,-0.0787820816040039,0.8637895584106445,0.8477835655212402,1.4582619667053223,9.450778007507324,-2.1863698959350586
1_20251106_212335,1762435379430,1,0.3150482773780823,0.4627681076526642,0.6162176728248596,0.5539549589157104,0.629715085029602,3.099731922149658,0.44665756821632385,1.573401927947998,10.404346466064453,-0.942362904548645,-0.9656320214271545,-0.07273107767105103,0.0195285826921463,27.645465850830078,-22.897506713867188,18.504470825195312,0.09211194515228271,0.7628545761108398,0.9952055215835571,1.4812899827957153,9.641491889953613,-1.9375684261322021
1_20251106_212335,1762435379449,1,0.31954193115234375,0.460173100233078,0.6108090877532959,0.559505045413971,0.6334046721458435,3.1150646209716797,0.4586096704006195,1.8104177713394165,10.707200050354004,-0.7879435420036316,-0.9137085676193237,-0.049518220126628876,0.04640663042664528,27.631202697753906,-23.20684814453125,18.038318634033203,0.263302206993103,0.8525667190551758,0.9196999669075012,1.5471155643463135,9.854633331298828,-1.7076435089111328
1_20251106_212335,1762435379467,1,0.32357218861579895,0.4578225910663605,0.6054651737213135,0.5648994445800781,0.6385980844497681,3.1348657608032227,0.47518956661224365,1.8989993333816528,10.731141090393066,-0.6478887796401978,-0.9137085676193237,-0.049518220126628876,0.04640663042664528,27.616634368896484,-23.52820587158203,17.517837524414062,0.2815070152282715,0.7012062072753906,0.8478038311004639,1.6174923181533813,10.029934883117676,-1.4956926107406616
1_20251106_212335,1762435379486,1,0.32727810740470886,0.45619598031044006,0.6010757684707642,0.5687549710273743,0.6438538432121277,3.1540064811706543,0.49196332693099976,1.8247822523117065,10.492927551269531,-0.8358254432678223,-0.7176210284233093,-0.10877209901809692,0.007311288267374039,27.665813446044922,-23.795364379882812,17.00086212158203,0.16583192348480225,0.3703947067260742,0.5278936624526978,1.6589503288269043,10.122532844543457,-1.36371910572052
1_20251106_212335,1762435379505,1,0.3307171165943146,0.4547681510448456,0.5978065729141235,0.5713487267494202,0.6491835713386536,3.1726579666137695,0.5086340308189392,1.7816885709762573,10.293020248413086,-1.0955851078033447,-0.5343615412712097,-0.12098938971757889,-0.10264436155557632,27.704498291015625,-24.049415588378906,16.348499298095703,0.09819066524505615,0.13638973236083984,0.21450722217559814,1.6834979057312012,10.156630516052246,-1.3100923299789429
1_20251106_212335,1762435379524,1,0.3342897295951843,0.4532231390476227,0.5947951674461365,0.5736356377601624,0.6491835713386536,3.1726579666137695,0.5086340308189392,1.7816885709762573,10.293020248413086,-1.0955851078033447,-0.5343615412712097,-0.12098938971757889,-0.10264436155557632,27.684791564941406,-24.246002197265625,15.83016586303711,0.09819066524505615,0.13638973236083984,0.21450722217559814,1.6834979057312012,10.156630516052246,-1.3100923299789429
1_20251106_212335,1762435379543,1,0.33831843733787537,0.45187389850616455,0.591618537902832,0.5756198167800903,0.6586033701896667,3.207937717437744,0.5410138368606567,1.5338993072509766,10.17331600189209,-0.8920867443084717,-0.5435245633125305,-0.22483639419078827,-0.1405179798603058,27.67505645751953,-24.479598999023438,15.325050354003906,-0.11661958694458008,-0.006558418273925781,0.32115137577056885,1.6505188941955566,10.179874420166016,-1.2132381200790405
1_20251106_212335,1762435379561,1,0.34275299310684204,0.450776070356369,0.5883689522743225,0.5771856904029846,0.6620389223098755,3.222754955291748,0.5575560927391052,1.4453176259994507,9.927921295166016,-0.4587549567222595,-0.5465788245201111,-0.208343043923378,-0.15823304653167725,27.690692901611328,-24.698646545410156,14.780628204345703,-0.1641610860824585,-0.20156288146972656,0.6035866141319275,1.6094787120819092,10.129484176635742,-1.062341570854187
1_20251106_212335,1762435379582,1,0.3471842408180237,0.4493807256221771,0.5852290987968445,0.5788151025772095,0.6649115681648254,3.2370729446411133,0.5776164531707764,1.361524224281311,9.694496154785156,-0.20737455785274506,-0.5392484664916992,-0.146034836769104,-0.18022418022155762,27.809558868408203,-24.810745239257812,14.22872543334961,-0.19836366176605225,-0.3479900360107422,0.6839735507965088,1.5598878860473633,10.042486190795898,-0.891348123550415
1_20251106_212335,1762435379600,1,0.35130786895751953,0.4474174678325653,0.5824291110038757,0.5806692242622375,0.6665493845939636,3.2482686042785645,0.5979456305503845,1.211893081665039,9.413188934326172,-0.08048731833696365,-0.5392484664916992,-0.146034836769104,-0.18022418022155762,27.90507698059082,-24.88824462890625,13.825313568115234,-0.2783958911895752,-0.5034379959106445,0.6486886739730835,1.4902889728546143,9.916626930236816,-0.7291759848594666
1_20251106_212335,1762435379619,1,0.3553870618343353,0.44540590047836304,0.5796974301338196,0.5824641585350037,0.6669769287109375,3.2571585178375244,0.6186045408248901,1.0790205001831055,9.280317306518555,-0.23849783837795258,-0.499542236328125,-0.11304815113544464,-0.1350201964378357,28.040679931640625,-24.90058135986328,13.424694061279297,-0.32901477813720703,-0.5090475082397461,0.3925425410270691,1.4080352783203125,9.7893648147583,-0.6310403943061829
1_20251106_212335,1762435379640,1,0.35893645882606506,0.4436023533344269,0.576980471611023,0.5843587517738342,0.6664755940437317,3.264674663543701,0.6408658027648926,1.1245085000991821,9.24679946899414,-0.4611489772796631,-0.4641121029853821,-0.16863682866096497,-0.06415988504886627,28.040679931640625,-24.90058135986328,13.424694061279297,-0.2268214225769043,-0.4340524673461914,0.13591313362121582,1.3513299226760864,9.680851936340332,-0.5970621109008789
1_20251106_212335,1762435379659,1,0.36228224635124207,0.4426732659339905,0.5739620327949524,0.5859689116477966,0.665476381778717,3.269758462905884,0.6591506600379944,1.111340880393982,9.259967803955078,-0.532971978187561,-0.45067307353019714,-0.25599050521850586,-0.011625518091022968,28.343212127685547,-25.01116943359375,12.663627624511719,-0.19199120998382568,-0.33670711517333984,0.05127209424972534,1.3033320903778076,9.596674919128418,-0.5842440724372864
1_20251106_212335,1762435379677,1,0.3657902777194977,0.4426732659339905,0.5704563856124878,0.5872114896774292,0.6637046337127686,3.2741198539733887,0.6783462166786194,1.022759199142456,9.32819938659668,-0.27081817388534546,-0.4671664237976074,-0.29142066836357117,0.009143881499767303,28.343212127685547,-25.01116943359375,12.663627624511719,-0.22445833683013916,-0.2147808074951172,0.2507407069206238,1.2472175359725952,9.542980194091797,-0.5215588808059692
1_20251106_212335,1762435379696,1,0.36940664052963257,0.4429115951061249,0.566667377948761,0.5884353518486023,0.6637046337127686,3.2741198539733887,0.6783462166786194,1.022759199142456,9.32819938659668,-0.27081817388534546,-0.499542236328125,-0.23216676712036133,-0.010403790511190891,28.461395263671875,-25.11260223388672,12.301216125488281,-0.22445833683013916,-0.2147808074951172,0.2507407069206238,1.2472175359725952,9.542980194091797,-0.5215588808059692
1_20251106_212335,1762435379715,1,0.3729460835456848,0.4425247013568878,0.5629775524139404,0.5900333523750305,0.6608312129974365,3.279090642929077,0.7002687454223633,0.944951057434082,9.659782409667969,0.005700230598449707,-0.5215334296226501,-0.12954150140285492,-0.07698804140090942,28.657520294189453,-25.13311767578125,11.862236022949219,-0.24181318283081055,0.09344196319580078,0.42180728912353516,1.1867642402648926,9.566340446472168,-0.41610705852508545
1_20251106_212335,1762435379734,1,0.3764732778072357,0.44111958146095276,0.5597450137138367,0.5919179916381836,0.6538139581680298,3.287976026535034,0.7392163276672363,0.7701817750930786,9.53768253326416,0.2391248643398285,-0.5215334296226501,-0.12954150140285492,-0.07698804140090942,28.828664779663086,-25.167640686035156,11.408493041992188,-0.28021132946014404,-0.062392234802246094,0.43045705556869507,1.0503931045532227,9.600074768066406,-0.19133219122886658
1_20251106_212335,1762435379754,1,0.37992367148399353,0.43918952345848083,0.556943953037262,0.5937878489494324,0.6538139581680298,3.287976026535034,0.7392163276672363,0.7701817750930786,9.53768253326416,0.2391248643398285,-0.5025966167449951,-0.10693950206041336,-0.0733228549361229,28.8533935546875,-25.200355529785156,11.07077407836914,-0.28021132946014404,-0.062392234802246094,0.43045705556869507,1.0503931045532227,9.600074768066406,-0.19133219122886658
1_20251106_212335,1762435379773,1,0.38318800926208496,0.4376522898674011,0.5538971424102783,0.5956721901893616,0.6481462121009827,3.2925517559051514,0.762582540512085,0.6361123323440552,9.566411972045898,0.2810215950012207,-0.47022074460983276,-0.17046943306922913,0.038465388119220734,28.962509155273438,-25.251953125,10.668380737304688,-0.33142465353012085,-0.026929855346679688,0.37788301706314087,0.967536985874176,9.593341827392578,-0.09686143696308136
1_20251106_212335,1762435379792,1,0.38586753606796265,0.4370132088661194,0.5504589676856995,0.5975956916809082,0.6424835920333862,3.29645037651062,0.7844420671463013,0.6792060732841492,9.58077621459961,0.5503576993942261,-0.47022074460983276,-0.17046943306922913,0.038465388119220734,29.008071899414062,-25.35747528076172,10.23544692993164,-0.23066473007202148,-0.010052680969238281,0.517775297164917,0.9098708033561707,9.590828895568848,0.03258237987756729
1_20251106_212335,1762435379811,1,0.3877667784690857,0.4374980330467224,0.5467132925987244,0.5994471907615662,0.6326600313186646,3.3033339977264404,0.8301231861114502,1.2011196613311768,9.696889877319336,0.8867285251617432,-0.3975278437137604,-0.1973474770784378,0.1630817949771881,29.060894012451172,-25.325546264648438,9.872997283935547,0.2402186393737793,0.09737396240234375,0.5474196672439575,0.9609010219573975,9.599515914916992,0.33930885791778564
1_20251106_212335,1762435379830,1,0.38888248801231384,0.43893006443977356,0.5431264638900757,0.6009362936019897,0.6295919418334961,3.307608127593994,0.8537495136260986,1.399829626083374,9.909964561462402,0.7311121821403503,-0.14279726147651672,-0.30791398882865906,0.23455294966697693,29.094581604003906,-25.419845581054688,9.493902206420898,0.35114288330078125,0.24835872650146484,0.3134426474571228,1.0486867427825928,9.661605834960938,0.41766953468322754
1_20251106_212335,1762435379849,1,0.389857679605484,0.44140681624412537,0.5400067567825317,0.6013016700744629,0.6274271607398987,3.313420534133911,0.876670241355896,1.3220216035842896,10.300203323364258,0.5910573601722717,-0.0774347335100174,-0.38488295674324036,0.17285563051700592,29.13188934326172,-25.45122528076172,9.102609634399414,0.2186678647994995,0.5108776092529297,0.13871026039123535,1.10335373878479,9.789325714111328,0.4523470997810364
1_20251106_212335,1762435379868,1,0.3912852704524994,0.4442999064922333,0.5372198820114136,0.6007397174835205,0.6274271607398987,3.313420534133911,0.876670241355896,1.3220216035842896,10.300203323364258,0.5910573601722717,-0.1330234408378601,-0.3158552348613739,0.07145208865404129,29.106069564819336,-25.512771606445312,8.81646728515625,0.2186678647994995,0.5108776092529297,0.13871026039123535,1.10335373878479,9.789325714111328,0.4523470997810364
1_20251106_212335,1762435379887,1,0.3932111859321594,0.4460933208465576,0.5348080992698669,0.600304901599884,0.6245980262756348,3.328986406326294,0.9208070635795593,1.2657603025436401,10.299005508422852,0.7047770619392395,-0.24847686290740967,-0.1307632327079773,-0.03850356861948967,29.092533111572266,-25.573387145996094,8.51729965209961,0.10547244548797607,0.29804134368896484,0.17094004154205322,1.160287857055664,10.000964164733887,0.5338370203971863
1_20251106_212335,1762435379906,1,0.39529216289520264,0.4457855522632599,0.5329245328903198,0.600841760635376,0.6236009001731873,3.3370018005371094,0.9422690868377686,1.2094990015029907,10.119447708129883,0.8172997236251831,-0.32055890560150146,-0.01347720343619585,-0.11730511486530304,29.090576171875,-25.6456298828125,8.204841613769531,0.03936898708343506,0.0947866439819336,0.22677016258239746,1.1701300144195557,10.02466106414795,0.5905295610427856
1_20251106_212335,1762435379926,1,0.3975249230861664,0.4441346824169159,0.5313941240310669,0.601945698261261,0.622268557548523,3.3454363346099854,0.9643368124961853,1.0598678588867188,10.162542343139648,0.7897675633430481,-0.32055890560150146,-0.01347720343619585,-0.11730511486530304,29.077943801879883,-25.69341278076172,7.878904342651367,-0.08820974826812744,0.1103057861328125,0.159390389919281,1.1480776071548462,10.052236557006836,0.6303771734237671
1_20251106_212335,1762435379944,1,0.3998270332813263,0.4421306848526001,0.529972493648529,0.603148341178894,0.622268557548523,3.3454363346099854,0.9643368124961853,1.0598678588867188,10.162542343139648,0.7897675633430481,-0.3297218680381775,-0.009812015108764172,-0.10142263770103455,29.139850616455078,-25.69970703125,7.651315689086914,-0.08820974826812744,0.1103057861328125,0.159390389919281,1.1480776071548462,10.052236557006836,0.6303771734237671
1_20251106_212335,1762435379964,1,0.40203535556793213,0.44051194190979004,0.5283187627792358,0.6043145656585693,0.6182628273963928,3.361833333969116,1.0047746896743774,0.9569215178489685,10.296611785888672,0.8687728643417358,-0.2765766382217407,-0.059902917593717575,-0.02262108400464058,29.173364639282227,-25.77104949951172,7.489007949829102,-0.11601942777633667,0.1665506362915039,0.16080892086029053,1.0729409456253052,10.130061149597168,0.7079639434814453
1_20251106_212335,1762435379983,1,0.40381941199302673,0.4397503137588501,0.5264745354652405,0.6052884459495544,0.6163401007652283,3.370359420776367,1.0246597528457642,1.1173261404037476,10.374420166015625,1.045936107635498,-0.20877066254615784,-0.09105701744556427,0.034800197929143906,29.226806640625,-25.71508026123047,7.23521614074707,0.035508155822753906,0.19548797607421875,0.2703777551651001,1.0818179845809937,10.178932189941406,0.775558352470398
1_20251106_212335,1762435380001,1,0.40507104992866516,0.43966057896614075,0.5247026085853577,0.6060554385185242,0.6146852970123291,3.378859281539917,1.042980432510376,1.1125378608703613,10.514474868774414,0.9477781057357788,-0.20877066254615784,-0.09105701744556427,0.034800197929143906,29.277935028076172,-25.697052001953125,7.007665634155273,0.02457594871520996,0.2684345245361328,0.13777577877044678,1.0879619121551514,10.246040344238281,0.810002326965332
1_20251106_212335,1762435380021,1,0.40615174174308777,0.43976274132728577,0.5229479670524597,0.6067742109298706,0.6127658486366272,3.3888728618621826,1.0626394748687744,1.03113853931427,10.588691711425781,0.9154577851295471,-0.21304669976234436,-0.0690658837556839,0.05862392485141754,29.305706024169922,-25.656044006347656,6.83372688293457,-0.04545867443084717,0.2741203308105469,0.08436435461044312,1.0765972137451172,10.314571380615234,0.831093430519104
1_20251106_212335,1762435380040,1,0.4072682857513428,0.43975868821144104,0.5210376381874084,0.6076714396476746,0.6109777688980103,3.398655652999878,1.0809252262115479,1.0562766790390015,10.586297988891602,1.0291774272918701,-0.21304669976234436,-0.0690658837556839,0.05862392485141754,29.357851028442383,-25.613441467285156,6.660768508911133,-0.01625645160675049,0.21738052368164062,0.15846723318099976,1.072533130645752,10.368917465209961,0.8707101941108704
1_20251106_212335,1762435380059,1,0.40821149945259094,0.43917223811149597,0.5190033912658691,0.6092016100883484,0.6097647547721863,3.408234119415283,1.098226547241211,1.2334399223327637,10.683259010314941,1.213523030281067,-0.33766311407089233,0.0341702476143837,0.08366937935352325,29.456525802612305,-25.60546875,6.502496719360352,0.12872540950775146,0.25147247314453125,0.2742502689361572,1.1047145128250122,10.43178653717041,0.9392727613449097
1_20251106_212335,1762435380079,1,0.40914082527160645,0.4381429851055145,0.5167167782783508,0.6112595796585083,0.609349250793457,3.4202067852020264,1.119212031364441,1.3818739652633667,10.836481094360352,1.479267954826355,-0.34316086769104004,-0.004925096873193979,0.06351084262132645,29.490734100341797,-25.675865173339844,6.245574951171875,0.22172760963439941,0.32375526428222656,0.43199610710144043,1.1601463556289673,10.512725830078125,1.0472718477249146
1_20251106_212335,1762435380098,1,0.41041821241378784,0.43724972009658813,0.5142694115638733,0.6131040453910828,0.609349250793457,3.4202067852020264,1.119212031364441,1.3818739652633667,10.836481094360352,1.479267954826355,-0.2839069962501526,-0.06601156294345856,0.03724365681409836,29.490734100341797,-25.675865173339844,6.245574951171875,0.22172760963439941,0.32375526428222656,0.43199610710144043,1.1601463556289673,10.512725830078125,1.0472718477249146
1_20251106_212335,1762435380116,1,0.41196590662002563,0.4368612766265869,0.5119459629058838,0.6142863035202026,0.6100521683692932,3.442578077316284,1.1597263813018799,1.3399773836135864,10.858028411865234,1.9532995223999023,-0.2839069962501526,-0.06601156294345856,0.03724365681409836,29.40761947631836,-25.666847229003906,6.039661407470703,0.11317670345306396,0.2140979766845703,0.5946054458618164,1.2268006801605225,10.643930435180664,1.358694076538086
1_20251106_212335,1762435380136,1,0.4130200147628784,0.4364154040813446,0.5103649497032166,0.6152102947235107,0.611020028591156,3.4546804428100586,1.182607650756836,1.367509365081787,10.837677955627441,1.9125999212265015,-0.09881500154733658,-0.023251038044691086,-0.0024625472724437714,29.404056549072266,-25.76447296142578,5.7537078857421875,0.11256694793701172,0.1549978256225586,0.4431246519088745,1.2549424171447754,10.682680130004883,1.469475269317627
1_20251106_212335,1762435380156,1,0.41376250982284546,0.436165988445282,0.5094785690307617,0.6156227588653564,0.6120274662971497,3.4652063846588135,1.2026138305664062,1.3280068635940552,10.755082130432129,1.6492490768432617,0.008697185665369034,-0.0006490439409390092,-0.04094702750444412,29.365764617919922,-25.815597534179688,5.602500915527344,0.05845153331756592,0.057921409606933594,0.14381897449493408,1.2695553302764893,10.697160720825195,1.5054301023483276
1_20251106_212335,1762435380173,1,0.41414350271224976,0.43601471185684204,0.5094897150993347,0.6154645085334778,0.6120274662971497,3.4652063846588135,1.2026138305664062,1.3280068635940552,10.755082130432129,1.6492490768432617,0.028244858607649803,0.040889762341976166,-0.07515544444322586,29.354171752929688,-25.815582275390625,5.520912170410156,0.05845153331756592,0.057921409606933594,0.14381897449493408,1.2695553302764893,10.697160720825195,1.5054301023483276
1_20251106_212335,1762435380193,1,0.41441407799720764,0.43555423617362976,0.5099644064903259,0.6152152419090271,0.6131468415260315,3.485670804977417,1.240596890449524,1.102961540222168,10.503701210021973,1.1117738485336304,-0.017569996416568756,0.06898953765630722,-0.08798360824584961,29.33974838256836,-25.877410888671875,5.343391418457031,-0.11906933784484863,-0.1483306884765625,-0.27837085723876953,1.2220308780670166,10.652031898498535,1.3901447057724
1_20251106_212335,1762435380211,1,0.4146689176559448,0.43460795283317566,0.5104897618293762,0.6152770519256592,0.6129946112632751,3.493476629257202,1.255339503288269,1.0443061590194702,10.375617027282715,0.9824925065040588,-0.017569996416568756,0.06898953765630722,-0.08798360824584961,29.30236053466797,-25.91571044921875,5.165416717529297,-0.1421797275543213,-0.2211313247680664,-0.3261217474937439,1.1864858865737915,10.596748352050781,1.3086142539978027
1_20251106_212335,1762435380232,1,0.41532954573631287,0.43368732929229736,0.5105388164520264,0.615440309047699,0.6123092174530029,3.5009617805480957,1.2708791494369507,1.0323355197906494,10.248729705810547,1.0698771476745605,-0.08476511389017105,0.01767689548432827,-0.056829508394002914,29.314828872680664,-25.926124572753906,5.030479431152344,-0.12332034111022949,-0.2784147262573242,-0.19098973274230957,1.155655860900879,10.527144432067871,1.2608668804168701
1_20251106_212335,1762435380250,1,0.4161602854728699,0.4331587553024292,0.5102119445800781,0.6155224442481995,0.6114770770072937,3.505791187286377,1.2829914093017578,1.0167739391326904,10.105083465576172,1.3344249725341797,-0.08476511389017105,0.01767689548432827,-0.056829508394002914,29.309593200683594,-25.801483154296875,5.046144485473633,-0.11110556125640869,-0.3376483917236328,0.058846473693847656,1.1278795003890991,10.442731857299805,1.275578498840332
1_20251106_212335,1762435380270,1,0.4168062210083008,0.4328763484954834,0.5098589062690735,0.6155766248703003,0.6101201176643372,3.5101423263549805,1.2970095872879028,1.014379858970642,10.050020217895508,1.2171142101287842,-0.06338484585285187,0.010957385413348675,-0.0317840538918972,29.397207260131836,-25.757980346679688,5.023336410522461,-0.09079968929290771,-0.31416988372802734,-0.04677152633666992,1.1051795482635498,10.364190101623535,1.263885736465454
1_20251106_212335,1762435380289,1,0.41699209809303284,0.43179765343666077,0.509795606136322,0.6162603497505188,0.6086291074752808,3.512662410736084,1.3079317808151245,0.9868477582931519,9.919541358947754,0.8532111644744873,-0.06216312199831009,0.090980663895607,-0.01467984076589346,29.44212532043457,-25.60504913330078,5.041492462158203,-0.09466540813446045,-0.35571956634521484,-0.32853972911834717,1.0815131664276123,10.275260925292969,1.1817508935928345
1_20251106_212335,1762435380308,1,0.4171260893344879,0.43086880445480347,0.5097309947013855,0.6168729662895203,0.6069168448448181,3.5137946605682373,1.3176528215408325,0.9736802577972412,9.815399169921875,0.9429898858070374,-0.09698240458965302,0.02012035809457302,0.028080686926841736,29.493083953857422,-25.564064025878906,5.030729293823242,-0.08626627922058105,-0.367889404296875,-0.19100874662399292,1.0599465370178223,10.18328857421875,1.1339986324310303
1_20251106_212335,1762435380326,1,0.41753122210502625,0.43091800808906555,0.5091928243637085,0.6170089244842529,0.6052340865135193,3.513728141784668,1.326341152191162,1.0024093389511108,9.742378234863281,1.109379768371582,-0.13668861985206604,-0.01836412213742733,0.0812259241938591,29.518455505371094,-25.549514770507812,4.991424560546875,-0.04602980613708496,-0.35272884368896484,-0.019695043563842773,1.0484391450881958,10.095107078552246,1.1290748119354248
1_20251106_212335,1762435380346,1,0.41798120737075806,0.43116191029548645,0.5080211758613586,0.6174994707107544,0.6034926176071167,3.512047052383423,1.3355541229248047,1.0598677396774292,9.565214157104492,1.142897129058838,-0.15684714913368225,-0.027527092024683952,0.12032125890254974,29.555408477783203,-25.546592712402344,4.938831329345703,0.009142875671386719,-0.42391490936279297,0.011057853698730469,1.0507248640060425,9.989129066467285,1.1318392753601074
1_20251106_212335,1762435380365,1,0.4182881712913513,0.4313635230064392,0.5064577460289001,0.6184343695640564,0.6020116806030273,3.5088741779327393,1.3433901071548462,1.0838087797164917,9.38565731048584,0.9573544859886169,-0.15684714913368225,-0.027527092024683952,0.12032125890254974,29.55711555480957,-25.521072387695312,4.898811340332031,0.026467084884643555,-0.48277759552001953,-0.13958781957626343,1.0573416948318481,9.86843490600586,1.0969423055648804
1_20251106_212335,1762435380383,1,0.418460875749588,0.4315427243709564,0.5046074986457825,0.6197036504745483,0.6008530855178833,3.504779577255249,1.3501194715499878,1.1280995607376099,9.365306854248047,0.9657338261604309,-0.18372520804405212,-0.009812015108764172,0.14719930291175842,29.485618591308594,-25.48883819580078,4.964241027832031,0.056606292724609375,-0.40250301361083984,-0.10496681928634644,1.0714932680130005,9.767809867858887,1.0707006454467773
1_20251106_212335,1762435380403,1,0.41878563165664673,0.4317193329334259,0.5023081302642822,0.6212274432182312,0.6001115441322327,3.4989209175109863,1.3574166297912598,1.229848861694336,9.262361526489258,1.134517788887024,-0.3602650761604309,0.03600284084677696,0.18751637637615204,29.457611083984375,-25.564956665039062,4.880578994750977,0.1266845464706421,-0.4043588638305664,0.051053762435913086,1.1031643152236938,9.666720390319824,1.0834640264511108
1_20251106_212335,1762435380422,1,0.4190889000892639,0.4310967028141022,0.4994853138923645,0.6237263083457947,0.6002660989761353,3.4925930500030518,1.3646022081375122,1.4034209251403809,9.28749942779541,1.3021047115325928,-0.4011930227279663,0.0390571653842926,0.19301415979862213,29.391437530517578,-25.668846130371094,4.821950912475586,0.2402052879333496,-0.3033771514892578,0.17491257190704346,1.1632156372070312,9.590876579284668,1.1271921396255493
1_20251106_212335,1762435380442,1,0.4195939898490906,0.43037712574005127,0.4963148534297943,0.6264088153839111,0.6014965772628784,3.4855685234069824,1.372639775276184,1.5171406269073486,9.361717224121094,1.407444953918457,-0.4207407236099243,0.015233438462018967,0.16796870529651642,29.278820037841797,-25.749588012695312,4.640241622924805,0.2831399440765381,-0.18332767486572266,0.22420227527618408,1.2340006828308105,9.545044898986816,1.183242678642273
1_20251106_212335,1762435380460,1,0.420354962348938,0.42954733967781067,0.4930450916290283,0.629044771194458,0.6014965772628784,3.4855685234069824,1.372639775276184,1.5171406269073486,9.361717224121094,1.407444953918457,-0.46472296118736267,0.010346520692110062,0.08855629712343216,29.174156188964844,-25.904876708984375,4.457439422607422,0.2831399440765381,-0.18332767486572266,0.22420227527618408,1.2340006828308105,9.545044898986816,1.183242678642273
1_20251106_212335,1762435380479,1,0.4218750596046448,0.4282720386981964,0.4897310137748718,0.6314808130264282,0.6051880121231079,3.4717001914978027,1.3878087997436523,1.3495537042617798,9.300666809082031,1.3188633918762207,-0.5899502635002136,0.08120682835578918,0.028691552579402924,29.119747161865234,-26.03173828125,4.26361083984375,0.04848074913024902,-0.15410423278808594,0.0728156566619873,1.3010729551315308,9.454771041870117,1.2460477352142334
1_20251106_212335,1762435380499,1,0.4239022135734558,0.425768107175827,0.48620790243148804,0.634531557559967,0.6069619655609131,3.4642269611358643,1.3963251113891602,1.2501986026763916,9.364109992980957,1.5115883350372314,-0.5899502635002136,0.08120682835578918,0.028691552579402924,29.02989387512207,-26.136268615722656,4.109386444091797,-0.04069948196411133,-0.07252883911132812,0.21243250370025635,1.290898084640503,9.436638832092285,1.299155831336975
1_20251106_212335,1762435380519,1,0.4264322519302368,0.4224886894226074,0.4822525084018707,0.6380370855331421,0.60828697681427,3.456484794616699,1.4059020280838013,1.172390341758728,9.225252151489258,1.7881066799163818,-0.7939791083335876,0.10991747677326202,0.0018135057762265205,29.02989387512207,-26.136268615722656,4.109386444091797,-0.09480631351470947,-0.16910934448242188,0.3911607265472412,1.2671966552734375,9.39436149597168,1.3969459533691406
1_20251106_212335,1762435380538,1,0.42926469445228577,0.41876888275146484,0.47776108980178833,0.6419569849967957,0.6091451644897461,3.4488768577575684,1.415327548980713,1.1556316614151,8.993024826049805,1.8994323015213013,-0.8318526744842529,0.0598265677690506,0.061067383736371994,28.958709716796875,-26.397743225097656,3.479642868041992,-0.08925199508666992,-0.32106876373291016,0.4019891023635864,1.24488365650177,9.314093589782715,1.4974431991577148
1_20251106_212335,1762435380556,1,0.43216830492019653,0.4154534935951233,0.4725194573402405,0.6460296511650085,0.6097878217697144,3.4406111240386963,1.4259819984436035,1.174784541130066,8.892473220825195,2.1879212856292725,-0.8006985783576965,-0.059292055666446686,0.17041216790676117,28.958709716796875,-26.397743225097656,3.479642868041992,-0.05607926845550537,-0.3372964859008789,0.5523824691772461,1.2308638095855713,9.229769706726074,1.6355388164520264
1_20251106_212335,1762435380575,1,0.43476739525794983,0.4134434163570404,0.46653246879577637,0.6499148607254028,0.6107614636421204,3.4309844970703125,1.439879298210144,1.3280068635940552,8.933172225952148,2.507533550262451,-0.7689335942268372,-0.09655480086803436,0.25287890434265137,28.896625518798828,-26.461265563964844,3.151479721069336,0.07771444320678711,-0.23727798461914062,0.6975958347320557,1.250292420387268,9.170450210571289,1.8099377155303955
1_20251106_212335,1762435380594,1,0.43688666820526123,0.4121069312095642,0.46021386981010437,0.6538357138633728,0.6107614636421204,3.4309844970703125,1.439879298210144,1.3280068635940552,8.933172225952148,2.507533550262451,-0.7952008247375488,-0.02874881960451603,0.2516571581363678,28.82204818725586,-26.53759765625,2.7684974670410156,0.07771444320678711,-0.23727798461914062,0.6975958347320557,1.250292420387268,9.170450210571289,1.8099377155303955
1_20251106_212335,1762435380614,1,0.43872949481010437,0.4101491868495941,0.4539979100227356,0.6581640839576721,0.6152288317680359,3.4127748012542725,1.4738953113555908,1.6823334693908691,9.165400505065918,2.995929718017578,-0.7897030711174011,0.0854828804731369,0.1844620406627655,28.74405860900879,-26.66497039794922,2.465557098388672,0.2991064786911011,0.020326614379882812,0.7762725353240967,1.383226990699768,9.145073890686035,2.2196571826934814
1_20251106_212335,1762435380632,1,0.4404163360595703,0.40715256333351135,0.448499470949173,0.6626526117324829,0.6152288317680359,3.4127748012542725,1.4738953113555908,1.6823334693908691,9.165400505065918,2.995929718017578,-0.7823726534843445,0.12579995393753052,0.10566051304340363,28.695953369140625,-26.713661193847656,1.9894695281982422,0.2991064786911011,0.020326614379882812,0.7762725353240967,1.383226990699768,9.145073890686035,2.2196571826934814
1_20251106_212335,1762435380652,1,0.44220617413520813,0.4034959673881531,0.44358789920806885,0.6669890880584717,0.6227617263793945,3.3982083797454834,1.5134977102279663,1.7493681907653809,9.261164665222168,3.4292616844177246,-0.7585489153862,0.11358266323804855,0.04946095123887062,28.622575759887695,-26.776763916015625,1.5391693115234375,0.2320319414138794,0.06989288330078125,0.8015356063842773,1.5173362493515015,9.191271781921387,2.6277260780334473
1_20251106_212335,1762435380671,1,0.4445536434650421,0.39992964267730713,0.4387913644313812,0.6707387566566467,0.62752765417099,3.391502857208252,1.5378040075302124,1.7182449102401733,9.338972091674805,3.67106556892395,-0.7316709160804749,0.11846958100795746,0.0012026410549879074,28.60871696472168,-26.861007690429688,1.0907936096191406,0.1607269048690796,0.11816024780273438,0.8346714973449707,1.5575180053710938,9.22081184387207,2.8363940715789795
1_20251106_212335,1762435380689,1,0.44700562953948975,0.39617225527763367,0.43438705801963806,0.6741968393325806,0.632036566734314,3.386443853378296,1.561077356338501,1.7338066101074219,9.494588851928711,3.848228931427002,-0.7316709160804749,0.11846958100795746,0.0012026410549879074,28.55669403076172,-26.9730224609375,0.6674518585205078,0.14103078842163086,0.21902179718017578,0.8094680309295654,1.592775821685791,9.275567054748535,3.0387609004974365
1_20251106_212335,1762435380710,1,0.4495413899421692,0.3917587399482727,0.4302549660205841,0.6777302622795105,0.6372283697128296,3.382373571395874,1.5886613130569458,1.7350035905838013,9.693299293518066,4.03137731552124,-0.7848160862922668,0.21071015298366547,-0.08676187694072723,28.53759765625,-26.93262481689453,0.2347412109375,0.11378216743469238,0.3341856002807617,0.794093132019043,1.6212214231491089,9.359113693237305,3.2372841835021973
1_20251106_212335,1762435380728,1,0.4523441791534424,0.3867659270763397,0.42618614435195923,0.6812945008277893,0.6421768665313721,3.379676342010498,1.6161384582519531,1.717047929763794,9.714845657348633,4.178614139556885,-0.7432773113250732,0.18932989239692688,-0.14418315887451172,28.487789154052734,-27.00682830810547,-0.201324462890625,0.07666122913360596,0.28458595275878906,0.7530641555786133,1.640386700630188,9.430259704589844,3.4255499839782715
1_20251106_212335,1762435380747,1,0.4554733633995056,0.38187018036842346,0.4224647581577301,0.684282660484314,0.6469273567199707,3.377960443496704,1.6446166038513184,1.6583924293518066,9.738786697387695,4.291136741638184,-0.6406520009040833,0.12885427474975586,-0.21321088075637817,28.501022338867188,-27.039390563964844,-0.6341457366943359,0.014404535293579102,0.24682140350341797,0.6924693584442139,1.6439878940582275,9.491965293884277,3.5986673831939697
1_20251106_212335,1762435380766,1,0.45889076590538025,0.3775153160095215,0.4193875193595886,0.6863057017326355,0.6469273567199707,3.377960443496704,1.6446166038513184,1.6583924293518066,9.738786697387695,4.291136741638184,-0.5612396597862244,0.12030217051506042,-0.2700212895870209,28.526344299316406,-27.07129669189453,-1.0529613494873047,0.014404535293579102,0.24682140350341797,0.6924693584442139,1.6439878940582275,9.491965293884277,3.5986673831939697
1_20251106_212335,1762435380785,1,0.46238768100738525,0.3733067512512207,0.4170015752315521,0.6877131462097168,0.6514822244644165,3.376793384552002,1.67640221118927,1.5147465467453003,9.681328773498535,4.160658836364746,-0.49648791551589966,0.11602611839771271,-0.30178627371788025,28.580081939697266,-27.014923095703125,-1.3473014831542969,-0.1033930778503418,0.1514911651611328,0.44959306716918945,1.618139624595642,9.529837608337402,3.7110657691955566
1_20251106_212335,1762435380804,1,0.46585288643836975,0.36928513646125793,0.41516751050949097,0.6886548399925232,0.6543765068054199,3.3761186599731445,1.7025134563446045,1.2873071432113647,9.641825675964355,3.803938150405884,-0.4421209692955017,0.05371791869401932,-0.2877363860607147,28.634721755981445,-26.945724487304688,-1.6684112548828125,-0.26466596126556396,0.08959007263183594,0.07429766654968262,1.5519731044769287,9.55223560333252,3.729640483856201
1_20251106_212335,1762435380823,1,0.4693519175052643,0.36604470014572144,0.4133889377117157,0.6890788078308105,0.6561830639839172,3.3762028217315674,1.7297298908233643,1.1412670612335205,9.814201354980469,3.6160011291503906,-0.4567817449569702,-0.004925095941871405,-0.2523062229156494,28.719078063964844,-26.774887084960938,-1.9458789825439453,-0.32856476306915283,0.20957279205322266,-0.0909113883972168,1.4698318243026733,9.604628562927246,3.7069125175476074
1_20251106_212335,1762435380843,1,0.47288277745246887,0.3632819950580597,0.41118574142456055,0.6894449591636658,0.6556621193885803,3.379765033721924,1.7768980264663696,0.8779162168502808,10.198453903198242,3.9942686557769775,-0.4567817449569702,-0.004925095941871405,-0.2523062229156494,28.827903747558594,-26.602325439453125,-2.235881805419922,-0.40027713775634766,0.40877723693847656,0.23696112632751465,1.2781933546066284,9.789676666259766,3.757307529449463
1_20251106_212335,1762435380862,1,0.47644108533859253,0.36037778854370117,0.4084022343158722,0.6901734471321106,0.6535401344299316,3.3831865787506104,1.800215482711792,0.7618024349212646,10.27267074584961,4.458724021911621,-0.5813981890678406,-0.0024816379882395267,-0.16678516566753387,28.932697296142578,-26.504837036132812,-2.5545005798339844,-0.4131127595901489,0.3863954544067383,0.5611333847045898,1.1749151945114136,9.886275291442871,3.8975906372070312
1_20251106_212335,1762435380880,1,0.47984936833381653,0.357316792011261,0.40510427951812744,0.6913463473320007,0.6503543257713318,3.387848377227783,1.8269895315170288,0.7893346548080444,10.334917068481445,5.133859634399414,-0.5813981890678406,-0.0024816379882395267,-0.16678516566753387,29.064077377319336,-26.367950439453125,-2.8848628997802734,-0.3084644079208374,0.3589134216308594,0.9890151023864746,1.0977990627288818,9.976003646850586,4.1448445320129395
1_20251106_212335,1762435380902,1,0.48258405923843384,0.3548445403575897,0.40139585733413696,0.6928775906562805,0.646287739276886,3.3947808742523193,1.8616818189620972,0.944951057434082,10.466592788696289,5.569585800170898,-0.4231841564178467,-0.04463130235671997,0.04885008558630943,29.17441177368164,-26.170143127441406,-3.187854766845703,-0.12227845191955566,0.3924713134765625,1.1397929191589355,1.0672295093536377,10.074121475219727,4.429792881011963
1_20251106_212335,1762435380919,1,0.4842108190059662,0.3534514307975769,0.3981093764305115,0.6943492293357849,0.6434651017189026,3.4009976387023926,1.8894422054290771,1.1412670612335205,10.587494850158691,5.473821640014648,-0.2319835126399994,-0.046463895589113235,0.09833014011383057,29.29361915588379,-26.022438049316406,-3.423830032348633,0.05923008918762207,0.41069889068603516,0.8352231979370117,1.0820369720458984,10.176795959472656,4.638598442077637
1_20251106_212335,1762435380940,1,0.4848257005214691,0.35308825969696045,0.3958764374256134,0.6953808665275574,0.640781581401825,3.4088704586029053,1.921777606010437,1.237031102180481,10.48095703125,5.069218635559082,-0.0872085690498352,-0.027527092024683952,0.08489111065864563,29.313518524169922,-25.918357849121094,-3.7050704956054688,0.12399530410766602,0.24332904815673828,0.3444962501525879,1.113035798072815,10.237627983093262,4.724722385406494
1_20251106_212335,1762435380959,1,0.4848780930042267,0.3532327115535736,0.3947717547416687,0.6958988308906555,0.638634204864502,3.4162261486053467,1.9509990215301514,1.2130900621414185,10.32893180847168,4.738833427429199,-0.06460657715797424,0.010957385413348675,0.05373700335621834,29.36917495727539,-25.8245849609375,-3.971586227416992,0.08004343509674072,0.0730428695678711,0.011288642883300781,1.1330466270446777,10.255888938903809,4.727544784545898
1_20251106_212335,1762435380978,1,0.48500776290893555,0.3532440960407257,0.3940749764442444,0.696197509765625,0.638634204864502,3.4162261486053467,1.9509990215301514,1.2130900621414185,10.32893180847168,4.738833427429199,-0.07987819612026215,0.04272235184907913,0.031745877116918564,29.36917495727539,-25.8245849609375,-3.971586227416992,0.08004343509674072,0.0730428695678711,0.011288642883300781,1.1330466270446777,10.255888938903809,4.727544784545898
1_20251106_212335,1762435380995,1,0.48522859811782837,0.35294109582901,0.3935227692127228,0.696509599685669,0.6367760896682739,3.4232394695281982,1.9814505577087402,1.2513957023620605,10.044034004211426,4.658630847930908,-0.07315868139266968,0.070211261510849,0.01708512380719185,29.37125015258789,-25.821754455566406,-4.255428314208984,0.09467923641204834,-0.16948413848876953,-0.055130958557128906,1.1567164659500122,10.213518142700195,4.713761806488037
1_20251106_212335,1762435381015,1,0.48538938164711,0.35242271423339844,0.39318913221359253,0.6968483924865723,0.6341853737831116,3.431016683578491,2.028818368911743,1.158025860786438,9.554441452026367,4.506606101989746,-0.07315868139266968,0.070211261510849,0.01708512380719185,29.359233856201172,-25.845504760742188,-4.472707748413086,-0.012185811996459961,-0.4627952575683594,-0.14809322357177734,1.170211672782898,10.017236709594727,4.654699325561523
1_20251106_212335,1762435381034,1,0.4856180250644684,0.35168424248695374,0.3930569291114807,0.6971367001533508,0.6327093243598938,3.43237042427063,2.0515153408050537,1.1005674600601196,9.392839431762695,4.578428745269775,-0.09331721812486649,0.09892190992832184,0.012809070758521557,29.32326889038086,-25.847076416015625,-4.555276870727539,-0.055715322494506836,-0.49951744079589844,-0.06101655960083008,1.1562827825546265,9.892356872558594,4.6394453048706055
1_20251106_212335,1762435381053,1,0.4857354462146759,0.35083305835723877,0.39275074005126953,0.6976561546325684,0.6316271424293518,3.432029962539673,2.0735538005828857,1.2729425430297852,9.299468994140625,4.813050270080566,-0.09209549427032471,0.04699840769171715,0.048239223659038544,29.299293518066406,-25.848121643066406,-4.610322952270508,0.09332776069641113,-0.47430992126464844,0.1388840675354004,1.179614782333374,9.773778915405273,4.674166202545166
1_20251106_212335,1762435381072,1,0.4855547249317169,0.3502923548221588,0.3922135531902313,0.698355495929718,0.6311376094818115,3.4303789138793945,2.0953967571258545,1.3758888244628906,9.28989315032959,5.004578590393066,-0.04017198830842972,-0.00859028473496437,0.03602192923426628,29.285289764404297,-25.886184692382812,-4.652153015136719,0.1570192575454712,-0.38710880279541016,0.2643299102783203,1.2188695669174194,9.677001953125,4.740248680114746
1_20251106_212335,1762435381091,1,0.4857591390609741,0.3504636585712433,0.3916076123714447,0.6984674334526062,0.6309161186218262,3.427633285522461,2.1170108318328857,1.30765700340271,9.247997283935547,5.054854393005371,0.025801395997405052,-0.011644610203802586,-0.02262108400464058,29.283966064453125,-25.922775268554688,-4.761074066162109,0.0710299015045166,-0.3432035446166992,0.25168466567993164,1.2366271018981934,9.591200828552246,4.8031697273254395
1_20251106_212335,1762435381111,1,0.48611098527908325,0.3507135808467865,0.39159920811653137,0.698101818561554,0.6306703686714172,3.4234731197357178,2.13885498046875,1.228651762008667,9.125898361206055,4.878888130187988,0.03985128551721573,0.03722456842660904,-0.06232729181647301,29.272991180419922,-25.898727416992188,-4.734004974365234,-0.006380319595336914,-0.3722419738769531,0.060575008392333984,1.235032081604004,9.498140335083008,4.818313121795654
1_20251106_212335,1762435381130,1,0.4864985942840576,0.35053086280822754,0.39204469323158264,0.6976734399795532,0.6306703686714172,3.4234731197357178,2.13885498046875,1.228651762008667,9.125898361206055,4.878888130187988,0.0514577180147171,0.05493964999914169,-0.0782097727060318,29.248519897460938,-25.90045166015625,-4.721469879150391,-0.006380319595336914,-0.3722419738769531,0.060575008392333984,1.235032081604004,9.498140335083008,4.818313121795654
1_20251106_212335,1762435381150,1,0.48687461018562317,0.35022518038749695,0.3927288055419922,0.6971796751022339,0.6296563148498535,3.4115846157073975,2.1758816242218018,1.1376760005950928,8.958311080932617,4.319866180419922,0.05634463578462601,0.04638753831386566,-0.07149025797843933,29.260509490966797,-25.899925231933594,-4.693946838378906,-0.06862831115722656,-0.34357547760009766,-0.36554718017578125,1.2063043117523193,9.301886558532715,4.685413360595703
1_20251106_212335,1762435381170,1,0.4872332513332367,0.350055992603302,0.3933976888656616,0.6966367959976196,0.6287119388580322,3.4040956497192383,2.1913375854492188,1.094582200050354,8.897260665893555,4.208540439605713,0.03313177824020386,0.010957385413348675,-0.05927296355366707,29.299083709716797,-25.860008239746094,-4.678167343139648,-0.089377760887146,-0.3237009048461914,-0.3814983367919922,1.1839599609375,9.220961570739746,4.590038776397705
1_20251106_212335,1762435381187,1,0.4877113103866577,0.35009634494781494,0.39374783635139465,0.6960839629173279,0.6276572942733765,3.3977952003479004,2.2026400566101074,1.0107886791229248,8.908034324645996,4.361763000488281,0.011140646412968636,-0.007368555758148432,-0.05866210535168648,29.337757110595703,-25.81995391845703,-4.6759033203125,-0.13853704929351807,-0.25034236907958984,-0.18262052536010742,1.1493257284164429,9.158376693725586,4.544383525848389
1_20251106_212335,1762435381205,1,0.4883841276168823,0.3501971960067749,0.3938489556312561,0.6955040693283081,0.6276572942733765,3.3977952003479004,2.2026400566101074,1.0107886791229248,8.908034324645996,4.361763000488281,-0.027954697608947754,0.06898953765630722,-0.08676187694072723,29.311677932739258,-25.847061157226562,-4.636863708496094,-0.13853704929351807,-0.25034236907958984,-0.18262052536010742,1.1493257284164429,9.158376693725586,4.544383525848389
1_20251106_212335,1762435381224,1,0.48905107378959656,0.34944409132003784,0.39415526390075684,0.6952405571937561,0.6256732940673828,3.3891282081604004,2.2164735794067383,0.9497392177581787,8.916414260864258,4.467103004455566,-0.04017198830842972,0.1422933042049408,-0.11730511486530304,29.348533630371094,-25.844276428222656,-4.675941467285156,-0.1596691608428955,-0.19357013702392578,-0.06182432174682617,1.1094083786010742,9.109984397888184,4.528927326202393
1_20251106_212335,1762435381243,1,0.4896353781223297,0.34798163175582886,0.3948453664779663,0.6951712965965271,0.6209765672683716,3.37326979637146,2.2374637126922607,0.8252460956573486,8.686580657958984,4.208540439605713,0.012362373992800713,0.13496291637420654,-0.11791597306728363,29.38892364501953,-25.76708984375,-4.61882209777832,-0.1956537961959839,-0.29913330078125,-0.24584293365478516,1.0208998918533325,8.985713958740234,4.454383373260498
1_20251106_212335,1762435381263,1,0.49016913771629333,0.3468601703643799,0.3958020508289337,0.6948114633560181,0.6209765672683716,3.37326979637146,2.2374637126922607,0.8252460956573486,8.686580657958984,4.208540439605713,0.06367501616477966,0.08242855966091156,-0.07759889960289001,29.427202224731445,-25.727577209472656,-4.562494277954102,-0.1956537961959839,-0.29913330078125,-0.24584293365478516,1.0208998918533325,8.985713958740234,4.454383373260498
1_20251106_212335,1762435381282,1,0.49041545391082764,0.3464679718017578,0.39676880836486816,0.6942817568778992,0.6132379770278931,3.352534055709839,2.252434253692627,0.686388373374939,8.340633392333984,3.595651626586914,0.04840339720249176,0.06532435119152069,-0.01895589381456375,29.502037048339844,-25.68567657470703,-4.504693984985352,-0.21887558698654175,-0.4390907287597656,-0.6104941368103027,0.9052639603614807,8.77972412109375,4.206145763397217
1_20251106_212335,1762435381301,1,0.4903663992881775,0.34633147716522217,0.39739978313446045,0.6940235495567322,0.6132379770278931,3.352534055709839,2.252434253692627,0.686388373374939,8.340633392333984,3.595651626586914,-0.050556689500808716,0.06960040330886841,0.0195285826921463,29.5081844329834,-25.57292938232422,-4.475286483764648,-0.21887558698654175,-0.4390907287597656,-0.6104941368103027,0.9052639603614807,8.77972412109375,4.206145763397217
1_20251106_212335,1762435381321,1,0.49040472507476807,0.34591546654701233,0.3972873091697693,0.6942683458328247,0.6045383810997009,3.330474376678467,2.2597053050994873,0.7893346548080444,8.659048080444336,4.0433478355407715,-0.20693805813789368,0.1056414246559143,0.038465388119220734,29.558252334594727,-25.533157348632812,-4.364402770996094,-0.06519293785095215,-0.03184032440185547,-0.022791385650634766,0.8545275926589966,8.690888404846191,4.066139221191406
1_20251106_212335,1762435381339,1,0.4907141327857971,0.3446376323699951,0.396239697933197,0.6952831149101257,0.6004239320755005,3.320574998855591,2.264899969100952,0.8599605560302734,8.818256378173828,4.748409748077393,-0.26985710859298706,0.1374063789844513,0.040908847004175186,29.621198654174805,-25.49164581298828,-4.34764289855957,0.004346370697021484,0.10189437866210938,0.5458164215087891,0.855614185333252,8.716361999511719,4.2025933265686035
1_20251106_212335,1762435381360,1,0.49102723598480225,0.3427788019180298,0.3949059844017029,0.6967382431030273,0.5963335633277893,3.3113274574279785,2.2731003761291504,0.863551676273346,8.930778503417969,5.191317558288574,-0.1959424912929535,0.12457823753356934,0.054347872734069824,29.72623062133789,-25.359046936035156,-4.408660888671875,0.00634998083114624,0.17153358459472656,0.7909793853759766,0.8572016954421997,8.759244918823242,4.400338172912598
1_20251106_212335,1762435381378,1,0.4910910427570343,0.34133830666542053,0.3938664495944977,0.6979877948760986,0.5928137898445129,3.3036983013153076,2.2828519344329834,0.9198130369186401,9.020557403564453,5.257155418395996,-0.08965203166007996,0.0958675891160965,0.09283235669136047,29.72623062133789,-25.359046936035156,-4.408660888671875,0.05008906126022339,0.20905017852783203,0.6854538917541504,0.8697239756584167,8.811507225036621,4.571701526641846
1_20251106_212335,1762435381397,1,0.49073049426078796,0.3407091796398163,0.39320239424705505,0.6989225149154663,0.5900114178657532,3.297306776046753,2.293874979019165,1.0670500993728638,9.123502731323242,5.212864875793457,-0.018180862069129944,0.05921569839119911,0.13009509444236755,29.70508575439453,-25.298255920410156,-4.367773056030273,0.1578608751296997,0.24959659576416016,0.5129308700561523,0.9091892242431641,8.873906135559082,4.699934005737305
1_20251106_212335,1762435381416,1,0.4899470806121826,0.3407597839832306,0.39275363087654114,0.699699342250824,0.5881369709968567,3.2921626567840576,2.3053174018859863,1.1963313817977905,9.212085723876953,5.053657531738281,-0.018180862069129944,0.05921569839119911,0.13009509444236755,29.658159255981445,-25.26416778564453,-4.328393936157227,0.22971373796463013,0.27054405212402344,0.28297901153564453,0.9666176438331604,8.94154167175293,4.770678520202637
1_20251106_212335,1762435381435,1,0.4889996349811554,0.34103256464004517,0.392488956451416,0.7003774046897888,0.5871966481208801,3.2883496284484863,2.3162612915039062,1.2729425430297852,9.332986831665039,4.797489166259766,0.025801395997405052,0.05005273222923279,0.07878246158361435,29.609317779541016,-25.267478942871094,-4.316839218139648,0.24505996704101562,0.3131561279296875,0.021448612213134766,1.0278825759887695,9.019830703735352,4.776040554046631
1_20251106_212335,1762435381455,1,0.4883578419685364,0.34120601415634155,0.3924936354160309,0.7007380127906799,0.5869724154472351,3.2856290340423584,2.326608419418335,1.2717455625534058,9.348548889160156,4.757986068725586,0.002588539384305477,0.057993970811367035,-0.01895589381456375,29.5347900390625,-25.29735565185547,-4.320308685302734,0.1950904130935669,0.26297473907470703,-0.014443397521972656,1.0766551494598389,9.08557415008545,4.772429466247559
1_20251106_212335,1762435381475,1,0.4884397089481354,0.3409326374530792,0.3927094638347626,0.7006931304931641,0.5870187878608704,3.283700466156006,2.336651563644409,1.1711933612823486,9.324607849121094,4.85015869140625,-0.035895936191082,0.09159153699874878,-0.10753127932548523,29.48524284362793,-25.31322479248047,-4.309017181396484,0.0756305456161499,0.19122695922851562,0.062183380126953125,1.0955628156661987,9.133380889892578,4.787975311279297
1_20251106_212335,1762435381492,1,0.4891321659088135,0.33994725346565247,0.39310574531555176,0.7004665732383728,0.5870187878608704,3.283700466156006,2.336651563644409,1.1711933612823486,9.324607849121094,4.85015869140625,-0.00962875597178936,0.11602611839771271,-0.1704503446817398,29.37666893005371,-25.307273864746094,-4.3672332763671875,0.0756305456161499,0.19122695922851562,0.062183380126953125,1.0955628156661987,9.133380889892578,4.787975311279297
1_20251106_212335,1762435381511,1,0.4898494482040405,0.3385317027568817,0.3941009044647217,0.7000916004180908,0.5856695771217346,3.2799277305603027,2.3559391498565674,0.7749699950218201,8.98225212097168,4.742424488067627,0.05206858366727829,0.11052833497524261,-0.1863328367471695,29.28976058959961,-25.338218688964844,-4.3441619873046875,-0.23639839887619019,-0.12640953063964844,-0.06037139892578125,1.0113683938980103,9.108661651611328,4.802795886993408
1_20251106_212335,1762435381531,1,0.4907228350639343,0.337449312210083,0.39542755484580994,0.6992539763450623,0.5834583044052124,3.277104377746582,2.364567995071411,0.6361122727394104,8.856561660766602,4.589201927185059,0.07283798605203629,0.09464585781097412,-0.1551787257194519,29.214244842529297,-25.36944580078125,-4.212469100952148,-0.30020493268966675,-0.20168018341064453,-0.17087507247924805,0.9363172054290771,9.058241844177246,4.760076999664307
1_20251106_212335,1762435381551,1,0.4913690686225891,0.3366629183292389,0.3967573344707489,0.6984254717826843,0.580259382724762,3.2737510204315186,2.3720858097076416,0.5750627517700195,8.837409019470215,4.536532402038574,0.03862955421209335,0.08853720873594284,-0.08737274259328842,29.19190216064453,-25.321884155273438,-4.1042633056640625,-0.28900355100631714,-0.176666259765625,-0.17883586883544922,0.8640663027763367,9.01407527923584,4.715368270874023
1_20251106_212335,1762435381569,1,0.49169015884399414,0.3360002338886261,0.39764168858528137,0.698015570640564,0.5767537355422974,3.2703986167907715,2.378220558166504,0.5511217713356018,8.817058563232422,4.596384525299072,0.03862955421209335,0.08853720873594284,-0.08737274259328842,29.218597412109375,-25.27074432373047,-4.034645080566406,-0.25035566091537476,-0.15761375427246094,-0.09518718719482422,0.8014774322509766,8.974672317504883,4.6915717124938965
1_20251106_212335,1762435381589,1,0.4917731285095215,0.3355609178543091,0.3979397416114807,0.697998583316803,0.5726368427276611,3.266633987426758,2.384613513946533,0.5822451114654541,8.827832221984863,4.7795329093933105,-0.017569996416568756,0.035391975194215775,0.044574033468961716,29.304506301879883,-25.252761840820312,-4.017431259155273,-0.17538583278656006,-0.11747264862060547,0.07036876678466797,0.7576309442520142,8.945304870605469,4.709164142608643
1_20251106_212335,1762435381607,1,0.4916726350784302,0.3351967930793762,0.3979596793651581,0.6982329487800598,0.5726368427276611,3.266633987426758,2.384613513946533,0.5822451114654541,8.827832221984863,4.7795329093933105,-0.005352702923119068,0.023174678906798363,0.0971084013581276,29.3681697845459,-25.18708038330078,-3.905529022216797,-0.17538583278656006,-0.11747264862060547,0.07036876678466797,0.7576309442520142,8.945304870605469,4.709164142608643
1_20251106_212335,1762435381626,1,0.4912077784538269,0.33500829339027405,0.3976857662200928,0.6988064050674438,0.5650849938392639,3.2587502002716064,2.3997750282287598,0.8563693761825562,8.812271118164062,5.147027015686035,0.06123155355453491,0.04272235184907913,0.12154299020767212,29.41681480407715,-25.184036254882812,-3.8900508880615234,0.08253687620162964,-0.08897209167480469,0.2825307846069336,0.7738324999809265,8.901243209838867,4.864496231079102
1_20251106_212335,1762435381645,1,0.49016255140304565,0.33544087409973145,0.3977924883365631,0.6992719173431396,0.5621357560157776,3.2550621032714844,2.406874418258667,0.9198129773139954,8.936763763427734,4.731651306152344,0.12048542499542236,0.061048295348882675,0.11115829646587372,29.477954864501953,-25.168182373046875,-3.819753646850586,0.11678439378738403,0.02841663360595703,-0.10627603530883789,0.8030285835266113,8.908347129821777,4.837927341461182
1_20251106_212335,1762435381665,1,0.4890057444572449,0.3360515236854553,0.398349404335022,0.6994715929031372,0.5594901442527771,3.2518465518951416,2.412479877471924,0.8599604964256287,9.013374328613281,4.422812461853027,0.10704641044139862,0.05616137757897377,0.08550197631120682,29.454498291015625,-25.14533233642578,-3.75262451171875,0.04554551839828491,0.08402156829833984,-0.3320918083190918,0.8144149780273438,8.929352760314941,4.754904270172119
1_20251106_212335,1762435381683,1,0.4880800247192383,0.3366169333457947,0.39891982078552246,0.6995211839675903,0.5567306876182556,3.2492358684539795,2.4168906211853027,0.7246939539909363,9.091182708740234,4.4216156005859375,0.04901425540447235,0.07570904493331909,0.06534343957901001,29.44131088256836,-25.159088134765625,-3.71282958984375,-0.07177680730819702,0.12946414947509766,-0.2666306495666504,0.7964707612991333,8.961718559265137,4.688246250152588
1_20251106_212335,1762435381702,1,0.4873870015144348,0.3367343842983246,0.39931559562683105,0.6997220516204834,0.5535739660263062,3.247255325317383,2.4203426837921143,0.6013978719711304,9.143853187561035,4.419220924377441,0.011140642687678337,0.13557378947734833,0.06534343957901001,29.412723541259766,-25.224403381347656,-3.620515823364258,-0.15605831146240234,0.1457080841064453,-0.21522045135498047,0.7574561834335327,8.99814510345459,4.634441375732422
1_20251106_212335,1762435381722,1,0.48660629987716675,0.336259663105011,0.39975759387016296,0.7002410888671875,0.5535739660263062,3.247255325317383,2.4203426837921143,0.6013978719711304,9.143853187561035,4.419220924377441,0.011140642687678337,0.13557378947734833,0.06534343957901001,29.370328903198242,-25.3275146484375,-3.597066879272461,-0.15605831146240234,0.1457080841064453,-0.21522045135498047,0.7574561834335327,8.99814510345459,4.634441375732422
1_20251106_212335,1762435381740,1,0.4854493737220764,0.33551353216171265,0.40052035450935364,0.7009657621383667,0.5458562970161438,3.2433741092681885,2.4238533973693848,0.4529637396335602,8.817058563232422,4.063697814941406,0.0465708002448082,0.19788199663162231,0.13009509444236755,29.34185218811035,-25.381080627441406,-3.423391342163086,-0.20904824137687683,-0.15056228637695312,-0.40856075286865234,0.662011981010437,8.967620849609375,4.472258567810059
1_20251106_212335,1762435381760,1,0.48386839032173157,0.3349917232990265,0.4013231098651886,0.7018487453460693,0.5412394404411316,3.240591287612915,2.4241979122161865,0.49605751037597656,8.758403778076172,4.257619380950928,0.015416698530316353,0.1777234524488449,0.2406616061925888,29.26381492614746,-25.462135314941406,-3.333303451538086,-0.13276362419128418,-0.1673736572265625,-0.17171144485473633,0.6288211345672607,8.925777435302734,4.429330825805664
1_20251106_212335,1762435381779,1,0.48166361451148987,0.3348551094532013,0.40152937173843384,0.703311026096344,0.5412394404411316,3.240591287612915,2.4241979122161865,0.49605751037597656,8.758403778076172,4.257619380950928,-0.031009020283818245,0.162451833486557,0.38116052746772766,29.18759536743164,-25.50592041015625,-3.201875686645508,-0.13276362419128418,-0.1673736572265625,-0.17171144485473633,0.6288211345672607,8.925777435302734,4.429330825805664
1_20251106_212335,1762435381799,1,0.4789262115955353,0.3349262475967407,0.4013206660747528,0.7052629590034485,0.5348517298698425,3.2355475425720215,2.424783945083618,1.1125379800796509,9.044498443603516,4.589201927185059,-0.021846050396561623,0.0750981867313385,0.4459121823310852,29.1300106048584,-25.648704528808594,-3.0580615997314453,0.3647387623786926,0.1035614013671875,0.14024019241333008,0.7477992177009583,8.940937042236328,4.4489617347717285
1_20251106_212335,1762435381818,1,0.4760280251502991,0.3361375033855438,0.4003003239631653,0.7072259187698364,0.5342844724655151,3.2341647148132324,2.426774501800537,1.36272132396698,9.200115203857422,4.991410732269287,-0.016959132626652718,0.029894191771745682,0.43247315287590027,28.98369789123535,-25.859703063964844,-2.932516098022461,0.4919377565383911,0.20734310150146484,0.4339590072631836,0.8707835674285889,8.992772102355957,4.5574517250061035
1_20251106_212335,1762435381836,1,0.47315436601638794,0.3377421200275421,0.3988197445869446,0.7092235088348389,0.5353802442550659,3.233731508255005,2.4299442768096924,1.5231258869171143,9.322214126586914,5.117100715637207,0.00686459057033062,0.05860483646392822,0.33534565567970276,28.98369789123535,-25.859703063964844,-2.932516098022461,0.521873950958252,0.2635536193847656,0.44771909713745117,1.0012519359588623,9.058660507202148,4.669381618499756
1_20251106_212335,1762435381856,1,0.4705108404159546,0.3386821448802948,0.39759349822998047,0.7112196087837219,0.5381015539169312,3.2337841987609863,2.434257984161377,1.5159435272216797,9.226449012756348,4.987819194793701,0.04901426285505295,0.09159153699874878,0.20339885354042053,28.813013076782227,-26.072288513183594,-2.807952880859375,0.4117532968521118,0.1342306137084961,0.25475025177001953,1.1041902303695679,9.092218399047852,4.733068943023682
1_20251106_212335,1762435381876,1,0.468441903591156,0.3391546607017517,0.39707669615745544,0.7126474380493164,0.5415564179420471,3.233794689178467,2.438359022140503,1.3902534246444702,9.079212188720703,4.734045028686523,0.08077922463417053,0.09220239520072937,0.11360175162553787,28.642822265625,-26.284202575683594,-2.7509708404541016,0.22885048389434814,-0.010404586791992188,0.0007810592651367188,1.161402940750122,9.089616775512695,4.733263969421387
1_20251106_212335,1762435381894,1,0.46691232919692993,0.3394937515258789,0.3971339166164398,0.713457465171814,0.5445149540901184,3.233672618865967,2.4414620399475098,1.2382280826568604,9.030134201049805,4.638280868530273,0.06795106828212738,0.08426115661859512,0.07389554381370544,28.436988830566406,-26.47406005859375,-2.627349853515625,0.061460137367248535,-0.04758644104003906,-0.07598638534545898,1.1767679452896118,9.077720642089844,4.714267253875732
1_20251106_212335,1762435381913,1,0.4658031165599823,0.33971625566482544,0.39743974804878235,0.7139061689376831,0.5445149540901184,3.233672618865967,2.4414620399475098,1.2382280826568604,9.030134201049805,4.638280868530273,0.05206858366727829,0.09159152954816818,0.03968711569905281,28.218053817749023,-26.68914794921875,-2.572328567504883,0.061460137367248535,-0.04758644104003906,-0.07598638534545898,1.1767679452896118,9.077720642089844,4.714267253875732
1_20251106_212335,1762435381932,1,0.4649786949157715,0.33953896164894104,0.39799752831459045,0.7142171263694763,0.5507673621177673,3.23193621635437,2.446826457977295,1.1376760005950928,8.829029083251953,4.518576145172119,0.0514577180147171,0.0903698056936264,0.014641664922237396,28.098623275756836,-26.86034393310547,-2.4990768432617188,-0.032105326652526855,-0.17391014099121094,-0.13443565368652344,1.1697813272476196,9.002939224243164,4.653011798858643
1_20251106_212335,1762435381951,1,0.4643964171409607,0.3392470180988312,0.39864033460617065,0.7143761515617371,0.5534323453903198,3.2303435802459717,2.4487051963806152,1.1364789009094238,8.813467979431152,4.541319847106934,0.034964367747306824,0.09281326085329056,-0.001240817829966545,27.988460540771484,-27.08110809326172,-2.412874221801758,-0.02664196491241455,-0.15157699584960938,-0.08935356140136719,1.1631208658218384,8.965044975280762,4.630673408508301
1_20251106_212335,1762435381970,1,0.46401357650756836,0.3387987017631531,0.3992440104484558,0.7145005464553833,0.5534323453903198,3.2303435802459717,2.4487051963806152,1.1364789009094238,8.813467979431152,4.541319847106934,0.008086320012807846,0.10136536508798599,-0.0024625472724437714,27.787757873535156,-27.18279266357422,-2.3144378662109375,-0.02664196491241455,-0.15157699584960938,-0.08935356140136719,1.1631208658218384,8.965044975280762,4.630673408508301
1_20251106_212335,1762435381990,1,0.4637104570865631,0.33816176652908325,0.3996630012989044,0.7147647738456726,0.5579114556312561,3.225482940673828,2.452943801879883,1.0921880006790161,8.70812702178955,4.728059768676758,0.034353502094745636,0.0805959701538086,0.018917717039585114,27.748294830322266,-27.223922729492188,-2.2085704803466797,-0.04463088512420654,-0.17113113403320312,0.06577444076538086,1.1368188858032227,8.879258155822754,4.662285327911377
1_20251106_212335,1762435382009,1,0.46315473318099976,0.337539404630661,0.40003859996795654,0.7152090668678284,0.5597968101501465,3.222493886947632,2.4549269676208496,1.1161291599273682,8.69495964050293,4.647857666015625,0.034353502094745636,0.0805959701538086,0.018917717039585114,27.75647735595703,-27.27497100830078,-2.0469398498535156,-0.016551733016967773,-0.14743900299072266,-0.011542320251464844,1.132680892944336,8.842398643493652,4.65939998626709
1_20251106_212335,1762435382027,1,0.46240267157554626,0.3374897539615631,0.40054890513420105,0.7154334187507629,0.5617151856422424,3.219481945037842,2.4561233520507812,1.2226665019989014,8.71171760559082,4.4204182624816895,0.09421825408935547,0.04577667638659477,0.058013059198856354,27.755178451538086,-27.28833770751953,-1.9661064147949219,0.07198846340179443,-0.10454463958740234,-0.19118547439575195,1.150678038597107,8.816262245178223,4.611603736877441
1_20251106_212335,1762435382047,1,0.46146470308303833,0.33754611015319824,0.40105095505714417,0.715731143951416,0.5642246603965759,3.2156319618225098,2.4564592838287354,1.3100510835647583,8.59560489654541,4.306698322296143,0.09421825408935547,0.04577667638659477,0.058013059198856354,27.78146743774414,-27.249351501464844,-1.9373016357421875,0.12749850749969482,-0.17652606964111328,-0.24392461776733398,1.1825525760650635,8.772130966186523,4.550622940063477
1_20251106_212335,1762435382065,1,0.4608081877231598,0.33805060386657715,0.4012645184993744,0.7157963514328003,0.5642246603965759,3.2156319618225098,2.4564592838287354,1.3100510835647583,8.59560489654541,4.306698322296143,0.01663842797279358,0.031115921214222908,0.03968711569905281,27.806148529052734,-27.235748291015625,-1.8819923400878906,0.12749850749969482,-0.17652606964111328,-0.24392461776733398,1.1825525760650635,8.772130966186523,4.550622940063477
1_20251106_212335,1762435382085,1,0.46042826771736145,0.33846062421798706,0.40115752816200256,0.7159070372581482,0.5691829323768616,3.207266092300415,2.455359697341919,1.237031102180481,8.530963897705078,4.365353584289551,0.01663842797279358,0.031115921214222908,0.03968711569905281,27.75530242919922,-27.264984130859375,-1.7898674011230469,0.02682209014892578,-0.15415477752685547,-0.10803842544555664,1.2102090120315552,8.685118675231934,4.473392009735107
1_20251106_212335,1762435382105,1,0.46007850766181946,0.3383958041667938,0.4009057879447937,0.7163034081459045,0.5718585252761841,3.2021656036376953,2.453949451446533,1.260972023010254,8.467520713806152,4.250437259674072,-0.05361101031303406,0.05616137757897377,0.044574033468961716,27.731042861938477,-27.25482940673828,-1.7094860076904297,0.040610432624816895,-0.17407798767089844,-0.17836380004882812,1.220361590385437,8.64159870147705,4.4288010597229
1_20251106_212335,1762435382123,1,0.4596825838088989,0.3380770683288574,0.4005059599876404,0.7169315218925476,0.5718585252761841,3.2021656036376953,2.453949451446533,1.260972023010254,8.467520713806152,4.250437259674072,-0.06582830846309662,0.04150062054395676,0.04335230588912964,27.766403198242188,-27.26567840576172,-1.6406974792480469,0.040610432624816895,-0.17407798767089844,-0.17836380004882812,1.220361590385437,8.64159870147705,4.4288010597229
1_20251106_212335,1762435382141,1,0.459469735622406,0.33798521757125854,0.3999707102775574,0.7174099087715149,0.574563205242157,3.1964824199676514,2.4517323970794678,1.2310458421707153,8.463930130004883,4.186993598937988,-0.06582830846309662,0.04150062054395676,0.04335230588912964,27.7534122467041,-27.27916717529297,-1.6279354095458984,0.008547425270080566,-0.1421346664428711,-0.19344615936279297,1.2224984169006348,8.606064796447754,4.380439758300781
1_20251106_212335,1762435382161,1,0.45945554971694946,0.33770298957824707,0.39907971024513245,0.7180477976799011,0.5792672038078308,3.1881184577941895,2.4496963024139404,1.4094061851501465,8.791921615600586,5.00338077545166,-0.1287473738193512,0.03478110954165459,0.04701749607920647,27.668506622314453,-27.28418731689453,-1.6854324340820312,0.1514146327972412,0.14116573333740234,0.5001921653747559,1.2579915523529053,8.650755882263184,4.503188610076904
1_20251106_212335,1762435382180,1,0.45949414372444153,0.3373129665851593,0.3977600038051605,0.7189381718635559,0.5825914740562439,3.184971570968628,2.451328754425049,1.5446728467941284,8.911625862121582,5.1721649169921875,-0.11714094877243042,0.016455167904496193,0.08183678984642029,27.604049682617188,-27.35094451904297,-1.6892051696777344,0.22934496402740479,0.2086963653564453,0.5351810455322266,1.3153278827667236,8.702929496765137,4.636983871459961
1_20251106_212335,1762435382201,1,0.45907488465309143,0.3367662727832794,0.39626574516296387,0.7202861905097961,0.5869429111480713,3.1824591159820557,2.4541144371032715,1.5722049474716187,8.939157485961914,4.956696510314941,-0.01634826883673668,-0.011033744551241398,0.048239223659038544,27.513208389282227,-27.456825256347656,-1.7082653045654297,0.20550167560577393,0.1889820098876953,0.255770206451416,1.3667032718658447,8.750175476074219,4.700926303863525
1_20251106_212335,1762435382219,1,0.458598256111145,0.3367529809474945,0.3952936828136444,0.7211296558380127,0.5869429111480713,3.1824591159820557,2.4541144371032715,1.5722049474716187,8.939157485961914,4.956696510314941,0.011140644550323486,-0.003703367430716753,-0.01101465243846178,27.513208389282227,-27.456825256347656,-1.7082653045654297,0.20550167560577393,0.1889820098876953,0.255770206451416,1.3667032718658447,8.750175476074219,4.700926303863525
1_20251106_212335,1762435382239,1,0.45850279927253723,0.3369140625,0.3948633670806885,0.7213508486747742,0.5912353992462158,3.1806256771087646,2.4565353393554688,1.4836232662200928,8.894866943359375,4.668207168579102,-0.04322631657123566,0.05371791869401932,-0.060494694858789444,27.381572723388672,-27.427490234375,-1.75341796875,0.0935359001159668,0.115753173828125,-0.02617502212524414,1.390087366104126,8.77911376953125,4.694382190704346
1_20251106_212335,1762435382257,1,0.45881304144859314,0.33648866415023804,0.3947325050830841,0.7214237451553345,0.5981118083000183,3.1783652305603027,2.4587507247924805,1.3399772644042969,8.857757568359375,4.306698799133301,-0.04322631657123566,0.05371791869401932,-0.060494694858789444,27.381572723388672,-27.427490234375,-1.75341796875,-0.040114760398864746,0.043053627014160156,-0.2762718200683594,1.3800920248031616,8.814703941345215,4.58297061920166
1_20251106_212335,1762435382275,1,0.45933419466018677,0.3356289267539978,0.394782692193985,0.7214651107788086,0.5981118083000183,3.1783652305603027,2.4587507247924805,1.3399772644042969,8.857757568359375,4.306698799133301,-0.1030910536646843,0.05188532546162605,-0.08615101128816605,27.344297409057617,-27.45404052734375,-1.8500308990478516,-0.040114760398864746,0.043053627014160156,-0.2762718200683594,1.3800920248031616,8.814703941345215,4.58297061920166
1_20251106_212335,1762435382295,1,0.4602259397506714,0.3351881504058838,0.3946416974067688,0.7211788296699524,0.603844165802002,3.175992012023926,2.458009719848633,1.1951342821121216,8.807482719421387,4.495832443237305,-0.13241256773471832,0.0005726855015382171,-0.05499691143631935,27.2978515625,-27.430892944335938,-1.9731101989746094,-0.1338866949081421,0.0020818710327148438,-0.01439809799194336,1.3290209770202637,8.805400848388672,4.510230541229248
1_20251106_212335,1762435382315,1,0.46120303869247437,0.33508390188217163,0.39403247833251953,0.720936119556427,0.6062120795249939,3.175292730331421,2.458705425262451,1.2681543827056885,8.953522682189941,4.865720272064209,-0.14768418669700623,-0.004925096873193979,-0.0165124349296093,27.288373947143555,-27.393203735351562,-2.053905487060547,-0.048693299293518066,0.11849784851074219,0.2843918800354004,1.3168476819992065,8.8350248336792,4.581328392028809
1_20251106_212335,1762435382333,1,0.4619683623313904,0.3346948027610779,0.3931354582309723,0.7211166024208069,0.6062120795249939,3.175292730331421,2.458705425262451,1.2681543827056885,8.953522682189941,4.865720272064209,-0.09942586719989777,0.0024052797816693783,-0.023231949657201767,27.34012222290039,-27.35114288330078,-2.1727981567382812,-0.048693299293518066,0.11849784851074219,0.2843918800354004,1.3168476819992065,8.8350248336792,4.581328392028809
1_20251106_212335,1762435382352,1,0.46254444122314453,0.334211140871048,0.39236852526664734,0.7213892936706543,0.6103497743606567,3.1753439903259277,2.462313652038574,1.2717455625534058,9.010980606079102,4.786715507507324,-0.05971965938806534,0.011568250134587288,-0.05499691143631935,27.35532569885254,-27.299850463867188,-2.198284149169922,-0.03844177722930908,0.11433601379394531,0.10597467422485352,1.3101873397827148,8.896644592285156,4.680740833282471
1_20251106_212335,1762435382372,1,0.4629870057106018,0.3336758017539978,0.39199700951576233,0.7215551733970642,0.6118911504745483,3.1757237911224365,2.464263916015625,1.1771786212921143,8.947537422180176,4.683769226074219,-0.07315868139266968,0.013400844298303127,-0.07393372058868408,27.408496856689453,-27.22106170654297,-2.221771240234375,-0.1064070463180542,0.040714263916015625,0.002422809600830078,1.2835856676101685,8.90682315826416,4.681346416473389
1_20251106_212335,1762435382391,1,0.46370506286621094,0.33316776156425476,0.39175447821617126,0.7214605212211609,0.6127583980560303,3.176025152206421,2.466400146484375,1.1005674600601196,8.897260665893555,4.871706008911133,-0.09942586719989777,-0.011644609272480011,-0.07454457879066467,27.447071075439453,-27.18114471435547,-2.205991744995117,-0.1464146375656128,-0.0076503753662109375,0.15228748321533203,1.2469820976257324,8.904911041259766,4.719418525695801
1_20251106_212335,1762435382409,1,0.46471166610717773,0.3327425420284271,0.39133116602897644,0.7212387919425964,0.6131048202514648,3.176332473754883,2.469465970993042,1.056276559829712,8.906837463378906,5.056051254272461,-0.09942586719989777,-0.011644609272480011,-0.07454457879066467,27.545249938964844,-27.173843383789062,-2.296682357788086,-0.1525644063949585,0.0015411376953125,0.2693061828613281,1.2088409662246704,8.905296325683594,4.786745071411133
1_20251106_212335,1762435382429,1,0.46540048718452454,0.33199965953826904,0.39102330803871155,0.7213039398193359,0.6128419041633606,3.1765098571777344,2.4726736545562744,1.0083945989608765,8.862546920776367,4.833399772644043,-0.015126538462936878,-0.0018707733834162354,-0.04949912801384926,27.582218170166016,-27.15930938720703,-2.2543983459472656,-0.16035711765289307,-0.03419971466064453,0.037323951721191406,1.1687517166137695,8.896746635437012,4.796075820922852
1_20251106_212335,1762435382449,1,0.4658319652080536,0.33138594031333923,0.39101025462150574,0.7213147282600403,0.6121373772621155,3.176629066467285,2.475266695022583,1.0191680192947388,8.880502700805664,4.646660804748535,-0.015126538462936878,-0.0018707733834162354,-0.04949912801384926,27.63376808166504,-27.117515563964844,-2.3462581634521484,-0.1196669340133667,-0.012994766235351562,-0.11953210830688477,1.1388349533081055,8.893497467041016,4.76619291305542
1_20251106_212335,1762435382467,1,0.4661315977573395,0.3312533497810364,0.3911169171333313,0.7211241722106934,0.6113376021385193,3.176781415939331,2.4771924018859863,1.0586707592010498,8.914020538330078,4.647857666015625,-0.037117667496204376,-0.022640174254775047,-0.01101465430110693,27.695192337036133,-27.112869262695312,-2.411386489868164,-0.06413137912750244,0.01641845703125,-0.09466838836669922,1.1228021383285522,8.897602081298828,4.742526054382324
1_20251106_212335,1762435382486,1,0.46668586134910583,0.3313448131084442,0.39097046852111816,0.7208030223846436,0.6102808713912964,3.176910400390625,2.479231595993042,1.0299415588378906,8.88888168334961,4.781927108764648,-0.05605447292327881,-0.017142390832304955,-0.027508001774549484,27.722496032714844,-27.049301147460938,-2.3279876708984375,-0.07428848743438721,-0.006976127624511719,0.031520843505859375,1.1042300462722778,8.895857810974121,4.750406265258789
1_20251106_212335,1762435382505,1,0.467337042093277,0.3313092589378357,0.3907631039619446,0.7205098271369934,0.6102808713912964,3.176910400390625,2.479231595993042,1.0299415588378906,8.88888168334961,4.781927108764648,-0.05605447292327881,-0.017142390832304955,-0.027508001774549484,27.76226806640625,-26.99614715576172,-2.379526138305664,-0.07428848743438721,-0.006976127624511719,0.031520843505859375,1.1042300462722778,8.895857810974121,4.750406265258789
1_20251106_212335,1762435382525,1,0.46787533164024353,0.33095234632492065,0.39058399200439453,0.7204216718673706,0.6087497472763062,3.176974296569824,2.4817068576812744,0.9784684181213379,8.874517440795898,4.85015869140625,-0.05544360727071762,-0.007368555758148432,-0.03300578519701958,27.812225341796875,-26.968124389648438,-2.350004196166992,-0.10060930252075195,-0.017072677612304688,0.07980203628540039,1.0790777206420898,8.891590118408203,4.77035665512085
1_20251106_212335,1762435382543,1,0.4682956337928772,0.33052781224250793,0.390494704246521,0.7203918695449829,0.6052905917167664,3.17629075050354,2.485948085784912,0.9437539577484131,8.779951095581055,4.839385032653809,-0.040171992033720016,0.0005726855015382171,-0.02262108400464058,27.815637588500977,-26.917091369628906,-2.4300460815429688,-0.0831596851348877,-0.07068252563476562,0.04992389678955078,1.0269136428833008,8.85063362121582,4.789461135864258
1_20251106_212335,1762435382563,1,0.4684741199016571,0.3301689028739929,0.3903008699417114,0.7205454111099243,0.6036117076873779,3.1757736206054688,2.488452911376953,1.077823519706726,8.824241638183594,4.919588088989258,-0.043837182223796844,-0.02874881960451603,0.04946095123887062,27.781490325927734,-26.88140106201172,-2.4712753295898438,0.040727853775024414,-0.02111339569091797,0.10410165786743164,1.0370956659317017,8.845355033874512,4.815486431121826
1_20251106_212335,1762435382581,1,0.46851980686187744,0.33013731241226196,0.3898411691188812,0.7207790017127991,0.6036117076873779,3.1757736206054688,2.488452911376953,1.077823519706726,8.824241638183594,4.919588088989258,-0.018180862069129944,-0.04890735447406769,0.05923478677868843,27.794876098632812,-26.86737823486328,-2.5381031036376953,0.040727853775024414,-0.02111339569091797,0.10410165786743164,1.0370956659317017,8.845355033874512,4.815486431121826
1_20251106_212335,1762435382600,1,0.46840599179267883,0.33047881722450256,0.38929566740989685,0.720991313457489,0.6016777157783508,3.1748886108398438,2.4947667121887207,1.2142871618270874,8.839802742004395,4.98542594909668,0.0019776737317442894,-0.01836412213742733,0.027469824999570847,27.72075653076172,-26.885108947753906,-2.500761032104492,0.11857378482818604,-0.007000923156738281,0.098419189453125,1.0957133769989014,8.846803665161133,4.887006759643555
1_20251106_212335,1762435382620,1,0.4682717025279999,0.3305823802947998,0.3889591693878174,0.72121262550354,0.6016777157783508,3.1748886108398438,2.4947667121887207,1.2142871618270874,8.839802742004395,4.98542594909668,0.00014507956802845,0.02745073474943638,-0.012847247533500195,27.672012329101562,-26.888282775878906,-2.5027236938476562,0.11857378482818604,-0.007000923156738281,0.098419189453125,1.0957133769989014,8.846803665161133,4.887006759643555
1_20251106_212335,1762435382639,1,0.4682469666004181,0.33033016324043274,0.38894400000572205,0.7213524580001831,0.600412905216217,3.172602891921997,2.4999468326568604,1.0682471990585327,8.59440803527832,4.677783489227295,0.00014507956802845,0.02745073474943638,-0.012847247533500195,27.645217895507812,-26.939559936523438,-2.558826446533203,-0.027729272842407227,-0.17838764190673828,-0.1538219451904297,1.09597647190094,8.772795677185059,4.831605434417725
1_20251106_212335,1762435382660,1,0.4683148264884949,0.32985395193099976,0.38901960849761963,0.7214854955673218,0.600412905216217,3.172602891921997,2.4999468326568604,1.0682471990585327,8.59440803527832,4.677783489227295,-0.05422188341617584,0.0390571653842926,0.02258290722966194,27.645824432373047,-26.927139282226562,-2.545045852661133,-0.027729272842407227,-0.17838764190673828,-0.1538219451904297,1.09597647190094,8.772795677185059,4.831605434417725
1_20251106_212335,1762435382679,1,0.4682612419128418,0.32948821783065796,0.38881105184555054,0.7217997312545776,0.5993129014968872,3.1683707237243652,2.503607749938965,1.1759815216064453,8.624334335327148,4.854947090148926,-0.037728533148765564,-0.005535961594432592,0.057402197271585464,27.609859466552734,-26.9287109375,-2.627614974975586,0.06441867351531982,-0.08658790588378906,0.03255939483642578,1.1115628480911255,8.710922241210938,4.8223876953125
1_20251106_212335,1762435382697,1,0.46806272864341736,0.3295764923095703,0.3883368670940399,0.7221434116363525,0.5993129014968872,3.1683707237243652,2.503607749938965,1.1759815216064453,8.624334335327148,4.854947090148926,-0.006574432365596294,-0.02447276934981346,0.06228911131620407,27.609859466552734,-26.9287109375,-2.627614974975586,0.06441867351531982,-0.08658790588378906,0.03255939483642578,1.1115628480911255,8.710922241210938,4.8223876953125
1_20251106_212335,1762435382716,1,0.467795193195343,0.32996445894241333,0.38784462213516235,0.7224040627479553,0.5993523597717285,3.1646835803985596,2.507096767425537,1.1975284814834595,8.796709060668945,4.787912368774414,-0.012683079577982426,-0.015920663252472878,0.044574033468961716,27.608238220214844,-26.96570587158203,-2.6959877014160156,0.0506129264831543,0.06582069396972656,-0.03566265106201172,1.1469155550003052,8.730888366699219,4.823575019836426
1_20251106_212335,1762435382734,1,0.46765467524528503,0.3302936851978302,0.387401819229126,0.7225821614265442,0.5995416045188904,3.163496971130371,2.50830078125,1.1843609809875488,8.86254596710205,4.714892387390137,-0.041393719613552094,0.0011835502227768302,0.012198206037282944,27.594432830810547,-27.003494262695312,-2.764850616455078,0.029956340789794922,0.10532665252685547,-0.08694601058959961,1.154404640197754,8.757219314575195,4.801838397979736
1_20251106_212335,1762435382754,1,0.46779921650886536,0.33034831285476685,0.38707494735717773,0.7226388454437256,0.5996395945549011,3.1628777980804443,2.5094454288482666,1.1209173202514648,8.965492248535156,4.760379791259766,-0.041393719613552094,0.0011835502227768302,0.012198206037282944,27.545490264892578,-27.006942749023438,-2.7397804260253906,-0.02678990364074707,0.16661834716796875,-0.03316688537597656,1.147707223892212,8.798873901367188,4.793546676635742
1_20251106_212335,1762435382773,1,0.4681805968284607,0.3301045000553131,0.38681474328041077,0.7226426005363464,0.5996395945549011,3.1628777980804443,2.5094454288482666,1.1209173202514648,8.965492248535156,4.760379791259766,-0.09392808377742767,0.007903061807155609,-0.04400135204195976,27.60350227355957,-27.05333709716797,-2.7248687744140625,-0.02678990364074707,0.16661834716796875,-0.03316688537597656,1.147707223892212,8.798873901367188,4.793546676635742
1_20251106_212335,1762435382792,1,0.46884408593177795,0.3296799659729004,0.3865557312965393,0.7225448489189148,0.5990754961967468,3.1635022163391113,2.5124948024749756,0.9868477582931519,9.068439483642578,5.078794956207275,-0.09392808377742767,0.007903061807155609,-0.04400135204195976,27.629581451416016,-27.026229858398438,-2.7639083862304688,-0.11750626564025879,0.18286418914794922,0.2164592742919922,1.1043540239334106,8.885575294494629,4.862335681915283
1_20251106_212335,1762435382811,1,0.46959152817726135,0.3292359411716461,0.3862582743167877,0.7224209308624268,0.5990754961967468,3.1635022163391113,2.5124948024749756,0.9868477582931519,9.068439483642578,5.078794956207275,-0.06216312199831009,0.011568250134587288,-0.040947023779153824,27.61980438232422,-26.98894500732422,-2.8041553497314453,-0.11750626564025879,0.18286418914794922,0.2164592742919922,1.1043540239334106,8.885575294494629,4.862335681915283
1_20251106_212335,1762435382829,1,0.47022536396980286,0.32855305075645447,0.38614243268966675,0.7223814725875854,0.5970748066902161,3.1663119792938232,2.518071174621582,0.9090394973754883,9.063650131225586,5.149420738220215,-0.014515673741698265,0.01767689734697342,-0.03544924408197403,27.64224624633789,-27.03636932373047,-2.9258766174316406,-0.1338115930557251,0.10266685485839844,0.18047857284545898,1.0428510904312134,8.960983276367188,4.968942165374756
1_20251106_212335,1762435382849,1,0.4705909788608551,0.3279539942741394,0.38637232780456543,0.7222927212715149,0.5953006744384766,3.1680004596710205,2.5216262340545654,0.8611575365066528,8.99901008605957,5.124283313751221,0.021525343880057335,0.02378554455935955,-0.01467984076589346,27.72674560546875,-27.043502807617188,-2.909191131591797,-0.14535486698150635,0.03042125701904297,0.12427282333374023,1.0065124034881592,8.968588829040527,5.0000104904174805
1_20251106_212335,1762435382869,1,0.4707454741001129,0.32751405239105225,0.3868046700954437,0.7221602201461792,0.5932934880256653,3.16953706741333,2.525090217590332,0.9006602168083191,8.946340560913086,5.028519630432129,0.024579672142863274,0.04272235184907913,0.018306853249669075,27.765220642089844,-27.00371551513672,-2.8798961639404297,-0.08468174934387207,-0.017798423767089844,0.02280712127685547,0.9853419661521912,8.964138984680176,5.005712509155273
1_20251106_212335,1762435382888,1,0.47055375576019287,0.32699906826019287,0.3872826397418976,0.7222623825073242,0.5914697051048279,3.170668125152588,2.5280096530914307,0.9808624982833862,8.870925903320312,4.930360794067383,0.023357940837740898,0.029283327981829643,0.048239223659038544,27.803287506103516,-26.97608184814453,-2.8914127349853516,-0.003583550453186035,-0.0745706558227539,-0.06028127670288086,0.9844460487365723,8.945496559143066,4.990642070770264
1_20251106_212335,1762435382906,1,0.47021687030792236,0.32682815194129944,0.3875857889652252,0.7223964929580688,0.5900375843048096,3.1713225841522217,2.5306127071380615,1.069444179534912,8.797906875610352,4.980637550354004,0.02641226537525654,-0.004925096873193979,0.07328467816114426,27.8277587890625,-26.97435760498047,-2.9039478302001953,0.06799852848052979,-0.1180715560913086,-0.008003711700439453,1.0014456510543823,8.91597843170166,4.988641262054443
1_20251106_212335,1762435382925,1,0.4698200821876526,0.327177494764328,0.38762086629867554,0.7224777340888977,0.5900375843048096,3.1713225841522217,2.5306127071380615,1.069444179534912,8.797906875610352,4.980637550354004,0.0361860990524292,-0.019585849717259407,0.08305852115154266,27.83098602294922,-26.91197967529297,-2.862079620361328,0.06799852848052979,-0.1180715560913086,-0.008003711700439453,1.0014456510543823,8.91597843170166,4.988641262054443
1_20251106_212335,1762435382945,1,0.46922123432159424,0.32765352725982666,0.3875207304954529,0.7227048277854919,0.5883390307426453,3.1714131832122803,2.5362346172332764,1.1843609809875488,8.775161743164062,5.040489673614502,0.03679696470499039,-0.0018707733834162354,0.07939332723617554,27.817502975463867,-26.92613983154297,-2.781736373901367,0.12568461894989014,-0.08705806732177734,0.033757686614990234,1.0586763620376587,8.86221981048584,5.006731986999512
1_20251106_212335,1762435382964,1,0.46853649616241455,0.32797008752822876,0.3874063491821289,0.7230667471885681,0.5883390307426453,3.1714131832122803,2.5362346172332764,1.1843609809875488,8.775161743164062,5.040489673614502,0.03557523339986801,0.015844302251935005,0.08061505854129791,27.850635528564453,-26.986404418945312,-2.7951011657714844,0.12568461894989014,-0.08705806732177734,0.033757686614990234,1.0586763620376587,8.86221981048584,5.006731986999512
1_20251106_212335,1762435382982,1,0.4677865505218506,0.3282310664653778,0.3873147964477539,0.7234827876091003,0.588356614112854,3.171009063720703,2.5388357639312744,1.2549868822097778,8.766782760620117,4.965075492858887,0.050846852362155914,0.0030161445029079914,0.07939332723617554,27.816303253173828,-26.939369201660156,-2.714418411254883,0.15704834461212158,-0.07634925842285156,-0.0333251953125,1.0979385375976562,8.843132019042969,4.998400688171387
1_20251106_212335,1762435383001,1,0.46708938479423523,0.3288218080997467,0.38723745942115784,0.7237063646316528,0.5889216065406799,3.1701622009277344,2.5409538745880127,1.298080563545227,8.667427062988281,4.914799690246582,0.05206858366727829,-0.004925096873193979,0.096497543156147,27.729591369628906,-26.97003936767578,-2.7183799743652344,0.16011357307434082,-0.14056396484375,-0.06688070297241211,1.1379669904708862,8.807991027832031,4.981680393218994
1_20251106_212335,1762435383022,1,0.46628087759017944,0.3295685052871704,0.38703450560569763,0.7239965796470642,0.5918101072311401,3.1667840480804443,2.5437936782836914,1.4369382858276367,8.486673355102539,4.749607086181641,0.07467058300971985,-0.012866338714957237,0.11299088597297668,27.650131225585938,-27.08782196044922,-2.7236976623535156,0.2051316499710083,-0.2261371612548828,-0.1707439422607422,1.2318066358566284,8.712810516357422,4.920351028442383
1_20251106_212335,1762435383042,1,0.46527764201164246,0.3305498957633972,0.3868635892868042,0.724285900592804,0.5944200754165649,3.163973093032837,2.5437355041503906,1.5087612867355347,8.460338592529297,4.5449113845825195,0.07467058300971985,-0.03180314227938652,0.12581904232501984,27.54792022705078,-27.170188903808594,-2.661623001098633,0.2215636968612671,-0.20197772979736328,-0.300351619720459,1.2871975898742676,8.66231632232666,4.8452630043029785
1_20251106_212335,1762435383059,1,0.46421441435813904,0.3318586051464081,0.3865395486354828,0.7245426177978516,0.5971457362174988,3.1613516807556152,2.5428316593170166,1.5686136484146118,8.50223445892334,4.455132484436035,0.03374263644218445,-0.053183406591415405,0.12093213200569153,27.48477554321289,-27.21196746826172,-2.6513519287109375,0.22513282299041748,-0.1280651092529297,-0.3121042251586914,1.3434808254241943,8.63029956817627,4.767236709594727
1_20251106_212335,1762435383079,1,0.46338871121406555,0.3333677053451538,0.38594233989715576,0.7246967554092407,0.6010292768478394,3.158400058746338,2.5412402153015137,1.6188898086547852,8.623136520385742,4.5760345458984375,0.03374263644218445,-0.053183406591415405,0.12093213200569153,27.469560623168945,-27.274871826171875,-2.720743179321289,0.2203272581100464,-0.005730628967285156,-0.15296173095703125,1.3985625505447388,8.628867149353027,4.728996276855469
1_20251106_212335,1762435383099,1,0.46307602524757385,0.3347283601760864,0.38513511419296265,0.7246989011764526,0.6050354242324829,3.1558005809783936,2.5398237705230713,1.5027759075164795,8.696157455444336,4.760379791259766,-0.050556689500808716,-0.050129085779190063,-0.006738600321114063,27.41507911682129,-27.378639221191406,-2.7112998962402344,0.08337068557739258,0.053832054138183594,0.02510690689086914,1.419405221939087,8.642325401306152,4.7352728843688965
1_20251106_212335,1762435383118,1,0.46346932649612427,0.33554044365882874,0.38432806730270386,0.724500298500061,0.6050354242324829,3.1558005809783936,2.5398237705230713,1.5027759075164795,8.696157455444336,4.760379791259766,-0.06949349492788315,-0.009812015108764172,-0.07393371313810349,27.41507911682129,-27.378639221191406,-2.7112998962402344,0.08337068557739258,0.053832054138183594,0.02510690689086914,1.419405221939087,8.642325401306152,4.7352728843688965
1_20251106_212335,1762435383135,1,0.464152067899704,0.3353615701198578,0.3838725984096527,0.724387526512146,0.6084761023521423,3.153538465499878,2.539067506790161,1.2992775440216064,8.710521697998047,4.929163932800293,-0.06827177107334137,0.005459603387862444,-0.08370755612850189,27.354248046875,-27.382476806640625,-2.7272682189941406,-0.09610211849212646,0.054556846618652344,0.15511274337768555,1.395379662513733,8.655964851379395,4.774051189422607
1_20251106_212335,1762435383155,1,0.46500104665756226,0.33467569947242737,0.3835749924182892,0.7243179082870483,0.6120437979698181,3.149883508682251,2.538882255554199,0.9928330183029175,8.660245895385742,4.993804931640625,-0.04811323434114456,-0.020807581022381783,-0.0421687550842762,27.324941635131836,-27.471961975097656,-2.7300968170166016,-0.27831482887268066,-0.0005159378051757812,0.15596485137939453,1.2711478471755981,8.660761833190918,4.8378400802612305
1_20251106_212335,1762435383174,1,0.4656193256378174,0.33419910073280334,0.38337600231170654,0.7242461442947388,0.6120437979698181,3.149883508682251,2.538882255554199,0.9928330183029175,8.660245895385742,4.993804931640625,-0.034063346683979034,-0.04096611216664314,0.021361175924539566,27.25202178955078,-27.476455688476562,-2.760072708129883,-0.27831482887268066,-0.0005159378051757812,0.15596485137939453,1.2711478471755981,8.660761833190918,4.8378400802612305
1_20251106_212335,1762435383193,1,0.4658774733543396,0.3338873088359833,0.3830370604991913,0.7244032621383667,0.6121532917022705,3.146915912628174,2.5403969287872314,0.952133297920227,8.738053321838379,4.983031749725342,-0.007796161808073521,-0.06417897343635559,0.06839776039123535,27.303783416748047,-27.42278289794922,-2.784088134765625,-0.20397770404815674,0.051573753356933594,0.08966684341430664,1.1561110019683838,8.686479568481445,4.893364906311035
1_20251106_212335,1762435383212,1,0.4658852815628052,0.33400818705558777,0.3826879858970642,0.7245270013809204,0.6114690899848938,3.1457715034484863,2.541065216064453,1.0119857788085938,8.738053321838379,4.827415466308594,0.0007559442892670631,-0.06662243604660034,0.09833014011383057,27.34003257751465,-27.432418823242188,-2.836946487426758,-0.11530017852783203,0.041258811950683594,-0.052759647369384766,1.1272859573364258,8.696794509887695,4.8801751136779785
1_20251106_212335,1762435383231,1,0.4655807912349701,0.334261953830719,0.38236987590789795,0.7247735857963562,0.6107031106948853,3.144869804382324,2.541538953781128,1.085005760192871,8.764388084411621,4.82142972946167,0.0007559442892670631,-0.06662243604660034,0.09833014011383057,27.364700317382812,-27.43042755126953,-2.876514434814453,-0.03382420539855957,0.05407524108886719,-0.0469965934753418,1.1188299655914307,8.710312843322754,4.868426322937012
1_20251106_212335,1762435383250,1,0.46531063318252563,0.33453091979026794,0.3819892108440399,0.7250236868858337,0.6100534200668335,3.1441056728363037,2.5421030521392822,1.1472523212432861,8.744039535522461,4.910011291503906,-0.02612210251390934,-0.04279870539903641,0.10321705043315887,27.339412689208984,-27.456459045410156,-2.9456043243408203,0.022737860679626465,0.026981353759765625,0.033267974853515625,1.1245144605636597,8.717058181762695,4.876743316650391
1_20251106_212335,1762435383269,1,0.4650547504425049,0.33455970883369446,0.3815920650959015,0.7253835797309875,0.6097350120544434,3.1436047554016113,2.543154001235962,1.2334399223327637,8.799102783203125,5.064430236816406,-0.050556689500808716,-0.004925096873193979,0.08794543147087097,27.341415405273438,-27.43053436279297,-3.026174545288086,0.08714032173156738,0.06563568115234375,0.15014982223510742,1.1462996006011963,8.733467102050781,4.914280414581299
1_20251106_212335,1762435383290,1,0.4648210108280182,0.33451420068740845,0.38107535243034363,0.7258259057998657,0.6097350120544434,3.1436047554016113,2.543154001235962,1.2334399223327637,8.799102783203125,5.064430236816406,-0.050556689500808716,-0.004925096873193979,0.08794543147087097,27.313322067260742,-27.49517822265625,-3.0014419555664062,0.08714032173156738,0.06563568115234375,0.15014982223510742,1.1462996006011963,8.733467102050781,4.914280414581299
1_20251106_212335,1762435383308,1,0.4644284248352051,0.33456307649612427,0.38062646985054016,0.7262900471687317,0.6102893352508545,3.14286208152771,2.546743631362915,1.3100510835647583,8.727279663085938,4.94831657409668,0.037407830357551575,-0.009201150387525558,0.06351084262132645,27.238685607910156,-27.53680419921875,-3.086273193359375,0.10939764976501465,-0.011046409606933594,-0.013458251953125,1.2006534337997437,8.738326072692871,4.961774826049805
1_20251106_212335,1762435383326,1,0.46388205885887146,0.3346574902534485,0.3805621266365051,0.726629376411438,0.6109099984169006,3.142624855041504,2.5476841926574707,1.2861101627349854,8.777556419372559,4.731651306152344,0.024579672142863274,0.007292197551578283,0.034800201654434204,27.260040283203125,-27.585716247558594,-3.059314727783203,0.06836533546447754,0.03138446807861328,-0.1840987205505371,1.2177448272705078,8.746171951293945,4.915750026702881
1_20251106_212335,1762435383345,1,0.46361711621284485,0.3347833752632141,0.3806372284889221,0.7267011404037476,0.6109099984169006,3.142624855041504,2.5476841926574707,1.2861101627349854,8.777556419372559,4.731651306152344,-0.03528507426381111,0.025618137791752815,0.015863394364714622,27.171817779541016,-27.641639709472656,-3.0502872467041016,0.06836533546447754,0.03138446807861328,-0.1840987205505371,1.2177448272705078,8.746171951293945,4.915750026702881
1_20251106_212335,1762435383364,1,0.4636492133140564,0.3346841335296631,0.38064855337142944,0.7267204523086548,0.6126323938369751,3.1427505016326904,2.549220561981201,1.2657603025436401,8.832620620727539,4.961484432220459,-0.050556689500808716,0.03966803103685379,0.004867828916758299,27.13364028930664,-27.68102264404297,-3.1201324462890625,0.026324748992919922,0.05743408203125,0.049571990966796875,1.2394355535507202,8.775186538696289,4.911912441253662
1_20251106_212335,1762435383383,1,0.46374383568763733,0.33430516719818115,0.3805942237377167,0.7268629670143127,0.613508403301239,3.1426873207092285,2.5501294136047363,1.2525928020477295,8.696157455444336,4.954301834106445,-0.050556689500808716,0.03966803103685379,0.004867828916758299,27.082965850830078,-27.73321533203125,-3.2447967529296875,0.010525822639465332,-0.06322288513183594,0.033911705017089844,1.2420669794082642,8.759380340576172,4.9203901290893555
1_20251106_212335,1762435383402,1,0.46377214789390564,0.3340678811073303,0.3807089328765869,0.7268939018249512,0.613508403301239,3.1426873207092285,2.5501294136047363,1.2525928020477295,8.696157455444336,4.954301834106445,-0.006574432365596294,0.026229003444314003,0.005478693637996912,27.02031707763672,-27.774314880371094,-3.302104949951172,0.010525822639465332,-0.06322288513183594,0.033911705017089844,1.2420669794082642,8.759380340576172,4.9203901290893555
1_20251106_212335,1762435383422,1,0.4636697769165039,0.33402347564697266,0.38089442253112793,0.7268824577331543,0.6143254041671753,3.142180919647217,2.550642967224121,1.2226665019989014,8.613560676574707,4.790306091308594,0.025190534070134163,0.014622574672102928,0.01525252964347601,26.995929718017578,-27.787513732910156,-3.3979644775390625,-0.015520334243774414,-0.11665630340576172,-0.10406732559204102,1.2381868362426758,8.730216979980469,4.894373416900635
1_20251106_212335,1762435383441,1,0.46376481652259827,0.3341692388057709,0.3807511329650879,0.7268298864364624,0.6159941554069519,3.141542911529541,2.5515859127044678,1.3399773836135864,8.813467025756836,5.057248115539551,-0.044448040425777435,0.015844302251935005,0.044574033468961716,26.9582462310791,-27.826217651367188,-3.535390853881836,0.08085131645202637,0.06572914123535156,0.14177942276000977,1.25912606716156,8.747737884521484,4.915468692779541
1_20251106_212335,1762435383460,1,0.46450501680374146,0.3344841003417969,0.38013747334480286,0.7265335321426392,0.6159941554069519,3.141542911529541,2.5515859127044678,1.3399773836135864,8.813467025756836,5.057248115539551,-0.012072214856743813,0.03966803103685379,0.008533017709851265,26.922378540039062,-27.827659606933594,-3.6314754486083984,0.08085131645202637,0.06572914123535156,0.14177942276000977,1.25912606716156,8.747737884521484,4.915468692779541
1_20251106_212335,1762435383479,1,0.46459856629371643,0.3342188000679016,0.38004228472709656,0.7266455888748169,0.6173508763313293,3.141256093978882,2.5524868965148926,1.385465145111084,8.721295356750488,4.977046012878418,0.0007559442892670631,0.05249619111418724,-0.01895589381456375,26.882381439208984,-27.90430450439453,-3.7426605224609375,0.10107123851776123,-0.021154403686523438,0.049262046813964844,1.2843939065933228,8.742449760437012,4.927783966064453
1_20251106_212335,1762435383499,1,0.46536970138549805,0.33425748348236084,0.37985965609550476,0.726229727268219,0.6200190186500549,3.1401174068450928,2.5528128147125244,1.300474762916565,8.645881652832031,4.724468231201172,-0.03345248103141785,0.03966802731156349,-0.010403788648545742,26.883075714111328,-27.903358459472656,-3.8372745513916016,0.007610201835632324,-0.06640052795410156,-0.13988971710205078,1.2928645610809326,8.712282180786133,4.864357948303223
