session_id,timestamp,label,quaternion_w,quaternion_x,quaternion_y,quaternion_z,position_x,position_y,position_z,accelerometer_x,accelerometer_y,accelerometer_z,gyroscope_x,gyroscope_y,gyroscope_z,magnetometer_x,magnetometer_y,magnetometer_z,linear_acceleration_x,linear_acceleration_y,linear_acceleration_z,gravity_x,gravity_y,gravity_z
8_20251106_181437,1762424039832,8,0.6051464080810547,0.5296367406845093,0.3942473232746124,0.444805383682251,0.04088858887553215,2.118881940841675,-0.7849568128585815,-0.5334049463272095,9.762727737426758,1.3404102325439453,0.0039438968524336815,0.1258915811777115,0.10938677936792374,34.953285217285156,-25.05316162109375,-20.50602149963379,0.2650076150894165,-0.8449840545654297,-0.26621222496032715,-0.798412561416626,10.607711791992188,1.6066224575042725
8_20251106_181437,1762424039851,8,0.6047548651695251,0.5299199223518372,0.39389705657958984,0.4453105926513672,0.04477466270327568,2.1176984310150146,-0.7593727111816406,-0.17668424546718597,9.700481414794922,1.3068928718566895,-0.03026452660560608,0.078855000436306,0.10755418986082077,34.978572845458984,-25.027130126953125,-20.436931610107422,0.42223018407821655,-0.5777549743652344,-0.177270770072937,-0.5989144444465637,10.278236389160156,1.4841636419296265
8_20251106_181437,1762424039871,8,0.6046807169914246,0.5302298665046692,0.3931311368942261,0.44571900367736816,0.04477466270327568,2.1176984310150146,-0.7593727111816406,-0.17668424546718597,9.700481414794922,1.3068928718566895,-0.06264035403728485,0.08557450771331787,0.07701095193624496,34.9898567199707,-25.039161682128906,-20.409671783447266,0.42223018407821655,-0.5777549743652344,-0.177270770072937,-0.5989144444465637,10.278236389160156,1.4841636419296265
8_20251106_181437,1762424039889,8,0.6048339605331421,0.5301779508590698,0.3924364745616913,0.4461847245693207,0.049726467579603195,2.1136178970336914,-0.7439867854118347,-0.13837864995002747,9.711255073547363,1.6372785568237305,-0.06630554050207138,0.1460501104593277,0.031806960701942444,35.00276184082031,-25.014198303222656,-20.31403923034668,0.36842861771583557,-0.4535856246948242,0.12249183654785156,-0.506807267665863,10.164840698242188,1.514786720275879
8_20251106_181437,1762424039909,8,0.6050239205360413,0.5296449661254883,0.3922480642795563,0.4467255473136902,0.0588967502117157,2.105330467224121,-0.7207227945327759,-0.27005407214164734,9.774698257446289,1.6109434366226196,-0.06447295099496841,0.2175212949514389,-0.009120975621044636,35.00095748901367,-25.03984832763672,-20.260501861572266,0.13505065441131592,-0.25946044921875,0.04775035381317139,-0.40510472655296326,10.034158706665039,1.5631930828094482
8_20251106_181437,1762424039928,8,0.6050575375556946,0.52860426902771,0.39275842905044556,0.44746366143226624,0.06359922885894775,2.1000161170959473,-0.7097622156143188,-0.4041236340999603,9.724422454833984,1.3823070526123047,-0.06447295099496841,0.2175212949514389,-0.009120975621044636,35.08607482910156,-25.02294158935547,-20.13515853881836,0.0007848739624023438,-0.2477893829345703,-0.1447087526321411,-0.40490850806236267,9.972211837768555,1.5270158052444458
8_20251106_181437,1762424039947,8,0.6048951148986816,0.5274353623390198,0.39336708188056946,0.4485267102718353,0.06835117936134338,2.0941925048828125,-0.6998025178909302,-0.30117738246917725,9.68970775604248,1.36195707321167,-0.07302505522966385,0.26639047265052795,0.014091884717345238,35.168373107910156,-25.05626678466797,-20.01087188720703,0.08298489451408386,-0.22600269317626953,-0.13204705715179443,-0.3841622769832611,9.91571044921875,1.4940041303634644
8_20251106_181437,1762424039966,8,0.6044362783432007,0.5267752408981323,0.393311470746994,0.4499673843383789,0.07376975566148758,2.08878231048584,-0.6903582215309143,-0.05458519607782364,9.960241317749023,1.487647294998169,-0.06264035403728485,0.11367429047822952,0.22850538790225983,35.12851333618164,-25.097938537597656,-19.85093879699707,0.2636616826057434,0.03562450408935547,-0.005085468292236328,-0.31824687123298645,9.924616813659668,1.4927327632904053
8_20251106_181437,1762424039984,8,0.6038311719894409,0.5271381139755249,0.39206206798553467,0.45144280791282654,0.07376975566148758,2.08878231048584,-0.6903582215309143,-0.05458519607782364,9.960241317749023,1.487647294998169,-0.014382044784724712,0.04647916927933693,0.2657681703567505,35.04977035522461,-25.191543579101562,-19.76111602783203,0.2636616826057434,0.03562450408935547,-0.005085468292236328,-0.31824687123298645,9.924616813659668,1.4927327632904053
8_20251106_181437,1762424040004,8,0.6030145883560181,0.5281684994697571,0.3904620409011841,0.4527149200439453,0.08037973940372467,2.08408522605896,-0.6807465553283691,0.21475091576576233,10.085930824279785,1.7258601188659668,0.03509799763560295,0.061750784516334534,0.22606192529201508,34.94887161254883,-25.248931884765625,-19.68499755859375,0.42639824748039246,0.12905120849609375,0.1865018606185913,-0.21164733171463013,9.956879615783691,1.5393582582473755
8_20251106_181437,1762424040023,8,0.6020763516426086,0.5292620658874512,0.38929253816604614,0.4536926746368408,0.09728743880987167,2.0766782760620117,-0.6624689698219299,0.43620502948760986,10.105084419250488,1.5391204357147217,0.03509799763560295,0.061750784516334534,0.22606192529201508,34.94887161254883,-25.248931884765625,-19.68499755859375,0.4234358072280884,0.08929634094238281,-0.014133930206298828,0.012769222259521484,10.015788078308105,1.5532543659210205
8_20251106_181437,1762424040043,8,0.601214587688446,0.529816746711731,0.38876789808273315,0.45463696122169495,0.10757505893707275,2.073153257369995,-0.6539098620414734,0.44697847962379456,9.990167617797852,1.4517358541488647,-0.01010599173605442,0.1924758404493332,0.11427370458841324,34.88092041015625,-25.355247497558594,-19.500333786010742,0.34736740589141846,-0.020496368408203125,-0.0812147855758667,0.0996110662817955,10.010663986206055,1.5329506397247314
8_20251106_181437,1762424040063,8,0.6004287600517273,0.5296818017959595,0.3887469470500946,0.4558489918708801,0.11729707568883896,2.069885492324829,-0.6471632122993469,0.47570767998695374,9.907570838928223,1.3009076118469238,-0.03026452660560608,0.20286054909229279,0.10755418986082077,34.8347053527832,-25.52154541015625,-19.437654495239258,0.30087730288505554,-0.0824747085571289,-0.18563449382781982,0.1748303771018982,9.990045547485352,1.4865421056747437
8_20251106_181437,1762424040080,8,0.5997494459152222,0.529390811920166,0.3887121379375458,0.4571092426776886,0.12809818983078003,2.0663297176361084,-0.6408611536026001,0.5583040714263916,9.888418197631836,1.3176662921905518,-0.03026452660560608,0.20286054909229279,0.10755418986082077,34.81529998779297,-25.624954223632812,-19.223997116088867,0.3067789673805237,-0.08130168914794922,-0.1351006031036377,0.2515251040458679,9.969719886779785,1.4527668952941895
8_20251106_181437,1762424040100,8,0.5992487668991089,0.529371976852417,0.38816389441490173,0.45825210213661194,0.1400429755449295,2.0627379417419434,-0.6346276998519897,0.6277329325675964,9.957847595214844,1.4301890134811401,-0.03576231002807617,0.07030288875102997,0.14115172624588013,34.71057891845703,-25.74553680419922,-19.10865020751953,0.3009662628173828,-0.009497642517089844,-0.018062353134155273,0.3267666697502136,9.967345237731934,1.4482513666152954
8_20251106_181437,1762424040119,8,0.5988829731941223,0.5297464728355408,0.387220174074173,0.45909520983695984,0.15175725519657135,2.059614896774292,-0.6291139721870422,0.6672356128692627,10.010517120361328,1.407444953918457,-0.019268963485956192,0.07763327658176422,0.1167171522974968,34.66488265991211,-25.88793182373047,-18.923795700073242,0.2723751664161682,0.034537315368652344,-0.032645225524902344,0.3948604464530945,9.975979804992676,1.4400901794433594
8_20251106_181437,1762424040138,8,0.5984657406806946,0.5300332903862,0.38656026124954224,0.45986366271972656,0.16369879245758057,2.0567688941955566,-0.624090313911438,0.6911765336990356,10.02009391784668,1.3619571924209595,-0.054699115455150604,0.11672861874103546,0.0855630561709404,34.69671630859375,-25.961563110351562,-18.856327056884766,0.23705285787582397,0.03529167175292969,-0.06250643730163574,0.45412367582321167,9.98480224609375,1.4244636297225952
8_20251106_181437,1762424040157,8,0.5982462167739868,0.5298656821250916,0.38608816266059875,0.46073827147483826,0.1758381426334381,2.0540964603424072,-0.6193283796310425,0.7438467741012573,9.996152877807617,1.4206125736236572,-0.054699115455150604,0.11672861874103546,0.0855630561709404,34.70087814331055,-26.076072692871094,-18.628435134887695,0.23177850246429443,0.009079933166503906,-0.0030808448791503906,0.5120682716369629,9.987072944641113,1.4236934185028076
8_20251106_181437,1762424040175,8,0.5978121161460876,0.5291397571563721,0.3861698508262634,0.4620656669139862,0.1873549222946167,2.0516841411590576,-0.6149765849113464,0.7522261142730713,9.984182357788086,1.4505387544631958,-0.0601968988776207,0.13200022280216217,0.03608301654458046,34.71690368652344,-26.213424682617188,-18.54926109313965,0.19212627410888672,-0.0023126602172851562,0.021476268768310547,0.5600998401641846,9.986495018005371,1.4290624856948853
8_20251106_181437,1762424040195,8,0.5977110862731934,0.528644323348999,0.38607487082481384,0.46284204721450806,0.20001189410686493,2.048959732055664,-0.6108817458152771,0.7246939539909363,9.927921295166016,1.26499605178833,-0.03881663456559181,0.11795033514499664,0.02997436746954918,34.77261734008789,-26.286148071289062,-18.41322898864746,0.13167530298233032,-0.046858787536621094,-0.13125312328338623,0.593018651008606,9.974780082702637,1.3962491750717163
8_20251106_181437,1762424040214,8,0.5976660251617432,0.5283753275871277,0.3859279155731201,0.4633297622203827,0.21182562410831451,2.046359062194824,-0.6077696084976196,0.7354673743247986,9.923131942749023,1.1835968494415283,-0.04248182475566864,0.07030289620161057,0.047689445316791534,34.781192779541016,-26.33666229248047,-18.3056640625,0.11395901441574097,-0.04131889343261719,-0.1701219081878662,0.6215083599090576,9.96445083618164,1.3537187576293945
8_20251106_181437,1762424040232,8,0.5976594686508179,0.5283371806144714,0.3854944407939911,0.4637424051761627,0.22280049324035645,2.044311761856079,-0.6050869226455688,0.7606054544448853,10.083536148071289,1.3056957721710205,-0.06202949583530426,-0.004833468236029148,0.06662625074386597,34.80366134643555,-26.360862731933594,-18.23763084411621,0.11127769947052002,0.09526824951171875,-0.03841841220855713,0.6493277549743652,9.98826789855957,1.3441141843795776
8_20251106_181437,1762424040252,8,0.5979806184768677,0.528641402721405,0.3844061493873596,0.4638850688934326,0.2346796989440918,2.0430335998535156,-0.6013749241828918,0.7462408542633057,10.278656005859375,1.6336872577667236,-0.08402062207460403,-0.03904189169406891,0.0599067397415638,34.85200881958008,-26.35822296142578,-18.181602478027344,0.07753044366836548,0.23231029510498047,0.2316584587097168,0.6687104105949402,10.046345710754395,1.4020287990570068
8_20251106_181437,1762424040271,8,0.598169207572937,0.5293552875518799,0.38281938433647156,0.4641399681568146,0.2456790804862976,2.0426652431488037,-0.5967684984207153,0.7701818346977234,10.332523345947266,1.8599296808242798,-0.06997073441743851,-0.0011682788608595729,0.01470274943858385,34.80406951904297,-26.348709106445312,-18.19681739807129,0.08117717504501343,0.2289419174194336,0.36632072925567627,0.68900465965271,10.103581428527832,1.4936089515686035
8_20251106_181437,1762424040291,8,0.5984751582145691,0.5293704867362976,0.3817332983016968,0.46462249755859375,0.256950706243515,2.042687177658081,-0.5914233326911926,0.7785611748695374,10.231971740722656,1.736633539199829,-0.017436368390917778,0.04037052392959595,-0.03538815677165985,34.80055618286133,-26.399879455566406,-18.103260040283203,0.07164520025253296,0.10271167755126953,0.19441962242126465,0.7069159746170044,10.129260063171387,1.5422139167785645
8_20251106_181437,1762424040310,8,0.5986490845680237,0.5290321707725525,0.3813205063343048,0.4651224613189697,0.256950706243515,2.042687177658081,-0.5914233326911926,0.7785611748695374,10.231971740722656,1.736633539199829,0.033265404403209686,0.03304014354944229,-0.057379283010959625,34.82693099975586,-26.37236785888672,-18.18284797668457,0.07164520025253296,0.10271167755126953,0.19441962242126465,0.7069159746170044,10.129260063171387,1.5422139167785645
8_20251106_181437,1762424040329,8,0.5985943078994751,0.529059886932373,0.38126933574676514,0.4652034342288971,0.2770032286643982,2.041971445083618,-0.583272397518158,0.7115263938903809,9.943482398986816,1.2111289501190186,0.03876318410038948,-0.01643989607691765,-0.04455112665891647,34.866519927978516,-26.307876586914062,-18.112476348876953,-0.0018375515937805176,-0.1393909454345703,-0.250774621963501,0.7133639454841614,10.082873344421387,1.4619035720825195
8_20251106_181437,1762424040348,8,0.5986380577087402,0.5297752618789673,0.380897581577301,0.4646371304988861,0.28592655062675476,2.0411598682403564,-0.5805392861366272,0.7725759148597717,9.969817161560059,1.2829519510269165,-0.011327721178531647,-0.05736783146858215,-0.013397027738392353,34.84123229980469,-26.333908081054688,-18.18156623840332,0.047369539737701416,-0.09044456481933594,-0.14316129684448242,0.7252063751220703,10.060261726379395,1.426113247871399
8_20251106_181437,1762424040366,8,0.5988907217979431,0.5307852029800415,0.3799850046634674,0.46390557289123535,0.29563191533088684,2.0402424335479736,-0.5779220461845398,1.0012123584747314,10.02248764038086,1.3811099529266357,-0.034540582448244095,-0.04515053704380989,-0.01645135134458542,34.891780853271484,-26.305076599121094,-18.23314094543457,0.22080481052398682,-0.030219078063964844,-0.03600263595581055,0.7804075479507446,10.052706718444824,1.4171125888824463
8_20251106_181437,1762424040385,8,0.5992200970649719,0.5315318703651428,0.37899211049079895,0.4634373188018799,0.29563191533088684,2.0402424335479736,-0.5779220461845398,1.0012123584747314,10.02248764038086,1.3811099529266357,-0.016214638948440552,-0.04759399965405464,-0.06470966339111328,34.84312057495117,-26.319732666015625,-18.343496322631836,0.22080481052398682,-0.030219078063964844,-0.03600263595581055,0.7804075479507446,10.052706718444824,1.4171125888824463
8_20251106_181437,1762424040404,8,0.5995334386825562,0.532224714756012,0.378101646900177,0.4629639685153961,0.31751689314842224,2.0382070541381836,-0.575185239315033,1.3734947443008423,10.010517120361328,1.0267833471298218,-0.016214638948440552,-0.04759399965405464,-0.06470966339111328,34.831119537353516,-26.331871032714844,-18.465896606445312,0.3985370397567749,-0.026426315307617188,-0.2775822877883911,0.9749577045440674,10.036943435668945,1.304365634918213
8_20251106_181437,1762424040423,8,0.5999636054039001,0.5331932902336121,0.3771684169769287,0.46205252408981323,0.33004215359687805,2.0376806259155273,-0.5754756331443787,1.6057223081588745,10.204439163208008,0.905881404876709,-0.07485765218734741,-0.07508291304111481,-0.1716110110282898,34.845211029052734,-26.30529022216797,-18.532461166381836,0.5046117305755615,0.13399600982666016,-0.31878745555877686,1.101110577583313,10.070443153381348,1.2246688604354858
8_20251106_181437,1762424040442,8,0.6007344722747803,0.534028947353363,0.37611493468284607,0.4609432816505432,0.34422874450683594,2.0382673740386963,-0.5766754150390625,1.9349108934402466,10.466592788696289,0.8879256248474121,-0.1475505530834198,-0.10562614351511002,-0.22170192003250122,34.876197814941406,-26.21350860595703,-18.759408950805664,0.667040228843689,0.31691932678222656,-0.26939451694488525,1.2678706645965576,10.149673461914062,1.1573201417922974
8_20251106_181437,1762424040462,8,0.6019299626350403,0.5347417593002319,0.3746826648712158,0.4597221314907074,0.34422874450683594,2.0382673740386963,-0.5766754150390625,1.9349108934402466,10.466592788696289,0.8879256248474121,-0.21718913316726685,-0.13372592628002167,-0.3090555667877197,34.876197814941406,-26.21350860595703,-18.759408950805664,0.667040228843689,0.31691932678222656,-0.26939451694488525,1.2678706645965576,10.149673461914062,1.1573201417922974
8_20251106_181437,1762424040481,8,0.6036932468414307,0.5351899266242981,0.37292566895484924,0.45831498503685,0.36539891362190247,2.041322946548462,-0.5785870552062988,2.2150204181671143,10.686849594116211,1.0495272874832153,-0.21718913316726685,-0.13372592628002167,-0.3090555667877197,34.91817092895508,-26.13416290283203,-18.918548583984375,0.7577197551727295,0.42974090576171875,-0.0862342119216919,1.4573006629943848,10.257108688354492,1.1357614994049072
8_20251106_181437,1762424040500,8,0.6060134768486023,0.5350088477134705,0.37127119302749634,0.45680510997772217,0.397726446390152,2.049389362335205,-0.580712616443634,2.4963269233703613,11.10940933227539,1.205143690109253,-0.2764430046081543,-0.15938223898410797,-0.54118412733078,34.94301986694336,-25.930564880371094,-19.103063583374023,0.6862363815307617,0.5764999389648438,0.04880976676940918,1.8100905418395996,10.532909393310547,1.1563339233398438
8_20251106_181437,1762424040519,8,0.6103763580322266,0.5327264070510864,0.371294766664505,0.45363369584083557,0.4186648726463318,2.0569894313812256,-0.5815033912658691,2.375425100326538,11.253053665161133,1.26499605178833,-0.26422572135925293,-0.23696206510066986,-0.6358681917190552,35.01690673828125,-25.723388671875,-19.32616424560547,0.4522676467895508,0.576115608215332,0.0869297981262207,1.9231574535369873,10.6769380569458,1.1780662536621094
8_20251106_181437,1762424040538,8,0.6153126955032349,0.5305365324020386,0.3713502585887909,0.44946664571762085,0.43788307905197144,2.0661354064941406,-0.5809112191200256,2.0402512550354004,11.510419845581055,1.6540372371673584,-0.22207605838775635,-0.41228026151657104,-0.6572484374046326,35.05715560913086,-25.468231201171875,-19.56319808959961,0.09367513656616211,0.6667852401733398,0.3807767629623413,1.9465761184692383,10.843634605407715,1.273260474205017
8_20251106_181437,1762424040558,8,0.6207259297370911,0.5292534232139587,0.3706381916999817,0.44409170746803284,0.43788307905197144,2.0661354064941406,-0.5809112191200256,2.0402512550354004,11.510419845581055,1.6540372371673584,-0.07669024914503098,-0.5992048978805542,-0.5998271703720093,35.20022201538086,-25.11827850341797,-19.84852409362793,0.09367513656616211,0.6667852401733398,0.3807767629623413,1.9465761184692383,10.843634605407715,1.273260474205017
8_20251106_181437,1762424040576,8,0.6258208155632019,0.5297006368637085,0.3691525459289551,0.43759793043136597,0.47172725200653076,2.0909345149993896,-0.5743778944015503,1.59853994846344,12.161615371704102,2.0442752838134766,0.09313014149665833,-0.7806316614151001,-0.513695240020752,35.2955436706543,-24.758544921875,-20.176097869873047,-0.24668407440185547,0.9111175537109375,0.5078139305114746,1.8452240228652954,11.250497817993164,1.536461353302002
8_20251106_181437,1762424040595,8,0.63001549243927,0.5318413376808167,0.3672349750995636,0.43053892254829407,0.48625898361206055,2.1069602966308594,-0.568343997001648,1.5961458683013916,12.372295379638672,2.3315672874450684,0.23973768949508667,-0.9254065752029419,-0.47276729345321655,35.371517181396484,-24.323974609375,-20.61119842529297,-0.19926249980926514,0.8974380493164062,0.636084794998169,1.7954083681106567,11.474857330322266,1.6954824924468994
8_20251106_181437,1762424040615,8,0.6340358853340149,0.5357679724693298,0.3644738793373108,0.4220307171344757,0.5002650022506714,2.1261837482452393,-0.5606566071510315,1.6224809885025024,12.526715278625488,2.2393946647644043,0.37412792444229126,-0.982217013835907,-0.4917041063308716,35.421905517578125,-23.91584014892578,-21.074840545654297,-0.13834190368652344,0.841486930847168,0.43512964248657227,1.7608228921890259,11.68522834777832,1.804265022277832
8_20251106_181437,1762424040634,8,0.637584388256073,0.5405503511428833,0.36194077134132385,0.412662535905838,0.5125883221626282,2.1457693576812744,-0.5527121424674988,1.645224928855896,12.50037956237793,2.1711626052856445,0.44071221351623535,-1.0182580947875977,-0.5552340149879456,35.38669204711914,-23.513671875,-21.501367568969727,-0.09247839450836182,0.6521205902099609,0.29351806640625,1.7377033233642578,11.848258972167969,1.8776445388793945
8_20251106_181437,1762424040654,8,0.6410689353942871,0.5456096529960632,0.3597024381160736,0.402436226606369,0.5239760279655457,2.1662304401397705,-0.5446650385856628,1.621284008026123,12.524320602416992,2.0598368644714355,0.4541512131690979,-1.0683488845825195,-0.6462528705596924,35.351158142089844,-23.1351318359375,-22.07710075378418,-0.09313547611236572,0.5408496856689453,0.1457538604736328,1.7144194841384888,11.983470916748047,1.9140830039978027
8_20251106_181437,1762424040672,8,0.6448448300361633,0.5505093336105347,0.3576754033565521,0.3913859724998474,0.5340790748596191,2.1874940395355225,-0.5355037450790405,1.4536969661712646,12.64881420135498,2.4668338298797607,0.4743097424507141,-1.158756971359253,-0.7647606134414673,35.23031997680664,-22.76215362548828,-22.656265258789062,-0.20857810974121094,0.5322751998901367,0.4422006607055664,1.6622750759124756,12.116539001464844,2.0246331691741943
8_20251106_181437,1762424040692,8,0.6491710543632507,0.5554143786430359,0.35565778613090515,0.37894511222839355,0.542158842086792,2.2092368602752686,-0.5244607925415039,1.1089468002319336,12.678740501403809,2.8774218559265137,0.5726589560508728,-1.1972413063049316,-0.9034268856048584,35.082786560058594,-22.440322875976562,-23.305049896240234,-0.4426625967025757,0.44976139068603516,0.6822309494018555,1.5516093969345093,12.228979110717773,2.195190906524658
8_20251106_181437,1762424040710,8,0.6535009145736694,0.5603737235069275,0.35441043972969055,0.3651179373264313,0.5468959212303162,2.2306864261627197,-0.512403666973114,0.4804958701133728,12.518335342407227,2.7660961151123047,0.703994870185852,-1.202128291130066,-1.062862515449524,34.86202621459961,-22.13500213623047,-24.03813934326172,-0.856890857219696,0.23148536682128906,0.4567241668701172,1.3373867273330688,12.286849975585938,2.3093719482421875
8_20251106_181437,1762424040729,8,0.6576074957847595,0.5653860569000244,0.35433316230773926,0.34976986050605774,0.546286404132843,2.2507758140563965,-0.49908220767974854,-0.5250256061553955,12.181964874267578,2.9899444580078125,0.7895159125328064,-1.2125129699707031,-1.1905332803726196,34.643070220947266,-21.804031372070312,-24.824764251708984,-1.4899299144744873,-0.0839080810546875,0.5444579124450684,0.9649043083190918,12.265872955322266,2.445486545562744
8_20251106_181437,1762424040749,8,0.6615918874740601,0.5703717470169067,0.35504841804504395,0.33303582668304443,0.546286404132843,2.2507758140563965,-0.49908220767974854,-0.5250256061553955,12.181964874267578,2.9899444580078125,0.8725935220718384,-1.1306571960449219,-1.2412351369857788,34.40932083129883,-21.51219940185547,-25.54509162902832,-1.4899299144744873,-0.0839080810546875,0.5444579124450684,0.9649043083190918,12.265872955322266,2.445486545562744
8_20251106_181437,1762424040769,8,0.6649274230003357,0.5751685500144958,0.35673660039901733,0.31589818000793457,0.5364882946014404,2.2702362537384033,-0.48285260796546936,-1.7675628662109375,11.778558731079102,3.1144375801086426,0.9367342591285706,-1.0335297584533691,-1.188700795173645,34.11172103881836,-21.274696350097656,-26.255409240722656,-2.185973882675171,-0.38985157012939453,0.5351607799530029,0.41841092705726624,12.168410301208496,2.5792768001556396
8_20251106_181437,1762424040787,8,0.6673240661621094,0.5799483060836792,0.35894569754600525,0.29915979504585266,0.49621739983558655,2.295319080352783,-0.4537090063095093,-3.303377151489258,11.053146362304688,3.1120433807373047,0.9654449820518494,-1.039027452468872,-1.0329302549362183,33.84351348876953,-20.959182739257812,-27.071292877197266,-2.473111629486084,-0.7551393508911133,0.38080835342407227,-0.8302654027938843,11.8082857131958,2.7312350273132324
8_20251106_181437,1762424040805,8,0.6690261960029602,0.5852994918823242,0.3602411150932312,0.2829395532608032,0.49621739983558655,2.295319080352783,-0.4537090063095093,-3.303377151489258,11.053146362304688,3.1120433807373047,1.090672254562378,-1.1013356447219849,-0.863720715045929,33.50492858886719,-20.79967498779297,-27.75763511657715,-2.473111629486084,-0.7551393508911133,0.38080835342407227,-0.8302654027938843,11.8082857131958,2.7312350273132324
8_20251106_181437,1762424040825,8,0.6696839332580566,0.5919544100761414,0.3604107201099396,0.26686614751815796,0.4302312135696411,2.3119821548461914,-0.4190826416015625,-3.6026394367218018,11.384729385375977,3.578892707824707,1.3093616962432861,-1.1440961360931396,-0.735439121723175,33.20572280883789,-20.587554931640625,-28.441448211669922,-1.7756602764129639,-0.24100685119628906,0.5413517951965332,-1.826979160308838,11.625736236572266,3.037540912628174
8_20251106_181437,1762424040843,8,0.6688070893287659,0.600260317325592,0.3599880039691925,0.2505858540534973,0.39447882771492004,2.3185644149780273,-0.4027248024940491,-3.475752115249634,11.490070343017578,3.1766841411590576,1.4712408781051636,-1.1447069644927979,-0.688402533531189,32.899478912353516,-20.489395141601562,-29.033023834228516,-1.3190183639526367,-0.10853290557861328,0.11131453514099121,-2.156733751296997,11.598603248596191,3.0653696060180664
8_20251106_181437,1762424040863,8,0.6666702628135681,0.6095424294471741,0.35950660705566406,0.23401665687561035,0.3547816574573517,2.3246307373046875,-0.3868667185306549,-3.5583486557006836,11.40388298034668,2.8666481971740723,1.5225534439086914,-1.075068473815918,-0.7299413681030273,32.624168395996094,-20.477699279785156,-29.530363082885742,-1.1212921142578125,-0.1557769775390625,-0.15897727012634277,-2.437056541442871,11.559659957885742,3.025625467300415
8_20251106_181437,1762424040882,8,0.6637911200523376,0.6186890602111816,0.3596527576446533,0.2173822671175003,0.3547816574573517,2.3246307373046875,-0.3868667185306549,-3.5583486557006836,11.40388298034668,2.8666481971740723,1.5482099056243896,-0.9571715593338013,-0.8191275596618652,32.26227569580078,-20.686256408691406,-29.832386016845703,-1.1212921142578125,-0.1557769775390625,-0.15897727012634277,-2.437056541442871,11.559659957885742,3.025625467300415
8_20251106_181437,1762424040903,8,0.6602752804756165,0.6272549033164978,0.36096763610839844,0.20072424411773682,0.26212918758392334,2.3294296264648438,-0.35975316166877747,-4.162858963012695,10.410331726074219,2.381843328475952,1.483458161354065,-0.7861294746398926,-0.9327484369277954,31.943897247314453,-20.979942321777344,-30.093748092651367,-1.1613974571228027,-0.8102664947509766,-0.44017529487609863,-3.0014615058898926,11.220598220825195,2.822018623352051
8_20251106_181437,1762424040921,8,0.6565377116203308,0.634512722492218,0.36376577615737915,0.18446218967437744,0.26212918758392334,2.3294296264648438,-0.35975316166877747,-4.162858963012695,10.410331726074219,2.381843328475952,1.410765290260315,-0.5821006298065186,-1.0628626346588135,31.943897247314453,-20.979942321777344,-30.093748092651367,-1.1613974571228027,-0.8102664947509766,-0.44017529487609863,-3.0014615058898926,11.220598220825195,2.822018623352051
8_20251106_181437,1762424040940,8,0.6525482535362244,0.6402941346168518,0.36839962005615234,0.168777734041214,0.1678120344877243,2.3167972564697266,-0.34202271699905396,-5.640017509460449,8.565677642822266,2.3136115074157715,1.4351998567581177,-0.3371438682079315,-1.1263926029205322,31.63601303100586,-21.2867431640625,-30.21971893310547,-1.8231287002563477,-1.8722915649414062,-0.3516197204589844,-3.8168888092041016,10.437969207763672,2.665231227874756
8_20251106_181437,1762424040960,8,0.6475220322608948,0.6453825235366821,0.37484705448150635,0.1539033204317093,0.11289457976818085,2.2995779514312744,-0.33672061562538147,-6.4552083015441895,7.446436882019043,1.739027738571167,1.463910460472107,-0.09218712151050568,-1.0567539930343628,31.484554290771484,-21.59752655029297,-30.163867950439453,-2.1106553077697754,-2.39322566986084,-0.7409627437591553,-4.344552993774414,9.839662551879883,2.4799904823303223
8_20251106_181437,1762424040979,8,0.6411563158035278,0.6502824425697327,0.38244009017944336,0.140680193901062,0.11289457976818085,2.2995779514312744,-0.33672061562538147,-6.4552083015441895,7.446436882019043,1.739027738571167,1.463910460472107,-0.09218712151050568,-1.0567539930343628,31.46717071533203,-21.8763427734375,-29.912864685058594,-2.1106553077697754,-2.39322566986084,-0.7409627437591553,-4.344552993774414,9.839662551879883,2.4799904823303223
8_20251106_181437,1762424040998,8,0.6337379813194275,0.6553868055343628,0.3899497389793396,0.129550963640213,-0.015865184366703033,2.238483428955078,-0.3391725420951843,-7.594799041748047,5.903440475463867,0.5850721597671509,1.4468063116073608,0.09473748505115509,-0.8667750358581543,31.497047424316406,-22.154006958007812,-29.457157135009766,-2.1458516120910645,-2.620882987976074,-1.289550542831421,-5.448947429656982,8.524323463439941,1.8746227025985718
8_20251106_181437,1762424041016,8,0.6253802180290222,0.6606623530387878,0.39705315232276917,0.12154672294855118,-0.07940374314785004,2.2008354663848877,-0.3460322618484497,-7.598390579223633,5.495246410369873,0.34685930609703064,1.345402717590332,0.4136088788509369,-0.26690590381622314,31.66299819946289,-22.373779296875,-28.886869430541992,-1.7195544242858887,-2.4232616424560547,-1.2222106456756592,-5.878836154937744,7.918508052825928,1.5690699815750122
8_20251106_181437,1762424041036,8,0.6163265705108643,0.6669432520866394,0.402383953332901,0.11582480370998383,-0.14684472978115082,2.1562867164611816,-0.35699009895324707,-7.236881256103516,5.441379070281982,0.08231139183044434,1.373502492904663,0.5040168762207031,0.04891117289662361,31.87450408935547,-22.617919921875,-28.071853637695312,-1.0864357948303223,-1.981703281402588,-1.1894069910049438,-6.150445461273193,7.42308235168457,1.2717183828353882
8_20251106_181437,1762424041055,8,0.6062582731246948,0.6743943691253662,0.4062114655971527,0.11240703612565994,-0.14684472978115082,2.1562867164611816,-0.35699009895324707,-7.236881256103516,5.441379070281982,0.08231139183044434,1.5066709518432617,0.5547186136245728,0.3317415416240692,32.24545669555664,-22.81554412841797,-27.100990295410156,-1.0864357948303223,-1.981703281402588,-1.1894069910049438,-6.150445461273193,7.42308235168457,1.2717183828353882
8_20251106_181437,1762424041073,8,0.594667375087738,0.6835194826126099,0.40859493613243103,0.11055298149585724,-0.2730015218257904,2.0576963424682617,-0.3880344331264496,-5.69508171081543,5.263018608093262,-0.5652922987937927,1.6917630434036255,0.6261898279190063,0.49484241008758545,32.62417984008789,-23.076370239257812,-26.00931167602539,0.4082646369934082,-1.4117445945739746,-1.275089979171753,-6.103346347808838,6.674763202667236,0.7097976207733154
8_20251106_181437,1762424041093,8,0.581237256526947,0.6940361261367798,0.4104364514350891,0.10963118821382523,-0.2730015218257904,2.0576963424682617,-0.3880344331264496,-5.69508171081543,5.263018608093262,-0.5652922987937927,1.6911522150039673,0.739810585975647,0.5705896615982056,33.0494499206543,-23.360214233398438,-24.808067321777344,0.4082646369934082,-1.4117445945739746,-1.275089979171753,-6.103346347808838,6.674763202667236,0.7097976207733154
8_20251106_181437,1762424041112,8,0.5669933557510376,0.7046076059341431,0.41224995255470276,0.10998459160327911,-0.3815422058105469,1.9472662210464478,-0.43461644649505615,-5.090571880340576,4.525636196136475,-1.0165798664093018,1.5402686595916748,0.9328438639640808,0.59135901927948,33.39063262939453,-23.837722778320312,-23.559661865234375,0.6885876655578613,-1.449754238128662,-1.1094783544540405,-5.7791595458984375,5.975390434265137,0.09289844334125519
8_20251106_181437,1762424041131,8,0.5527429580688477,0.7140782475471497,0.41466212272644043,0.11235131323337555,-0.42673423886299133,1.8896665573120117,-0.4611303210258484,-4.872709274291992,3.9953436851501465,-1.2416253089904785,1.5402686595916748,0.9328438639640808,0.59135901927948,33.73879623413086,-24.37950897216797,-22.082307815551758,0.7251601219177246,-1.5840373039245605,-1.0676190853118896,-5.597869396209717,5.579380989074707,-0.17400628328323364
8_20251106_181437,1762424041151,8,0.5385698676109314,0.722016453742981,0.4180890619754791,0.1176275983452797,-0.46899762749671936,1.826760172843933,-0.49289485812187195,-4.634496212005615,3.833742141723633,-1.9011993408203125,1.0833418369293213,1.5559258460998535,0.7147537469863892,34.07064437866211,-24.997299194335938,-20.62054443359375,0.7706990242004395,-1.3965110778808594,-1.3817543983459473,-5.405195236206055,5.230253219604492,-0.5194448828697205
8_20251106_181437,1762424041170,8,0.5244314074516296,0.728431224822998,0.42224743962287903,0.12675459682941437,-0.5023006796836853,1.769117832183838,-0.5245524644851685,-4.255031585693359,3.6637611389160156,-2.346501588821411,0.8243352174758911,1.8314259052276611,0.8570852279663086,34.33806610107422,-25.65862274169922,-18.972797393798828,0.920130729675293,-1.2531938552856445,-1.4616453647613525,-5.175162315368652,4.91695499420166,-0.8848562240600586
8_20251106_181437,1762424041189,8,0.5105268955230713,0.7336305379867554,0.4262673854827881,0.1394440084695816,-0.5328590273857117,1.7042378187179565,-0.5631909966468811,-3.663688898086548,3.5895438194274902,-2.602670192718506,0.5995369553565979,2.0525591373443604,1.025683879852295,34.556644439697266,-26.323257446289062,-17.313495635986328,1.2091786861419678,-1.0619287490844727,-1.3742512464523315,-4.872867584228516,4.651472568511963,-1.2284189462661743
8_20251106_181437,1762424041208,8,0.49674898386001587,0.7378000617027283,0.42979878187179565,0.15544947981834412,-0.5546736717224121,1.6419589519500732,-0.6019574403762817,-2.7718873023986816,3.293872833251953,-2.648158073425293,0.5995369553565979,2.0525591373443604,1.025683879852295,34.724205017089844,-26.994171142578125,-15.345281600952148,1.6807842254638672,-1.0860795974731445,-1.135791301727295,-4.452671527862549,4.379952430725098,-1.512366771697998
8_20251106_181437,1762424041226,8,0.48282620310783386,0.7414822578430176,0.43233710527420044,0.17368803918361664,-0.5678924918174744,1.582419991493225,-0.6399505734443665,-1.8477650880813599,2.963487148284912,-2.772651195526123,0.40100598335266113,2.168623208999634,1.3408900499343872,34.80656051635742,-27.670501708984375,-13.394017219543457,2.083925247192383,-1.1331725120544434,-1.0082275867462158,-3.9316904544830322,4.0966596603393555,-1.7644236087799072
8_20251106_181437,1762424041246,8,0.4687739908695221,0.7450543642044067,0.43350353837013245,0.1929238885641098,-0.5733910799026489,1.5195902585983276,-0.6804213523864746,-1.1043975353240967,2.9575018882751465,-2.6290054321289062,0.35519111156463623,2.079437017440796,1.4312981367111206,34.82608413696289,-28.37659454345703,-11.378150939941406,2.2618343830108643,-0.9113261699676514,-0.6916654109954834,-3.366231918334961,3.868828058242798,-1.9373400211334229
8_20251106_181437,1762424041265,8,0.4548543393611908,0.7485640645027161,0.43329665064811707,0.21216362714767456,-0.5733910799026489,1.5195902585983276,-0.6804213523864746,-1.1043975353240967,2.9575018882751465,-2.6290054321289062,0.35519111156463623,2.079437017440796,1.4312981367111206,34.700077056884766,-29.079666137695312,-9.36790657043457,2.2618343830108643,-0.9113261699676514,-0.6916654109954834,-3.366231918334961,3.868828058242798,-1.9373400211334229
8_20251106_181437,1762424041283,8,0.4404965937137604,0.751896321773529,0.432365357875824,0.23167836666107178,-0.5583324432373047,1.395919680595398,-0.7619282603263855,0.5810480117797852,3.0975565910339355,-3.2071802616119385,0.35763460397720337,2.0733282566070557,1.4954389333724976,34.37568283081055,-29.846481323242188,-7.285467147827148,2.6746933460235596,-0.47139668464660645,-0.9126753807067871,-2.0936453342437744,3.568953275680542,-2.2945048809051514
8_20251106_181437,1762424041304,8,0.4251142144203186,0.7553472518920898,0.4305759072303772,0.251660019159317,-0.5353278517723083,1.3345298767089844,-0.8094235062599182,1.5674166679382324,3.3788633346557617,-4.39585018157959,0.4291057586669922,1.9841420650482178,1.6927481889724731,34.00062942504883,-30.65387725830078,-5.232813835144043,2.928849697113037,-0.15207195281982422,-1.6810762882232666,-1.3614329099655151,3.530935287475586,-2.7147738933563232
8_20251106_181437,1762424041322,8,0.4093317687511444,0.7590811252593994,0.42753246426582336,0.27103376388549805,-0.5353278517723083,1.3345298767089844,-0.8094235062599182,1.5674166679382324,3.3788633346557617,-4.39585018157959,0.4291057586669922,1.9841420650482178,1.6927481889724731,34.00062942504883,-30.65387725830078,-5.232813835144043,2.928849697113037,-0.15207195281982422,-1.6810762882232666,-1.3614329099655151,3.530935287475586,-2.7147738933563232
8_20251106_181437,1762424041341,8,0.3951103389263153,0.7629464268684387,0.4224523901939392,0.28867730498313904,-0.46269315481185913,1.2285786867141724,-0.9089785814285278,3.586839199066162,3.9474618434906006,-4.757359504699707,0.30754369497299194,1.6878726482391357,1.7196261882781982,33.43381118774414,-31.42321014404297,-3.2410173416137695,3.3396525382995605,0.29568910598754883,-1.2974870204925537,0.24718672037124634,3.6517727375030518,-3.4598724842071533
8_20251106_181437,1762424041361,8,0.38234707713127136,0.7664759159088135,0.4158543050289154,0.30559873580932617,-0.46269315481185913,1.2285786867141724,-0.9089785814285278,3.586839199066162,3.9474618434906006,-4.757359504699707,0.12061905115842819,1.3903815746307373,1.7141283750534058,32.77443313598633,-32.33555603027344,-1.3231382369995117,3.3396525382995605,0.29568910598754883,-1.2974870204925537,0.24718672037124634,3.6517727375030518,-3.4598724842071533
8_20251106_181437,1762424041380,8,0.3700678050518036,0.7696675658226013,0.40875938534736633,0.3218345046043396,-0.34355223178863525,1.136291265487671,-1.020056962966919,6.180845260620117,4.44663143157959,-5.5210771560668945,0.07785852998495102,1.2938649654388428,1.5516383647918701,31.834117889404297,-33.325050354003906,0.1901693344116211,4.004966735839844,0.5468235015869141,-1.3842902183532715,2.1758787631988525,3.899807929992676,-4.136786937713623
8_20251106_181437,1762424041398,8,0.3586867153644562,0.772125780582428,0.40205276012420654,0.33692607283592224,-0.2744191586971283,1.0991814136505127,-1.0739834308624268,7.058281898498535,4.434660911560059,-5.932861804962158,0.07785852998495102,1.2938649654388428,1.5516383647918701,30.797313690185547,-34.30793762207031,1.6592683792114258,3.9059226512908936,0.42788219451904297,-1.4368596076965332,3.1523592472076416,4.006778717041016,-4.496002197265625
8_20251106_181437,1762424041418,8,0.3491462767124176,0.7728977799415588,0.3964270055294037,0.3515273928642273,-0.1879155933856964,1.0604300498962402,-1.13668954372406,7.602939605712891,4.144974708557129,-6.3985137939453125,-0.33569687604904175,1.2853128910064697,1.0556162595748901,29.712543487548828,-35.304534912109375,2.923398017883301,3.560464382171631,0.11055660247802734,-1.5220093727111816,4.04247522354126,4.034418106079102,-4.876504421234131
8_20251106_181437,1762424041436,8,0.34197553992271423,0.771771252155304,0.391450434923172,0.36631736159324646,-0.10369037091732025,1.027513861656189,-1.1950680017471313,8.211040496826172,4.122230529785156,-6.811496257781982,-0.33569687604904175,1.2853128910064697,1.0556162595748901,28.70722198486328,-36.194969177246094,4.097968101501465,3.3348522186279297,0.07025003433227539,-1.5479931831359863,4.876188278198242,4.051980495452881,-5.263503074645996
8_20251106_181437,1762424041456,8,0.33760562539100647,0.7694465517997742,0.3854864835739136,0.38128018379211426,-0.0033597946166992188,0.9940487742424011,-1.2605621814727783,8.634796142578125,4.472966194152832,-6.537371635437012,-0.9600006341934204,1.016532301902771,0.8650264739990234,27.609886169433594,-37.04949951171875,4.80985164642334,3.0068864822387695,0.3367886543273926,-1.0190949440002441,5.6279096603393555,4.1361775398254395,-5.518276691436768
8_20251106_181437,1762424041475,8,0.33624738454818726,0.7663269639015198,0.3785131275653839,0.3954852223396301,0.0904371589422226,0.9675417542457581,-1.3177486658096313,8.882585525512695,4.991288661956787,-6.001093864440918,-1.1383731365203857,0.7428649663925171,0.7593468427658081,26.489574432373047,-37.892120361328125,5.426405906677246,2.603740692138672,0.6840887069702148,-0.38625383377075195,6.278844833374023,4.307199954986572,-5.614840030670166
8_20251106_181437,1762424041494,8,0.3375459313392639,0.7631058096885681,0.3705843687057495,0.4079209864139557,0.19821196794509888,0.9429044723510742,-1.3783656358718872,9.162694931030273,5.406664848327637,-5.698240280151367,-1.1951836347579956,0.4960756003856659,0.6335086822509766,25.48977279663086,-38.78662109375,5.7491865158081055,2.3070802688598633,0.8795719146728516,-0.06672000885009766,6.85561466217041,4.527092933654785,-5.6315202713012695
8_20251106_181437,1762424041513,8,0.340689092874527,0.7600343227386475,0.3623662292957306,0.4182935655117035,0.30152928829193115,0.9241958856582642,-1.4313178062438965,9.060945510864258,5.812464714050293,-4.99198055267334,-1.200681447982788,0.16376519203186035,0.4154300093650818,24.538375854492188,-39.50023651123047,5.806807518005371,1.7642645835876465,1.0282974243164062,0.5116314888000488,7.296680927276611,4.784167289733887,-5.503612041473389
8_20251106_181437,1762424041533,8,0.34575140476226807,0.75725919008255,0.3547566831111908,0.4256315231323242,0.4074806869029999,0.9092610478401184,-1.4796797037124634,8.163158416748047,6.025538921356201,-3.9936413764953613,-1.2324464321136475,-0.010331249795854092,0.08739564567804337,23.87335205078125,-40.129295349121094,5.525605201721191,0.6931819915771484,0.9930973052978516,1.2079768180847168,7.469976425170898,5.03244161605835,-5.201618194580078
8_20251106_181437,1762424041552,8,0.35312509536743164,0.7538573741912842,0.3486127257347107,0.4306632876396179,0.5020380020141602,0.8991605639457703,-1.5203864574432373,7.082223415374756,6.263751983642578,-4.130105972290039,-1.3112479448318481,-0.008498654700815678,-0.18871521949768066,23.336902618408203,-40.66008758544922,5.0078630447387695,-0.31020212173461914,0.9850482940673828,0.8572096824645996,7.392425537109375,5.278703689575195,-4.987315654754639
8_20251106_181437,1762424041570,8,0.36237671971321106,0.7490341067314148,0.344149112701416,0.4349624812602997,0.5849166512489319,0.8916792273521423,-1.5553274154663086,6.489684104919434,5.932168960571289,-4.29888916015625,-1.457244634628296,-0.10684787482023239,-0.2284214198589325,22.940929412841797,-41.080604553222656,4.389496803283691,-0.7221932411193848,0.5227723121643066,0.5507411956787109,7.211877346038818,5.409396648406982,-4.849630355834961
8_20251106_181437,1762424041590,8,0.37320879101753235,0.743863582611084,0.3391047716140747,0.43862301111221313,0.6698766946792603,0.8849457502365112,-1.5890141725540161,6.381949424743652,5.792114734649658,-3.798522710800171,-1.6252323389053345,-0.37196317315101624,-0.011564434505999088,22.642009735107422,-41.5301513671875,3.5444860458374023,-0.6639423370361328,0.30617427825927734,0.8408858776092529,7.045891761779785,5.485940456390381,-4.639408588409424
8_20251106_181437,1762424041609,8,0.3851041793823242,0.7398248314857483,0.3308318853378296,0.4414796531200409,0.7451683282852173,0.8810651898384094,-1.6151520013809204,6.541156768798828,6.286496162414551,-3.085081100463867,-1.6252323389053345,-0.37196317315101624,-0.011564434505999088,22.54555892944336,-41.88719177246094,2.2628679275512695,-0.40378808975219727,0.6404447555541992,1.243462085723877,6.944944858551025,5.646051406860352,-4.328543186187744
8_20251106_181437,1762424041629,8,0.39720332622528076,0.7378973364830017,0.31850871443748474,0.44304540753364563,0.8209609985351562,0.8821555972099304,-1.6354390382766724,7.109755516052246,7.281244277954102,-2.4039602279663086,-1.6276757717132568,-1.0982813835144043,0.62923264503479,22.441112518310547,-42.20452880859375,0.6977100372314453,0.13184833526611328,1.3081541061401367,1.5396664142608643,6.977907180786133,5.973090171813965,-3.943626642227173
8_20251106_181437,1762424041648,8,0.4086056649684906,0.73836350440979,0.3026694357395172,0.4430032968521118,0.8209609985351562,0.8821555972099304,-1.6354390382766724,7.109755516052246,7.281244277954102,-2.4039602279663086,-1.5055029392242432,-1.332242488861084,0.7550708055496216,22.267864227294922,-42.4627685546875,-0.9772005081176758,0.13184833526611328,1.3081541061401367,1.5396664142608643,6.977907180786133,5.973090171813965,-3.943626642227173
8_20251106_181437,1762424041666,8,0.41921618580818176,0.7402400374412537,0.2854059934616089,0.441413551568985,0.9531511068344116,0.9023715257644653,-1.6485459804534912,7.777709007263184,9.200115203857422,-0.07210797071456909,-1.4407511949539185,-1.361564040184021,0.5699787735939026,22.15692901611328,-42.71514892578125,-2.838886260986328,0.5137882232666016,2.1909379959106445,2.668916940689087,7.263920783996582,7.009177207946777,-2.741024971008301
8_20251106_181437,1762424041684,8,0.4301292300224304,0.7414572834968567,0.26958808302879333,0.43880772590637207,0.9531511068344116,0.9023715257644653,-1.6485459804534912,7.777709007263184,9.200115203857422,-0.07210797071456909,-1.5073355436325073,-1.1911327838897705,0.20223821699619293,21.883922576904297,-42.85105895996094,-4.907543182373047,0.5137882232666016,2.1909379959106445,2.668916940689087,7.263920783996582,7.009177207946777,-2.741024971008301
8_20251106_181437,1762424041703,8,0.4426141083240509,0.7402656078338623,0.2567749321460724,0.43608054518699646,1.078845739364624,0.9507105350494385,-1.6246278285980225,6.526792526245117,10.148178100585938,0.8579993844032288,-1.6038520336151123,-0.9565607309341431,-0.14228948950767517,21.649673461914062,-42.95838928222656,-7.082330703735352,-0.5849547386169434,2.059141159057617,2.285755157470703,7.1117472648620605,8.08903694152832,-1.4277557134628296
8_20251106_181437,1762424041723,8,0.45681363344192505,0.73650723695755,0.2467767596244812,0.4335661828517914,1.1344819068908691,0.9837154150009155,-1.602340817451477,5.6577348709106445,10.045231819152832,0.7766000628471375,-1.603241205215454,-0.9950451850891113,-0.3176076412200928,21.31167221069336,-42.983619689941406,-9.394847869873047,-1.1632099151611328,1.564955711364746,1.7634847164154053,6.820944786071777,8.480276107788086,-0.9868846535682678
8_20251106_181437,1762424041743,8,0.4717753529548645,0.7323156595230103,0.2377537041902542,0.42966845631599426,1.1808342933654785,1.0185611248016357,-1.5746208429336548,4.6821393966674805,9.628658294677734,1.1668381690979004,-1.603241205215454,-0.9950451850891113,-0.3176076412200928,20.896320343017578,-42.876014709472656,-11.734926223754883,-1.7110443115234375,0.918705940246582,1.7229783535003662,6.393183708190918,8.709952354431152,-0.556140124797821
8_20251106_181437,1762424041762,8,0.48655223846435547,0.728970468044281,0.22811980545520782,0.4240640699863434,1.2157626152038574,1.05244779586792,-1.5443311929702759,3.8765249252319336,9.598731994628906,1.3655483722686768,-1.411429762840271,-1.322468638420105,-0.17771965265274048,20.896320343017578,-42.876014709472656,-11.734926223754883,-2.013327121734619,0.711024284362793,1.5373508930206299,5.889852046966553,8.887707710266113,-0.17180246114730835
8_20251106_181437,1762424041780,8,0.5002232789993286,0.7268255949020386,0.21727719902992249,0.4174827039241791,1.2157626152038574,1.05244779586792,-1.5443311929702759,3.8765249252319336,9.598731994628906,1.3655483722686768,-1.2642114162445068,-1.4403655529022217,-0.0225599966943264,20.398170471191406,-42.52281188964844,-14.15474796295166,-2.013327121734619,0.711024284362793,1.5373508930206299,5.889852046966553,8.887707710266113,-0.17180246114730835
8_20251106_181437,1762424041800,8,0.5126087069511414,0.7259920835494995,0.2050567865371704,0.4100238084793091,1.2598793506622314,1.1222320795059204,-1.4713399410247803,2.894944667816162,10.138601303100586,2.460848569869995,-1.1310428380966187,-1.3762247562408447,0.04219166189432144,19.878787994384766,-42.09733581542969,-16.4252872467041,-1.9824352264404297,0.8812046051025391,1.785257339477539,4.877379894256592,9.257396697998047,0.675591230392456
8_20251106_181437,1762424041819,8,0.5236149430274963,0.7253625392913818,0.19325289130210876,0.402901828289032,1.2701233625411987,1.1592830419540405,-1.4293770790100098,2.3814101219177246,10.471380233764648,2.591326951980591,-1.0296392440795898,-1.2021284103393555,-0.009120975621044636,19.41500473022461,-41.54338073730469,-18.66419219970703,-1.9967756271362305,0.971186637878418,1.5325886011123657,4.378185749053955,9.50019359588623,1.058738350868225
8_20251106_181437,1762424041839,8,0.5337734818458557,0.7241541743278503,0.18311235308647156,0.39642956852912903,1.2723932266235352,1.1964991092681885,-1.3859151601791382,1.6583924293518066,10.235562324523926,2.369872808456421,-0.957557201385498,-1.028031826019287,-0.0891442522406578,18.85787582397461,-40.908966064453125,-20.797042846679688,-2.1758346557617188,0.5882949829101562,1.0489075183868408,3.8342270851135254,9.64726734161377,1.32096529006958
8_20251106_181437,1762424041858,8,0.5434327721595764,0.7223503589630127,0.17463262379169464,0.3903770446777344,1.2661526203155518,1.2341535091400146,-1.3399924039840698,1.0347297191619873,9.791457176208496,2.130462884902954,-0.9306791424751282,-0.907691478729248,-0.1251852810382843,18.282939910888672,-40.139625549316406,-22.765777587890625,-2.239597797393799,0.11535167694091797,0.6475980281829834,3.274327516555786,9.676105499267578,1.4828648567199707
8_20251106_181437,1762424041876,8,0.5524834990501404,0.7199742197990417,0.16766566038131714,0.38508090376853943,1.2661526203155518,1.2341535091400146,-1.3399924039840698,1.0347297191619873,9.791457176208496,2.130462884902954,-0.9459508061408997,-0.8020119667053223,-0.1154114380478859,17.612953186035156,-39.315338134765625,-24.588436126708984,-2.239597797393799,0.11535167694091797,0.6475980281829834,3.274327516555786,9.676105499267578,1.4828648567199707
8_20251106_181437,1762424041895,8,0.5616746544837952,0.71723473072052,0.16051644086837769,0.3799084722995758,1.2350876331329346,1.297130823135376,-1.2569856643676758,0.20637156069278717,9.508953094482422,2.1759510040283203,-0.9459508061408997,-0.8020119667053223,-0.1154114380478859,16.919719696044922,-38.45631408691406,-26.276119232177734,-2.020184278488159,-0.09376239776611328,0.4678990840911865,2.226555824279785,9.602715492248535,1.7080519199371338
8_20251106_181437,1762424041915,8,0.5706639885902405,0.713863730430603,0.15330979228019714,0.3758155107498169,1.2099775075912476,1.3292475938796997,-1.2115676403045654,0.2123568058013916,9.862082481384277,2.732578754425049,-0.9911547303199768,-0.6822824478149414,-0.04271853342652321,16.201831817626953,-37.587669372558594,-27.82935905456543,-1.6113592386245728,0.20749378204345703,0.8196214437484741,1.8237160444259644,9.65458869934082,1.9129573106765747
8_20251106_181437,1762424041933,8,0.5792844295501709,0.7098127603530884,0.1461849808692932,0.3731291592121124,1.1843489408493042,1.3574925661087036,-1.1692932844161987,0.1345486044883728,9.973407745361328,3.31075382232666,-0.8873077630996704,-0.3652436435222626,0.10327813774347305,15.4764404296875,-36.81043243408203,-29.033023834228516,-1.3513338565826416,0.25505542755126953,1.1182372570037842,1.4858825206756592,9.718352317810059,2.192516565322876
8_20251106_181437,1762424041952,8,0.5865561962127686,0.7057966589927673,0.1401403695344925,0.37170371413230896,1.154491662979126,1.3856453895568848,-1.1236988306045532,-0.029447168111801147,9.656190872192383,3.359832763671875,-0.6582334637641907,-0.09157626330852509,0.13443222641944885,14.817222595214844,-35.92930603027344,-30.178058624267578,-1.212263822555542,-0.049729347229003906,0.9338529109954834,1.1828166246414185,9.705920219421387,2.4259798526763916
8_20251106_181437,1762424041972,8,0.5918872356414795,0.7020021080970764,0.1361580193042755,0.3719187378883362,1.154491662979126,1.3856453895568848,-1.1236988306045532,-0.029447168111801147,9.656190872192383,3.359832763671875,-0.5452235341072083,0.09718094766139984,0.1936860978603363,14.16598892211914,-35.09950256347656,-31.134429931640625,-1.212263822555542,-0.049729347229003906,0.9338529109954834,1.1828166246414185,9.705920219421387,2.4259798526763916
8_20251106_181437,1762424041991,8,0.5959960222244263,0.6982316970825195,0.13322007656097412,0.3735153377056122,1.0887877941131592,1.4351774454116821,-1.0381107330322266,-0.18147243559360504,9.48261833190918,2.2142562866210938,-0.6399075388908386,0.1564348191022873,0.292646199464798,13.58648681640625,-34.266815185546875,-31.898632049560547,-0.8852112889289856,-0.11284351348876953,-0.20215463638305664,0.7037388682365417,9.59546184539795,2.4164109230041504
8_20251106_181437,1762424042011,8,0.6001693606376648,0.6939552426338196,0.1296158730983734,0.37606194615364075,1.0509353876113892,1.4609034061431885,-0.9946470260620117,-0.12880225479602814,9.802230834960938,2.4823954105377197,-0.8292756080627441,0.20286054909229279,0.3323523998260498,13.175498962402344,-33.43745422363281,-32.467002868652344,-0.6660328507423401,0.16541481018066406,0.05278754234313965,0.5372306108474731,9.636816024780273,2.42960786819458
8_20251106_181437,1762424042032,8,0.6053179502487183,0.6885241866111755,0.12534794211387634,0.3792261779308319,1.0129278898239136,1.4877550601959229,-0.9524333477020264,-0.0737379789352417,10.356464385986328,2.7050466537475586,-1.0223089456558228,0.35374414920806885,0.2920353412628174,12.821929931640625,-32.655296325683594,-32.939361572265625,-0.4887748956680298,0.575718879699707,0.220350980758667,0.4150369167327881,9.780745506286621,2.4846956729888916
8_20251106_181437,1762424042051,8,0.6116718649864197,0.6812875270843506,0.12153774499893188,0.3833189606666565,0.9788495898246765,1.5135440826416016,-0.9145040512084961,-0.09887601435184479,10.76824951171875,3.0845112800598145,-1.1707489490509033,0.5082929134368896,0.2547725737094879,12.56463623046875,-31.891624450683594,-33.435359954833984,-0.4111303687095642,0.7900028228759766,0.47985243797302246,0.3122543394565582,9.978246688842773,2.604658842086792
8_20251106_181437,1762424042067,8,0.6188746690750122,0.672468900680542,0.11838427186012268,0.38828447461128235,0.9788495898246765,1.5135440826416016,-0.9145040512084961,-0.09887601435184479,10.76824951171875,3.0845112800598145,-1.1964054107666016,0.686054527759552,0.31036126613616943,12.3873291015625,-31.19921875,-33.78083038330078,-0.4111303687095642,0.7900028228759766,0.47985243797302246,0.3122543394565582,9.978246688842773,2.604658842086792
8_20251106_181437,1762424042087,8,0.6257891654968262,0.6627577543258667,0.11584185063838959,0.39461469650268555,0.9173661470413208,1.5655876398086548,-0.8396009206771851,0.15011024475097656,11.05913257598877,4.116367340087891,-1.1964054107666016,0.686054527759552,0.31036126613616943,12.419425964355469,-30.432281494140625,-33.94093322753906,-0.0871092677116394,0.7147502899169922,1.0395078659057617,0.23721951246261597,10.344382286071777,3.076859474182129
8_20251106_181437,1762424042104,8,0.6309215426445007,0.6533000469207764,0.1142161414027214,0.4026060998439789,0.8906412720680237,1.591120719909668,-0.8030054569244385,0.3440322279930115,11.16806411743164,4.185796737670898,-1.0406348705291748,0.8448793888092041,0.43253421783447266,12.436416625976562,-29.71649932861328,-34.08906173706055,0.0854501724243164,0.6589450836181641,0.8871498107910156,0.25858205556869507,10.509119033813477,3.298646926879883
8_20251106_181437,1762424042125,8,0.633882999420166,0.6443980932235718,0.11359331756830215,0.4123590886592865,0.8621346950531006,1.6210459470748901,-0.760186493396759,0.7067382335662842,10.965763092041016,3.9296278953552246,-0.715654730796814,1.1063294410705566,0.7178080081939697,12.560050964355469,-29.055679321289062,-34.30168151855469,0.35852494835853577,0.36531543731689453,0.5047845840454102,0.3482132852077484,10.600447654724121,3.4248433113098145
8_20251106_181437,1762424042143,8,0.6353873610496521,0.6359431147575378,0.11303851753473282,0.42318031191825867,0.8384881019592285,1.6501296758651733,-0.7200720906257629,1.1065526008605957,11.357196807861328,3.960751533508301,-0.7480306029319763,1.144813895225525,0.8332614898681641,12.704139709472656,-28.45659637451172,-34.4605712890625,0.6066714525222778,0.6053991317749023,0.4287266731262207,0.49988114833831787,10.751797676086426,3.53202486038208
8_20251106_181437,1762424042162,8,0.6363524198532104,0.6272202134132385,0.1118643656373024,0.4348985552787781,0.8193172812461853,1.681633710861206,-0.6796934604644775,1.700289249420166,12.164009094238281,4.359368324279785,-0.8249995708465576,1.3219647407531738,0.7782836556434631,12.926197052001953,-27.96631622314453,-34.48324203491211,0.9603264927864075,1.1297683715820312,0.6618747711181641,0.7399627566337585,11.03424072265625,3.697493553161621
8_20251106_181437,1762424042182,8,0.6376103758811951,0.6171400547027588,0.11178748309612274,0.44731956720352173,0.8043394684791565,1.717482089996338,-0.6357707381248474,2.1192564964294434,12.463272094726562,4.8633270263671875,-0.855542778968811,1.5339348316192627,0.6029654741287231,13.319267272949219,-27.4527587890625,-34.45823669433594,1.1034350395202637,1.1432247161865234,0.9326667785644531,1.0158214569091797,11.320047378540039,3.9306602478027344
8_20251106_181437,1762424042201,8,0.6393065452575684,0.6056168675422668,0.11396613717079163,0.4599207639694214,0.7947394251823425,1.7526072263717651,-0.5927997827529907,2.4436569213867188,12.330398559570312,5.1446332931518555,-0.855542778968811,1.5339348316192627,0.6029654741287231,13.319267272949219,-27.4527587890625,-34.45823669433594,1.142268419265747,0.8082809448242188,0.9711785316467285,1.3013885021209717,11.522117614746094,4.173454761505127
8_20251106_181437,1762424042219,8,0.6405345797538757,0.5937472581863403,0.11789382249116898,0.47252583503723145,0.7896755337715149,1.7861393690109253,-0.5516431331634521,2.753692626953125,12.301669120788574,5.181741714477539,-0.550110399723053,1.6573294401168823,0.5125575065612793,13.75265121459961,-27.06348419189453,-34.24467849731445,1.1618432998657227,0.6236410140991211,0.8066296577453613,1.5918493270874023,11.678028106689453,4.375112056732178
8_20251106_181437,1762424042238,8,0.6401904821395874,0.5830721259117126,0.1227443516254425,0.4848885238170624,0.7887639403343201,1.8219847679138184,-0.5077190399169922,3.1104133129119873,12.487211227416992,5.342145919799805,-0.550110399723053,1.6573294401168823,0.5125575065612793,14.22378921508789,-26.658599853515625,-34.09696578979492,1.2148511409759521,0.6473464965820312,0.7736272811889648,1.8955621719360352,11.839864730834961,4.56851863861084
8_20251106_181437,1762424042258,8,0.6385674476623535,0.5735704302787781,0.12812630832195282,0.49682217836380005,0.7922114133834839,1.8600091934204102,-0.4609445333480835,3.3294734954833984,12.556640625,5.5061421394348145,-0.2513975501060486,1.6616055965423584,0.4563579559326172,14.85174560546875,-26.481712341308594,-33.89333724975586,1.1471290588378906,0.573420524597168,0.750098705291748,2.182344436645508,11.983220100402832,4.756043434143066
8_20251106_181437,1762424042277,8,0.6362884044647217,0.5643993616104126,0.13468457758426666,0.5083802342414856,0.7991235852241516,1.8961621522903442,-0.41625547409057617,3.567686080932617,12.65240478515625,5.658167362213135,-0.12250510603189468,1.6622164249420166,0.3940497636795044,15.572887420654297,-26.350723266601562,-33.484100341796875,1.1082732677459717,0.5353469848632812,0.7216992378234863,2.4594128131866455,12.117057800292969,4.936468124389648
8_20251106_181437,1762424042295,8,0.633388876914978,0.5558081269264221,0.14217613637447357,0.5193089842796326,0.8093026876449585,1.930159568786621,-0.37381017208099365,4.0668559074401855,12.709863662719727,5.840118885040283,-0.12250510603189468,1.6622164249420166,0.3940497636795044,16.278949737548828,-26.247665405273438,-32.87313461303711,1.285954475402832,0.4742450714111328,0.7229204177856445,2.7809014320373535,12.235618591308594,5.117198467254639
8_20251106_181437,1762424042315,8,0.6286545395851135,0.5491164326667786,0.15042972564697266,0.5297503471374512,0.8254704475402832,1.9667487144470215,-0.3295820653438568,4.564828395843506,12.466862678527832,4.927967071533203,0.13955587148666382,1.572419285774231,0.4252038598060608,17.14000701904297,-26.196937561035156,-32.2706298828125,1.4271416664123535,0.18499469757080078,-0.15138530731201172,3.1376867294311523,12.281867980957031,5.079352378845215
8_20251106_181437,1762424042334,8,0.6218429207801819,0.5447259545326233,0.15981028974056244,0.5394865274429321,0.8457311391830444,1.999627709388733,-0.294134259223938,5.204052925109863,12.229846954345703,3.450808525085449,0.6123651266098022,1.5828039646148682,0.45819056034088135,18.06414031982422,-26.294281005859375,-31.45208740234375,1.653092861175537,-0.041617393493652344,-1.3028349876403809,3.550960063934326,12.271464347839355,4.75364351272583
8_20251106_181437,1762424042353,8,0.6142122745513916,0.5408969521522522,0.16983048617839813,0.5489366054534912,0.8457311391830444,1.999627709388733,-0.294134259223938,5.204052925109863,12.229846954345703,3.450808525085449,0.49263566732406616,1.579749584197998,0.3628956377506256,18.85736083984375,-26.551063537597656,-30.560523986816406,1.653092861175537,-0.041617393493652344,-1.3028349876403809,3.550960063934326,12.271464347839355,4.75364351272583
8_20251106_181437,1762424042372,8,0.6072639226913452,0.5364031791687012,0.1796577423810959,0.5578756928443909,0.9025866389274597,2.061518430709839,-0.24314989149570465,6.596220970153809,12.701483726501465,3.0067028999328613,0.36924099922180176,1.5015588998794556,0.17413842678070068,19.697124481201172,-26.830856323242188,-29.55939292907715,2.070204257965088,0.3489503860473633,-1.072075366973877,4.526016712188721,12.352533340454102,4.078778266906738
8_20251106_181437,1762424042391,8,0.6018510460853577,0.5313905477523804,0.18918144702911377,0.5653403997421265,0.9388893842697144,2.092226982116699,-0.2228487879037857,6.924212455749512,12.907377243041992,3.5393900871276855,0.32281529903411865,1.4135944843292236,-0.11174625158309937,20.4945068359375,-27.2021484375,-28.4399356842041,1.9185566902160645,0.4438753128051758,-0.43151044845581055,5.005655765533447,12.463501930236816,3.970900535583496
8_20251106_181437,1762424042410,8,0.5981107950210571,0.5260003209114075,0.1993171125650406,0.570841372013092,0.9777507185935974,2.121974229812622,-0.2036300003528595,6.5998125076293945,12.672755241394043,3.9463868141174316,0.32281529903411865,1.4135944843292236,-0.11174625158309937,21.173160552978516,-27.519134521484375,-27.269996643066406,1.2753252983093262,0.1674032211303711,-0.019610881805419922,5.324487209320068,12.505352020263672,3.9659976959228516
8_20251106_181437,1762424042430,8,0.5956693887710571,0.5203630328178406,0.21108373999595642,0.5743204355239868,0.9777507185935974,2.121974229812622,-0.2036300003528595,6.5998125076293945,12.672755241394043,3.9463868141174316,0.37962570786476135,1.3799967765808105,-0.42756330966949463,21.942760467529297,-27.94305419921875,-26.07147979736328,1.2753252983093262,0.1674032211303711,-0.019610881805419922,5.324487209320068,12.505352020263672,3.9659976959228516
8_20251106_181437,1762424042449,8,0.5935704112052917,0.5143245458602905,0.22404073178768158,0.5770183205604553,1.0566281080245972,2.1754660606384277,-0.17173857986927032,5.658931732177734,11.761800765991211,3.3323006629943848,0.44071218371391296,1.3366254568099976,-0.5063648223876953,22.72957992553711,-28.27814483642578,-24.884138107299805,0.1523728370666504,-0.5563144683837891,-0.41648316383361816,5.506558895111084,12.318115234375,3.748783826828003
8_20251106_181437,1762424042469,8,0.5910192131996155,0.5088412165641785,0.23630554974079132,0.5796003937721252,1.0566281080245972,2.1754660606384277,-0.17173857986927032,5.658931732177734,11.761800765991211,3.3323006629943848,0.5219571590423584,1.23155677318573,-0.3469291627407074,23.419219970703125,-28.607566833496094,-23.646392822265625,0.1523728370666504,-0.5563144683837891,-0.41648316383361816,5.506558895111084,12.318115234375,3.748783826828003
8_20251106_181437,1762424042489,8,0.5873175859451294,0.5046242475509644,0.24761267006397247,0.5823232531547546,1.1311860084533691,2.217559814453125,-0.14623397588729858,5.737936973571777,11.60977554321289,3.5537545680999756,0.6441301107406616,1.054405927658081,-0.23269745707511902,24.01308822631836,-28.906219482421875,-22.357711791992188,0.1714487075805664,-0.4696168899536133,-0.09857940673828125,5.566488265991211,12.079392433166504,3.652333974838257
8_20251106_181437,1762424042507,8,0.5827212333679199,0.502249002456665,0.25798821449279785,0.5844860672950745,1.1634806394577026,2.2330751419067383,-0.1359318345785141,5.953405380249023,11.577454566955566,3.5884692668914795,0.7369815707206726,0.924291729927063,-0.1667240858078003,24.710384368896484,-29.09764862060547,-21.103546142578125,0.30953359603881836,-0.40155029296875,-0.051091670989990234,5.643871784210205,11.979004859924316,3.6395609378814697
8_20251106_181437,1762424042525,8,0.5773244500160217,0.5010858774185181,0.2679201364517212,0.5863686800003052,1.1955888271331787,2.246654987335205,-0.12744376063346863,6.223938941955566,11.508026123046875,3.1120433807373047,0.7791312336921692,0.8503771424293518,-0.10197240859270096,25.336578369140625,-29.256309509277344,-19.838016510009766,0.4640536308288574,-0.3767833709716797,-0.4220139980316162,5.759885311126709,11.884809494018555,3.534057378768921
8_20251106_181437,1762424042545,8,0.5714736580848694,0.5006765127182007,0.2772563397884369,0.5881069302558899,1.2322125434875488,2.260396957397461,-0.11994171887636185,6.658467769622803,11.689977645874023,3.0545849800109863,0.778520405292511,0.6946066617965698,-0.07020744681358337,26.025508880615234,-29.385345458984375,-18.62356948852539,0.7188658714294434,-0.15586566925048828,-0.383577823638916,5.939601898193359,11.845843315124512,3.4381628036499023
8_20251106_181437,1762424042564,8,0.5657058358192444,0.5012383460998535,0.28554633259773254,0.5892370343208313,1.2684167623519897,2.2729625701904297,-0.11323824524879456,7.088208198547363,11.90544605255127,3.4137001037597656,0.7736334204673767,0.5388361215591431,-0.17527619004249573,26.562679290771484,-29.612625122070312,-17.335758209228516,0.9188847541809082,0.04768180847167969,-0.019570112228393555,6.169323444366455,11.85776424407959,3.433270215988159
8_20251106_181437,1762424042583,8,0.5608713030815125,0.5023502111434937,0.2933749854564667,0.5890660285949707,1.3054828643798828,2.284912347793579,-0.10701888054609299,7.143272399902344,11.86235237121582,3.3789854049682617,0.7736334204673767,0.5388361215591431,-0.17527619004249573,26.983516693115234,-29.759140014648438,-16.132102966308594,0.7791595458984375,0.00366973876953125,-0.04342770576477051,6.364112854003906,11.858682632446289,3.4224131107330322
8_20251106_181437,1762424042603,8,0.5573284029960632,0.503494918346405,0.3013417422771454,0.5874274969100952,1.3054828643798828,2.284912347793579,-0.10701888054609299,7.143272399902344,11.86235237121582,3.3789854049682617,0.7253751158714294,0.2902141809463501,-0.5399624109268188,26.983516693115234,-29.759140014648438,-16.132102966308594,0.7791595458984375,0.00366973876953125,-0.04342770576477051,6.364112854003906,11.858682632446289,3.4224131107330322
8_20251106_181437,1762424042621,8,0.5552161335945129,0.5045074820518494,0.30925002694129944,0.5844413042068481,1.3776235580444336,2.3040642738342285,-0.0972815603017807,6.569886207580566,11.235097885131836,3.1323933601379395,0.675284206867218,0.19125410914421082,-0.6486963033676147,27.869762420654297,-30.159034729003906,-14.022562026977539,0.08189773559570312,-0.4500417709350586,-0.1976790428161621,6.487988471984863,11.685139656066895,3.3300724029541016
8_20251106_181437,1762424042641,8,0.5542424321174622,0.5054323077201843,0.3168283998966217,0.5804939866065979,1.4116898775100708,2.310922384262085,-0.09270830452442169,6.117401599884033,11.136940956115723,3.390955924987793,0.563495934009552,0.07457894831895828,-0.7274978756904602,28.336761474609375,-30.185699462890625,-13.26109504699707,-0.29646968841552734,-0.43855953216552734,0.048706769943237305,6.4138712882995605,11.57550048828125,3.3422491550445557
8_20251106_181437,1762424042660,8,0.5545632839202881,0.5060806274414062,0.3235439658164978,0.5759003758430481,1.4116898775100708,2.310922384262085,-0.09270830452442169,6.117401599884033,11.136940956115723,3.390955924987793,0.4242188334465027,0.030596686527132988,-0.8570011854171753,28.336761474609375,-30.185699462890625,-13.26109504699707,-0.29646968841552734,-0.43855953216552734,0.048706769943237305,6.4138712882995605,11.57550048828125,3.3422491550445557
8_20251106_181437,1762424042680,8,0.5564020872116089,0.5056793093681335,0.3298923075199127,0.5708556771278381,1.4674052000045776,2.3194499015808105,-0.07859086990356445,5.753498077392578,10.80775260925293,4.160658359527588,0.47736406326293945,0.007994689978659153,-0.9577938318252563,28.71805191040039,-30.230079650878906,-12.543874740600586,-0.4423666000366211,-0.5591602325439453,0.5308685302734375,6.195864677429199,11.366912841796875,3.6297898292541504
8_20251106_181437,1762424042700,8,0.5585775971412659,0.5051391124725342,0.336862713098526,0.5651097893714905,1.492754340171814,2.319014072418213,-0.0692162960767746,5.518877029418945,10.242744445800781,3.989480495452881,0.7345380783081055,-0.28338778018951416,-0.9712328910827637,29.20416259765625,-30.15373992919922,-11.955517768859863,-0.5415902137756348,-0.8993349075317383,0.287752628326416,6.06046724319458,11.14207935333252,3.701727867126465
8_20251106_181437,1762424042717,8,0.5604539513587952,0.5073717832565308,0.3436714708805084,0.5570952296257019,1.510704517364502,2.3166325092315674,-0.060586024075746536,5.357275009155273,10.210424423217773,4.34859561920166,1.0271422863006592,-0.6211959719657898,-0.9046486616134644,29.61563491821289,-30.119033813476562,-11.451992988586426,-0.562553882598877,-0.7453241348266602,0.5174942016601562,5.91982889175415,10.955748558044434,3.831101417541504
8_20251106_181437,1762424042737,8,0.5618515014648438,0.5132137537002563,0.3496108949184418,0.5465407371520996,1.5284485816955566,2.311384916305542,-0.050036825239658356,5.157367706298828,10.105083465576172,4.12833833694458,1.205514669418335,-0.6670107841491699,-0.9920023679733276,30.172306060791016,-29.898033142089844,-11.115089416503906,-0.6099691390991211,-0.6805324554443359,0.23778963088989258,5.767336845397949,10.785615921020508,3.8905487060546875
8_20251106_181437,1762424042755,8,0.5626258254051208,0.519544243812561,0.3568255305290222,0.5349780321121216,1.540982961654663,2.303341865539551,-0.043258488178253174,4.696503639221191,9.3413667678833,2.98036789894104,1.2238407135009766,-0.5784354209899902,-1.1654878854751587,30.768047332763672,-29.636444091796875,-10.829988479614258,-0.8566665649414062,-1.155400276184082,-0.728144645690918,5.553170204162598,10.496767044067383,3.708512544631958
8_20251106_181437,1762424042774,8,0.5637648105621338,0.5247679948806763,0.3653970956802368,0.522754967212677,1.540982961654663,2.303341865539551,-0.043258488178253174,4.696503639221191,9.3413667678833,2.98036789894104,1.0448572635650635,-0.5747702717781067,-1.233293890953064,31.357337951660156,-29.275054931640625,-10.556781768798828,-0.8566665649414062,-1.155400276184082,-0.728144645690918,5.553170204162598,10.496767044067383,3.708512544631958
8_20251106_181437,1762424042793,8,0.5660026669502258,0.5287725925445557,0.3733871877193451,0.5105120539665222,1.5506014823913574,2.290327787399292,-0.040566056966781616,4.3649210929870605,9.008586883544922,2.240591526031494,0.8139504790306091,-0.5436161756515503,-1.2717784643173218,31.922653198242188,-28.914718627929688,-10.338621139526367,-0.950599193572998,-1.1905441284179688,-1.1743366718292236,5.315520286560059,10.19913101196289,3.4149281978607178
8_20251106_181437,1762424042813,8,0.5693772435188293,0.5312184691429138,0.3805433511734009,0.4988018572330475,1.55771803855896,2.256399154663086,-0.04411137104034424,3.7640023231506348,8.36337661743164,2.040684223175049,0.7821854948997498,-0.5155164003372192,-1.381734013557434,32.5042724609375,-28.489990234375,-10.199748039245605,-1.0515789985656738,-1.2296600341796875,-0.9364001750946045,4.815581321716309,9.593036651611328,2.9770843982696533
8_20251106_181437,1762424042832,8,0.5732255578041077,0.5327529311180115,0.38817811012268066,0.48672839999198914,1.554315447807312,2.2335758209228516,-0.05132399499416351,2.9631762504577637,7.863009929656982,1.5115883350372314,0.850602388381958,-0.6077569723129272,-1.5075721740722656,33.19032669067383,-27.9334716796875,-10.040796279907227,-1.481924057006836,-1.384021282196045,-1.1723968982696533,4.4451003074646,9.247031211853027,2.6839852333068848
8_20251106_181437,1762424042851,8,0.5775564908981323,0.5345178246498108,0.39616140723228455,0.4730489253997803,1.5434092283248901,2.2059226036071777,-0.0636545717716217,1.9768075942993164,7.6583147048950195,1.000448226928711,0.7815746665000916,-0.6975541114807129,-1.4690877199172974,33.765682220458984,-27.4202880859375,-10.035728454589844,-1.9746341705322266,-1.2709732055664062,-1.3468296527862549,3.951441764831543,8.929287910461426,2.347277879714966
8_20251106_181437,1762424042870,8,0.5822769403457642,0.5362803339958191,0.4031538665294647,0.4591556489467621,1.5267562866210938,2.177701950073242,-0.0767308697104454,1.4692585468292236,7.7397141456604,1.6372785568237305,0.7815746665000916,-0.6975541114807129,-1.4690877199172974,34.3978157043457,-26.777008056640625,-10.161222457885742,-1.9857466220855713,-0.9516587257385254,-0.5679993629455566,3.455005168914795,8.691372871398926,2.205277919769287
8_20251106_181437,1762424042890,8,0.5875462889671326,0.5377615094184875,0.4081995189189911,0.4460662007331848,1.5267562866210938,2.177701950073242,-0.0767308697104454,1.4692585468292236,7.7397141456604,1.6372785568237305,0.6282476186752319,-0.7390928268432617,-1.2436785697937012,34.99862289428711,-26.047805786132812,-10.326889038085938,-1.9857466220855713,-0.9516587257385254,-0.5679993629455566,3.455005168914795,8.691372871398926,2.205277919769287
8_20251106_181437,1762424042908,8,0.5922420024871826,0.539393961429596,0.4129379987716675,0.4333425462245941,1.4740095138549805,2.115431308746338,-0.10558269172906876,0.03998170793056488,7.296805381774902,1.3751246929168701,0.7730225920677185,-0.7965141534805298,-1.159379243850708,35.577049255371094,-25.305885314941406,-10.668983459472656,-2.323706865310669,-0.9296798706054688,-0.584734320640564,2.3636884689331055,8.226485252380371,1.959859013557434
8_20251106_181437,1762424042928,8,0.5959970951080322,0.5422020554542542,0.4174899458885193,0.4201267659664154,1.4353206157684326,2.0804502964019775,-0.12285508215427399,-0.7237358093261719,7.129218578338623,1.1835968494415283,0.7754660248756409,-0.7647491693496704,-0.9620699882507324,36.11801528930664,-24.579177856445312,-10.985780715942383,-2.4699394702911377,-0.8778128623962402,-0.6210097074508667,1.7462036609649658,8.007031440734863,1.804606556892395
8_20251106_181437,1762424042945,8,0.5988428592681885,0.5456151366233826,0.42113232612609863,0.4078466594219208,1.4353206157684326,2.0804502964019775,-0.12285508215427399,-0.7237358093261719,7.129218578338623,1.1835968494415283,0.6331345438957214,-0.6450197100639343,-0.7604845762252808,36.647586822509766,-23.85218048095703,-11.411199569702148,-2.4699394702911377,-0.8778128623962402,-0.6210097074508667,1.7462036609649658,8.007031440734863,1.804606556892395
8_20251106_181437,1762424042965,8,0.601113498210907,0.5484064221382141,0.4239089787006378,0.39776140451431274,1.3475326299667358,2.013474941253662,-0.1571541428565979,-1.4000686407089233,6.935297012329102,1.3188633918762207,0.48835963010787964,-0.5857658386230469,-0.5827229022979736,37.05459213256836,-23.14568328857422,-11.841785430908203,-2.0526862144470215,-0.7098507881164551,-0.270463228225708,0.6526174545288086,7.645147800445557,1.5893266201019287
8_20251106_181437,1762424042983,8,0.6032379865646362,0.5508200526237488,0.42549484968185425,0.3894295394420624,1.2996935844421387,1.9801065921783447,-0.17385075986385345,-1.4491477012634277,6.777286052703857,1.2458434104919434,0.48835963010787964,-0.5857658386230469,-0.5827229022979736,37.32260513305664,-22.547439575195312,-12.374492645263672,-1.6814121007919312,-0.6942896842956543,-0.2747865915298462,0.2322644293308258,7.471575736999512,1.5206300020217896
8_20251106_181437,1762424043003,8,0.6051278114318848,0.5538108944892883,0.425794780254364,0.38185417652130127,1.2436304092407227,1.9421442747116089,-0.19375865161418915,-1.5987788438796997,6.570196151733398,0.7694177031517029,0.5237897634506226,-0.8582115173339844,-0.29317307472229004,37.59877014160156,-22.023468017578125,-12.935325622558594,-1.4648346900939941,-0.7211036682128906,-0.6009698510169983,-0.13394421339035034,7.291299819946289,1.3703875541687012
8_20251106_181437,1762424043024,8,0.6070891618728638,0.5584654808044434,0.42431607842445374,0.3735170066356659,1.1854805946350098,1.9041426181793213,-0.21440348029136658,-1.7424248456954956,6.653990268707275,0.8005409836769104,0.5189028382301331,-1.0995030403137207,-0.18505004048347473,37.83435821533203,-21.565345764160156,-13.431367874145508,-1.2867845296859741,-0.5098476409912109,-0.45587724447250366,-0.45564034581184387,7.163837909698486,1.256418228149414
8_20251106_181437,1762424043042,8,0.6096088290214539,0.5644381046295166,0.42076852917671204,0.3643357753753662,1.1288689374923706,1.8688151836395264,-0.23265720903873444,-1.9614847898483276,6.788059234619141,1.394277572631836,0.42666229605674744,-1.108665943145752,-0.141067773103714,37.865177154541016,-21.318817138671875,-14.14222526550293,-1.204675555229187,-0.30062294006347656,0.11028742790222168,-0.7568092346191406,7.088682174682617,1.2839901447296143
8_20251106_181437,1762424043061,8,0.6124259233474731,0.5699616074562073,0.4165944755077362,0.35570669174194336,1.1288689374923706,1.8688151836395264,-0.23265720903873444,-1.9614847898483276,6.788059234619141,1.394277572631836,0.3558019995689392,-0.8771482706069946,-0.1355699896812439,37.865177154541016,-21.318817138671875,-14.14222526550293,-1.204675555229187,-0.30062294006347656,0.11028742790222168,-0.7568092346191406,7.088682174682617,1.2839901447296143
8_20251106_181437,1762424043080,8,0.6147847175598145,0.5742008686065674,0.41333553194999695,0.3485497236251831,1.0119494199752808,1.8025504350662231,-0.26407942175865173,-2.4103784561157227,7.157948017120361,1.5379233360290527,0.40467116236686707,-0.6590695381164551,-0.13129392266273499,37.83115768432617,-21.127975463867188,-14.707910537719727,-1.0858644247055054,0.0786137580871582,0.1470034122467041,-1.3245140314102173,7.079334259033203,1.3909199237823486
8_20251106_181437,1762424043099,8,0.6159835457801819,0.577871561050415,0.4115300178527832,0.34244972467422485,0.9524584412574768,1.7719910144805908,-0.28057152032852173,-2.685699701309204,7.041833877563477,0.5778898000717163,0.5323418378829956,-0.5735485553741455,-0.12152007967233658,37.670230865478516,-21.044723510742188,-15.361710548400879,-1.0889486074447632,-0.03000020980834961,-0.6504241228103638,-1.596751093864441,7.071834087371826,1.22831392288208
8_20251106_181437,1762424043119,8,0.616111159324646,0.5820497870445251,0.41053685545921326,0.3362805247306824,0.8887436985969543,1.7415804862976074,-0.3019047975540161,-2.986159086227417,7.120839595794678,-0.364188015460968,0.5237897634506226,-0.6786172389984131,-0.023781727999448776,37.52834701538086,-21.048324584960938,-15.962311744689941,-1.1115264892578125,0.03920412063598633,-1.2740015983581543,-1.8746325969696045,7.081635475158691,0.9098135828971863
8_20251106_181437,1762424043137,8,0.6162772178649902,0.587020218372345,0.40837517380714417,0.329908162355423,0.8887436985969543,1.7415804862976074,-0.3019047975540161,-2.986159086227417,7.120839595794678,-0.364188015460968,0.3820691704750061,-0.81545090675354,0.12832358479499817,37.420188903808594,-21.11138153076172,-16.65737533569336,-1.1115264892578125,0.03920412063598633,-1.2740015983581543,-1.8746325969696045,7.081635475158691,0.9098135828971863
8_20251106_181437,1762424043157,8,0.6172134876251221,0.5923407673835754,0.40405574440956116,0.3239118754863739,0.766887366771698,1.6900678873062134,-0.35078924894332886,-3.206416130065918,7.490727424621582,-0.7699877619743347,0.24034854769706726,-0.8099532127380371,0.27432024478912354,37.2223014831543,-21.255615234375,-17.33042335510254,-0.8630671501159668,0.29782581329345703,-1.1195073127746582,-2.343348979949951,7.192901611328125,0.3495195508003235
8_20251106_181437,1762424043176,8,0.6183316111564636,0.597204864025116,0.3986794352531433,0.319479376077652,0.7101759910583496,1.6693525314331055,-0.37673714756965637,-3.1214256286621094,7.761260986328125,-0.7640025615692139,0.019826378673315048,-0.6822824478149414,0.3573978543281555,36.952720642089844,-21.367889404296875,-17.911006927490234,-0.6224613189697266,0.45468711853027344,-0.8908177018165588,-2.498964309692383,7.306573867797852,0.12681514024734497
8_20251106_181437,1762424043195,8,0.6199835538864136,0.6007989048957825,0.39275068044662476,0.31687214970588684,0.6522266268730164,1.650575876235962,-0.4034769535064697,-2.892789363861084,8.034188270568848,-0.1355515867471695,-0.25384101271629333,-0.5130729079246521,0.3897736966609955,36.59441375732422,-21.548370361328125,-18.50986099243164,-0.3150601387023926,0.5820913314819336,-0.2098933756351471,-2.5777292251586914,7.452096939086914,0.0743417963385582
8_20251106_181437,1762424043214,8,0.6223957538604736,0.6023099422454834,0.386858731508255,0.31652262806892395,0.593985378742218,1.6341146230697632,-0.42920270562171936,-2.673729419708252,8.213746070861816,0.4079088270664215,-0.25384101271629333,-0.5130729079246521,0.3897736966609955,36.39264678955078,-19.54644012451172,-18.64906883239746,-0.07680010795593262,0.6093196868896484,0.2668536305427551,-2.5969293117523193,7.604426383972168,0.14105519652366638
8_20251106_181437,1762424043232,8,0.6245583295822144,0.6033007502555847,0.38178375363349915,0.31653788685798645,0.543997049331665,1.6223719120025635,-0.4511837065219879,-2.674926280975342,8.551313400268555,0.1469520628452301,-0.1218942329287529,-0.34203076362609863,0.2504965364933014,36.091941833496094,-19.78546905517578,-19.273822784423828,-0.06239748001098633,0.7575092315673828,0.00471748411655426,-2.6125288009643555,7.793804168701172,0.14223457872867584
8_20251106_181437,1762424043252,8,0.626074492931366,0.6043645143508911,0.37798988819122314,0.31606635451316833,0.49127116799354553,1.6132148504257202,-0.47474998235702515,-2.5995121002197266,8.858955383300781,0.022458922117948532,-0.2043609768152237,-0.2302425652742386,0.16741891205310822,35.87666320800781,-19.995567321777344,-19.718904495239258,0.010413408279418945,0.8521213531494141,-0.09582053124904633,-2.6099255084991455,8.006834030151367,0.11827944964170456
8_20251106_181437,1762424043271,8,0.6279209852218628,0.6044048070907593,0.3749975860118866,0.31589066982269287,0.4440857470035553,1.6079256534576416,-0.4952370822429657,-2.464245319366455,9.091182708740234,0.40312063694000244,-0.2043609768152237,-0.2302425652742386,0.16741891205310822,35.539520263671875,-20.21361541748047,-20.16888999938965,0.11654424667358398,0.8674783706665039,0.22787295281887054,-2.580789566040039,8.22370433807373,0.1752476841211319
8_20251106_181437,1762424043289,8,0.6304255723953247,0.6024587750434875,0.3731120228767395,0.31685084104537964,0.40200018882751465,1.6053279638290405,-0.5126044154167175,-2.4259400367736816,9.101957321166992,0.6102101802825928,-0.45298290252685547,0.06297251582145691,-0.04271853342652321,35.216896057128906,-20.381309509277344,-20.54974937438965,0.12387967109680176,0.7026023864746094,0.34797000885009766,-2.5498197078704834,8.399354934692383,0.2622401714324951
8_20251106_181437,1762424043311,8,0.6332205533981323,0.5992928743362427,0.3723832666873932,0.3181360065937042,0.3549601137638092,1.6050002574920654,-0.5311684012413025,-2.667743682861328,9.160612106323242,0.46656423807144165,-0.3912855386734009,0.10206785798072815,-0.13251566886901855,34.981483459472656,-20.50604248046875,-20.899349212646484,-0.09433937072753906,0.6090059280395508,0.16345924139022827,-2.573404312133789,8.551606178283691,0.3031049966812134
8_20251106_181437,1762424043328,8,0.6358014345169067,0.5960375666618347,0.37256166338920593,0.31889423727989197,0.3549601137638092,1.6050002574920654,-0.5311684012413025,-2.667743682861328,9.160612106323242,0.46656423807144165,-0.4199962019920349,0.11123082786798477,-0.11296797543764114,34.774383544921875,-20.55425262451172,-21.20583724975586,-0.09433937072753906,0.6090059280395508,0.16345924139022827,-2.573404312133789,8.551606178283691,0.3031049966812134
8_20251106_181437,1762424043348,8,0.6384401321411133,0.5926703810691833,0.3726138174533844,0.319835901260376,0.2724498212337494,1.611548662185669,-0.5600154995918274,-3.109455108642578,9.633445739746094,0.8568023443222046,-0.45298290252685547,0.11245255917310715,-0.0329446978867054,34.62981414794922,-20.573104858398438,-21.536376953125,-0.3591606616973877,0.7276182174682617,0.41354840993881226,-2.7502944469451904,8.905827522277832,0.44325393438339233
8_20251106_181437,1762424043366,8,0.6410247087478638,0.5893614292144775,0.37215253710746765,0.32131442427635193,0.2724498212337494,1.611548662185669,-0.5600154995918274,-3.109455108642578,9.633445739746094,0.8568023443222046,-0.4144984185695648,0.23096029460430145,0.03058522939682007,34.52685546875,-20.48992919921875,-21.782236099243164,-0.3591606616973877,0.7276182174682617,0.41354840993881226,-2.7502944469451904,8.905827522277832,0.44325393438339233
8_20251106_181437,1762424043385,8,0.642835795879364,0.5861096382141113,0.37211889028549194,0.3236744701862335,0.23488223552703857,1.618401050567627,-0.5703399181365967,-3.1046669483184814,10.058399200439453,1.1153650283813477,-0.37784653902053833,0.4453738331794739,0.0800652727484703,34.462791442871094,-20.34320068359375,-21.863109588623047,-0.28349804878234863,0.92205810546875,0.5376889109611511,-2.821168899536133,9.136341094970703,0.5776761174201965
8_20251106_181437,1762424043404,8,0.6435255408287048,0.5825458765029907,0.3732264041900635,0.32744041085243225,0.19726666808128357,1.6280550956726074,-0.5795823335647583,-2.8006162643432617,10.150571823120117,0.9824924468994141,-0.3589097261428833,0.5449447631835938,0.1216040775179863,34.376747131347656,-20.171600341796875,-22.07959747314453,0.016442060470581055,0.8113842010498047,0.323853075504303,-2.8170583248138428,9.339187622070312,0.6586393713951111
8_20251106_181437,1762424043423,8,0.6435574889183044,0.5789826512336731,0.3747249245643616,0.3319549262523651,0.13325825333595276,1.6495028734207153,-0.5967090129852295,-2.075204372406006,9.759136199951172,0.5527517795562744,-0.38639864325523376,0.5260080099105835,0.1942969560623169,34.36454772949219,-19.97106170654297,-22.198001861572266,0.5236263275146484,0.23467445373535156,-0.07849365472793579,-2.5988306999206543,9.52446174621582,0.6312454342842102
8_20251106_181437,1762424043442,8,0.6434973478317261,0.5756887793540955,0.37553003430366516,0.3368542492389679,0.10480386763811111,1.6615052223205566,-0.605201244354248,-1.7256660461425781,9.813003540039062,0.6987918615341187,-0.40289199352264404,0.5125689506530762,0.25843775272369385,34.41943359375,-19.855140686035156,-22.1666316986084,0.6985316276550293,0.2308340072631836,0.05403715372085571,-2.4241976737976074,9.582169532775879,0.6447547078132629
8_20251106_181437,1762424043462,8,0.6432993412017822,0.5725738406181335,0.3758275508880615,0.34216782450675964,0.0813695415854454,1.6742569208145142,-0.6126169562339783,-1.240861177444458,10.026079177856445,0.8591964840888977,-0.43282437324523926,0.555329442024231,0.2767637073993683,34.58421325683594,-19.720191955566406,-22.063003540039062,0.9466691017150879,0.35512733459472656,0.17155343294143677,-2.187530279159546,9.670951843261719,0.6876430511474609
8_20251106_181437,1762424043481,8,0.6429519653320312,0.5691282153129578,0.3762211203575134,0.34808552265167236,0.06426240503787994,1.6870911121368408,-0.6184218525886536,-0.714159369468689,10.154163360595703,1.0112216472625732,-0.4871913194656372,0.6176376938819885,0.2291162610054016,34.67304992675781,-19.640235900878906,-21.96337127685547,1.1786967515945435,0.3865690231323242,0.25886285305023193,-1.8928561210632324,9.767594337463379,0.7523587942123413
8_20251106_181437,1762424043500,8,0.6427165865898132,0.5649142861366272,0.3770716190338135,0.3544068932533264,0.052535198628902435,1.7009649276733398,-0.6219782829284668,-0.2437189817428589,10.38040542602539,1.4661004543304443,-0.5568299293518066,0.6310766935348511,0.11183023452758789,34.67304992675781,-19.640235900878906,-21.96337127685547,1.3193098306655884,0.4902486801147461,0.5709933042526245,-1.5630288124084473,9.890156745910645,0.8951071500778198
8_20251106_181437,1762424043519,8,0.6431521773338318,0.5598387718200684,0.37826159596443176,0.3603525757789612,0.052535198628902435,1.7009649276733398,-0.6219782829284668,-0.2437189817428589,10.38040542602539,1.4661004543304443,-0.5256758332252502,0.5913704633712769,-0.0787595584988594,34.77318572998047,-19.560691833496094,-21.74160385131836,1.3193098306655884,0.4902486801147461,0.5709933042526245,-1.5630288124084473,9.890156745910645,0.8951071500778198
8_20251106_181437,1762424043539,8,0.6441606879234314,0.5543371438980103,0.38024699687957764,0.36493778228759766,0.04552466422319412,1.7168421745300293,-0.6227654218673706,-0.011491432785987854,10.549189567565918,1.8060624599456787,-0.36135318875312805,0.47774964570999146,-0.2601863741874695,34.93406677246094,-19.465835571289062,-21.39547348022461,1.2412298917770386,0.527226448059082,0.7287642955780029,-1.2527213096618652,10.021963119506836,1.0772981643676758
8_20251106_181437,1762424043558,8,0.6452544927597046,0.5494757294654846,0.3830849528312683,0.3673812448978424,0.0406060554087162,1.747341513633728,-0.6211614012718201,-0.4400351047515869,10.354070663452148,1.3021047115325928,-0.2190217226743698,0.30792927742004395,-0.3463183045387268,35.11891174316406,-19.381546020507812,-21.089176177978516,0.47721701860427856,0.21082496643066406,0.10078239440917969,-0.9172521233558655,10.143245697021484,1.201322317123413
8_20251106_181437,1762424043576,8,0.6465216279029846,0.5458301901817322,0.38579267263412476,0.3677543103694916,0.039707839488983154,1.7612252235412598,-0.6207430958747864,-0.7129623293876648,10.21521282196045,1.0207980871200562,-0.167709082365036,0.2596709728240967,-0.39030057191848755,35.34193420410156,-19.25787353515625,-20.71303367614746,0.1634318232536316,0.05757427215576172,-0.14441931247711182,-0.8763941526412964,10.157638549804688,1.165217399597168
8_20251106_181437,1762424043595,8,0.6477469801902771,0.5424555540084839,0.38875943422317505,0.36746686697006226,0.03848372772336006,1.7748981714248657,-0.6214128136634827,-0.9942690134048462,10.066778182983398,0.7682207226753235,-0.1573243886232376,0.3012097477912903,-0.4342828392982483,35.57875061035156,-19.10802459716797,-20.362903594970703,-0.09429991245269775,-0.07268810272216797,-0.31759732961654663,-0.8999691009521484,10.139466285705566,1.0858180522918701
8_20251106_181437,1762424043614,8,0.6489818692207336,0.5389572978019714,0.3921458125114441,0.3668367564678192,0.03631986305117607,1.7876421213150024,-0.624102771282196,-1.2648022174835205,10.050020217895508,0.3372829258441925,-0.17626118659973145,0.3830656409263611,-0.47154557704925537,35.786155700683594,-18.834854125976562,-20.025123596191406,-0.2918665409088135,-0.07155704498291016,-0.5988280773162842,-0.972935676574707,10.121577262878418,0.9361110329627991
8_20251106_181437,1762424043635,8,0.6501135230064392,0.5349370241165161,0.3961874544620514,0.36637455224990845,0.03258094936609268,1.799851894378662,-0.6290898323059082,-1.4910444021224976,9.945877075195312,0.18046945333480835,-0.2141348123550415,0.43193483352661133,-0.4745998978614807,35.96143341064453,-18.48845672607422,-19.714263916015625,-0.41448700428009033,-0.14056015014648438,-0.6045132875442505,-1.0765573978424072,10.086437225341797,0.7849827408790588
8_20251106_181437,1762424043653,8,0.6511896252632141,0.5305318832397461,0.40047621726989746,0.36620593070983887,0.02792140282690525,1.809706449508667,-0.6345475912094116,-1.6706018447875977,9.848915100097656,0.30017438530921936,-0.2294064164161682,0.4496498703956604,-0.4129025340080261,36.28203582763672,-18.145347595214844,-19.37074851989746,-0.47523558139801025,-0.1900177001953125,-0.3878466784954071,-1.1953662633895874,10.038932800292969,0.6880210638046265
8_20251106_181437,1762424043672,8,0.6520206332206726,0.5261965990066528,0.40453723073005676,0.3665185272693634,0.021278072148561478,1.8194798231124878,-0.6408980488777161,-1.7627745866775513,9.832157135009766,0.4940963685512543,-0.1933654099702835,0.4551476836204529,-0.30783382058143616,36.57062530517578,-17.717262268066406,-18.972793579101562,-0.453926682472229,-0.1654205322265625,-0.1551397740840912,-1.3088479042053223,9.997577667236328,0.6492361426353455
8_20251106_181437,1762424043692,8,0.6522749066352844,0.522415280342102,0.40823909640312195,0.36736977100372314,0.01403378788381815,1.8276034593582153,-0.6470648646354675,-1.7639716863632202,9.743574142456055,0.4905052185058594,-0.14938314259052277,0.4435412287712097,-0.21437153220176697,36.82073211669922,-17.328964233398438,-18.60413360595703,-0.36409902572631836,-0.2032032012939453,-0.12698471546173096,-1.3998726606369019,9.94677734375,0.6174899339675903
8_20251106_181437,1762424043710,8,0.6520175337791443,0.519245445728302,0.41156214475631714,0.36861085891723633,0.01403378788381815,1.8276034593582153,-0.6470648646354675,-1.7639716863632202,9.743574142456055,0.4905052185058594,-0.16526561975479126,0.4032241702079773,-0.13251565396785736,37.09662628173828,-16.913963317871094,-18.233964920043945,-0.36409902572631836,-0.2032032012939453,-0.12698471546173096,-1.3998726606369019,9.94677734375,0.6174899339675903
8_20251106_181437,1762424043730,8,0.6516664028167725,0.5164045095443726,0.4141988456249237,0.3702656030654907,-0.0022535952739417553,1.8408112525939941,-0.6583676934242249,-1.752001166343689,9.6717529296875,0.8364524841308594,-0.16526561975479126,0.4032241702079773,-0.13251565396785736,37.348243713378906,-16.50041961669922,-17.878292083740234,-0.23532164096832275,-0.1744832992553711,0.17786705493927002,-1.5166795253753662,9.846236228942871,0.6585854291915894
8_20251106_181437,1762424043750,8,0.6513221263885498,0.5136595964431763,0.4160691797733307,0.3725852072238922,-0.010877326130867004,1.8464220762252808,-0.6622008681297302,-1.6765871047973633,9.736392974853516,1.0543155670166016,-0.2446780502796173,0.4331565499305725,0.07090230286121368,37.560386657714844,-16.139617919921875,-17.511632919311523,-0.12792611122131348,-0.0878744125366211,0.31658411026000977,-1.5486609935760498,9.824267387390137,0.7377314567565918
8_20251106_181437,1762424043768,8,0.6505441665649414,0.5109715461730957,0.41754940152168274,0.375969260931015,-0.017622385174036026,1.851232886314392,-0.6638644933700562,-1.2935311794281006,9.82976245880127,1.393080472946167,-0.2868276834487915,0.45270419120788574,0.18452313542366028,37.7677001953125,-15.866584777832031,-17.160335540771484,0.20410382747650146,0.004395484924316406,0.5242792367935181,-1.497635006904602,9.825366973876953,0.8688012361526489
8_20251106_181437,1762424043786,8,0.6494786143302917,0.5083630681037903,0.4184194803237915,0.3803546726703644,-0.022569630295038223,1.8560467958450317,-0.6635762453079224,-0.9044902324676514,9.92432975769043,1.6277021169662476,-0.2868276834487915,0.45270419120788574,0.18452313542366028,37.90882873535156,-15.697433471679688,-16.86766815185547,0.4745159149169922,0.07917022705078125,0.6071207523345947,-1.3790061473846436,9.845159530639648,1.0205813646316528
8_20251106_181437,1762424043805,8,0.6484583616256714,0.5060516595840454,0.4185846447944641,0.38496801257133484,-0.025936439633369446,1.861130714416504,-0.6607577204704285,-0.7979528307914734,9.93869400024414,1.94252610206604,-0.209247887134552,0.2810512185096741,0.17230582237243652,38.013816833496094,-15.518516540527344,-16.53565788269043,0.4648427367210388,0.07482719421386719,0.7375558614730835,-1.2627955675125122,9.863866806030273,1.2049702405929565
8_20251106_181437,1762424043825,8,0.647681474685669,0.5044454336166382,0.41861119866371155,0.3883402645587921,-0.025936439633369446,1.861130714416504,-0.6607577204704285,-0.7979528307914734,9.93869400024414,1.94252610206604,-0.09562704712152481,0.24989710748195648,0.06418278813362122,38.125152587890625,-15.439529418945312,-16.178237915039062,0.4648427367210388,0.07482719421386719,0.7375558614730835,-1.2627955675125122,9.863866806030273,1.2049702405929565
8_20251106_181437,1762424043844,8,0.6468607783317566,0.5031356811523438,0.41939541697502136,0.39055484533309937,-0.03024030476808548,1.8702374696731567,-0.6501214504241943,-1.0696830749511719,9.706466674804688,1.7162837982177734,-0.06569468230009079,0.2578383684158325,-0.02622518688440323,38.16093444824219,-15.426612854003906,-15.97375774383545,0.10769522190093994,-0.12046337127685547,0.2942979335784912,-1.1773782968521118,9.826930046081543,1.4219858646392822
8_20251106_181437,1762424043863,8,0.6461722254753113,0.5015562176704407,0.42084699869155884,0.39216145873069763,-0.03024030476808548,1.8702374696731567,-0.6501214504241943,-1.0696830749511719,9.706466674804688,1.7162837982177734,-0.13350066542625427,0.29754456877708435,-0.09280944615602493,38.233482360839844,-15.399429321289062,-15.69996166229248,0.10769522190093994,-0.12046337127685547,0.2942979335784912,-1.1773782968521118,9.826930046081543,1.4219858646392822
8_20251106_181437,1762424043883,8,0.6459412574768066,0.4992305338382721,0.42255401611328125,0.39367103576660156,-0.03403884172439575,1.8757776021957397,-0.6390645503997803,-1.2971223592758179,9.475435256958008,1.4110361337661743,-0.22146518528461456,0.3476354777812958,-0.17466533184051514,38.30401611328125,-15.409782409667969,-15.440473556518555,-0.09617197513580322,-0.2410449981689453,-0.022521615028381348,-1.2009503841400146,9.716480255126953,1.4335577487945557
8_20251106_181437,1762424043903,8,0.6461970806121826,0.49585196375846863,0.4246691167354584,0.3952421247959137,-0.03403884172439575,1.8757776021957397,-0.6390645503997803,-1.2971223592758179,9.475435256958008,1.4110361337661743,-0.22146518528461456,0.3476354777812958,-0.17466533184051514,38.30401611328125,-15.409782409667969,-15.440473556518555,-0.09617197513580322,-0.2410449981689453,-0.022521615028381348,-1.2009503841400146,9.716480255126953,1.4335577487945557
8_20251106_181437,1762424043921,8,0.6468228697776794,0.4915928542613983,0.4271288812160492,0.39688482880592346,-0.040039025247097015,1.8770320415496826,-0.629903256893158,-1.6299021244049072,9.242011070251465,1.3727306127548218,-0.33508601784706116,0.3665722906589508,-0.22475624084472656,38.41502380371094,-15.35443115234375,-15.232259750366211,-0.30249226093292236,-0.3277931213378906,-0.03816330432891846,-1.3274098634719849,9.569804191589355,1.4108939170837402
8_20251106_181437,1762424043940,8,0.6477261185646057,0.48726481199264526,0.4291495680809021,0.39856553077697754,-0.04466897249221802,1.876128911972046,-0.6257732510566711,-1.823824167251587,9.226449966430664,1.3978686332702637,-0.3173709511756897,0.26028183102607727,-0.15389592945575714,38.504486083984375,-15.250434875488281,-15.023971557617188,-0.39713144302368164,-0.27468299865722656,-0.01042020320892334,-1.4266927242279053,9.50113296508789,1.408288836479187
8_20251106_181437,1762424043960,8,0.6486940383911133,0.4836975336074829,0.4302855134010315,0.40010887384414673,-0.0502883642911911,1.8749048709869385,-0.6216320395469666,-1.8717061281204224,9.36770248413086,1.487647294998169,-0.2966015338897705,0.17414990067481995,-0.046994585543870926,38.57148742675781,-15.110626220703125,-14.788839340209961,-0.3560107946395874,-0.10674476623535156,0.06348669528961182,-1.515695333480835,9.474447250366211,1.4241605997085571
8_20251106_181437,1762424043979,8,0.6495249271392822,0.4810139238834381,0.4304823577404022,0.40178096294403076,-0.056615207344293594,1.873698353767395,-0.6166864633560181,-1.7484099864959717,9.480224609375,1.6887515783309937,-0.2966015338897705,0.17414990067481995,-0.046994585543870926,38.65077209472656,-14.969886779785156,-14.566732406616211,-0.1861717700958252,0.0046215057373046875,0.21167278289794922,-1.5622382164001465,9.475603103637695,1.4770787954330444
8_20251106_181437,1762424043998,8,0.6502122282981873,0.4790329337120056,0.42989614605903625,0.40365925431251526,-0.062284212559461594,1.873226523399353,-0.6109263896942139,-1.547305703163147,9.700481414794922,1.949708342552185,-0.281940758228302,0.10023526847362518,0.04341339319944382,38.74354553222656,-14.814987182617188,-14.424969673156738,0.011945962905883789,0.1799030303955078,0.3781036138534546,-1.5592516660690308,9.520578384399414,1.5716047286987305
8_20251106_181437,1762424044016,8,0.6508509516716003,0.47763195633888245,0.4288235902786255,0.40542706847190857,-0.06716825813055038,1.8735307455062866,-0.6047582030296326,-1.4706945419311523,9.816595077514648,1.9712553024291992,-0.23001728951931,0.050755225121974945,0.05868500843644142,38.92212677001953,-14.642242431640625,-14.252476692199707,0.07084572315216064,0.23681354522705078,0.3197205066680908,-1.541540265083313,9.579781532287598,1.6515347957611084
8_20251106_181437,1762424044036,8,0.651405394077301,0.47617337107658386,0.4280151426792145,0.40710315108299255,-0.07201365381479263,1.8747063875198364,-0.5968605279922485,-1.4395713806152344,9.860886573791504,2.1077189445495605,-0.26422572135925293,0.08618538081645966,0.018367938697338104,38.9913330078125,-14.476242065429688,-14.124946594238281,0.08157515525817871,0.224884033203125,0.3649473190307617,-1.521146535873413,9.636002540588379,1.7427716255187988
8_20251106_181437,1762424044054,8,0.6521205902099609,0.47422805428504944,0.42745235562324524,0.40881654620170593,-0.07201365381479263,1.8747063875198364,-0.5968605279922485,-1.4395713806152344,9.860886573791504,2.1077189445495605,-0.3265339136123657,0.14360666275024414,-0.0109535688534379,39.03474426269531,-14.348556518554688,-14.093803405761719,0.08157515525817871,0.224884033203125,0.3649473190307617,-1.521146535873413,9.636002540588379,1.7427716255187988
8_20251106_181437,1762424044074,8,0.6530013680458069,0.47154682874679565,0.42711150646209717,0.4108632206916809,-0.07887040078639984,1.8800034523010254,-0.5786390900611877,-1.2205111980438232,10.1194486618042,2.4680309295654297,-0.3265339136123657,0.14360666275024414,-0.0109535688534379,39.15269470214844,-14.179374694824219,-13.964311599731445,0.2123255729675293,0.32338714599609375,0.5024714469909668,-1.4328367710113525,9.796061515808105,1.965559482574463
8_20251106_181437,1762424044092,8,0.654071569442749,0.46875324845314026,0.4268735945224762,0.41260114312171936,-0.08114761114120483,1.8836194276809692,-0.5686200261116028,-1.273181438446045,10.113463401794434,2.4668338298797607,-0.23246073722839355,0.10878737270832062,-0.09952894598245621,39.190467834472656,-14.152145385742188,-13.935279846191406,0.127724289894104,0.2539215087890625,0.4010193347930908,-1.400905728340149,9.859541893005371,2.06581449508667
8_20251106_181437,1762424044113,8,0.6549792289733887,0.4664035141468048,0.42703792452812195,0.4136526882648468,-0.08114761114120483,1.8836194276809692,-0.5686200261116028,-1.273181438446045,10.113463401794434,2.4668338298797607,-0.1316680759191513,0.04647916927933693,-0.1257961541414261,39.241943359375,-14.087265014648438,-13.823867797851562,0.127724289894104,0.2539215087890625,0.4010193347930908,-1.400905728340149,9.859541893005371,2.06581449508667
8_20251106_181437,1762424044131,8,0.6558207273483276,0.4648522436618805,0.42729905247688293,0.41379591822624207,-0.08700278401374817,1.8910835981369019,-0.5472173690795898,-1.7807304859161377,9.771106719970703,1.99759042263031,-0.1316680759191513,0.04647916927933693,-0.1257961541414261,39.28273010253906,-14.009544372558594,-13.820813179016113,-0.29211902618408203,-0.08092308044433594,-0.09173691272735596,-1.4886114597320557,9.852029800415039,2.089327335357666
8_20251106_181437,1762424044150,8,0.6564932465553284,0.46415838599205017,0.42717429995536804,0.4136371910572052,-0.09138356894254684,1.8938933610916138,-0.5386962890625,-1.947120189666748,9.702876091003418,1.7450129985809326,-0.019268963485956192,-0.09890663623809814,0.02325485460460186,39.32391357421875,-13.931282043457031,-13.87182331085205,-0.3668069839477539,-0.1193227767944336,-0.2754514217376709,-1.5803132057189941,9.822198867797852,2.0204644203186035
8_20251106_181437,1762424044170,8,0.6568445563316345,0.46449950337409973,0.42642274498939514,0.413472056388855,-0.0964718759059906,1.8967697620391846,-0.5310235023498535,-1.813050627708435,9.844127655029297,1.7414218187332153,-0.018658097833395004,-0.13372592628002167,0.11854975670576096,39.279296875,-13.8592529296875,-13.858684539794922,-0.18618988990783691,0.01754283905029297,-0.22323405742645264,-1.6268607378005981,9.826584815979004,1.964655876159668
8_20251106_181437,1762424044189,8,0.6569688320159912,0.4654063880443573,0.4250619113445282,0.4136558771133423,-0.10109540820121765,1.899830937385559,-0.5240412950515747,-1.6382815837860107,9.996152877807617,1.9856197834014893,-0.018658097833395004,-0.13372592628002167,0.11854975670576096,39.258140563964844,-13.810073852539062,-13.912674903869629,-0.009136676788330078,0.13565444946289062,0.01677107810974121,-1.6291449069976807,9.860498428344727,1.968848705291748
8_20251106_181437,1762424044207,8,0.6571998596191406,0.46665358543395996,0.4230899214744568,0.41390538215637207,-0.10532034933567047,1.9026341438293457,-0.5172237753868103,-1.6550402641296387,9.88003921508789,2.1855273246765137,0.02532416209578514,-0.2546771168708801,0.16008853912353516,39.18895721435547,-13.739906311035156,-13.87348461151123,-0.020716190338134766,0.01563262939453125,0.17334294319152832,-1.634324073791504,9.86440658569336,2.0121843814849854
8_20251106_181437,1762424044227,8,0.6574441194534302,0.4684877395629883,0.4208942949771881,0.4136839807033539,-0.10532034933567047,1.9026341438293457,-0.5172237753868103,-1.6550402641296387,9.88003921508789,2.1855273246765137,0.02532416209578514,-0.2546771168708801,0.16008853912353516,39.078765869140625,-13.770957946777344,-14.000073432922363,-0.020716190338134766,0.01563262939453125,0.17334294319152832,-1.634324073791504,9.86440658569336,2.0121843814849854
8_20251106_181437,1762424044246,8,0.6574825644493103,0.4705831706523895,0.4189634919166565,0.41320428252220154,-0.11416095495223999,1.9068896770477295,-0.5038400292396545,-1.7962919473648071,9.650205612182617,1.9616789817810059,0.11145608127117157,-0.24734677374362946,0.13565395772457123,39.00312805175781,-13.825546264648438,-14.044620513916016,-0.11610877513885498,-0.15106964111328125,-0.05396604537963867,-1.6801831722259521,9.801275253295898,2.0156450271606445
8_20251106_181437,1762424044264,8,0.6575170159339905,0.4726656973361969,0.4173363745212555,0.41241827607154846,-0.11940038204193115,1.90812087059021,-0.4982872009277344,-1.8896617889404297,9.59154987335205,1.676781177520752,0.11145608127117157,-0.24734677374362946,0.13565395772457123,38.902793884277344,-13.905357360839844,-14.23935604095459,-0.16758286952972412,-0.16777992248535156,-0.271091103553772,-1.7220789194107056,9.759329795837402,1.947872281074524
8_20251106_181437,1762424044283,8,0.6575331091880798,0.47479769587516785,0.41594627499580383,0.4113466143608093,-0.12451649457216263,1.9094417095184326,-0.49463698267936707,-1.863326907157898,9.835747718811035,1.4517358541488647,0.09740620106458664,-0.2699487805366516,0.13321051001548767,38.811134338378906,-14.035545349121094,-14.340042114257812,-0.112998366355896,0.06113433837890625,-0.39690911769866943,-1.750328540802002,9.774613380432129,1.8486449718475342
8_20251106_181437,1762424044304,8,0.6577145457267761,0.4771784842014313,0.4144710302352905,0.4097878336906433,-0.12942662835121155,1.9116653203964233,-0.491687536239624,-1.6825722455978394,10.07156753540039,1.6181256771087646,0.004554762504994869,-0.24307072162628174,0.11427370458841324,38.684226989746094,-14.143135070800781,-14.428155899047852,0.05420506000518799,0.2375631332397461,-0.18441545963287354,-1.7367773056030273,9.834004402160645,1.8025411367416382
8_20251106_181437,1762424044322,8,0.6580862998962402,0.47915127873420715,0.41298437118530273,0.40838757157325745,-0.12942662835121155,1.9116653203964233,-0.491687536239624,-1.6825722455978394,10.07156753540039,1.6181256771087646,-0.08829667419195175,-0.20764054358005524,0.05807414650917053,38.59245300292969,-14.285072326660156,-14.610203742980957,0.05420506000518799,0.2375631332397461,-0.18441545963287354,-1.7367773056030273,9.834004402160645,1.8025411367416382
8_20251106_181437,1762424044341,8,0.658875584602356,0.4801584482192993,0.41139835119247437,0.40753185749053955,-0.13504435122013092,1.9197521209716797,-0.48301059007644653,-1.2181172370910645,10.525248527526855,2.6116769313812256,-0.11334212869405746,-0.16610175371170044,-0.050048910081386566,38.59245300292969,-14.285072326660156,-14.610203742980957,0.3593308925628662,0.47591304779052734,0.5979056358337402,-1.5774481296539307,10.049335479736328,2.0137712955474854
8_20251106_181437,1762424044360,8,0.6600310206413269,0.48006895184516907,0.4100247025489807,0.40715184807777405,-0.13628271222114563,1.925604224205017,-0.4755226969718933,-1.2995165586471558,10.536022186279297,2.9241065979003906,-0.11334212869405746,-0.16610175371170044,-0.050048910081386566,38.46784210205078,-14.3663330078125,-14.819436073303223,0.222345232963562,0.38934898376464844,0.7282681465148926,-1.5218617916107178,10.146673202514648,2.195838451385498
8_20251106_181437,1762424044382,8,0.6614990830421448,0.47885406017303467,0.4094017446041107,0.4068266451358795,-0.1374346762895584,1.9320471286773682,-0.4645807147026062,-1.4647092819213867,10.148178100585938,2.9312891960144043,-0.03392971679568291,-0.030489785596728325,-0.30355775356292725,38.47667694091797,-14.451278686523438,-15.037054061889648,0.045722007751464844,0.0012035369873046875,0.5883605480194092,-1.5104312896728516,10.146974563598633,2.342928647994995
8_20251106_181437,1762424044400,8,0.6629460453987122,0.4774636924266815,0.41039031744003296,0.405105859041214,-0.13909882307052612,1.9358347654342651,-0.4555378556251526,-1.822627067565918,9.651402473449707,2.5614006519317627,-0.03392971679568291,-0.030489785596728325,-0.30355775356292725,38.39186096191406,-14.467781066894531,-15.202945709228516,-0.2497565746307373,-0.3964576721191406,0.17477774620056152,-1.5728704929351807,10.047860145568848,2.386622905731201
8_20251106_181437,1762424044419,8,0.6639425754547119,0.4767996072769165,0.4121634066104889,0.4024471640586853,-0.14231757819652557,1.9375576972961426,-0.4479345679283142,-2.2380032539367676,9.28630256652832,1.9856199026107788,0.25012239813804626,-0.04820486158132553,-0.32432717084884644,38.33765411376953,-14.36981201171875,-15.351964950561523,-0.5321062803268433,-0.6092462539672852,-0.32080233097076416,-1.7058969736099243,9.895548820495605,2.306422233581543
8_20251106_181437,1762424044436,8,0.6642672419548035,0.4771460294723511,0.41430357098579407,0.39929091930389404,-0.1471543312072754,1.937172532081604,-0.44255661964416504,-2.4283342361450195,9.074424743652344,1.5570762157440186,0.27761131525039673,-0.06225475296378136,-0.23575180768966675,38.329978942871094,-14.306472778320312,-15.486298561096191,-0.5779497623443604,-0.6568994522094727,-0.5994768142700195,-1.8503844738006592,9.731324195861816,2.156553030014038
8_20251106_181437,1762424044456,8,0.6645539402961731,0.47771555185317993,0.41646337509155273,0.39587143063545227,-0.1471543312072754,1.937172532081604,-0.44255661964416504,-2.4283342361450195,9.074424743652344,1.5570762157440186,0.2476789355278015,-0.07263945043087006,-0.10563760250806808,38.310218811035156,-14.243797302246094,-15.634638786315918,-0.5779497623443604,-0.6568994522094727,-0.5994768142700195,-1.8503844738006592,9.731324195861816,2.156553030014038
8_20251106_181437,1762424044475,8,0.6641674637794495,0.4791218042373657,0.41752058267593384,0.3937009572982788,-0.1612335741519928,1.9311394691467285,-0.438875675201416,-2.322993755340576,9.105547904968262,1.2015525102615356,0.2122487723827362,-0.07630463689565659,0.011037561111152172,38.34071350097656,-14.152694702148438,-15.794005393981934,-0.28676462173461914,-0.3941764831542969,-0.6270972490310669,-2.036229133605957,9.499724388122559,1.8286497592926025
8_20251106_181437,1762424044494,8,0.6634802222251892,0.48080551624298096,0.41791677474975586,0.3923845589160919,-0.1682109236717224,1.9271647930145264,-0.4400917589664459,-2.091963291168213,9.285104751586914,1.1704292297363281,0.1346689611673355,-0.04881572723388672,0.08617392182350159,38.324798583984375,-14.00360107421875,-15.791818618774414,-0.04458737373352051,-0.17169570922851562,-0.5265763998031616,-2.0473759174346924,9.45680046081543,1.6970056295394897
8_20251106_181437,1762424044514,8,0.6627535223960876,0.48223161697387695,0.41782671213150024,0.39195823669433594,-0.17424577474594116,1.9232100248336792,-0.44238629937171936,-1.831006407737732,9.391643524169922,1.2817548513412476,0.03937405347824097,-0.0030008722096681595,0.08983910828828812,38.35370635986328,-13.914649963378906,-15.734925270080566,0.17309558391571045,-0.05212593078613281,-0.33220064640045166,-2.0041019916534424,9.443769454956055,1.6139554977416992
8_20251106_181437,1762424044533,8,0.6622017025947571,0.4828910231590271,0.41767197847366333,0.3922439217567444,-0.179255872964859,1.9191659688949585,-0.4453377425670624,-1.6670106649398804,9.414386749267578,1.3978686332702637,-0.014992909505963326,0.04403571039438248,0.03669387847185135,38.323394775390625,-13.804153442382812,-15.720504760742188,0.26967310905456543,-0.02350616455078125,-0.17286944389343262,-1.9366837739944458,9.43789291381836,1.5707380771636963
8_20251106_181437,1762424044551,8,0.661915123462677,0.4828498363494873,0.41778984665870667,0.3926525115966797,-0.179255872964859,1.9191659688949585,-0.4453377425670624,-1.6670106649398804,9.414386749267578,1.3978686332702637,-0.035151444375514984,0.05258781462907791,-0.0109535688534379,38.336692810058594,-13.778648376464844,-15.678937911987305,0.26967310905456543,-0.02350616455078125,-0.17286944389343262,-1.9366837739944458,9.43789291381836,1.5707380771636963
8_20251106_181437,1762424044571,8,0.661878228187561,0.4824749827384949,0.4180542528629303,0.39289408922195435,-0.1829991489648819,1.915176272392273,-0.4484196901321411,-1.602370023727417,9.389248847961426,1.4792680740356445,-0.0137711800634861,-0.006666061468422413,-0.02927950769662857,38.349876403808594,-13.764892578125,-15.718731880187988,0.26745104789733887,-0.03891563415527344,-0.07317602634429932,-1.8698210716247559,9.4281644821167,1.5524441003799438
8_20251106_181437,1762424044590,8,0.6620460748672485,0.48237118124961853,0.41809895634651184,0.39269110560417175,-0.1878165304660797,1.907872200012207,-0.4540509581565857,-1.7136956453323364,9.366504669189453,1.5223617553710938,0.010663409717381,-0.07141771912574768,-0.02927950769662857,38.36488342285156,-13.7138671875,-15.717185974121094,0.08478951454162598,-0.03927040100097656,-0.01542210578918457,-1.7984851598739624,9.40577507019043,1.5377838611602783
8_20251106_181437,1762424044609,8,0.6623722314834595,0.4826672673225403,0.4178157448768616,0.3920782506465912,-0.189840629696846,1.9045681953430176,-0.4567236304283142,-1.753198266029358,9.487405776977539,1.5463027954101562,-0.025377608835697174,-0.08852192759513855,-0.024392589926719666,38.35481262207031,-13.676986694335938,-15.71688461303711,0.036229491233825684,0.06530475616455078,0.006815195083618164,-1.7894277572631836,9.422101020812988,1.539487600326538
8_20251106_181437,1762424044629,8,0.6629189252853394,0.4828004240989685,0.4172833263874054,0.3915569484233856,-0.19210757315158844,1.901841163635254,-0.458946168422699,-1.8693119287490845,9.611900329589844,1.6875545978546143,-0.0803554356098175,-0.1013500988483429,-0.015229620970785618,38.317962646484375,-13.679771423339844,-15.677806854248047,-0.06390726566314697,0.1518392562866211,0.1184535026550293,-1.8054046630859375,9.460061073303223,1.569101095199585
8_20251106_181437,1762424044647,8,0.6637160181999207,0.4826497733592987,0.416448712348938,0.391280859708786,-0.19440066814422607,1.9002724885940552,-0.46008607745170593,-1.9495142698287964,9.76991081237793,1.8778854608535767,-0.09318359196186066,-0.0909653902053833,0.001263725571334362,38.31884765625,-13.678558349609375,-15.799453735351562,-0.1152876615524292,0.2478799819946289,0.24702751636505127,-1.8342266082763672,9.5220308303833,1.6308579444885254
8_20251106_181437,1762424044667,8,0.6644729971885681,0.48240214586257935,0.41557663679122925,0.391228586435318,-0.1971861869096756,1.8996614217758179,-0.4602217674255371,-1.954302430152893,9.865674018859863,1.9820287227630615,-0.09501618891954422,-0.046372268348932266,0.0049289134331047535,38.32891082763672,-13.72705078125,-15.894632339477539,-0.09606063365936279,0.2749147415161133,0.280936598777771,-1.8582417964935303,9.59075927734375,1.7010921239852905
8_20251106_181437,1762424044685,8,0.6650941967964172,0.48198986053466797,0.4149238169193268,0.3913741707801819,-0.19958916306495667,1.900137186050415,-0.45922449231147766,-1.8669178485870361,9.996152877807617,2.1532068252563477,-0.09501618891954422,-0.046372268348932266,0.0049289134331047535,38.289520263671875,-13.791275024414062,-15.992037773132324,-0.0069408416748046875,0.32431507110595703,0.3616917133331299,-1.8599770069122314,9.67183780670166,1.7915151119232178
8_20251106_181437,1762424044703,8,0.6656511425971985,0.4812931418418884,0.4143948256969452,0.39184486865997314,-0.20170043408870697,1.9015055894851685,-0.4570179879665375,-1.7903066873550415,10.044034957885742,2.302838087081909,-0.1115095391869545,0.006162097677588463,-0.0005688685923814774,38.29271697998047,-13.752120971679688,-16.139925003051758,0.05573630332946777,0.2977581024169922,0.4090583324432373,-1.8460429906845093,9.74627685546875,1.8937797546386719
8_20251106_181437,1762424044723,8,0.6661850214004517,0.48055604100227356,0.41398465633392334,0.39227554202079773,-0.20354850590229034,1.903826117515564,-0.4530341625213623,-1.7208778858184814,10.03445816040039,2.4381046295166016,-0.08035542815923691,0.014714204706251621,-0.04210766777396202,38.269561767578125,-13.728866577148438,-16.113346099853516,0.10013210773468018,0.2305450439453125,0.43545985221862793,-1.8210099935531616,9.803913116455078,2.0026447772979736
8_20251106_181437,1762424044743,8,0.6667156219482422,0.4798238277435303,0.4138955771923065,0.39236438274383545,-0.20514169335365295,1.9064112901687622,-0.4477183222770691,-1.767562747001648,9.929118156433105,2.5063364505767822,-0.04675787687301636,0.02021198719739914,-0.0891442522406578,38.23429870605469,-13.717887878417969,-16.195650100708008,0.04275774955749512,0.10016441345214844,0.4029533863067627,-1.810320496559143,9.828953742980957,2.1033830642700195
8_20251106_181437,1762424044762,8,0.667169451713562,0.4789985418319702,0.4142611026763916,0.3922155797481537,-0.2066231667995453,1.9084608554840088,-0.4419465959072113,-1.8262181282043457,9.725619316101074,2.4584546089172363,0.005165627226233482,0.009216421283781528,-0.11602229624986649,38.12310791015625,-13.761894226074219,-16.281953811645508,-0.01271820068359375,-0.08266735076904297,0.2840571403503418,-1.813499927520752,9.808286666870117,2.1743974685668945
8_20251106_181437,1762424044780,8,0.6675969362258911,0.4784766733646393,0.4148044288158417,0.39155036211013794,-0.2066231667995453,1.9084608554840088,-0.4419465959072113,-1.8262181282043457,9.725619316101074,2.4584546089172363,0.06625209748744965,-0.026824595406651497,-0.11235711723566055,38.12310791015625,-13.761894226074219,-16.281953811645508,-0.01271820068359375,-0.08266735076904297,0.2840571403503418,-1.813499927520752,9.808286666870117,2.1743974685668945
8_20251106_181437,1762424044800,8,0.6678798198699951,0.4784839153289795,0.4153396785259247,0.3904902935028076,-0.2110353261232376,1.9097157716751099,-0.4309792220592499,-2.1099188327789307,9.354534149169922,2.069413423538208,0.06625209748744965,-0.026824595406651497,-0.11235711723566055,38.126930236816406,-13.698707580566406,-16.321182250976562,-0.20809483528137207,-0.3185558319091797,-0.10013246536254883,-1.9018239974975586,9.673089981079102,2.169545888900757
