session_id,timestamp,label,quaternion_w,quaternion_x,quaternion_y,quaternion_z,position_x,position_y,position_z,accelerometer_x,accelerometer_y,accelerometer_z,gyroscope_x,gyroscope_y,gyroscope_z,magnetometer_x,magnetometer_y,magnetometer_z,linear_acceleration_x,linear_acceleration_y,linear_acceleration_z,gravity_x,gravity_y,gravity_z
5_20251106_145651,1762412174415,5,0.17617373168468475,0.3810316324234009,0.744473397731781,0.5191696286201477,1.2326459884643555,1.879562497138977,-2.030050754547119,1.3459625244140625,9.026542663574219,-4.039130210876465,-0.019200241193175316,0.022918879985809326,-0.0385570153594017,20.445558547973633,-15.618240356445312,29.175983428955078,-0.02229595184326172,0.030999183654785156,-0.030502796173095703,1.3682584762573242,8.995543479919434,-4.008627414703369
5_20251106_145651,1762412174433,5,0.17616860568523407,0.38076260685920715,0.7445164322853088,0.5193069577217102,1.2326459884643555,1.879562497138977,-2.030050754547119,1.3459625244140625,9.026542663574219,-4.039130210876465,-0.03752618283033371,0.013755910098552704,-0.03244837373495102,20.44565773010254,-15.61810302734375,29.16246795654297,-0.02229595184326172,0.030999183654785156,-0.030502796173095703,1.3682584762573242,8.995543479919434,-4.008627414703369
5_20251106_145651,1762412174451,5,0.17627939581871033,0.380485475063324,0.7445593476295471,0.5194109678268433,1.232067584991455,1.8793047666549683,-2.0327341556549072,1.3639183044433594,8.958311080932617,-3.811690092086792,-0.04485655948519707,0.014366774819791317,-0.041000477969646454,20.479507446289062,-15.654205322265625,29.244243621826172,-0.0037353038787841797,-0.03321361541748047,0.15151309967041016,1.3676536083221436,8.991524696350098,-3.963203191757202
5_20251106_145651,1762412174472,5,0.17652253806591034,0.380288690328598,0.7444648742675781,0.5196079015731812,1.2316293716430664,1.8790054321289062,-2.0332510471343994,1.3232187032699585,8.954719543457031,-3.762611150741577,-0.04119136929512024,0.030249256640672684,-0.05810468643903732,20.481016159057617,-15.628952026367188,29.23125457763672,-0.035547852516174316,-0.029443740844726562,0.16047358512878418,1.3587665557861328,8.984163284301758,-3.9230847358703613
5_20251106_145651,1762412174490,5,0.17671221494674683,0.3798103332519531,0.7443938851356506,0.519994854927063,1.2309725284576416,1.8786033391952515,-2.033327102661133,1.244213342666626,8.924793243408203,-3.7745816707611084,-0.03691531717777252,0.04002309590578079,-0.05871555209159851,20.55211639404297,-15.661727905273438,29.219890594482422,-0.09164261817932129,-0.04749584197998047,0.11880230903625488,1.3358559608459473,8.972289085388184,-3.8933839797973633
5_20251106_145651,1762412174510,5,0.1768839955329895,0.37911659479141235,0.744361400604248,0.520488977432251,1.229949712753296,1.8779326677322388,-2.032893419265747,1.227454662322998,8.891275405883789,-3.7243056297302246,-0.028974076732993126,0.03819049894809723,-0.030615774914622307,20.540424346923828,-15.661849975585938,29.151817321777344,-0.08672106266021729,-0.06481075286865234,0.13526272773742676,1.3141757249832153,8.956086158752441,-3.8595683574676514
5_20251106_145651,1762412174528,5,0.1769719421863556,0.3784164488315582,0.7443727850914001,0.5209521055221558,1.2288215160369873,1.8773236274719238,-2.0321967601776123,1.2394251823425293,8.954719543457031,-3.748246669769287,-0.006982946768403053,0.03208185359835625,0.0005383249372243881,20.5532169342041,-15.648635864257812,29.166088104248047,-0.05980038642883301,-0.0010929107666015625,0.08905744552612305,1.2992255687713623,8.955812454223633,-3.83730411529541
5_20251106_145651,1762412174547,5,0.1769639253616333,0.37801751494407654,0.7443448901176453,0.5212842226028442,1.2288215160369873,1.8773236274719238,-2.0321967601776123,1.2394251823425293,8.954719543457031,-3.748246669769287,0.02722547948360443,0.02475147508084774,0.02985983155667782,20.50417709350586,-15.6522216796875,29.204673767089844,-0.05980038642883301,-0.0010929107666015625,0.08905744552612305,1.2992255687713623,8.955812454223633,-3.83730411529541
5_20251106_145651,1762412174566,5,0.17669251561164856,0.3777903914451599,0.7443543076515198,0.5215274095535278,1.2262885570526123,1.8764007091522217,-2.031201124191284,1.282518982887268,8.960704803466797,-3.998429775238037,0.05104920268058777,0.022918879985809326,0.07078776508569717,20.490877151489258,-15.677719116210938,29.163105010986328,-0.0016903877258300781,-0.0018482208251953125,-0.1305086612701416,1.2842093706130981,8.962553024291992,-3.8679211139678955
5_20251106_145651,1762412174587,5,0.17615026235580444,0.37781837582588196,0.7444618940353394,0.5215370059013367,1.2253555059432983,1.8759253025054932,-2.031580686569214,1.3830711841583252,8.954719543457031,-4.07743501663208,0.048605747520923615,-0.007013489492237568,0.11721348017454147,20.490074157714844,-15.690414428710938,29.17635726928711,0.07908952236175537,-0.006266593933105469,-0.16761112213134766,1.3039816617965698,8.960986137390137,-3.9098238945007324
5_20251106_145651,1762412174605,5,0.17551057040691376,0.3784750699996948,0.744438648223877,0.5213096141815186,1.2249765396118164,1.8758305311203003,-2.0320940017700195,1.4740467071533203,9.087591171264648,-3.986459255218506,0.04005363583564758,-0.03694585710763931,0.13859374821186066,20.40506935119629,-15.695571899414062,29.132373809814453,0.13605201244354248,0.10128402709960938,-0.06130838394165039,1.3379946947097778,8.986307144165039,-3.9251508712768555
5_20251106_145651,1762412174624,5,0.174900084733963,0.3797958791255951,0.7441973090171814,0.520898699760437,1.2251319885253906,1.8763623237609863,-2.0327494144439697,1.520731806755066,9.194129943847656,-3.9625184535980225,0.03638844937086105,-0.010067814029753208,0.11538089066743851,20.393192291259766,-15.684341430664062,29.18621063232422,0.14618957042694092,0.1662578582763672,-0.029894113540649414,1.374542236328125,9.027872085571289,-3.932624340057373
5_20251106_145651,1762412174643,5,0.17423409223556519,0.3811245560646057,0.7438602447509766,0.5206327438354492,1.2256405353546143,1.8773903846740723,-2.0337579250335693,1.5087612867355347,9.227646827697754,-4.084617614746094,0.025392886251211166,0.02536233887076378,0.07689641416072845,20.372034072875977,-15.635162353515625,29.132221221923828,0.10737526416778564,0.1598196029663086,-0.12159442901611328,1.401386022567749,9.067827224731445,-3.9630231857299805
5_20251106_145651,1762412174663,5,0.17348654568195343,0.38187646865844727,0.7435891628265381,0.5207186937332153,1.2263154983520508,1.8787622451782227,-2.034900188446045,1.4896084070205688,9.24919319152832,-4.058282852172852,0.005234347656369209,0.0345253124833107,0.0591813400387764,20.2608642578125,-15.65594482421875,29.235671997070312,0.07057785987854004,0.14509296417236328,-0.07620787620544434,1.4190305471420288,9.104100227355957,-3.9820749759674072
5_20251106_145651,1762412174680,5,0.17280089855194092,0.38230323791503906,0.7434104084968567,0.5208887457847595,1.2263154983520508,1.8787622451782227,-2.034900188446045,1.4896084070205688,9.24919319152832,-4.058282852172852,-0.020421970635652542,0.03757963329553604,0.05857047438621521,20.195098876953125,-15.7476806640625,29.217857360839844,0.07057785987854004,0.14509296417236328,-0.07620787620544434,1.4190305471420288,9.104100227355957,-3.9820749759674072
5_20251106_145651,1762412174700,5,0.1722865104675293,0.38267210125923157,0.7431821227073669,0.521113932132721,1.2274463176727295,1.880440354347229,-2.035722494125366,1.5566432476043701,9.179765701293945,-3.85598087310791,-0.02408715896308422,0.030860120430588722,0.05246182531118393,20.168203353881836,-15.799087524414062,29.175273895263672,0.11009013652801514,0.060532569885253906,0.1008753776550293,1.446553111076355,9.119233131408691,-3.9568562507629395
5_20251106_145651,1762412174719,5,0.17176282405853271,0.38279563188552856,0.742855966091156,0.5216608047485352,1.2312372922897339,1.8833818435668945,-2.0344457626342773,1.7290183305740356,9.113927841186523,-3.543550968170166,0.009510401636362076,0.023529743775725365,0.0487966388463974,20.14494514465332,-15.775970458984375,29.215370178222656,0.19169485569000244,-0.004161834716796875,0.2775394916534424,1.5373234748840332,9.11808967590332,-3.8210904598236084
5_20251106_145651,1762412174738,5,0.17124812304973602,0.3829635679721832,0.7424222826957703,0.5223238468170166,1.2342547178268433,1.8847296237945557,-2.032895088195801,1.882240653038025,9.116321563720703,-3.639315128326416,0.058379579335451126,0.01803196221590042,0.05795960873365402,20.132659912109375,-15.776901245117188,29.228397369384766,0.2759338617324829,-0.0014142990112304688,0.14542007446289062,1.606306791305542,9.117735862731934,-3.7847352027893066
5_20251106_145651,1762412174757,5,0.17054063081741333,0.38318490982055664,0.7420745491981506,0.5228867530822754,1.2342547178268433,1.8847296237945557,-2.032895088195801,1.882240653038025,9.116321563720703,-3.639315128326416,0.09747491776943207,-0.010678678750991821,0.07750727981328964,20.167722702026367,-15.78814697265625,29.33773422241211,0.2759338617324829,-0.0014142990112304688,0.14542007446289062,1.606306791305542,9.117735862731934,-3.7847352027893066
5_20251106_145651,1762412174777,5,0.16960300505161285,0.3837513327598572,0.7418079376220703,0.5231545567512512,1.244960069656372,1.887199878692627,-2.0308425426483154,2.4173219203948975,9.133079528808594,-3.986459255218506,0.10541616380214691,-0.035113267600536346,0.07262036204338074,20.167722702026367,-15.78814697265625,29.33773422241211,0.5640586614608765,0.016139984130859375,-0.14978861808776855,1.853263258934021,9.116939544677734,-3.8366706371307373
5_20251106_145651,1762412174796,5,0.16858835518360138,0.38507530093193054,0.741514265537262,0.5229259729385376,1.2525842189788818,1.8883177042007446,-2.0305123329162598,2.5262532234191895,9.109138488769531,-3.9601242542266846,0.06937514245510101,-0.012511273846030235,0.023751184344291687,20.142547607421875,-15.80242919921875,29.350006103515625,0.5383920669555664,-0.0062408447265625,-0.09876275062561035,1.987861156463623,9.115379333496094,-3.861361503601074
5_20251106_145651,1762412174814,5,0.16752682626247406,0.38664329051971436,0.7411440014839172,0.5226349234580994,1.2609573602676392,1.8887690305709839,-2.0302343368530273,2.6016674041748047,8.890079498291016,-3.8691484928131104,0.039442773908376694,0.03086012415587902,-0.004348592832684517,20.054834365844727,-15.8460693359375,29.386329650878906,0.4910449981689453,-0.18023967742919922,-0.0062296390533447266,2.1106224060058594,9.070319175720215,-3.8629188537597656
5_20251106_145651,1762412174835,5,0.16644443571567535,0.38787567615509033,0.7406838536262512,0.5227199792861938,1.2609573602676392,1.8887690305709839,-2.0302343368530273,2.6016674041748047,8.890079498291016,-3.8691484928131104,0.0443296916782856,-0.0009048442589119077,0.02985983155667782,20.05362319946289,-15.87091064453125,29.358768463134766,0.4910449981689453,-0.18023967742919922,-0.0062296390533447266,2.1106224060058594,9.070319175720215,-3.8629188537597656
5_20251106_145651,1762412174854,5,0.165227010846138,0.38908883929252625,0.7401001453399658,0.5230312943458557,1.2823824882507324,1.8866729736328125,-2.029057502746582,2.7644662857055664,8.714113235473633,-3.6752266883850098,0.06326650083065033,-0.08948022127151489,0.13431769609451294,20.029251098632812,-15.87249755859375,29.3577880859375,0.43876218795776367,-0.2250986099243164,0.1446385383605957,2.3257040977478027,8.93921184539795,-3.8198652267456055
5_20251106_145651,1762412174872,5,0.16404016315937042,0.3912535607814789,0.7392188310623169,0.5230363011360168,1.2948373556137085,1.8850960731506348,-2.0277836322784424,3.086472511291504,8.84578800201416,-3.636920928955078,0.09442059695720673,-0.17011436820030212,0.2338886559009552,20.016162872314453,-15.886123657226562,29.38406753540039,0.6086146831512451,-0.07473945617675781,0.14635539054870605,2.477857828140259,8.920527458190918,-3.783276319503784
5_20251106_145651,1762412174891,5,0.1628778874874115,0.39472678303718567,0.7377786636352539,0.5228232741355896,1.3094197511672974,1.883596658706665,-2.026766300201416,3.48030161857605,8.920005798339844,-3.8535869121551514,0.14390063285827637,-0.2330334484577179,0.29314252734184265,19.952116012573242,-15.940719604492188,29.42110824584961,0.801954984664917,-0.0004177093505859375,-0.05624842643737793,2.678346633911133,8.92042350769043,-3.7973384857177734
5_20251106_145651,1762412174910,5,0.1623125672340393,0.39801403880119324,0.7368694543838501,0.5217881202697754,1.3265111446380615,1.8822728395462036,-2.0262858867645264,3.8585691452026367,8.957113265991211,-3.9744887351989746,0.1475658118724823,-0.28617867827415466,0.30230551958084106,19.92411994934082,-16.005233764648438,29.432323455810547,0.9441781044006348,0.029352188110351562,-0.14172029495239258,2.914391040802002,8.92776107788086,-3.832768440246582
5_20251106_145651,1762412174930,5,0.16185276210308075,0.40189725160598755,0.7359086871147156,0.520308256149292,1.3466652631759644,1.881151556968689,-2.026526927947998,4.342177391052246,8.977462768554688,-4.087011337280273,0.1475658118724823,-0.28617867827415466,0.30230551958084106,19.911413192749023,-16.029922485351562,29.30965805053711,1.1422290802001953,0.03976154327392578,-0.20339441299438477,3.199948310852051,8.937701225280762,-3.8836169242858887
5_20251106_145651,1762412174948,5,0.16184988617897034,0.40607088804244995,0.7346449494361877,0.5188524127006531,1.3466652631759644,1.881151556968689,-2.026526927947998,4.342177391052246,8.977462768554688,-4.087011337280273,0.02417115494608879,-0.3808627128601074,0.2076214700937271,19.954914093017578,-16.126663208007812,29.255443572998047,1.1422290802001953,0.03976154327392578,-0.20339441299438477,3.199948310852051,8.937701225280762,-3.8836169242858887
5_20251106_145651,1762412174968,5,0.16256485879421234,0.410094678401947,0.7330961227416992,0.5176534652709961,1.3975529670715332,1.8806718587875366,-2.0291168689727783,4.91676139831543,9.163005828857422,-4.069056510925293,0.02417115494608879,-0.3808627128601074,0.2076214700937271,20.111217498779297,-16.154006958007812,29.261028289794922,1.1340014934539795,0.14859962463378906,-0.09876251220703125,3.78275990486145,9.014406204223633,-3.9702939987182617
5_20251106_145651,1762412174986,5,0.16443690657615662,0.413830041885376,0.7314773797988892,0.516377866268158,1.4237312078475952,1.8811683654785156,-2.0303165912628174,4.843740463256836,9.201312065124512,-3.9433655738830566,0.007677805610001087,-0.5219724774360657,-0.041000477969646454,20.278791427612305,-16.205001831054688,29.198993682861328,0.8487844467163086,0.14952468872070312,0.02154254913330078,3.9949560165405273,9.051787376403809,-3.9649081230163574
5_20251106_145651,1762412175005,5,0.1673961579799652,0.4170103669166565,0.7301779389381409,0.5147048234939575,1.4515554904937744,1.881899118423462,-2.031808614730835,4.568419456481934,9.13667106628418,-4.070252895355225,0.054714385420084,-0.5543482899665833,-0.14912353456020355,20.47283935546875,-16.228347778320312,29.043853759765625,0.458770751953125,0.06790733337402344,-0.08427572250366211,4.109648704528809,9.068763732910156,-3.9859771728515625
5_20251106_145651,1762412175026,5,0.17113259434700012,0.4195539951324463,0.7294595241546631,0.5124225616455078,1.4811571836471558,1.8823002576828003,-2.034327745437622,4.224865913391113,8.95950698852539,-4.270160675048828,0.10663789510726929,-0.6447562575340271,-0.19188407063484192,20.68834114074707,-16.300460815429688,28.902156829833984,0.09217357635498047,-0.08740520477294922,-0.22734689712524414,4.132692337036133,9.04691219329834,-4.042813777923584
5_20251106_145651,1762412175045,5,0.1754666417837143,0.42192378640174866,0.7291510701179504,0.5094413757324219,1.505694031715393,1.8818107843399048,-2.0372514724731445,3.8023080825805664,8.742841720581055,-4.319239139556885,0.14878755807876587,-0.7889203429222107,-0.18944060802459717,21.014223098754883,-16.352874755859375,28.76513671875,-0.26430749893188477,-0.2432565689086914,-0.22114038467407227,4.066615581512451,8.986098289489746,-4.0980987548828125
5_20251106_145651,1762412175066,5,0.18053874373435974,0.4248279333114624,0.728972852230072,0.5054953694343567,1.5289349555969238,1.8795506954193115,-2.0408859252929688,3.3139119148254395,8.465126037597656,-4.266569137573242,0.16467002034187317,-0.9013194441795349,-0.19554924964904785,21.355405807495117,-16.353866577148438,28.589115142822266,-0.6021630764007568,-0.4167776107788086,-0.13477611541748047,3.9160749912261963,8.881903648376465,-4.131793022155762
5_20251106_145651,1762412175082,5,0.18640251457691193,0.4283874034881592,0.7286962270736694,0.500739574432373,1.5434978008270264,1.8765450716018677,-2.0437066555023193,2.754889726638794,8.177834510803223,-4.229460716247559,0.15917223691940308,-0.9611842036247253,-0.24319669604301453,21.745023727416992,-16.363693237304688,28.36072540283203,-0.928948163986206,-0.5632553100585938,-0.07813405990600586,3.683837890625,8.741089820861816,-4.151326656341553
5_20251106_145651,1762412175101,5,0.193001851439476,0.4321136474609375,0.728381872177124,0.4954673647880554,1.5555452108383179,1.8710013628005981,-2.046846866607666,2.0869362354278564,7.9563798904418945,-4.1360907554626465,0.15917223691940308,-0.9611842036247253,-0.24319669604301453,22.25025177001953,-16.265518188476562,28.098312377929688,-1.2775213718414307,-0.6277675628662109,0.012188911437988281,3.364457607269287,8.584147453308105,-4.148279666900635
5_20251106_145651,1762412175120,5,0.20024752616882324,0.4353100061416626,0.7282371520996094,0.48997631669044495,1.561347246170044,1.8637661933898926,-2.050203800201416,1.30765700340271,7.866601467132568,-4.284524917602539,0.08709022402763367,-0.8738306164741516,-0.4618862569332123,22.7552547454834,-16.190826416015625,27.673175811767578,-1.6454405784606934,-0.5740370750427246,-0.10899639129638672,2.9530975818634033,8.440638542175293,-4.175528526306152
5_20251106_145651,1762412175138,5,0.20796696841716766,0.43730586767196655,0.7284786701202393,0.48459479212760925,1.5608577728271484,1.855793833732605,-2.054548740386963,0.6337182521820068,7.847448348999023,-4.713068962097168,0.022949425503611565,-0.7815900444984436,-0.48387739062309265,23.335403442382812,-16.062225341796875,27.36016845703125,-1.8555033206939697,-0.4745521545410156,-0.43003225326538086,2.4892215728759766,8.322000503540039,-4.283036708831787
5_20251106_145651,1762412175158,5,0.2156011462211609,0.43796998262405396,0.7290530204772949,0.4797708988189697,1.5608577728271484,1.855793833732605,-2.054548740386963,0.6337182521820068,7.847448348999023,-4.713068962097168,-0.07234548032283783,-0.8200744986534119,-0.32383084297180176,23.942941665649414,-15.881546020507812,27.02216339111328,-1.8555033206939697,-0.4745521545410156,-0.43003225326538086,2.4892215728759766,8.322000503540039,-4.283036708831787
5_20251106_145651,1762412175178,5,0.22312991321086884,0.4387455880641937,0.7290356159210205,0.47562846541404724,1.5415064096450806,1.835181713104248,-2.0689609050750732,0.4038847088813782,8.009050369262695,-4.842350006103516,-0.17435988783836365,-0.9880622029304504,-0.04649826139211655,24.636262893676758,-15.70623779296875,26.525135040283203,-1.318718671798706,-0.16064167022705078,-0.3397655487060547,1.722603440284729,8.169692039489746,-4.502584457397461
5_20251106_145651,1762412175197,5,0.23078669607639313,0.441322386264801,0.727385938167572,0.4721035361289978,1.5282511711120605,1.8266606330871582,-2.0754899978637695,0.819260835647583,8.460338592529297,-4.363530158996582,-0.23972240090370178,-1.1859824657440186,0.2088432013988495,25.291406631469727,-15.5703125,25.95825958251953,-0.7226741313934326,0.23251724243164062,0.11124372482299805,1.5419349670410156,8.227821350097656,-4.47477388381958
5_20251106_145651,1762412175216,5,0.23891840875148773,0.4465886056423187,0.7236070036888123,0.46890243887901306,1.5157121419906616,1.8205575942993164,-2.0797805786132812,1.2944893836975098,8.863743782043457,-3.830842971801758,-0.23117031157016754,-1.3142640590667725,0.30780327320098877,26.000530242919922,-15.55584716796875,25.377681732177734,-0.19795656204223633,0.5087375640869141,0.5151448249816895,1.492445945739746,8.355006217956543,-4.345987796783447
5_20251106_145651,1762412175235,5,0.24751104414463043,0.45385855436325073,0.7182745933532715,0.46565255522727966,1.5027552843093872,1.8166372776031494,-2.08213210105896,1.5841753482818604,9.184553146362305,-3.6297385692596436,-0.23117031157016754,-1.3142640590667725,0.30780327320098877,26.000530242919922,-15.55584716796875,25.377681732177734,0.07338356971740723,0.6636371612548828,0.5729992389678955,1.5107917785644531,8.520915985107422,-4.202737808227539
5_20251106_145651,1762412175254,5,0.2562594711780548,0.461426317691803,0.712760865688324,0.4619402587413788,1.4912794828414917,1.8152188062667847,-2.0826494693756104,1.590160608291626,9.293484687805176,-3.6177682876586914,-0.1713055670261383,-1.3386986255645752,0.23755383491516113,26.69948387145996,-15.504638671875,24.81092071533203,0.06349503993988037,0.6180553436279297,0.4679756164550781,1.5266655683517456,8.675429344177246,-4.0857439041137695
5_20251106_145651,1762412175273,5,0.26520082354545593,0.4681289792060852,0.7078940272331238,0.45761314034461975,1.4796944856643677,1.8152878284454346,-2.0821361541748047,1.2777307033538818,9.19173526763916,-3.719517230987549,-0.145649254322052,-1.2666165828704834,-0.1564539074897766,27.37021827697754,-15.54144287109375,24.0926513671875,-0.19914782047271729,0.41304492950439453,0.2929816246032715,1.4768785238265991,8.778690338134766,-4.01249885559082
5_20251106_145651,1762412175291,5,0.27458736300468445,0.47317755222320557,0.7039939761161804,0.4528766870498657,1.4796944856643677,1.8152878284454346,-2.0821361541748047,1.2777307033538818,9.19173526763916,-3.719517230987549,-0.18596631288528442,-1.226299524307251,-0.3641479015350342,28.025959014892578,-15.617660522460938,23.467716217041016,-0.19914782047271729,0.41304492950439453,0.2929816246032715,1.4768785238265991,8.778690338134766,-4.01249885559082
5_20251106_145651,1762412175312,5,0.2848256230354309,0.4765978157520294,0.7008628249168396,0.44779476523399353,1.4501967430114746,1.8174186944961548,-2.079113721847534,0.1596866399049759,8.929581642150879,-3.6979706287384033,-0.2580483555793762,-1.170710802078247,-0.5443530082702637,28.63665199279785,-15.657211303710938,22.625350952148438,-0.9362769722938538,0.07224655151367188,0.2154710292816162,1.0959635972976685,8.857335090637207,-3.9134416580200195
5_20251106_145651,1762412175330,5,0.2957790195941925,0.47823795676231384,0.6984615325927734,0.44266775250434875,1.4501967430114746,1.8174186944961548,-2.079113721847534,0.1596866399049759,8.929581642150879,-3.6979706287384033,-0.3625062108039856,-1.0809136629104614,-0.7251689434051514,29.352209091186523,-15.754165649414062,21.961788177490234,-0.9362769722938538,0.07224655151367188,0.2154710292816162,1.0959635972976685,8.857335090637207,-3.9134416580200195
5_20251106_145651,1762412175349,5,0.30741843581199646,0.4780750870704651,0.6966137290000916,0.4377983510494232,1.4088776111602783,1.8192439079284668,-2.071741819381714,-1.2336788177490234,8.800300598144531,-3.106627941131592,-0.4846791625022888,-0.9550755620002747,-0.950577974319458,30.100980758666992,-15.709915161132812,21.15343475341797,-1.6169965267181396,-0.04243946075439453,0.5743935108184814,0.3833177089691162,8.842740058898926,-3.6810214519500732
5_20251106_145651,1762412175369,5,0.3196743428707123,0.4755852520465851,0.6954662203788757,0.4335362911224365,1.3774659633636475,1.820482611656189,-2.0637991428375244,-2.243988513946533,8.973873138427734,-2.603867292404175,-0.597078263759613,-0.7400512099266052,-1.2169151306152344,30.93907356262207,-15.596649169921875,20.282249450683594,-2.1018450260162354,0.10490608215332031,0.8617234230041504,-0.14214348793029785,8.868967056274414,-3.465590715408325
5_20251106_145651,1762412175388,5,0.33257627487182617,0.4703771471977234,0.6952435970306396,0.42985430359840393,1.3401811122894287,1.8221379518508911,-2.0535407066345215,-3.3991410732269287,9.064847946166992,-2.3393194675445557,-0.597078263759613,-0.7400512099266052,-1.2169151306152344,31.674341201782227,-15.365219116210938,19.436321258544922,-2.605597972869873,0.15670490264892578,0.9010169506072998,-0.7935429811477661,8.908143043518066,-3.2403364181518555
5_20251106_145651,1762412175406,5,0.3451889753341675,0.4618416726589203,0.6965616345405579,0.4270230829715729,1.297013521194458,1.8230173587799072,-2.0418272018432617,-4.696743011474609,8.660245895385742,-2.2327821254730225,-0.5756980180740356,-0.33749130368232727,-1.4441566467285156,32.46448516845703,-15.029495239257812,18.52688980102539,-3.1225600242614746,-0.1983175277709961,0.8060433864593506,-1.5741829872131348,8.858563423156738,-3.038825511932373
5_20251106_145651,1762412175427,5,0.35680487751960754,0.45112815499305725,0.6991933584213257,0.42462027072906494,1.297013521194458,1.8230173587799072,-2.0418272018432617,-4.696743011474609,8.660245895385742,-2.2327821254730225,-0.4235926866531372,-0.4608859717845917,-1.155828595161438,33.20298767089844,-14.511123657226562,17.794673919677734,-3.1225600242614746,-0.1983175277709961,0.8060433864593506,-1.5741829872131348,8.858563423156738,-3.038825511932373
5_20251106_145651,1762412175446,5,0.36757132411003113,0.4417203366756439,0.7014606595039368,0.4215772747993469,1.1753026247024536,1.821014404296875,-2.0105366706848145,-6.2169952392578125,8.327465057373047,-1.9011993408203125,-0.27148735523223877,-0.6478106379508972,-0.7496035099029541,33.9223518371582,-13.906051635742188,17.02277374267578,-3.051650047302246,-0.35465049743652344,0.769834041595459,-3.1653451919555664,8.68211555480957,-2.6710333824157715
5_20251106_145651,1762412175466,5,0.3773455321788788,0.4358498454093933,0.7021771669387817,0.41784265637397766,1.1022652387619019,1.8186012506484985,-1.9909452199935913,-6.471966743469238,8.406471252441406,-1.5444786548614502,-0.1401514708995819,-0.7583771347999573,-0.4301213026046753,34.65189743041992,-13.326095581054688,16.33193588256836,-2.6452972888946533,-0.22051525115966797,0.9012439250946045,-3.826669454574585,8.626986503601074,-2.4457225799560547
5_20251106_145651,1762412175484,5,0.38616007566452026,0.4335162043571472,0.7012593150138855,0.4137384295463562,1.1022652387619019,1.8186012506484985,-1.9909452199935913,-6.471966743469238,8.406471252441406,-1.5444786548614502,-0.1401514708995819,-0.7583771347999573,-0.4301213026046753,35.28575897216797,-12.726852416992188,15.583638191223145,-2.6452972888946533,-0.22051525115966797,0.9012439250946045,-3.826669454574585,8.626986503601074,-2.4457225799560547
5_20251106_145651,1762412175502,5,0.39381763339042664,0.4334011673927307,0.699530839920044,0.40954574942588806,0.9544922709465027,1.8149288892745972,-1.948843002319336,-7.034580230712891,8.896064758300781,-1.2930984497070312,0.07120773196220398,-0.5775611996650696,-0.15034526586532593,35.854278564453125,-12.195571899414062,14.953213691711426,-2.0929012298583984,0.216644287109375,0.7388286590576172,-4.941679000854492,8.679420471191406,-2.0319271087646484
5_20251106_145651,1762412175521,5,0.3997828960418701,0.43394556641578674,0.6980739235877991,0.4056571424007416,0.8747935891151428,1.8150415420532227,-1.9261729717254639,-7.263216495513916,9.228843688964844,-1.4666705131530762,0.13657024502754211,-0.29839596152305603,-0.136906236410141,36.346466064453125,-11.719818115234375,14.372857093811035,-1.8572301864624023,0.43953895568847656,0.4522053003311157,-5.405986309051514,8.789304733276367,-1.918875813484192
5_20251106_145651,1762412175540,5,0.40366965532302856,0.43400320410728455,0.697672426700592,0.4024241864681244,0.7931796908378601,1.8162428140640259,-1.904101848602295,-7.556493759155273,9.18814468383789,-1.7240362167358398,0.18788288533687592,-0.02778288908302784,-0.11247164756059647,36.81367492675781,-11.258087158203125,13.777739524841309,-1.7204060554504395,0.31907176971435547,0.15587174892425537,-5.836087703704834,8.869072914123535,-1.8799079656600952
5_20251106_145651,1762412175559,5,0.4055537283420563,0.43348416686058044,0.6983605027198792,0.3998877704143524,0.7931796908378601,1.8162428140640259,-1.904101848602295,-7.556493759155273,9.18814468383789,-1.7240362167358398,0.18788288533687592,-0.02778288908302784,-0.11247164756059647,37.137306213378906,-10.945648193359375,13.417616844177246,-1.7204060554504395,0.31907176971435547,0.15587174892425537,-5.836087703704834,8.869072914123535,-1.8799079656600952
5_20251106_145651,1762412175579,5,0.40547192096710205,0.4329453706741333,0.6998270153999329,0.39798614382743835,0.6240367889404297,1.8191403150558472,-1.8627660274505615,-7.379330158233643,8.924793243408203,-2.1035008430480957,0.418178915977478,0.2544366121292114,0.17891082167625427,37.37976837158203,-10.776504516601562,13.092196464538574,-0.9520506858825684,0.031064987182617188,-0.17431855201721191,-6.427279472351074,8.893728256225586,-1.9291822910308838
5_20251106_145651,1762412175597,5,0.4034469723701477,0.4335298240184784,0.7015846967697144,0.3963097035884857,0.6240367889404297,1.8191403150558472,-1.8627660274505615,-7.379330158233643,8.924793243408203,-2.1035008430480957,0.5055325627326965,0.41203969717025757,0.2797034978866577,37.60543441772461,-10.67242431640625,12.913643836975098,-0.9520506858825684,0.031064987182617188,-0.17431855201721191,-6.427279472351074,8.893728256225586,-1.9291822910308838
5_20251106_145651,1762412175617,5,0.39947664737701416,0.4349953532218933,0.7037380933761597,0.39490529894828796,0.4691736102104187,1.8218187093734741,-1.8298946619033813,-6.5940656661987305,8.767979621887207,-2.380018949508667,0.4884283244609833,0.5952990651130676,0.2650427520275116,37.73141098022461,-10.60089111328125,12.838770866394043,-0.051199913024902344,-0.11112308502197266,-0.3057730197906494,-6.542865753173828,8.87910270690918,-2.0742459297180176
5_20251106_145651,1762412175637,5,0.3938974142074585,0.43627414107322693,0.70648193359375,0.39419910311698914,0.39686816930770874,1.8211350440979004,-1.8152053356170654,-6.777214527130127,8.246066093444824,-2.0723774433135986,0.45299822092056274,0.7076981663703918,0.19662588834762573,37.73141098022461,-10.60089111328125,12.838770866394043,-0.18747901916503906,-0.5064296722412109,0.0014948844909667969,-6.589735507965088,8.752495765686035,-2.0738723278045654
5_20251106_145651,1762412175655,5,0.387653648853302,0.4364784359931946,0.7098097801208496,0.3941843509674072,0.3267243504524231,1.8180056810379028,-1.8011149168014526,-7.119570732116699,7.848645210266113,-2.0244953632354736,0.45299822092056274,0.7076981663703918,0.19662588834762573,37.7220458984375,-10.55145263671875,12.839335441589355,-0.42386817932128906,-0.7230806350708008,0.03950166702270508,-6.69570255279541,8.571725845336914,-2.0639970302581787
5_20251106_145651,1762412175675,5,0.3807588815689087,0.43588611483573914,0.7136436104774475,0.39463749527931213,0.25547757744789124,1.8125544786453247,-1.7892662286758423,-7.058520793914795,7.80794620513916,-2.8013806343078613,0.5116412043571472,1.1915030479431152,0.3817179203033447,37.55935287475586,-10.590805053710938,13.224404335021973,-0.2902545928955078,-0.6110239028930664,-0.5899069309234619,-6.768266201019287,8.418970108032227,-2.2114737033843994
5_20251106_145651,1762412175694,5,0.37170183658599854,0.4348889887332916,0.7181374430656433,0.3962170481681824,0.25547757744789124,1.8125544786453247,-1.7892662286758423,-7.058520793914795,7.80794620513916,-2.8013806343078613,0.48415225744247437,1.3900341987609863,0.6480549573898315,37.28670120239258,-10.6260986328125,13.740485191345215,-0.2902545928955078,-0.6110239028930664,-0.5899069309234619,-6.768266201019287,8.418970108032227,-2.2114737033843994
5_20251106_145651,1762412175713,5,0.35965174436569214,0.43438467383384705,0.7228193879127502,0.3993653655052185,0.18586337566375732,1.8056747913360596,-1.782373070716858,-6.334306240081787,7.988699913024902,-3.6812117099761963,0.2648518681526184,1.448066234588623,0.9235549569129944,36.936222076416016,-10.730560302734375,14.414498329162598,0.3471684455871582,-0.34421634674072266,-1.175790548324585,-6.681474685668945,8.332916259765625,-2.5054211616516113
5_20251106_145651,1762412175732,5,0.3461013436317444,0.4350396692752838,0.7260984778404236,0.4046422839164734,0.09055288136005402,1.7956209182739258,-1.7794668674468994,-3.9066901206970215,8.630318641662598,-3.3843436241149902,0.05715784803032875,1.4401249885559082,1.149574875831604,36.53509521484375,-10.863983154296875,15.153603553771973,1.9876923561096191,0.24090099334716797,-0.48340940475463867,-5.894382476806641,8.38941764831543,-2.9009342193603516
5_20251106_145651,1762412175751,5,0.33229780197143555,0.4366872310638428,0.7271770238876343,0.41242697834968567,0.054561275988817215,1.79215669631958,-1.7782862186431885,-2.2200474739074707,8.869729995727539,-2.760680675506592,0.05715784803032875,1.4401249885559082,1.149574875831604,35.925228118896484,-11.22601318359375,16.123668670654297,2.9394679069519043,0.3842496871948242,0.11220288276672363,-5.159515380859375,8.485480308532715,-2.8728835582733154
5_20251106_145651,1762412175770,5,0.31804654002189636,0.43938732147216797,0.7266134023666382,0.4216848611831665,0.054561275988817215,1.79215669631958,-1.7782862186431885,-2.2200474739074707,8.869729995727539,-2.760680675506592,0.21231749653816223,1.349717140197754,1.4385138750076294,35.22562026977539,-11.680831909179688,17.020870208740234,2.9394679069519043,0.3842496871948242,0.11220288276672363,-5.159515380859375,8.485480308532715,-2.8728835582733154
5_20251106_145651,1762412175789,5,0.3027699887752533,0.44332802295684814,0.7253843545913696,0.43082258105278015,0.03255279362201691,1.7877968549728394,-1.774164080619812,1.6978950500488281,8.463930130004883,-2.7068138122558594,0.4658263325691223,1.2446483373641968,1.4959352016448975,34.437705993652344,-12.180084228515625,18.035491943359375,4.715298175811768,-0.0697183609008789,0.08406758308410645,-3.0174031257629395,8.533648490905762,-2.790881395339966
5_20251106_145651,1762412175808,5,0.286741703748703,0.4488721787929535,0.7239789366722107,0.43834632635116577,0.048434678465127945,1.7857246398925781,-1.774651050567627,3.6419031620025635,8.553707122802734,-3.7123351097106934,0.7730912566184998,1.1310274600982666,1.4562289714813232,33.546268463134766,-12.786697387695312,19.098148345947266,5.327445030212402,0.016046524047851562,-0.7371630668640137,-1.6855419874191284,8.537660598754883,-2.9751720428466797
5_20251106_145651,1762412175828,5,0.2695833444595337,0.45589786767959595,0.7229850888252258,0.44359275698661804,0.08465321362018585,1.7839195728302002,-1.7806358337402344,5.004145622253418,8.625530242919922,-4.783694267272949,0.9746766686439514,0.986863374710083,1.1465206146240234,32.49459457397461,-13.440902709960938,20.113082885742188,5.351750373840332,0.07029533386230469,-1.4468178749084473,-0.34760451316833496,8.555234909057617,-3.336876392364502
5_20251106_145651,1762412175847,5,0.25263211131095886,0.4633125066757202,0.723121702671051,0.4456607401371002,0.130569726228714,1.782348871231079,-1.7917355298995972,5.723572254180908,8.544132232666016,-5.766471862792969,0.8915989995002747,1.0418412685394287,0.653552770614624,31.440412521362305,-14.133316040039062,21.181293487548828,4.8569416999816895,-0.008882522583007812,-1.943676471710205,0.8666307330131531,8.553014755249023,-3.8227953910827637
5_20251106_145651,1762412175866,5,0.23711809515953064,0.46837207674980164,0.7249586582183838,0.44591206312179565,0.130569726228714,1.782348871231079,-1.7917355298995972,5.723572254180908,8.544132232666016,-5.766471862792969,0.5904427170753479,1.2348744869232178,0.1159917488694191,30.388246536254883,-14.788192749023438,22.263813018798828,4.8569416999816895,-0.008882522583007812,-1.943676471710205,0.8666307330131531,8.553014755249023,-3.8227953910827637
5_20251106_145651,1762412175886,5,0.2236885130405426,0.46879690885543823,0.7283782362937927,0.4468311071395874,0.19795569777488708,1.779198169708252,-1.812650442123413,5.788212776184082,8.132347106933594,-6.392528533935547,0.5904427170753479,1.2348744869232178,0.1159917488694191,29.36406135559082,-15.390167236328125,23.240238189697266,3.937265634536743,-0.3365345001220703,-2.055786609649658,1.8509471416473389,8.468881607055664,-4.336741924285889
5_20251106_145651,1762412175905,5,0.21228766441345215,0.4641796946525574,0.7328664064407349,0.44986438751220703,0.33798131346702576,1.7682597637176514,-1.867938756942749,5.108288764953613,7.49312162399292,-7.031753063201904,0.22819997370243073,1.412636160850525,-0.3177222013473511,28.416610717773438,-15.711517333984375,24.184371948242188,2.0180468559265137,-0.6796469688415527,-1.734766960144043,3.0902419090270996,8.172768592834473,-5.296986103057861
5_20251106_145651,1762412175922,5,0.2034757435321808,0.4558206796646118,0.7376026511192322,0.45471686124801636,0.40153446793556213,1.7605401277542114,-1.8960206508636475,4.293098449707031,7.178297519683838,-6.4966721534729,-0.3588410019874573,1.3057348728179932,-0.8222964406013489,27.527870178222656,-15.853759765625,25.120647430419922,0.9622852802276611,-0.7955770492553711,-0.9597487449645996,3.33081316947937,7.973874568939209,-5.536923408508301
5_20251106_145651,1762412175942,5,0.19757482409477234,0.44526708126068115,0.7419893741607666,0.46060091257095337,0.47305166721343994,1.7491953372955322,-1.9279694557189941,3.491075038909912,7.080140113830566,-5.72218132019043,-0.3588410019874573,1.3057348728179932,-0.8222964406013489,26.690582275390625,-15.954330444335938,25.978580474853516,0.12820935249328613,-0.7149877548217773,-0.14820623397827148,3.362865686416626,7.795127868652344,-5.573975086212158
5_20251106_145651,1762412175961,5,0.19369623064994812,0.43399864435195923,0.7455222606658936,0.4672510325908661,0.5365092158317566,1.7362955808639526,-1.9555349349975586,2.9667675495147705,6.825168132781982,-5.111685752868652,-0.5072811841964722,1.2092182636260986,-0.8253507614135742,25.99407958984375,-15.9326171875,26.790218353271484,-0.3168785572052002,-0.775968074798584,0.36983156204223633,3.2836461067199707,7.601136207580566,-5.481517314910889
5_20251106_145651,1762412175979,5,0.1906309425830841,0.4231567084789276,0.7482556104660034,0.4740377962589264,0.5921096801757812,1.722347617149353,-1.9786667823791504,2.6698994636535645,6.6515960693359375,-4.800453186035156,-0.39427119493484497,0.8359797596931458,-0.4973164200782776,25.451648712158203,-15.774734497070312,27.50225067138672,-0.490997314453125,-0.7596321105957031,0.5448513031005859,3.1608967781066895,7.411228179931641,-5.345304489135742
5_20251106_145651,1762412175999,5,0.18790443241596222,0.414358913898468,0.7501281499862671,0.4799024164676666,0.6485095024108887,1.7048169374465942,-1.9995132684707642,2.407745361328125,6.487600326538086,-4.170804977416992,-0.2629352807998657,0.4816782772541046,-0.25785744190216064,24.92127799987793,-15.639404296875,28.038532257080078,-0.6025211811065674,-0.7389025688171387,0.9395995140075684,3.0102665424346924,7.226502895355225,-5.1104044914245605
5_20251106_145651,1762412176017,5,0.1861012876033783,0.4087962508201599,0.7510030269622803,0.48399004340171814,0.6946905851364136,1.6880234479904175,-2.014000415802002,2.1815030574798584,6.493585586547852,-3.7554287910461426,-0.06623682379722595,0.19640445709228516,-0.04283307492733002,24.42987823486328,-15.463623046875,28.536529541015625,-0.663010835647583,-0.5863337516784668,1.0839805603027344,2.8445138931274414,7.079919338226318,-4.839409351348877
5_20251106_145651,1762412176038,5,0.1849072426557541,0.40653786063194275,0.7511545419692993,0.48611021041870117,0.7427297234535217,1.6666390895843506,-2.0259666442871094,1.9061816930770874,6.252978324890137,-3.6189653873443604,0.1261855661869049,0.07850757241249084,0.10377445816993713,23.974021911621094,-15.310028076171875,28.981403350830078,-0.7506657838821411,-0.661552906036377,0.9763553142547607,2.6568474769592285,6.914531230926514,-4.595320701599121
5_20251106_145651,1762412176057,5,0.18367090821266174,0.40684962272644043,0.7511581778526306,0.4863124191761017,0.7813271284103394,1.6455405950546265,-2.0344796180725098,1.6751511096954346,5.923789978027344,-3.9493508338928223,0.27829086780548096,0.05957076698541641,0.19051724672317505,23.974021911621094,-15.310028076171875,28.981403350830078,-0.7853572368621826,-0.7925930023193359,0.5167760848999023,2.460508346557617,6.71638298034668,-4.466126918792725
5_20251106_145651,1762412176076,5,0.18150535225868225,0.40829238295555115,0.7515007257461548,0.4853862226009369,0.7813271284103394,1.6455405950546265,-2.0344796180725098,1.6751511096954346,5.923789978027344,-3.9493508338928223,0.27829086780548096,0.05957076698541641,0.19051724672317505,23.612808227539062,-15.223541259765625,29.239391326904297,-0.7853572368621826,-0.7925930023193359,0.5167760848999023,2.460508346557617,6.71638298034668,-4.466126918792725
5_20251106_145651,1762412176096,5,0.17870886623859406,0.41035547852516174,0.7522221803665161,0.4835631549358368,0.8186324238777161,1.6194909811019897,-2.0425689220428467,1.4991848468780518,5.553901672363281,-4.212701797485352,0.34426426887512207,0.08644881844520569,0.2137301117181778,23.248676300048828,-15.187408447265625,29.509838104248047,-0.7690587043762207,-0.9299850463867188,0.20274019241333008,2.2682435512542725,6.48388671875,-4.415441989898682
5_20251106_145651,1762412176115,5,0.17530818283557892,0.41206932067871094,0.7530746459960938,0.4820212721824646,0.8723156452178955,1.5659502744674683,-2.0567829608917236,1.1855579614639282,4.701602935791016,-4.672369003295898,0.16222655773162842,0.31552305817604065,0.2497711479663849,22.970550537109375,-15.133163452148438,29.783985137939453,-0.7111138105392456,-1.201758861541748,-0.19297122955322266,1.8966717720031738,5.903361797332764,-4.479397773742676
5_20251106_145651,1762412176133,5,0.1712867021560669,0.41313356161117554,0.753645658493042,0.4816635251045227,0.8930145502090454,1.5364940166473389,-2.0641636848449707,0.9365716576576233,4.47655725479126,-4.758556365966797,0.08464676141738892,0.38699424266815186,0.3218531608581543,22.728364944458008,-15.100570678710938,29.950942993164062,-0.7680800557136536,-1.1414437294006348,-0.2233266830444336,1.7046517133712769,5.6180009841918945,-4.535229682922363
5_20251106_145651,1762412176153,5,0.16696858406066895,0.41407808661460876,0.75368332862854,0.4823093116283417,0.8930145502090454,1.5364940166473389,-2.0641636848449707,0.9365716576576233,4.47655725479126,-4.758556365966797,0.07304033637046814,0.4260895848274231,0.44646957516670227,22.470468521118164,-15.131561279296875,30.116092681884766,-0.7680800557136536,-1.1414437294006348,-0.2233266830444336,1.7046517133712769,5.6180009841918945,-4.535229682922363
5_20251106_145651,1762412176172,5,0.1619914025068283,0.41546472907066345,0.7532020211219788,0.48356443643569946,0.9244152903556824,1.4711353778839111,-2.0814244747161865,0.3990965187549591,4.7794108390808105,-4.930931568145752,0.02478202059864998,0.5293256640434265,0.6346158981323242,22.241483688354492,-15.073593139648438,30.338134765625,-0.8606455326080322,-0.5091180801391602,-0.2616763114929199,1.259742021560669,5.288528919219971,-4.669255256652832
5_20251106_145651,1762412176190,5,0.15596264600753784,0.41760313510894775,0.7522001266479492,0.4852609932422638,0.9353585243225098,1.4403287172317505,-2.091029167175293,0.481692910194397,5.342023849487305,-5.115277290344238,-0.1560339480638504,0.6643267869949341,0.8313143253326416,21.99798583984375,-15.06597900390625,30.491046905517578,-0.6224393844604492,0.04279613494873047,-0.35681772232055664,1.1041322946548462,5.299227714538574,-4.758459568023682
5_20251106_145651,1762412176209,5,0.14854738116264343,0.42025449872016907,0.7500705718994141,0.48858359456062317,0.9353585243225098,1.4403287172317505,-2.091029167175293,0.481692910194397,5.342023849487305,-5.115277290344238,-0.49262040853500366,0.7474043965339661,0.9589850902557373,21.70484161376953,-15.074371337890625,30.66876983642578,-0.6224393844604492,0.04279613494873047,-0.35681772232055664,1.1041322946548462,5.299227714538574,-4.758459568023682
5_20251106_145651,1762412176229,5,0.14055263996124268,0.4232151210308075,0.7461419105529785,0.49437445402145386,0.9547145366668701,1.3896253108978271,-2.111614942550659,1.3711005449295044,6.491191387176514,-4.745388984680176,-0.8829630017280579,0.8188756108283997,0.9883065819740295,21.284198760986328,-15.191162109375,30.839473724365234,0.2589625120162964,0.839850902557373,0.09129667282104492,1.112138032913208,5.651340484619141,-4.836685657501221
5_20251106_145651,1762412176247,5,0.133366659283638,0.425729364156723,0.7400832772254944,0.5032340884208679,0.9663755893707275,1.369887113571167,-2.118748664855957,1.9504724740982056,6.48281192779541,-4.028356075286865,-1.086991786956787,0.8359797596931458,1.031067132949829,20.831838607788086,-15.435516357421875,31.047107696533203,0.6706675291061401,0.6651773452758789,0.6466636657714844,1.2798049449920654,5.817634582519531,-4.67501974105835
5_20251106_145651,1762412176266,5,0.12673991918563843,0.4275151491165161,0.732314944267273,0.5146675109863281,0.9809587001800537,1.3530231714248657,-2.121748208999634,2.5573766231536865,6.505556106567383,-3.2981557846069336,-1.0979872941970825,0.7455717921257019,1.1098687648773193,20.264053344726562,-15.799224853515625,31.166854858398438,1.022057294845581,0.5503373146057129,1.1014909744262695,1.5353193283081055,5.95521879196167,-4.399646759033203
5_20251106_145651,1762412176286,5,0.1205238327383995,0.4297332167625427,0.7235274910926819,0.5266035795211792,0.9809587001800537,1.3530231714248657,-2.121748208999634,2.5573766231536865,6.505556106567383,-3.2981557846069336,-1.0356791019439697,0.6014077067375183,1.1813398599624634,19.607131958007812,-16.243301391601562,31.227519989013672,1.022057294845581,0.5503373146057129,1.1014909744262695,1.5353193283081055,5.95521879196167,-4.399646759033203
5_20251106_145651,1762412176306,5,0.1143888384103775,0.4330061078071594,0.7141953110694885,0.5379089117050171,1.0221600532531738,1.327687382698059,-2.1145613193511963,3.2839856147766113,7.166326999664307,-2.6206259727478027,-0.9629862904548645,0.4731261730194092,1.3041236400604248,18.87014389038086,-16.817581176757812,31.269084930419922,1.176987886428833,0.8457832336425781,1.1937332153320312,2.1069977283477783,6.3205437660217285,-3.814359188079834
5_20251106_145651,1762412176324,5,0.10852142423391342,0.43764352798461914,0.7044163346290588,0.5481686592102051,1.0456042289733887,1.3220678567886353,-2.106079339981079,3.8896923065185547,7.748093128204346,-2.380019187927246,-0.846311092376709,0.3906594216823578,1.4391248226165771,18.064359664916992,-17.545700073242188,31.223934173583984,1.4261555671691895,1.1420397758483887,1.1474721431732178,2.4635367393493652,6.606053352355957,-3.527491331100464
5_20251106_145651,1762412176344,5,0.10212776809930801,0.44361209869384766,0.6942441463470459,0.5574973225593567,1.0762585401535034,1.321722149848938,-2.093656063079834,4.40681791305542,8.443578720092773,-2.3860042095184326,-0.7271924614906311,0.3595053255558014,1.4586725234985352,17.24266815185547,-18.337677001953125,31.20400619506836,1.5546250343322754,1.4700202941894531,0.9131896495819092,2.8521928787231445,6.97355842590332,-3.299193859100342
5_20251106_145651,1762412176362,5,0.09510494768619537,0.45054736733436584,0.6840968132019043,0.565662145614624,1.107622504234314,1.3257184028625488,-2.0809271335601807,4.945489883422852,8.716506958007812,-2.44346284866333,-0.7223055958747864,0.4767913520336151,1.3713188171386719,16.41814422607422,-19.191482543945312,31.08814239501953,1.674637794494629,1.3943586349487305,0.6845848560333252,3.2708520889282227,7.322148323059082,-3.1280477046966553
5_20251106_145651,1762412176381,5,0.08766861259937286,0.4568190276622772,0.6743909120559692,0.5734348297119141,1.1452773809432983,1.3339126110076904,-2.06644868850708,5.532044410705566,8.848182678222656,-2.503314971923828,-0.792555034160614,0.6001859903335571,1.2277655601501465,15.518291473388672,-20.087875366210938,30.98206329345703,1.8089537620544434,1.2208271026611328,0.499786376953125,3.723090648651123,7.627355575561523,-3.003101348876953
5_20251106_145651,1762412176401,5,0.08026563376188278,0.46147385239601135,0.6648293137550354,0.58189457654953,1.1872539520263672,1.3453322649002075,-2.0516185760498047,5.984528541564941,8.952325820922852,-2.6110496520996094,-0.7809485793113708,0.6612724661827087,1.050614833831787,14.632329940795898,-20.95794677734375,30.83645248413086,1.8091506958007812,1.059976577758789,0.3136413097381592,4.17537784576416,7.8923492431640625,-2.9246909618377686
5_20251106_145651,1762412176420,5,0.07323836535215378,0.4644680321216583,0.6556534767150879,0.5907825827598572,1.2358694076538086,1.3599960803985596,-2.0383386611938477,6.35920524597168,8.95950698852539,-3.434619426727295,-0.6404497027397156,0.6038511395454407,0.8869030475616455,13.770727157592773,-21.838043212890625,30.596942901611328,1.7470622062683105,0.8537263870239258,-0.4079427719116211,4.612143039703369,8.105780601501465,-3.026676654815674
5_20251106_145651,1762412176438,5,0.06671158969402313,0.4661779999732971,0.6476801633834839,0.5989474654197693,1.2358694076538086,1.3599960803985596,-2.0383386611938477,6.35920524597168,8.95950698852539,-3.434619426727295,-0.5482091307640076,0.37294432520866394,0.8453642129898071,12.934623718261719,-22.680221557617188,30.494369506835938,1.7470622062683105,0.8537263870239258,-0.4079427719116211,4.612143039703369,8.105780601501465,-3.026676654815674
5_20251106_145651,1762412176457,5,0.061116382479667664,0.4682348370552063,0.6408630013465881,0.6052400469779968,1.288023829460144,1.37656569480896,-2.0284767150878906,6.575871467590332,8.973873138427734,-3.9325921535491943,-0.6752689480781555,0.19701531529426575,0.8618575930595398,12.101524353027344,-23.4835205078125,30.27094268798828,1.5709829330444336,0.6944742202758789,-0.7247323989868164,5.004888534545898,8.279398918151855,-3.207859754562378
5_20251106_145651,1762412176478,5,0.05703089013695717,0.4719480276107788,0.6336835026741028,0.6102931499481201,1.392967700958252,1.4179913997650146,-2.0114893913269043,7.476052284240723,10.835284233093262,-2.5607736110687256,-0.9122844934463501,0.16647210717201233,0.7323542833328247,11.308408737182617,-24.221786499023438,30.063823699951172,1.6573896408081055,1.8169517517089844,0.5690810680389404,5.818662643432617,9.018332481384277,-3.129854679107666
5_20251106_145651,1762412176497,5,0.05476657673716545,0.47580212354660034,0.6253973841667175,0.6160284280776978,1.392967700958252,1.4179913997650146,-2.0114893913269043,7.476052284240723,10.835284233093262,-2.5607736110687256,-0.9122844934463501,0.16647210717201233,0.7323542833328247,11.308408737182617,-24.221786499023438,30.063823699951172,1.6573896408081055,1.8169517517089844,0.5690810680389404,5.818662643432617,9.018332481384277,-3.129854679107666
5_20251106_145651,1762412176515,5,0.05454938858747482,0.47785547375679016,0.6166349649429321,0.6232494115829468,1.509832501411438,1.4863590002059937,-1.975935459136963,7.611319065093994,12.661981582641602,-0.024226002395153046,-1.1547977924346924,0.35706189274787903,0.25710150599479675,10.592427253723145,-24.891830444335938,29.793384552001953,1.1369576454162598,2.4451284408569336,2.1595945358276367,6.474361419677734,10.216853141784668,-2.1838204860687256
5_20251106_145651,1762412176537,5,0.055804044008255005,0.4772571921348572,0.6081620454788208,0.6318626403808594,1.578964352607727,1.5371302366256714,-1.9429404735565186,7.698703765869141,12.817598342895508,0.5000816583633423,-1.1547977924346924,0.35706189274787903,0.25710150599479675,9.922679901123047,-25.596908569335938,29.578182220458984,0.9794740676879883,2.0805959701538086,2.1471216678619385,6.719229698181152,10.7370023727417,-1.6470400094985962
5_20251106_145651,1762412176553,5,0.05716828256845474,0.4750432074069977,0.6009264588356018,0.6402758359909058,1.578964352607727,1.5371302366256714,-1.9429404735565186,7.698703765869141,12.817598342895508,0.5000816583633423,-0.6777124404907227,0.14997874200344086,0.2540471851825714,9.41243839263916,-26.290176391601562,29.22067642211914,0.9794740676879883,2.0805959701538086,2.1471216678619385,6.719229698181152,10.7370023727417,-1.6470400094985962
5_20251106_145651,1762412176573,5,0.057873521000146866,0.4734818935394287,0.595098614692688,0.6467790603637695,1.689595341682434,1.6271380186080933,-1.8775520324707031,8.257725715637207,13.241353988647461,1.1668381690979004,-0.3765560984611511,-0.055882666260004044,0.29253166913986206,8.941265106201172,-26.942855834960938,28.81136703491211,1.0302209854125977,1.6391754150390625,1.852211594581604,7.227504730224609,11.602178573608398,-0.6853734254837036
5_20251106_145651,1762412176591,5,0.05809425562620163,0.4738975167274475,0.5904895663261414,0.6506675481796265,1.7495354413986206,1.6788628101348877,-1.837172269821167,8.250543594360352,13.064189910888672,1.0279803276062012,-0.08761709928512573,-0.11758000403642654,0.1880737841129303,8.521062850952148,-27.542938232421875,28.48617172241211,0.8184309005737305,1.1696090698242188,1.3706830739974976,7.432112693786621,11.894580841064453,-0.342702716588974
5_20251106_145651,1762412176612,5,0.05792582035064697,0.4751380681991577,0.5877628326416016,0.6522448062896729,1.7495354413986206,1.6788628101348877,-1.837172269821167,8.250543594360352,13.064189910888672,1.0279803276062012,0.14817668497562408,-0.0839824378490448,0.028027238324284554,8.130363464355469,-28.053253173828125,28.136775970458984,0.8184309005737305,1.1696090698242188,1.3706830739974976,7.432112693786621,11.894580841064453,-0.342702716588974
5_20251106_145651,1762412176631,5,0.057448145002126694,0.4756220579147339,0.5873613357543945,0.6522959470748901,1.869092345237732,1.782112717628479,-1.7559254169464111,7.347968101501465,11.59780502319336,-0.6706326603889465,0.2660735845565796,-0.08276071399450302,-0.06910025328397751,7.916217803955078,-28.439971923828125,27.850685119628906,-0.1356344223022461,-0.31308937072753906,-0.3447107970714569,7.483602523803711,11.910894393920898,-0.3259218633174896
5_20251106_145651,1762412176651,5,0.05683336779475212,0.4754035770893097,0.5887777209281921,0.6512312889099121,1.914521336555481,1.8195126056671143,-1.726176381111145,6.903862953186035,10.71438217163086,-1.0524914264678955,0.30028200149536133,-0.10230838507413864,-0.09781090170145035,7.7412519454956055,-28.77435302734375,27.594154357910156,-0.4637918472290039,-0.9572105407714844,-0.5812556743621826,7.367654800415039,11.671592712402344,-0.4712357819080353
5_20251106_145651,1762412176667,5,0.05648176744580269,0.4751799702644348,0.5908851623535156,0.6495140790939331,1.960580587387085,1.8546651601791382,-1.6966148614883423,6.574674606323242,10.010517120361328,-1.209304928779602,0.31982967257499695,-0.13834939897060394,-0.08253928273916245,7.5934906005859375,-29.045303344726562,27.43453598022461,-0.6343841552734375,-1.3288612365722656,-0.5904553532600403,7.20905876159668,11.339378356933594,-0.6188495755195618
5_20251106_145651,1762412176687,5,0.056257668882608414,0.4752424359321594,0.593177318572998,0.6473950743675232,2.0044820308685303,1.885002851486206,-1.6688700914382935,6.499259948730469,9.755544662475586,-1.216487169265747,0.34059906005859375,-0.20920971035957336,-0.04466566443443298,7.476853370666504,-29.189498901367188,27.319087982177734,-0.5678391456604004,-1.2670669555664062,-0.47811007499694824,7.067099094390869,11.022611618041992,-0.7383770942687988
5_20251106_145651,1762412176706,5,0.05600326880812645,0.4758896827697754,0.5953910946846008,0.6449047327041626,2.0422792434692383,1.9089030027389526,-1.6448137760162354,6.402299404144287,9.754348754882812,-1.0967822074890137,0.38702481985092163,-0.2745722532272339,-0.04588739573955536,7.46707820892334,-29.1522216796875,27.278839111328125,-0.5318398475646973,-1.0146102905273438,-0.2867240905761719,6.934139251708984,10.768959045410156,-0.8100581169128418
5_20251106_145651,1762412176726,5,0.055918771773576736,0.47718220949172974,0.5976404547691345,0.6418692469596863,2.0760278701782227,1.927875280380249,-1.622950553894043,6.147327423095703,9.408401489257812,-1.17099928855896,0.4756001830101013,-0.25013765692710876,-0.09109138697385788,7.483802795410156,-29.064071655273438,27.335243225097656,-0.6294493675231934,-1.0884466171264648,-0.2887529730796814,6.7767767906188965,10.496848106384277,-0.8822463154792786
5_20251106_145651,1762412176745,5,0.05584273859858513,0.47852158546447754,0.6003669500350952,0.638324499130249,2.107578992843628,1.942381501197815,-1.6024454832077026,6.053957939147949,9.027739524841309,-1.329009771347046,0.5403518080711365,-0.19027289748191833,-0.10758472979068756,7.565502166748047,-28.88525390625,27.517593383789062,-0.5782551765441895,-1.1752872467041016,-0.3574107885360718,6.632213115692139,10.20302677154541,-0.9715989828109741
5_20251106_145651,1762412176765,5,0.05529993027448654,0.47925692796707153,0.6038483381271362,0.634524941444397,2.107578992843628,1.942381501197815,-1.6024454832077026,6.053957939147949,9.027739524841309,-1.329009771347046,0.5770036578178406,-0.19577068090438843,-0.04466566443443298,7.721220016479492,-28.6888427734375,27.676116943359375,-0.5782551765441895,-1.1752872467041016,-0.3574107885360718,6.632213115692139,10.20302677154541,-0.9715989828109741
5_20251106_145651,1762412176782,5,0.054153840988874435,0.4798770248889923,0.6075202822685242,0.6306381225585938,2.1594061851501465,1.955700397491455,-1.5714969635009766,6.450181007385254,8.50103759765625,-1.6366515159606934,0.627094566822052,-0.3448216915130615,0.059792205691337585,7.831521034240723,-28.43310546875,27.86103057861328,-0.08413267135620117,-1.11474609375,-0.44248807430267334,6.534313678741455,9.61578369140625,-1.19416344165802
5_20251106_145651,1762412176801,5,0.05274219438433647,0.4816369116306305,0.6108884811401367,0.6261464953422546,2.1841299533843994,1.9577614068984985,-1.558669924736023,6.6464972496032715,8.714112281799316,-1.6055281162261963,0.6771855354309082,-0.4853205680847168,0.1263764649629593,7.980507850646973,-28.125686645507812,28.143085479736328,0.08974695205688477,-0.7213373184204102,-0.32909178733825684,6.556750297546387,9.435449600219727,-1.2764363288879395
5_20251106_145651,1762412176820,5,0.05146867781877518,0.48509421944618225,0.6139349341392517,0.620579183101654,2.2084977626800537,1.9580949544906616,-1.5474724769592285,6.877527713775635,8.843393325805664,-1.6366515159606934,0.6771855354309082,-0.4853205680847168,0.1263764649629593,8.139354705810547,-27.867034912109375,28.35699462890625,0.2566218376159668,-0.4736452102661133,-0.28817224502563477,6.620905876159668,9.317038536071777,-1.3484792709350586
5_20251106_145651,1762412176839,5,0.05045056715607643,0.4890492260456085,0.6171097755432129,0.6143786311149597,2.232147455215454,1.9565441608428955,-1.5379900932312012,6.803310871124268,8.636303901672363,-1.769524097442627,0.738882839679718,-0.5470179915428162,-0.05871555954217911,8.300824165344238,-27.558425903320312,28.59899139404297,0.14592409133911133,-0.5445880889892578,-0.3368358612060547,6.657386779785156,9.180891990661621,-1.4326882362365723
5_20251106_145651,1762412176859,5,0.0499950535595417,0.49234846234321594,0.6208534240722656,0.6079757213592529,2.2542433738708496,1.953231930732727,-1.530444622039795,6.522004127502441,8.510614395141602,-1.9658401012420654,0.8140192031860352,-0.5677873492240906,-0.16378428041934967,8.488286018371582,-27.211227416992188,28.910343170166016,-0.1083064079284668,-0.5362224578857422,-0.42652153968811035,6.630310535430908,9.046836853027344,-1.539318561553955
5_20251106_145651,1762412176878,5,0.05016511678695679,0.495256632566452,0.6253662109375,0.6009337902069092,2.274972915649414,1.9475690126419067,-1.525061845779419,6.180845260620117,8.273598670959473,-2.2507376670837402,0.8567797541618347,-0.5329681038856506,-0.24625101685523987,8.703136444091797,-26.81195068359375,29.196697235107422,-0.3595719337463379,-0.6185903549194336,-0.569135308265686,6.540417194366455,8.892189025878906,-1.6816023588180542
5_20251106_145651,1762412176896,5,0.05048421397805214,0.49747297167778015,0.6307283043861389,0.5934255123138428,2.2914841175079346,1.9404700994491577,-1.5226126909255981,6.047972679138184,7.975533485412598,-2.555985450744629,0.8250147700309753,-0.5134204030036926,-0.2596900463104248,8.990991592407227,-26.419647216796875,29.404632568359375,-0.3939552307128906,-0.7333250045776367,-0.6995065212249756,6.441927909851074,8.708858489990234,-1.8564789295196533
5_20251106_145651,1762412176918,5,0.05084105208516121,0.4990651309490204,0.6363672018051147,0.5859915018081665,2.308619976043701,1.9284552335739136,-1.52267587184906,6.0946574211120605,7.471574783325195,-2.6852664947509766,0.7724804282188416,-0.5842806696891785,-0.18882974982261658,9.266772270202637,-26.016403198242188,29.693439483642578,-0.2778162956237793,-0.9898271560668945,-0.6630301475524902,6.37247371673584,8.46140193939209,-2.0222363471984863
5_20251106_145651,1762412176935,5,0.051463011652231216,0.5009794235229492,0.641515851020813,0.5786437392234802,2.308619976043701,1.9284552335739136,-1.52267587184906,6.0946574211120605,7.471574783325195,-2.6852664947509766,0.7187243103981018,-0.7131731510162354,-0.10575214773416519,9.266772270202637,-26.016403198242188,29.693439483642578,-0.2778162956237793,-0.9898271560668945,-0.6630301475524902,6.37247371673584,8.46140193939209,-2.0222363471984863
5_20251106_145651,1762412176956,5,0.052451230585575104,0.5040645599365234,0.6457569003105164,0.5711092948913574,2.334230422973633,1.9004721641540527,-1.5282725095748901,5.852853298187256,7.399751663208008,-2.754695415496826,0.7358285188674927,-0.8225179314613342,-0.13751709461212158,9.664202690124512,-25.617095947265625,29.919307708740234,-0.3754591941833496,-0.6593456268310547,-0.4630279541015625,6.2283124923706055,8.059097290039062,-2.2916674613952637
5_20251106_145651,1762412176974,5,0.05421579256653786,0.5081391334533691,0.6494704484939575,0.5630660653114319,2.343892812728882,1.88307785987854,-1.5340611934661865,5.409945011138916,7.301593780517578,-3.0180463790893555,0.840897262096405,-0.7522684931755066,-0.28290289640426636,10.051857948303223,-25.180496215820312,30.10492706298828,-0.6546940803527832,-0.6060028076171875,-0.5811030864715576,6.064639091491699,7.907596588134766,-2.436943292617798
5_20251106_145651,1762412176993,5,0.05635033920407295,0.511703372001648,0.653998613357544,0.5543195009231567,2.343892812728882,1.88307785987854,-1.5340611934661865,5.409945011138916,7.301593780517578,-3.0180463790893555,0.8598340749740601,-0.6099370121955872,-0.3678131103515625,10.516154289245605,-24.676345825195312,30.29480743408203,-0.6546940803527832,-0.6060028076171875,-0.5811030864715576,6.064639091491699,7.907596588134766,-2.436943292617798
5_20251106_145651,1762412177012,5,0.057899195700883865,0.5135387778282166,0.6596985459327698,0.5456404089927673,2.3539602756500244,1.8430984020233154,-1.5564002990722656,5.194476127624512,6.460068225860596,-4.380288600921631,0.7254437804222107,-0.6441454291343689,-0.33543723821640015,11.054877281188965,-24.1424560546875,30.50167465209961,-0.5463705062866211,-0.9788966178894043,-1.3260979652404785,5.740846633911133,7.43896484375,-3.0541906356811523
5_20251106_145651,1762412177031,5,0.059533797204494476,0.5149083733558655,0.6651223301887512,0.5375289916992188,2.355968952178955,1.8213236331939697,-1.5722975730895996,5.108288764953613,6.83115291595459,-4.280933380126953,0.6118230223655701,-0.8011376261711121,-0.29817450046539307,11.569228172302246,-23.610153198242188,30.707561492919922,-0.5060462951660156,-0.4862494468688965,-0.9813942909240723,5.614335060119629,7.317402362823486,-3.299539089202881
5_20251106_145651,1762412177050,5,0.062368012964725494,0.5172675251960754,0.6694120764732361,0.5295583605766296,2.355968952178955,1.8213236331939697,-1.5722975730895996,5.108288764953613,6.83115291595459,-4.280933380126953,0.6063252091407776,-0.8426764607429504,-0.35498493909835815,12.142592430114746,-23.111282348632812,30.888076782226562,-0.5060462951660156,-0.4862494468688965,-0.9813942909240723,5.614335060119629,7.317402362823486,-3.299539089202881
5_20251106_145651,1762412177070,5,0.06617436558008194,0.5200309753417969,0.6733366250991821,0.5213506817817688,2.3555233478546143,1.7976007461547852,-1.592331051826477,4.852120399475098,7.0609869956970215,-4.29649543762207,0.6179316639900208,-0.7950290441513062,-0.444782018661499,12.654928207397461,-22.61651611328125,31.079654693603516,-0.609771728515625,-0.20513200759887695,-0.7975649833679199,5.461892127990723,7.266119003295898,-3.4989304542541504
5_20251106_145651,1762412177089,5,0.07027829438447952,0.5220011472702026,0.6777366399765015,0.5130777359008789,2.3479275703430176,1.755684733390808,-1.6332120895385742,4.392453193664551,6.590546607971191,-4.98958683013916,0.6179316639900208,-0.7950290441513062,-0.444782018661499,13.212570190429688,-22.192840576171875,31.163482666015625,-0.7120208740234375,-0.48925018310546875,-1.040207862854004,5.104474067687988,7.07979679107666,-3.9493789672851562
5_20251106_145651,1762412177107,5,0.0743899717926979,0.5232808589935303,0.6824100017547607,0.5049354434013367,2.341283082962036,1.735012173652649,-1.6568201780319214,4.239231109619141,6.650399208068848,-5.415736198425293,0.5452387928962708,-0.9196454286575317,-0.372089147567749,13.92198371887207,-21.659317016601562,31.268821716308594,-0.6921944618225098,-0.3435182571411133,-1.1730856895446777,4.93142557144165,6.993917465209961,-4.242650508880615
5_20251106_145651,1762412177126,5,0.078976571559906,0.5252399444580078,0.6865142583847046,0.4965720772743225,2.341283082962036,1.735012173652649,-1.6568201780319214,4.239231109619141,6.650399208068848,-5.415736198425293,0.46949154138565063,-1.0509812831878662,-0.32505255937576294,14.618196487426758,-21.151153564453125,31.319080352783203,-0.6921944618225098,-0.3435182571411133,-1.1730856895446777,4.93142557144165,6.993917465209961,-4.242650508880615
5_20251106_145651,1762412177146,5,0.08446958661079407,0.5283821225166321,0.689668595790863,0.48788774013519287,2.3198421001434326,1.6930968761444092,-1.712639331817627,3.7209086418151855,6.9185380935668945,-5.213435173034668,0.46949154138565063,-1.0509812831878662,-0.32505255937576294,15.250858306884766,-20.696914672851562,31.338794708251953,-0.8224215507507324,-0.05437183380126953,-0.6010003089904785,4.543330192565918,6.972909927368164,-4.6124348640441895
5_20251106_145651,1762412177165,5,0.0908685177564621,0.5317754745483398,0.6924239993095398,0.4790686368942261,2.3059301376342773,1.6724839210510254,-1.7409785985946655,3.50783371925354,6.378668785095215,-5.397780895233154,0.44200262427330017,-1.120008945465088,-0.30978095531463623,15.903451919555664,-20.328323364257812,31.290061950683594,-0.8283975124359131,-0.47539329528808594,-0.6282768249511719,4.336231231689453,6.854062080383301,-4.769504070281982
5_20251106_145651,1762412177185,5,0.09747453778982162,0.5350342988967896,0.6950958371162415,0.4701901376247406,2.289583683013916,1.6482096910476685,-1.7717663049697876,3.5353660583496094,5.649665832519531,-5.574944019317627,0.4053507447242737,-1.223855972290039,-0.13996055722236633,16.690473556518555,-19.962066650390625,31.097782135009766,-0.6406922340393066,-0.9635171890258789,-0.6443519592285156,4.176058292388916,6.61318302154541,-4.930592060089111
5_20251106_145651,1762412177204,5,0.10398030281066895,0.5391658544540405,0.6970489621162415,0.4610976576805115,2.273404836654663,1.6230050325393677,-1.801454782485962,3.6562681198120117,5.411452770233154,-5.6240234375,0.30028200149536133,-1.4058936834335327,0.050629228353500366,17.441431045532227,-19.597518920898438,30.836448669433594,-0.4158320426940918,-0.9613842964172363,-0.5547451972961426,4.0721001625061035,6.372837066650391,-5.069278240203857
5_20251106_145651,1762412177222,5,0.11095303297042847,0.5453363656997681,0.697281539440155,0.45176997780799866,2.258586883544922,1.6002293825149536,-1.8274614810943604,3.586839199066162,5.7574005126953125,-5.420524597167969,0.30028200149536133,-1.4058936834335327,0.050629228353500366,18.23920440673828,-19.27880859375,30.454376220703125,-0.38820886611938477,-0.49234962463378906,-0.28099679946899414,3.975048065185547,6.249750137329102,-5.139527797698975
5_20251106_145651,1762412177242,5,0.11914672702550888,0.5531236529350281,0.6958984732627869,0.44224831461906433,2.2387049198150635,1.5718914270401,-1.8586339950561523,3.2313156127929688,5.769371032714844,-5.33433723449707,0.12496381998062134,-1.5818227529525757,0.0231403186917305,19.06095314025879,-18.95904541015625,30.127349853515625,-0.5949859619140625,-0.38430309295654297,-0.15584754943847656,3.8263015747070312,6.153674125671387,-5.178489685058594
5_20251106_145651,1762412177261,5,0.128383606672287,0.5607913136482239,0.6940436363220215,0.4328211843967438,2.2188799381256104,1.545074224472046,-1.8862392902374268,2.8291068077087402,5.257033348083496,-5.474391937255859,0.08586849272251129,-1.4914147853851318,-0.09414570778608322,19.751750946044922,-18.83355712890625,29.588714599609375,-0.7977559566497803,-0.7173128128051758,-0.23672199249267578,3.6268627643585205,5.974346160888672,-5.237669944763184
5_20251106_145651,1762412177281,5,0.13804663717746735,0.56723952293396,0.6925820708274841,0.42368918657302856,2.1963133811950684,1.514646291732788,-1.9154449701309204,2.724963426589966,4.786593437194824,-5.764078140258789,-0.04180223494768143,-1.4150567054748535,-0.1466800719499588,20.54023551940918,-18.701446533203125,29.02696990966797,-0.7215194702148438,-0.950202465057373,-0.4211263656616211,3.4464828968048096,5.736795902252197,-5.342951774597168
5_20251106_145651,1762412177298,5,0.14770175516605377,0.5724313259124756,0.6913323402404785,0.4154108762741089,2.1777145862579346,1.4894930124282837,-1.9384652376174927,2.7022194862365723,4.69442081451416,-5.766471862792969,-0.2183421552181244,-1.4425456523895264,-0.18149936199188232,21.37433433532715,-18.628402709960938,28.41180419921875,-0.5954108238220215,-0.8339004516601562,-0.33881568908691406,3.2976303100585938,5.528321266174316,-5.427656173706055
5_20251106_145651,1762412177318,5,0.15833133459091187,0.577214241027832,0.6893751621246338,0.40806466341018677,2.1528215408325195,1.4578052759170532,-1.9666534662246704,2.374228000640869,4.930238723754883,-5.707816123962402,-0.3313521146774292,-1.5121841430664062,-0.2749616503715515,22.2333984375,-18.552963256835938,27.716522216796875,-0.7387218475341797,-0.4784660339355469,-0.22412776947021484,3.112949848175049,5.40870475769043,-5.4836883544921875
5_20251106_145651,1762412177338,5,0.17026275396347046,0.5815114974975586,0.6869551539421082,0.40118271112442017,2.1232199668884277,1.4251267910003662,-1.994704008102417,1.6895157098770142,5.089446544647217,-5.463618278503418,-0.3313521146774292,-1.5121841430664062,-0.2749616503715515,22.2333984375,-18.552963256835938,27.716522216796875,-1.1387473344802856,-0.25540685653686523,0.016056060791015625,2.8282630443573,5.344853401184082,-5.479674339294434
5_20251106_145651,1762412177356,5,0.18339252471923828,0.5849426984786987,0.6846483945846558,0.394291490316391,2.094696521759033,1.397658348083496,-2.017098903656006,1.0335326194763184,4.996077060699463,-5.298425674438477,-0.3979363441467285,-1.437658667564392,-0.48815345764160156,23.102310180664062,-18.53790283203125,26.85821533203125,-1.4357843399047852,-0.2790207862854004,0.14499902725219727,2.4693169593811035,5.275097846984863,-5.443424701690674
5_20251106_145651,1762412177376,5,0.19689886271953583,0.5871763825416565,0.6828039884567261,0.3875996172428131,2.060295581817627,1.3686649799346924,-2.0393879413604736,0.3560027480125427,4.7470903396606445,-5.382219314575195,-0.3612844944000244,-1.335644245147705,-0.4850991368293762,24.018457412719727,-18.544906616210938,26.01485824584961,-1.6906514167785645,-0.4224061965942383,0.04896402359008789,2.046654224395752,5.169496536254883,-5.431183338165283
5_20251106_145651,1762412177395,5,0.209919735789299,0.5886459350585938,0.6813327670097351,0.3810712695121765,2.060295581817627,1.3686649799346924,-2.0393879413604736,0.3560027480125427,4.7470903396606445,-5.382219314575195,-0.3313521146774292,-1.2855533361434937,-0.3482654094696045,24.922208786010742,-18.564590454101562,25.103164672851562,-1.6906514167785645,-0.4224061965942383,0.04896402359008789,2.046654224395752,5.169496536254883,-5.431183338165283
5_20251106_145651,1762412177414,5,0.22193267941474915,0.5901926159858704,0.679669201374054,0.3747910261154175,1.9769736528396606,1.3111315965652466,-2.079902172088623,-0.2999803423881531,5.212742805480957,-4.738206386566162,-0.26110267639160156,-1.34358549118042,-0.22059470415115356,25.79361915588379,-18.522933959960938,24.09670639038086,-1.5334484577178955,0.10352230072021484,0.5475053787231445,1.2334680557250977,5.109220504760742,-5.285711765289307
5_20251106_145651,1762412177432,5,0.23325607180595398,0.5928017497062683,0.6771230101585388,0.3683505654335022,1.9337140321731567,1.2873053550720215,-2.09253191947937,-0.903293251991272,5.327659606933594,-3.7578229904174805,-0.055852122604846954,-1.3851242065429688,-0.14301487803459167,26.654970169067383,-18.432785034179688,23.1854248046875,-1.7094089984893799,0.17475128173828125,1.222311019897461,0.8061158061027527,5.1529083251953125,-4.980134010314941
5_20251106_145651,1762412177452,5,0.24397215247154236,0.5963016152381897,0.6742851734161377,0.36088982224464417,1.883670449256897,1.2613372802734375,-2.1034457683563232,-1.6227197647094727,4.396355152130127,-4.341983318328857,0.2953950762748718,-1.5408947467803955,-0.014122430235147476,27.52477264404297,-18.41650390625,22.20547103881836,-1.943068504333496,-0.6052427291870117,0.5105204582214355,0.32034870982170105,5.001597881317139,-4.852503776550293
5_20251106_145651,1762412177471,5,0.25305262207984924,0.6008512377738953,0.671794593334198,0.3516165316104889,1.883670449256897,1.2613372802734375,-2.1034457683563232,-1.6227197647094727,4.396355152130127,-4.341983318328857,0.4255092740058899,-1.9037483930587769,0.3621702492237091,28.337451934814453,-18.352630615234375,21.08895492553711,-1.943068504333496,-0.6052427291870117,0.5105204582214355,0.32034870982170105,5.001597881317139,-4.852503776550293
5_20251106_145651,1762412177490,5,0.26169541478157043,0.6085308790206909,0.6680378913879395,0.33901482820510864,1.7682005167007446,1.203679084777832,-2.1279265880584717,-2.0021843910217285,4.732726097106934,-5.764078140258789,0.1518418788909912,-1.9770522117614746,0.7519019246101379,29.06342124938965,-18.319427490234375,19.96847915649414,-1.4563512802124023,-0.01215219497680664,-0.6845345497131348,-0.5458330512046814,4.74487829208374,-5.079543590545654
5_20251106_145651,1762412177509,5,0.27089861035346985,0.6197726130485535,0.6604340076446533,0.32607176899909973,1.713786005973816,1.1828891038894653,-2.1409852504730225,-1.734045386314392,6.280510902404785,-5.7066192626953125,-0.2684330344200134,-1.7999014854431152,0.7140283584594727,29.697546005249023,-18.405059814453125,18.86922836303711,-0.9505698680877686,1.228506088256836,-0.5016603469848633,-0.7834755182266235,5.052004814147949,-5.204958915710449
5_20251106_145651,1762412177529,5,0.2811660170555115,0.6307546496391296,0.6504276990890503,0.31628793478012085,1.650102138519287,1.1658380031585693,-2.1563174724578857,-1.7903066873550415,6.839532852172852,-5.461224555969238,-0.6239563226699829,-1.290440320968628,0.2491602599620819,30.19338035583496,-18.586395263671875,17.668121337890625,-0.8054649233818054,1.4300222396850586,-0.20501232147216797,-0.9848417639732361,5.409510612487793,-5.25621223449707
5_20251106_145651,1762412177549,5,0.2924485206604004,0.6376495361328125,0.6415436267852783,0.3103204071521759,1.5878986120224,1.1536699533462524,-2.169822931289673,-2.4929747581481934,6.48161506652832,-5.135627269744873,-0.9391624927520752,-0.7284447550773621,-0.22731420397758484,30.653474807739258,-18.745803833007812,16.547168731689453,-1.206506371498108,0.8576836585998535,0.09646797180175781,-1.2864683866500854,5.623931407928467,-5.232095241546631
5_20251106_145651,1762412177566,5,0.3037358522415161,0.6383180618286133,0.636475682258606,0.3085341453552246,1.5337021350860596,1.1451706886291504,-2.1804561614990234,-3.09269642829895,6.227840423583984,-5.108094692230225,-1.2549796104431152,-0.3729214668273926,-0.2755725085735321,31.062498092651367,-18.95794677734375,15.355616569519043,-1.4449825286865234,0.4831275939941406,0.09920024871826172,-1.6477138996124268,5.744712829589844,-5.207294940948486
5_20251106_145651,1762412177585,5,0.3148537278175354,0.6347070932388306,0.6336118578910828,0.31072500348091125,1.4722856283187866,1.1392093896865845,-2.1898515224456787,-3.0591790676116943,6.861080169677734,-4.516752243041992,-1.2549796104431152,-0.3729214668273926,-0.2755725085735321,31.43355369567871,-19.197586059570312,14.162064552307129,-1.1291720867156982,0.8930940628051758,0.552433967590332,-1.930006980895996,5.967986106872559,-5.069186210632324
5_20251106_145651,1762412177606,5,0.32619303464889526,0.6306055784225464,0.6293655633926392,0.31596463918685913,1.4053337574005127,1.1383424997329712,-2.19482421875,-2.6653497219085693,7.576915264129639,-3.609388828277588,-1.4742798805236816,-0.33810219168663025,0.005425242707133293,31.68083381652832,-19.482559204101562,12.935784339904785,-0.5882742404937744,1.2871432304382324,1.1678376197814941,-2.077075481414795,6.289772033691406,-4.777226448059082
5_20251106_145651,1762412177624,5,0.3373260796070099,0.6277830004692078,0.6228145956993103,0.32280269265174866,1.3500216007232666,1.1416785717010498,-2.194559097290039,-2.3996047973632812,7.931241989135742,-3.02522873878479,-1.4241890907287598,-0.1566753387451172,0.4898409843444824,31.866392135620117,-19.7725830078125,11.81518268585205,-0.2580235004425049,1.3131756782531738,1.4015982151031494,-2.1415812969207764,6.618066310882568,-4.4268269538879395
5_20251106_145651,1762412177642,5,0.3468654453754425,0.6257652044296265,0.6152738928794861,0.3309686481952667,1.2983577251434326,1.147565484046936,-2.1899304389953613,-1.7831244468688965,7.721757888793945,-2.649355411529541,-1.4241890907287598,-0.1566753387451172,0.4898409843444824,32.0108642578125,-20.1407470703125,10.732073783874512,0.28676557540893555,0.8829531669616699,1.4219775199890137,-2.069890022277832,6.838804721832275,-4.071332931518555
5_20251106_145651,1762412177661,5,0.3544033169746399,0.6253713965415955,0.6065056324005127,0.33979368209838867,1.252591848373413,1.1546602249145508,-2.1815130710601807,-0.7237358093261719,7.448831081390381,-2.4386744499206543,-0.9935294985771179,-0.31672191619873047,1.194167971611023,32.00469207763672,-20.582443237304688,9.763405799865723,1.0769233703613281,0.4880208969116211,1.3061268329620361,-1.8006591796875,6.96081018447876,-3.7448012828826904
5_20251106_145651,1762412177681,5,0.35944536328315735,0.6276252865791321,0.5962390303611755,0.34840288758277893,1.2072948217391968,1.1647047996520996,-2.1672203540802,-0.18147243559360504,7.611629486083984,-2.2639052867889404,-0.846921980381012,-0.5036465525627136,1.3322234153747559,31.93549156188965,-21.054168701171875,8.886372566223145,1.295349359512329,0.520655632019043,1.1847167015075684,-1.476821780204773,7.090973854064941,-3.448621988296509
5_20251106_145651,1762412177700,5,0.36343735456466675,0.6332536339759827,0.583723783493042,0.3552037179470062,1.171441912651062,1.177059292793274,-2.152141571044922,-0.35384756326675415,8.44717025756836,-2.43029522895813,-0.9892534613609314,-0.36986714601516724,1.1489640474319458,31.74080467224121,-21.596755981445312,8.016631126403809,0.898379385471344,1.0849571228027344,0.8146612644195557,-1.2522269487380981,7.362213134765625,-3.2449564933776855
5_20251106_145651,1762412177719,5,0.36740073561668396,0.638691782951355,0.5712219476699829,0.3616558611392975,1.1393505334854126,1.1930732727050781,-2.137213945388794,-0.5346020460128784,8.921201705932617,-3.025228500366211,-1.3924241065979004,0.05101866275072098,0.8526946306228638,31.528093338012695,-22.240859985351562,7.171320915222168,0.5740998983383179,1.2471909523010254,0.1757822036743164,-1.1087019443511963,7.674010753631592,-3.2010107040405273
5_20251106_145651,1762412177738,5,0.37248754501342773,0.6405340433120728,0.5601290464401245,0.37043842673301697,1.1107836961746216,1.2142667770385742,-2.122678518295288,-0.4089118242263794,9.853702545166016,-3.071913719177246,-1.886002779006958,0.2862015664577484,0.5924662351608276,31.17791175842285,-22.956344604492188,6.305779457092285,0.5598320960998535,1.743753433227539,0.10327768325805664,-0.9687439203262329,8.109949111938477,-3.1751914024353027
5_20251106_145651,1762412177757,5,0.37931838631629944,0.6377115845680237,0.550356388092041,0.3828176259994507,1.0849906206130981,1.2413491010665894,-2.104740619659424,-0.47834065556526184,10.642559051513672,-1.6701688766479492,-1.886002779006958,0.2862015664577484,0.5924662351608276,30.805387496948242,-23.624267578125,5.548442840576172,0.3923226296901703,2.026087760925293,1.2040181159973145,-0.8706632852554321,8.616471290588379,-2.8741869926452637
5_20251106_145651,1762412177777,5,0.3891596496105194,0.6312111020088196,0.5407261848449707,0.3971681594848633,1.0849906206130981,1.2413491010665894,-2.104740619659424,-0.47834065556526184,10.642559051513672,-1.6701688766479492,-2.173720121383667,0.4529676139354706,-0.018398480489850044,30.444948196411133,-24.291534423828125,4.805112838745117,0.3923226296901703,2.026087760925293,1.2040181159973145,-0.8706632852554321,8.616471290588379,-2.8741869926452637
5_20251106_145651,1762412177796,5,0.40055760741233826,0.6215318441390991,0.5327941179275513,0.41156071424484253,1.056430459022522,1.2771257162094116,-2.077011823654175,-1.3114869594573975,10.806554794311523,-0.2205420732498169,-1.9269306659698486,0.5183301568031311,-0.07520890235900879,30.444948196411133,-24.291534423828125,4.805112838745117,-0.3526589870452881,1.7520666122436523,2.122915744781494,-0.9588279724121094,9.054488182067871,-2.3434579372406006
5_20251106_145651,1762412177815,5,0.41102972626686096,0.6106593012809753,0.5270779728889465,0.42466288805007935,1.0009502172470093,1.3452478647232056,-2.0166845321655273,-2.8796215057373047,10.808948516845703,0.04400581866502762,-1.7900969982147217,0.4890086352825165,0.14348067343235016,30.07826042175293,-24.858734130859375,4.022855758666992,-1.3348398208618164,1.1489019393920898,1.53065824508667,-1.5447816848754883,9.660046577453613,-1.4866523742675781
5_20251106_145651,1762412177834,5,0.4198266267776489,0.6006202697753906,0.5216022729873657,0.43695762753486633,0.9662611484527588,1.3873090744018555,-1.9768396615982056,-2.8556807041168213,11.36198616027832,0.594648540019989,-1.746114730834961,0.5922447443008423,0.3713332414627075,29.772794723510742,-25.2086181640625,3.1794662475585938,-1.0487191677093506,1.361551284790039,1.6650407314300537,-1.8069615364074707,10.000434875488281,-1.07039213180542
5_20251106_145651,1762412177852,5,0.42714542150497437,0.5921210050582886,0.5146792531013489,0.449493944644928,0.9346710443496704,1.4277559518814087,-1.9365146160125732,-2.591132640838623,11.821653366088867,1.470888614654541,-1.6660914421081543,0.8188756108283997,0.46907156705856323,29.530176162719727,-25.517120361328125,2.3663530349731445,-0.627336859703064,1.456974983215332,2.033024549484253,-1.963795781135559,10.364678382873535,-0.5621359944343567
5_20251106_145651,1762412177872,5,0.43258431553840637,0.5836040377616882,0.5076878666877747,0.463174045085907,0.9005905985832214,1.4756615161895752,-1.884981393814087,-2.2056827545166016,12.079018592834473,2.387828826904297,-1.6660914421081543,0.8188756108283997,0.46907156705856323,29.33942985534668,-25.760208129882812,1.610586166381836,-0.19350957870483398,1.3714714050292969,2.3599720001220703,-2.0121731758117676,10.707547187805176,0.027856945991516113
5_20251106_145651,1762412177890,5,0.4357663691043854,0.5745779871940613,0.5015888810157776,0.47788745164871216,0.9005905985832214,1.4756615161895752,-1.884981393814087,-2.2056827545166016,12.079018592834473,2.387828826904297,-1.2574230432510376,1.237928867340088,0.5661990642547607,29.095731735229492,-25.84564208984375,1.0179939270019531,-0.19350957870483398,1.3714714050292969,2.3599720001220703,-2.0121731758117676,10.707547187805176,0.027856945991516113
5_20251106_145651,1762412177910,5,0.43630334734916687,0.5653293132781982,0.49693822860717773,0.49304622411727905,0.8416942954063416,1.5719757080078125,-1.774559497833252,-1.711301565170288,12.162811279296875,2.590129852294922,-1.0246835947036743,1.4327946901321411,0.5686424970626831,28.83683967590332,-25.970748901367188,0.5457658767700195,0.22760748863220215,0.9058952331542969,1.6364071369171143,-1.9389090538024902,11.256916046142578,0.9537227153778076
5_20251106_145651,1762412177930,5,0.43441182374954224,0.5559791922569275,0.4940609037876129,0.508013129234314,0.8154296278953552,1.6226768493652344,-1.7152447700500488,-1.2839549779891968,11.998815536499023,1.8503532409667969,-0.7980527877807617,1.6801948547363281,0.6175117492675781,28.5410099029541,-26.087173461914062,0.2210092544555664,0.5239633321762085,0.5935192108154297,0.7173044681549072,-1.8079183101654053,11.405296325683594,1.1330487728118896
5_20251106_145651,1762412177947,5,0.42992258071899414,0.5464211106300354,0.4929978847503662,0.5230140089988708,0.797714352607727,1.66570246219635,-1.6675763130187988,-0.21738392114639282,12.354339599609375,1.0291774272918701,-0.7980527877807617,1.6801948547363281,0.6175117492675781,28.2415828704834,-26.2432861328125,0.0982046127319336,1.2724275588989258,0.7592344284057617,-0.08309710025787354,-1.4898115396499634,11.595105171203613,1.1122745275497437
5_20251106_145651,1762412177967,5,0.4229431748390198,0.5367215275764465,0.4931713938713074,0.5383595824241638,0.7851346135139465,1.7176263332366943,-1.6143922805786133,0.8850985765457153,12.857100486755371,1.0818476676940918,-0.802328884601593,1.774878978729248,0.6114030480384827,27.87700843811035,-26.46710205078125,0.06624221801757812,1.899928092956543,1.009596824645996,-0.024341464042663574,-1.0148295164108276,11.847503662109375,1.1061891317367554
5_20251106_145651,1762412177988,5,0.4155788719654083,0.5269007086753845,0.4930177927017212,0.5537176728248596,0.7805113792419434,1.7684168815612793,-1.564352035522461,1.4381353855133057,13.279659271240234,1.850353479385376,-0.8487545847892761,1.7046294212341309,0.3530072867870331,27.408653259277344,-26.763824462890625,0.40749263763427734,1.9623719453811646,1.1457242965698242,0.5953315496444702,-0.5242365598678589,12.13393497467041,1.2550219297409058
5_20251106_145651,1762412178007,5,0.40947842597961426,0.5164721012115479,0.4928416609764099,0.5680590271949768,0.7818649411201477,1.8244235515594482,-1.506937861442566,1.3280068635940552,12.932514190673828,2.7086377143859863,-0.8224874138832092,1.7223446369171143,0.04635317623615265,26.916744232177734,-27.037826538085938,0.8293876647949219,1.4817947149276733,0.6388626098632812,1.1628925800323486,-0.15378788113594055,12.293651580810547,1.5457451343536377
5_20251106_145651,1762412178025,5,0.40498170256614685,0.5044682621955872,0.49373430013656616,0.5811437368392944,0.7858259677886963,1.8697834014892578,-1.4570810794830322,1.007197618484497,12.19393539428711,2.806795835494995,-0.8224874138832092,1.7223446369171143,0.04635317623615265,26.399362564086914,-27.326522827148438,1.304102897644043,0.928788423538208,-0.07977294921875,1.008840560913086,0.07840920984745026,12.27370834350586,1.7979552745819092
5_20251106_145651,1762412178045,5,0.40087056159973145,0.49095186591148376,0.49646586179733276,0.5931195020675659,0.7858259677886963,1.8697834014892578,-1.4570810794830322,1.007197618484497,12.19393539428711,2.806795835494995,-0.5335483551025391,1.9654687643051147,-0.02939404733479023,25.86687660217285,-27.6663818359375,1.790787696838379,0.928788423538208,-0.07977294921875,1.008840560913086,0.07840920984745026,12.27370834350586,1.7979552745819092
5_20251106_145651,1762412178067,5,0.3952847719192505,0.47667911648750305,0.5007789731025696,0.6047704815864563,0.8040475845336914,1.9615083932876587,-1.3505021333694458,1.379480004310608,11.626533508300781,1.5486968755722046,-0.5335483551025391,1.9654687643051147,-0.02939404733479023,25.40874481201172,-27.953399658203125,2.4977312088012695,0.896272599697113,-0.40480804443359375,-0.19016993045806885,0.4832074046134949,12.031341552734375,1.7388668060302734
5_20251106_145651,1762412178081,5,0.38833722472190857,0.46348142623901367,0.5045738816261292,0.6162664890289307,0.8128253221511841,1.98936927318573,-1.31725013256073,1.7828855514526367,12.105353355407715,2.1591920852661133,-0.6184585690498352,1.8695628643035889,0.14897845685482025,24.97870635986328,-28.175765991210938,3.179943084716797,1.0397424697875977,0.05920886993408203,0.33626019954681396,0.7431430220603943,12.046144485473633,1.8229318857192993
5_20251106_145651,1762412178101,5,0.3811700642108917,0.45093849301338196,0.5071663856506348,0.6278105974197388,0.8282922506332397,2.025078058242798,-1.2719160318374634,2.2557201385498047,11.968889236450195,2.7206082344055176,-0.5237745046615601,1.8994953632354736,0.15264365077018738,24.549867630004883,-28.384902954101562,3.79483699798584,1.2100616693496704,-0.061804771423339844,0.7181410789489746,1.0456584692001343,12.030694007873535,2.002467155456543
5_20251106_145651,1762412178120,5,0.3737852871417999,0.4376565217971802,0.5098476409912109,0.6393721103668213,0.849399209022522,2.0590267181396484,-1.224158525466919,2.9009299278259277,11.451765060424805,2.7996134757995605,-0.1670295000076294,1.8090872764587402,0.40126559138298035,24.107446670532227,-28.60833740234375,4.5035905838012695,1.4842171669006348,-0.46314334869384766,0.6377170085906982,1.416712760925293,11.914908409118652,2.1618964672088623
5_20251106_145651,1762412178139,5,0.3648991882801056,0.4260384738445282,0.5129409432411194,0.6497933268547058,0.8746780753135681,2.0888776779174805,-1.182293176651001,3.6873912811279297,11.627731323242188,1.7114955186843872,0.11824432015419006,1.7504444122314453,0.7103631496429443,23.614152908325195,-28.884231567382812,5.114712715148926,1.8165428638458252,-0.22974205017089844,-0.36032068729400635,1.8708484172821045,11.857473373413086,2.0718162059783936
5_20251106_145651,1762412178157,5,0.3527413010597229,0.4177456200122833,0.5164844989776611,0.6590189337730408,0.9036736488342285,2.117014169692993,-1.1460527181625366,4.40681791305542,12.373493194580078,1.487647294998169,0.042497094720602036,1.7034077644348145,0.7720605134963989,23.110393524169922,-29.123794555664062,5.7802019119262695,2.028775691986084,0.4128150939941406,-0.4673351049423218,2.378042221069336,11.960678100585938,1.9549823999404907
5_20251106_145651,1762412178178,5,0.33889591693878174,0.41129443049430847,0.519476056098938,0.6679304838180542,0.9428306818008423,2.151700735092163,-1.1040183305740356,4.472655296325684,13.005534172058105,2.512321949005127,-0.14320579171180725,1.7376161813735962,0.47762367129325867,22.57853889465332,-29.427993774414062,6.470423698425293,1.6756906509399414,0.8358850479125977,0.44587159156799316,2.796964645385742,12.169649124145508,2.066450357437134
5_20251106_145651,1762412178197,5,0.32654881477355957,0.4040921926498413,0.5215150713920593,0.676828920841217,0.9773327708244324,2.1818768978118896,-1.0679024457931519,3.8597662448883057,12.954061508178711,2.8331308364868164,-0.14992529153823853,2.0088400840759277,0.05001836270093918,22.07054901123047,-29.742889404296875,7.134329795837402,0.8502414226531982,0.6275291442871094,0.6133444309234619,3.0095248222351074,12.326532363891602,2.2197864055633545
5_20251106_145651,1762412178216,5,0.3164252042770386,0.39323192834854126,0.5247045159339905,0.6855136156082153,1.014629602432251,2.2132463455200195,-1.0286178588867188,3.2983503341674805,12.16759967803955,2.602100372314453,-0.006982944905757904,2.1230716705322266,0.06345738470554352,22.07054901123047,-29.742889404296875,7.134329795837402,0.23106026649475098,-0.12714672088623047,0.3058512210845947,3.0672900676727295,12.294746398925781,2.2962491512298584
5_20251106_145651,1762412178235,5,0.30630236864089966,0.37924450635910034,0.5301176309585571,0.693777859210968,1.0501753091812134,2.240994930267334,-0.9901108145713806,3.7544260025024414,12.089792251586914,3.40891170501709,0.16650262475013733,1.89766263961792,0.5374884009361267,21.481176376342773,-30.000030517578125,7.742056846618652,0.5497088432312012,-0.16396331787109375,0.8901300430297852,3.2047171592712402,12.253755569458008,2.5187816619873047
5_20251106_145651,1762412178255,5,0.2941402792930603,0.3676760494709015,0.5350527167320251,0.7014373540878296,1.0501753091812134,2.240994930267334,-0.9901108145713806,3.7544260025024414,12.089792251586914,3.40891170501709,0.462161123752594,1.7278423309326172,0.9064507484436035,20.89544677734375,-30.395584106445312,8.455500602722168,0.5497088432312012,-0.16396331787109375,0.8901300430297852,3.2047171592712402,12.253755569458008,2.5187816619873047
5_20251106_145651,1762412178273,5,0.2789199650287628,0.3605653643608093,0.5389936566352844,0.7082952260971069,1.133363962173462,2.2944087982177734,-0.9093420505523682,6.365190505981445,12.322019577026367,3.199428081512451,0.793249785900116,1.633769154548645,0.9363831281661987,20.239519119262695,-30.745529174804688,9.15354061126709,2.22859525680542,0.008831024169921875,0.32989025115966797,4.136595249176025,12.313188552856445,2.869537830352783
5_20251106_145651,1762412178293,5,0.2615712583065033,0.3558681607246399,0.5438640117645264,0.7135476469993591,1.1839923858642578,2.317091464996338,-0.8741555213928223,7.295298099517822,11.601396560668945,1.9293586015701294,1.0247676372528076,1.4663922786712646,0.7537345886230469,19.60887908935547,-31.0694580078125,9.920672416687012,2.5269622802734375,-0.5694332122802734,-0.7521432638168335,4.768335819244385,12.170829772949219,2.681501865386963
5_20251106_145651,1762412178312,5,0.24429120123386383,0.35238686203956604,0.550412654876709,0.71637362241745,1.243281602859497,2.3345932960510254,-0.8444542288780212,7.61730432510376,10.466592788696289,0.8771522045135498,1.129225492477417,1.2373180389404297,0.4709041714668274,18.91974639892578,-31.336044311523438,10.835349082946777,2.2791748046875,-1.3633899688720703,-1.4434797763824463,5.33812952041626,11.82998275756836,2.320631980895996
5_20251106_145651,1762412178330,5,0.22910289466381073,0.34971946477890015,0.5581427216529846,0.7167180776596069,1.2957508563995361,2.3440041542053223,-0.8255207538604736,7.429367542266846,9.680131912231445,0.021261878311634064,1.092573642730713,1.0528368949890137,0.09461148828268051,18.270597457885742,-31.53759765625,11.76633358001709,1.672990322113037,-1.7198810577392578,-1.83949613571167,5.756377220153809,11.400012969970703,1.8607580661773682
5_20251106_145651,1762412178349,5,0.21696823835372925,0.34707221388816833,0.5666962265968323,0.7150671482086182,1.3576375246047974,2.347219467163086,-0.8105814456939697,6.823660373687744,8.997814178466797,-0.18582767248153687,0.8677752614021301,0.9312747120857239,-0.30428317189216614,17.688325881958008,-31.622711181640625,12.756211280822754,0.8538260459899902,-1.9217586517333984,-1.6372685432434082,5.969834327697754,10.919572830200195,1.4514409303665161
5_20251106_145651,1762412178368,5,0.20905286073684692,0.3432207703590393,0.5751497745513916,0.7125300765037537,1.3576375246047974,2.347219467163086,-0.8105814456939697,6.823660373687744,8.997814178466797,-0.18582767248153687,0.6521400809288025,0.8078799843788147,-0.5651223659515381,17.1318359375,-31.681121826171875,13.747597694396973,0.8538260459899902,-1.9217586517333984,-1.6372685432434082,5.969834327697754,10.919572830200195,1.4514409303665161
5_20251106_145651,1762412178387,5,0.20470942556858063,0.3375852108001709,0.5829163789749146,0.7101681232452393,1.4664705991744995,2.3334717750549316,-0.7975463271141052,5.344107627868652,8.2508544921875,-0.3534145951271057,0.4884283244609833,0.6356161236763,-0.630484938621521,16.71424102783203,-31.631423950195312,14.854620933532715,-0.5297460556030273,-1.7397727966308594,-1.171004295349121,5.87385368347168,9.99062728881836,0.8175897598266602
5_20251106_145651,1762412178406,5,0.2029493898153305,0.3316081762313843,0.5896002054214478,0.7079682946205139,1.5120569467544556,2.319206953048706,-0.7969314455986023,4.497793674468994,8.149105072021484,-0.44798147678375244,0.38641393184661865,0.44808071851730347,-0.5498508214950562,16.37960433959961,-31.42437744140625,15.778525352478027,-1.1008477210998535,-1.4732179641723633,-1.012457013130188,5.598641395568848,9.622323036193848,0.5644755363464355
5_20251106_145651,1762412178426,5,0.2024558186531067,0.3265215754508972,0.5950690507888794,0.7058953046798706,1.5120569467544556,2.319206953048706,-0.7969314455986023,4.497793674468994,8.149105072021484,-0.44798147678375244,0.24408245086669922,0.31002530455589294,-0.43684080243110657,16.17983055114746,-31.184295654296875,16.789451599121094,-1.1008477210998535,-1.4732179641723633,-1.012457013130188,5.598641395568848,9.622323036193848,0.5644755363464355
5_20251106_145651,1762412178446,5,0.2025780826807022,0.32291242480278015,0.5991402268409729,0.7040743231773376,1.5867443084716797,2.284031629562378,-0.8005317449569702,3.7089381217956543,9.08041000366211,0.3444651961326599,0.13595938682556152,0.31002530455589294,-0.43806254863739014,16.083864212036133,-30.848068237304688,17.616920471191406,-1.2528867721557617,-0.2759590148925781,-0.06323784589767456,4.961824893951416,9.356369018554688,0.4077030420303345
5_20251106_145651,1762412178464,5,0.20321020483970642,0.31971797347068787,0.6019273996353149,0.702971875667572,1.6116645336151123,2.268855333328247,-0.8014973998069763,3.317502975463867,9.312637329101562,0.665274441242218,0.13595938682556152,0.31002530455589294,-0.43806254863739014,16.245891571044922,-30.480712890625,18.265724182128906,-1.3154573440551758,-0.03498554229736328,0.2060571312904358,4.632960319519043,9.347622871398926,0.4592173099517822
5_20251106_145651,1762412178483,5,0.20413842797279358,0.3157656192779541,0.604629635810852,0.7021699547767639,1.631645917892456,2.253734827041626,-0.8023207783699036,2.8075599670410156,9.38326358795166,0.5120521187782288,0.2294217050075531,0.38760510087013245,-0.5028141736984253,16.433490753173828,-30.098541259765625,18.848194122314453,-1.460319995880127,0.028512954711914062,0.04226785898208618,4.267879962921143,9.354750633239746,0.4697842597961426
5_20251106_145651,1762412178502,5,0.20491276681423187,0.31117135286331177,0.6079506874084473,0.7011270523071289,1.6452717781066895,2.2393598556518555,-0.8034501075744629,2.315572500228882,9.350942611694336,0.34326815605163574,0.31005585193634033,0.3112470209598541,-0.3574283719062805,16.65563201904297,-29.75152587890625,19.417823791503906,-1.5618460178375244,-0.0030460357666015625,-0.10121285915374756,3.8774185180664062,9.353988647460938,0.4444810152053833
5_20251106_145651,1762412178521,5,0.2050781100988388,0.30713632702827454,0.6115253567695618,0.6997478008270264,1.6452717781066895,2.2393598556518555,-0.8034501075744629,2.315572500228882,9.350942611694336,0.34326815605163574,0.38152700662612915,0.17196987569332123,-0.10636300593614578,16.891159057617188,-29.390487670898438,19.92062759399414,-1.5618460178375244,-0.0030460357666015625,-0.10121285915374756,3.8774185180664062,9.353988647460938,0.4444810152053833
5_20251106_145651,1762412178540,5,0.20418602228164673,0.30507099628448486,0.614945113658905,0.6979128122329712,1.6535601615905762,2.225121259689331,-0.8049489855766296,2.1216506958007812,9.398824691772461,0.3229183256626129,0.3980203866958618,0.11760291457176208,0.060403063893318176,17.07821273803711,-29.055450439453125,20.191165924072266,-1.4046144485473633,0.03586864471435547,-0.09725016355514526,3.5262651443481445,9.362956047058105,0.4201684892177582
5_20251106_145651,1762412178559,5,0.20237332582473755,0.3052702248096466,0.617743194103241,0.6958796977996826,1.6595146656036377,2.2045583724975586,-0.8085470199584961,2.516676902770996,10.060792922973633,0.2630658745765686,0.3534272313117981,0.13837231695652008,0.03719020634889603,17.236268997192383,-28.797882080078125,20.513206481933594,-0.615875244140625,0.48377227783203125,-0.10418468713760376,3.132552146911621,9.577020645141602,0.36725056171417236
5_20251106_145651,1762412178577,5,0.20023660361766815,0.30588072538375854,0.6201690435409546,0.6940696239471436,1.6597713232040405,2.197598934173584,-0.8100549578666687,2.532238483428955,10.203241348266602,0.47614067792892456,0.30822324752807617,0.14875701069831848,-0.08315014839172363,17.33620262145996,-28.505661010742188,20.738971710205078,-0.48025083541870117,0.5009765625,0.08711209893226624,3.0124893188476562,9.702264785766602,0.3890285789966583
5_20251106_145651,1762412178598,5,0.19870860874652863,0.30581653118133545,0.6225132346153259,0.6924365758895874,1.6578724384307861,2.191115379333496,-0.811025083065033,2.361060619354248,10.069171905517578,0.5982396602630615,0.31494277715682983,0.15364393591880798,-0.20532308518886566,17.33620262145996,-28.505661010742188,20.738971710205078,-0.5211429595947266,0.29352569580078125,0.16736885905265808,2.8822035789489746,9.775646209716797,0.43087080121040344
5_20251106_145651,1762412178618,5,0.1980687379837036,0.30485886335372925,0.6250427961349487,0.6907614469528198,1.653907299041748,2.1849029064178467,-0.8119646310806274,2.031871795654297,9.542470932006836,0.39234718680381775,0.4145137071609497,0.14020490646362305,-0.2444184124469757,17.384828567504883,-27.995559692382812,21.38603973388672,-0.6802654266357422,-0.1865406036376953,-0.0308188796043396,2.712137222290039,9.729011535644531,0.42316606640815735
5_20251106_145651,1762412178637,5,0.1978493481874466,0.3034237325191498,0.6281622648239136,0.6886231303215027,1.6476960182189941,2.1769652366638184,-0.8143835067749023,1.8211911916732788,8.987039566040039,-0.13315749168395996,0.48965007066726685,0.0760641098022461,-0.16011910140514374,17.384828567504883,-27.995559692382812,21.38603973388672,-0.7127569913864136,-0.5935773849487305,-0.4450588524341583,2.5339481830596924,9.58061695098877,0.31190136075019836
5_20251106_145651,1762412178656,5,0.19736748933792114,0.3024846017360687,0.6318663358688354,0.6857799291610718,1.6395245790481567,2.167109489440918,-0.8193771243095398,1.7062745094299316,8.736856460571289,-0.6706326007843018,0.462772011756897,-0.01434386521577835,-0.030615774914622307,17.384366989135742,-27.748443603515625,21.71521759033203,-0.6621389389038086,-0.6750087738037109,-0.786027193069458,2.3684134483337402,9.411865234375,0.11539457738399506
5_20251106_145651,1762412178675,5,0.19640466570854187,0.3027965724468231,0.6352913975715637,0.6827476024627686,1.6395245790481567,2.167109489440918,-0.8193771243095398,1.7062745094299316,8.736856460571289,-0.6706326007843018,0.3570924401283264,-0.07298687845468521,0.028027238324284554,17.37251091003418,-27.501052856445312,21.935775756835938,-0.6621389389038086,-0.6750087738037109,-0.786027193069458,2.3684134483337402,9.411865234375,0.11539457738399506
5_20251106_145651,1762412178695,5,0.19553881883621216,0.30421096086502075,0.6378613710403442,0.6799655556678772,1.6176544427871704,2.14237117767334,-0.8373594284057617,1.6559983491897583,8.812271118164062,-0.8178697824478149,0.3570924401283264,-0.07298687845468521,0.028027238324284554,17.38372802734375,-27.265426635742188,22.238147735595703,-0.45843541622161865,-0.3712911605834961,-0.5869467258453369,2.114433765411377,9.183562278747559,-0.23092307150363922
5_20251106_145651,1762412178713,5,0.19512999057769775,0.30570605397224426,0.6395368576049805,0.6778352856636047,1.6065722703933716,2.130573034286499,-0.8470415472984314,1.6176927089691162,8.821847915649414,-0.7292880415916443,0.11824432015419006,-0.0027374373748898506,-0.0489417165517807,17.34428596496582,-27.070388793945312,22.51073455810547,-0.39739274978637695,-0.2893714904785156,-0.39869198203086853,2.015085458755493,9.11121940612793,-0.33059605956077576
5_20251106_145651,1762412178731,5,0.1951204091310501,0.3064448833465576,0.6406169533729553,0.676483154296875,1.5948151350021362,2.1187140941619873,-0.8565698862075806,1.5159435272216797,8.84698486328125,-0.46474021673202515,0.03822104260325432,0.07667498290538788,-0.1002543494105339,17.330413818359375,-26.86053466796875,22.716983795166016,-0.3993135690689087,-0.21138763427734375,-0.1073153018951416,1.9152570962905884,9.058372497558594,-0.35742491483688354
5_20251106_145651,1762412178752,5,0.19528457522392273,0.30611249804496765,0.6414307355880737,0.6758148670196533,1.5948151350021362,2.1187140941619873,-0.8565698862075806,1.5159435272216797,8.84698486328125,-0.46474021673202515,-0.005761217325925827,0.12982019782066345,-0.09658917039632797,17.36126708984375,-26.710952758789062,22.991458892822266,-0.3993135690689087,-0.21138763427734375,-0.1073153018951416,1.9152570962905884,9.058372497558594,-0.35742491483688354
5_20251106_145651,1762412178770,5,0.19537702202796936,0.30494406819343567,0.6420207023620605,0.6757560968399048,1.567068099975586,2.092498540878296,-0.875667154788971,1.4022239446640015,8.772768020629883,-0.32827651500701904,-0.0277523472905159,0.06079249456524849,0.007868701592087746,17.372867584228516,-26.486404418945312,23.14488983154297,-0.33102262020111084,-0.182403564453125,0.022677063941955566,1.7332465648651123,8.955171585083008,-0.3509535789489746
5_20251106_145651,1762412178789,5,0.19520647823810577,0.3039965331554413,0.6422610878944397,0.6760038733482361,1.5534733533859253,2.0808804035186768,-0.8837860226631165,1.5267170667648315,9.127094268798828,-0.1954040676355362,-0.03447185829281807,-0.05343920737504959,0.13492856919765472,17.437137603759766,-26.408309936523438,23.270572662353516,-0.1652235984802246,0.13753795623779297,0.12443961203098297,1.6919406652450562,8.989556312561035,-0.31984367966651917
5_20251106_145651,1762412178807,5,0.194961279630661,0.30457571148872375,0.641810953617096,0.676241397857666,1.5411171913146973,2.0715320110321045,-0.8907688856124878,1.642830729484558,9.439525604248047,-0.1882217675447464,-0.0430239662528038,-0.07298687845468521,0.17096957564353943,17.43926429748535,-26.359024047851562,23.366241455078125,-0.03928792476654053,0.35997581481933594,0.10529755055904388,1.6821186542510986,9.079549789428711,-0.2935193181037903
5_20251106_145651,1762412178828,5,0.1945667713880539,0.30614006519317627,0.6409127116203308,0.6765004992485046,1.527724027633667,2.063532829284668,-0.8977300524711609,1.7721121311187744,9.78427505493164,-0.0613345205783844,-0.0430239662528038,-0.07298687845468521,0.17096957564353943,17.441293716430664,-26.30987548828125,23.47542953491211,0.07199478149414062,0.5637798309326172,0.18574784696102142,1.7001173496246338,9.220495223999023,-0.24708236753940582
5_20251106_145651,1762412178846,5,0.1941172182559967,0.30740591883659363,0.640037477016449,0.676884114742279,1.5168951749801636,2.0584840774536133,-0.9029616713523865,1.731412410736084,9.815398216247559,-0.06971386820077896,-0.05707385390996933,0.003982074558734894,0.05429442226886749,17.4085693359375,-26.237457275390625,23.529605865478516,0.025035977363586426,0.4759225845336914,0.14189481735229492,1.7063764333724976,9.339475631713867,-0.2116086781024933
5_20251106_145651,1762412178865,5,0.19386841356754303,0.30794990062713623,0.6393402218818665,0.6773669123649597,1.5057239532470703,2.0545005798339844,-0.9082750082015991,1.5925546884536743,9.73280143737793,-0.23610372841358185,-0.0277523472905159,-0.019230784848332405,0.02924896590411663,17.434152603149414,-26.211029052734375,23.558147430419922,-0.0910574197769165,0.31466102600097656,-0.019596025347709656,1.6836121082305908,9.418140411376953,-0.2165077030658722
5_20251106_145651,1762412178885,5,0.1938149780035019,0.30818334221839905,0.6389160752296448,0.6776762008666992,1.5057239532470703,2.0545005798339844,-0.9082750082015991,1.5925546884536743,9.73280143737793,-0.23610372841358185,-0.03386099636554718,-0.024728570133447647,0.015199078246951103,17.457622528076172,-26.222274780273438,23.585895538330078,-0.0910574197769165,0.31466102600097656,-0.019596025347709656,1.6836121082305908,9.418140411376953,-0.2165077030658722
5_20251106_145651,1762412178904,5,0.1939965784549713,0.3085412085056305,0.6386191248893738,0.677741289138794,1.4926427602767944,2.0518617630004883,-0.9146320819854736,1.4680616855621338,9.892009735107422,-0.35580867528915405,-0.061960771679878235,0.019864557310938835,-0.0019051339477300644,17.394071578979492,-26.276199340820312,23.555355072021484,-0.17244040966033936,0.37909507751464844,-0.11144077777862549,1.6405020952224731,9.512914657592773,-0.24436789751052856
5_20251106_145651,1762412178922,5,0.19429364800453186,0.30864962935447693,0.6382529735565186,0.6779516935348511,1.471735954284668,2.0510218143463135,-0.9250016212463379,1.3567359447479248,9.973408699035645,-0.4180552661418915,-0.07051287591457367,0.06445768475532532,-0.006792051717638969,17.311891555786133,-26.444076538085938,23.535465240478516,-0.18946290016174316,0.29126930236816406,-0.1157565712928772,1.546198844909668,9.68213939666748,-0.3022986948490143
5_20251106_145651,1762412178942,5,0.19434544444084167,0.3082234859466553,0.637986421585083,0.6783815026283264,1.4600988626480103,2.051409959793091,-0.9308943748474121,1.237031102180481,9.814201354980469,-0.4874840974807739,-0.09922352433204651,0.10294216126203537,0.001760053914040327,17.210371017456055,-26.525497436523438,23.502925872802734,-0.24733424186706543,0.10564899444580078,-0.1481483280658722,1.4843653440475464,9.708552360534668,-0.33933576941490173
5_20251106_145651,1762412178961,5,0.1941489726305008,0.30751508474349976,0.6376861929893494,0.6790412664413452,1.447364091873169,2.0514752864837646,-0.9379834532737732,1.1233112812042236,9.602323532104492,-0.7328792810440063,-0.15420135855674744,0.1890740841627121,-0.012289835140109062,17.183574676513672,-26.576766967773438,23.446823120117188,-0.28884315490722656,-0.08498287200927734,-0.3148348331451416,1.4121544361114502,9.68730640411377,-0.41804444789886475
5_20251106_145651,1762412178979,5,0.1937992125749588,0.3064337372779846,0.6372337937355042,0.6800539493560791,1.4357999563217163,2.0510566234588623,-0.9451765418052673,1.1376760005950928,9.494588851928711,-0.8777222633361816,-0.27820688486099243,0.28314724564552307,-0.041000477969646454,17.171573638916016,-26.588912963867188,23.324420928955078,-0.21958279609680176,-0.1541738510131836,-0.36774230003356934,1.3572587966918945,9.648762702941895,-0.5099799633026123
5_20251106_145651,1762412178999,5,0.19320639967918396,0.3043115437030792,0.6365232467651367,0.6818386316299438,1.4238476753234863,2.0500495433807373,-0.9528763294219971,1.227454662322998,9.434736251831055,-0.6873914003372192,-0.393660306930542,0.31613394618034363,-0.02633972279727459,17.17741584777832,-26.701126098632812,23.32253646850586,-0.1038433313369751,-0.1712207794189453,-0.14192914962768555,1.3312979936599731,9.60595703125,-0.5454622507095337
5_20251106_145651,1762412179018,5,0.19277185201644897,0.3015136122703552,0.6351006627082825,0.6845259070396423,1.4119726419448853,2.0480852127075195,-0.9605672955513,1.3567359447479248,9.29109001159668,-0.5425483584403992,-0.43214479088783264,0.328351229429245,0.03596848249435425,17.07368278503418,-26.820358276367188,23.302722930908203,0.020350337028503418,-0.2518939971923828,0.0023311376571655273,1.3363856077194214,9.542984008789062,-0.5448794960975647
5_20251106_145651,1762412179037,5,0.19221127033233643,0.2988111674785614,0.6330475807189941,0.6877626180648804,1.4019286632537842,2.0460941791534424,-0.9665035605430603,1.581781268119812,9.463464736938477,-0.17864537239074707,-0.43214479088783264,0.328351229429245,0.03596848249435425,16.97064208984375,-26.938644409179688,23.18829345703125,0.19631659984588623,-0.06361579895019531,0.29298731684684753,1.3854646682739258,9.527080535888672,-0.4716326892375946
5_20251106_145651,1762412179056,5,0.19120284914970398,0.2964571416378021,0.6306357979774475,0.6912692189216614,1.393690824508667,2.044602870941162,-0.9701864123344421,1.8606938123703003,9.672948837280273,0.24151895940303802,-0.4095427989959717,0.16402862966060638,0.16974785923957825,16.915145874023438,-27.066986083984375,23.143142700195312,0.3801833391189575,0.11669445037841797,0.570521354675293,1.4805104732513428,9.556254386901855,-0.32900238037109375
5_20251106_145651,1762412179077,5,0.19015833735466003,0.29508480429649353,0.6278262138366699,0.6946934461593628,1.3870781660079956,2.044306993484497,-0.9715235233306885,2.015113115310669,9.949467658996582,0.4426232576370239,-0.3008088767528534,0.0449100136756897,0.1520327776670456,16.915145874023438,-27.066986083984375,23.143142700195312,0.42768216133117676,0.31457042694091797,0.6173005104064941,1.5874309539794922,9.634897232055664,-0.1746772825717926
5_20251106_145651,1762412179096,5,0.18959565460681915,0.2950357496738434,0.6251123547554016,0.6973105072975159,1.3870781660079956,2.044306993484497,-0.9715235233306885,2.015113115310669,9.949467658996582,0.4426232576370239,-0.23788982629776,0.010090721771121025,0.05185095965862274,16.86347007751465,-27.13214111328125,23.058765411376953,0.42768216133117676,0.31457042694091797,0.6173005104064941,1.5874309539794922,9.634897232055664,-0.1746772825717926
5_20251106_145651,1762412179115,5,0.1895701289176941,0.2952379584312439,0.6230841875076294,0.6990448832511902,1.377730369567871,2.048997402191162,-0.9689595103263855,1.7577475309371948,10.395967483520508,0.5060669183731079,-0.24766364693641663,0.03391444683074951,-0.05627209693193436,16.844011306762695,-27.281997680664062,22.892913818359375,0.07950735092163086,0.5056629180908203,0.4446781277656555,1.678240180015564,9.890304565429688,0.061388805508613586
5_20251106_145651,1762412179133,5,0.190278097987175,0.2948134243488312,0.6214815974235535,0.7004569172859192,1.3731868267059326,2.053356647491455,-0.96539306640625,1.5470668077468872,10.386390686035156,0.6628803014755249,-0.24766364693641663,0.03391444683074951,-0.05627209693193436,16.736642837524414,-27.47576904296875,22.790416717529297,-0.10493862628936768,0.3968687057495117,0.4811932146549225,1.6520054340362549,9.989521980285645,0.18168708682060242
5_20251106_145651,1762412179152,5,0.1914982944726944,0.29360073804855347,0.6200732588768005,0.7018804550170898,1.3681457042694092,2.0582714080810547,-0.960655152797699,1.3878593444824219,10.27147388458252,0.6736538410186768,-0.2482745200395584,0.11943551152944565,-0.14362575113773346,16.59351921081543,-27.659225463867188,22.673194885253906,-0.21131682395935059,0.22556209564208984,0.3935734033584595,1.5991761684417725,10.04591178894043,0.2800804376602173
5_20251106_145651,1762412179172,5,0.19266106188297272,0.2917378544807434,0.6189100742340088,0.7033641338348389,1.3624839782714844,2.0638608932495117,-0.9543277621269226,1.3950414657592773,10.26788330078125,0.8029351234436035,-0.24094414710998535,0.13287453353405,-0.12163462489843369,16.524005889892578,-27.837249755859375,22.491336822509766,-0.163307785987854,0.17757701873779297,0.41828376054763794,1.5583492517471313,10.090306282043457,0.3846513628959656
5_20251106_145651,1762412179190,5,0.19357769191265106,0.2895173132419586,0.6179355382919312,0.7048851251602173,1.357674479484558,2.068554162979126,-0.9477843642234802,1.4501057863235474,10.172119140625,1.0375568866729736,-0.20551398396492004,0.03391444683074951,-0.0129006989300251,16.515422821044922,-28.011306762695312,22.311927795410156,-0.08659482002258301,0.06544971466064453,0.5223244428634644,1.5367006063461304,10.106669425964355,0.5152324438095093
5_20251106_145651,1762412179209,5,0.1942884474992752,0.28799253702163696,0.6167567372322083,0.7063450813293457,1.3522214889526367,2.0742533206939697,-0.93828284740448,1.511155366897583,10.255912780761719,1.235069990158081,-0.10288870334625244,-0.0680999606847763,0.09766580909490585,16.458812713623047,-28.164352416992188,22.22570037841797,-0.02043616771697998,0.11939430236816406,0.5758700370788574,1.531591534614563,10.136518478393555,0.6591999530792236
5_20251106_145651,1762412179228,5,0.19467076659202576,0.28815996646881104,0.6154865622520447,0.7072789072990417,1.3473261594772339,2.0799739360809326,-0.9287682175636292,1.5410815477371216,10.346887588500977,1.0016453266143799,0.00340175349265337,-0.07665206491947174,0.13004164397716522,16.44268035888672,-28.251693725585938,22.088199615478516,0.007591962814331055,0.16829490661621094,0.273956298828125,1.5334895849227905,10.178592681884766,0.7276890277862549
5_20251106_145651,1762412179248,5,0.19452141225337982,0.28930529952049255,0.6146149039268494,0.7076103687286377,1.3473261594772339,2.0799739360809326,-0.9287682175636292,1.5410815477371216,10.346887588500977,1.0016453266143799,0.06754255294799805,-0.038778454065322876,0.08728111535310745,16.401880264282227,-28.341033935546875,21.99026870727539,0.007591962814331055,0.16829490661621094,0.273956298828125,1.5334895849227905,10.178592681884766,0.7276890277862549
5_20251106_145651,1762412179266,5,0.1940680593252182,0.29043278098106384,0.6144402027130127,0.7074246406555176,1.3379772901535034,2.0907959938049316,-0.9130072593688965,1.520731806755066,10.089522361755371,0.3301006257534027,0.02050596848130226,0.052851252257823944,0.015199078246951103,16.40114974975586,-28.376815795898438,21.800247192382812,-0.003568291664123535,-0.08267021179199219,-0.2877824604511261,1.5243000984191895,10.172192573547363,0.6178830862045288
5_20251106_145651,1762412179286,5,0.1936545968055725,0.29085615277290344,0.6146910190582275,0.7071461081504822,1.3335561752319336,2.0946149826049805,-0.906945526599884,1.5662195682525635,9.745969772338867,0.257080614566803,-0.07723239064216614,0.17746764421463013,-0.0593264177441597,16.450782775878906,-28.372421264648438,21.680564880371094,0.03353559970855713,-0.34097862243652344,-0.2886419892311096,1.5326839685440063,10.08694839477539,0.5457226037979126
5_20251106_145651,1762412179304,5,0.19348104298114777,0.29007136821746826,0.6147595643997192,0.7074562907218933,1.3301033973693848,2.0963361263275146,-0.9027299284934998,1.6655747890472412,9.459875106811523,0.15293732285499573,-0.17252729833126068,0.286812424659729,-0.11919116228818893,16.4483585357666,-28.422103881835938,21.625442504882812,0.10631263256072998,-0.5016593933105469,-0.31422823667526245,1.5592621564865112,9.96153450012207,0.4671655595302582
5_20251106_145651,1762412179324,5,0.19323141872882843,0.2878691256046295,0.6146486401557922,0.7085195779800415,1.3273897171020508,2.0963985919952393,-0.8986676931381226,1.865481972694397,9.38446044921875,0.33967700600624084,-0.2812612056732178,0.28925588726997375,-0.15523217618465424,16.365367889404297,-28.389724731445312,21.59577178955078,0.24497592449188232,-0.46165943145751953,-0.10199084877967834,1.6205060482025146,9.84611988067627,0.4416678547859192
5_20251106_145651,1762412179344,5,0.1931283175945282,0.28469836711883545,0.614100992679596,0.7103015184402466,1.3258439302444458,2.0956549644470215,-0.8935574889183044,1.9600489139556885,9.5819730758667,0.8532112240791321,-0.33440643548965454,0.15425479412078857,-0.14973439276218414,16.291139602661133,-28.419204711914062,21.55175018310547,0.2716343402862549,-0.2113170623779297,0.3292347192764282,1.6884145736694336,9.793290138244629,0.5239765048027039
5_20251106_145651,1762412179362,5,0.19375908374786377,0.28177809715270996,0.6128448843955994,0.712376058101654,1.3246811628341675,2.095085382461548,-0.8870865106582642,1.7529593706130981,9.820185661315918,1.377518892288208,-0.27820688486099243,-0.019230784848332405,-0.09964349120855331,16.263736724853516,-28.48291015625,21.481868743896484,0.05163586139678955,0.021515846252441406,0.6828339099884033,1.7013235092163086,9.798669815063477,0.6946849822998047
5_20251106_145651,1762412179380,5,0.19517940282821655,0.2802014946937561,0.6110746264457703,0.7141287922859192,1.3246811628341675,2.095085382461548,-0.8870865106582642,1.7529593706130981,9.820185661315918,1.377518892288208,-0.0998343974351883,-0.09253454953432083,-0.05138517916202545,16.274599075317383,-28.518707275390625,21.37343978881836,0.05163586139678955,0.021515846252441406,0.6828339099884033,1.7013235092163086,9.798669815063477,0.6946849822998047
5_20251106_145651,1762412179399,5,0.1966119259595871,0.2799535095691681,0.6097342371940613,0.7149782776832581,1.3229278326034546,2.0945632457733154,-0.8784646391868591,1.4872143268585205,9.816595077514648,1.47208571434021,0.03089066594839096,-0.055271800607442856,-0.01351156271994114,16.32332992553711,-28.527145385742188,21.280521392822266,-0.17128729820251465,0.014340400695800781,0.6219205856323242,1.6585016250610352,9.802254676818848,0.8501651287078857
