session_id,timestamp,label,quaternion_w,quaternion_x,quaternion_y,quaternion_z,position_x,position_y,position_z,accelerometer_x,accelerometer_y,accelerometer_z,gyroscope_x,gyroscope_y,gyroscope_z,magnetometer_x,magnetometer_y,magnetometer_z,linear_acceleration_x,linear_acceleration_y,linear_acceleration_z,gravity_x,gravity_y,gravity_z
8_20251106_181401,1762424004539,8,0.27373629808425903,0.28404703736305237,0.6847625374794006,0.6127690672874451,0.06718060374259949,1.9168983697891235,-1.2551417350769043,-0.4196852743625641,10.069171905517578,-0.8872986435890198,-0.02354501560330391,0.04037052392959595,-0.013397027738392353,21.921497344970703,-20.23656463623047,20.14993667602539,-0.14219456911087036,0.016122817993164062,0.0511435866355896,-0.2774907052516937,10.053049087524414,-0.9384422302246094
8_20251106_181401,1762424004560,8,0.273898720741272,0.2835350036621094,0.6846843957901001,0.6130208969116211,0.06949451565742493,1.9205745458602905,-1.2557201385498047,-0.4017295241355896,9.971014022827148,-1.0165799856185913,-0.02354501560330391,0.04037052392959595,-0.013397027738392353,21.832176208496094,-20.305580139160156,20.212764739990234,-0.09939104318618774,-0.0656280517578125,-0.06251019239425659,-0.30233848094940186,10.036642074584961,-0.9540697932243347
8_20251106_181401,1762424004579,8,0.27400052547454834,0.2834998071193695,0.684628963470459,0.6130536794662476,0.07143985480070114,1.9240877628326416,-1.2567559480667114,-0.3777885138988495,10.042837142944336,-1.0991764068603516,-0.016214638948440552,0.014103339053690434,0.014091884717345238,21.82099151611328,-20.293411254882812,20.17198944091797,-0.06036001443862915,0.004955291748046875,-0.11608529090881348,-0.31742849946022034,10.037881851196289,-0.9830911159515381
8_20251106_181401,1762424004597,8,0.2743944823741913,0.28408291935920715,0.6843563318252563,0.6129118800163269,0.07456451654434204,1.9294315576553345,-1.257663369178772,-0.27364522218704224,9.992561340332031,-0.7161205410957336,-0.010716856457293034,-0.05858956277370453,0.04341339319944382,21.771442413330078,-20.309280395507812,20.18328094482422,0.03415021300315857,-0.03685760498046875,0.2095499038696289,-0.3077954351902008,10.0294189453125,-0.9256704449653625
8_20251106_181401,1762424004616,8,0.2748033106327057,0.28483402729034424,0.6839227080345154,0.6128641366958618,0.07456451654434204,1.9294315576553345,-1.257663369178772,-0.27364522218704224,9.992561340332031,-0.7161205410957336,0.001500437967479229,-0.02193767949938774,0.04219166189432144,21.77374267578125,-20.28295135498047,20.062164306640625,0.03415021300315857,-0.03685760498046875,0.2095499038696289,-0.3077954351902008,10.0294189453125,-0.9256704449653625
8_20251106_181401,1762424004636,8,0.27466994524002075,0.284924179315567,0.6835729479789734,0.6132720708847046,0.07671581953763962,1.9323275089263916,-1.2572572231292725,-0.2006252259016037,10.027275085449219,-0.7604113817214966,0.001500437967479229,-0.02193767949938774,0.04219166189432144,21.824501037597656,-20.24224090576172,20.078433990478516,0.08573617041110992,-0.0017156600952148438,0.13220727443695068,-0.2863613963127136,10.028990745544434,-0.8926186561584473
8_20251106_181401,1762424004655,8,0.27480000257492065,0.28523802757263184,0.6832172870635986,0.6134642362594604,0.08078598976135254,1.9366517066955566,-1.256201982498169,-0.25209832191467285,9.915950775146484,-0.7987169027328491,-0.01010599173605442,0.030596690252423286,-0.014618759043514729,21.78653335571289,-20.269737243652344,20.076435089111328,0.011394351720809937,-0.0861358642578125,0.06967353820800781,-0.2634926736354828,10.002086639404297,-0.8683904409408569
8_20251106_181401,1762424004673,8,0.27488890290260315,0.2851914167404175,0.6830431222915649,0.6136400103569031,0.08263368159532547,1.9380347728729248,-1.2556517124176025,-0.2640688419342041,9.827367782592773,-0.8813133835792542,-0.01010599173605442,0.030596690252423286,-0.014618759043514729,21.822078704833984,-20.29193115234375,20.023311614990234,-0.0004609525203704834,-0.13977527618408203,-0.010338366031646729,-0.2636078894138336,9.967143058776855,-0.8709750175476074
8_20251106_181401,1762424004693,8,0.2748405933380127,0.2846984267234802,0.6830386519432068,0.6138954162597656,0.08470998704433441,1.9389169216156006,-1.255608081817627,-0.22217214107513428,9.777092933654785,-1.0477032661437988,0.008219950832426548,0.0428139790892601,-0.013397027738392353,21.859439849853516,-20.27685546875,20.011531829833984,0.03314858675003052,-0.1520395278930664,-0.14138257503509521,-0.2553207278251648,9.929132461547852,-0.9063206911087036
8_20251106_181401,1762424004713,8,0.27489420771598816,0.28461533784866333,0.6830655932426453,0.6138799786567688,0.08676675707101822,1.9393912553787231,-1.2562193870544434,-0.18865472078323364,9.811807632446289,-1.1434671878814697,0.027767620980739594,-0.036598432809114456,0.001263725571334362,21.895179748535156,-20.298782348632812,19.931377410888672,0.05333280563354492,-0.09385967254638672,-0.18971717357635498,-0.24198752641677856,9.905667304992676,-0.9537500143051147
8_20251106_181401,1762424004731,8,0.27528467774391174,0.28535711765289307,0.6830720901489258,0.6133532524108887,0.0887717753648758,1.9395580291748047,-1.2570775747299194,-0.22336915135383606,9.802230834960938,-1.0548856258392334,0.021658971905708313,-0.06653080135583878,-0.004844921641051769,21.857818603515625,-20.313858032226562,19.943157196044922,0.01489470899105072,-0.0827493667602539,-0.08090853691101074,-0.23826386034488678,9.884980201721191,-0.9739770889282227
8_20251106_181401,1762424004750,8,0.2759099304676056,0.2863694131374359,0.6830189228057861,0.6126593351364136,0.09082906693220139,1.9394434690475464,-1.2580918073654175,-0.1826694756746292,9.78547191619873,-1.0465061664581299,-0.0003321561962366104,-0.03598756715655327,-0.020727403461933136,21.858722686767578,-20.30103302001953,19.91638946533203,0.04447551071643829,-0.07960700988769531,-0.058023273944854736,-0.2271449863910675,9.865078926086426,-0.9884828925132751
8_20251106_181401,1762424004769,8,0.2764427661895752,0.2868233025074005,0.6829387545585632,0.6122960448265076,0.09296134859323502,1.9388632774353027,-1.2593262195587158,-0.16231964528560638,9.693299293518066,-1.0872058868408203,-0.009495127014815807,-0.017050761729478836,-0.03905334323644638,21.859329223632812,-20.288612365722656,19.93016815185547,0.051860272884368896,-0.13742351531982422,-0.07897841930389404,-0.21417991816997528,9.83072280883789,-1.0082274675369263
8_20251106_181401,1762424004790,8,0.2769971787929535,0.287135511636734,0.6828480362892151,0.6120002865791321,0.09528040140867233,1.9376070499420166,-1.2611573934555054,-0.15274325013160706,9.608308792114258,-1.2045166492462158,-0.009495127014815807,-0.017050761729478836,-0.03905334323644638,21.83304214477539,-20.327606201171875,19.901363372802734,0.04914933443069458,-0.1779308319091797,-0.15703129768371582,-0.20189258456230164,9.786239624023438,-1.0474853515625
8_20251106_181401,1762424004807,8,0.2774902284145355,0.28745153546333313,0.682738721370697,0.6117504239082336,0.09776445478200912,1.935906171798706,-1.263507604598999,0.001676127314567566,9.531697273254395,-1.3661184310913086,-0.044925279915332794,-0.01094211544841528,-0.017062216997146606,21.89438247680664,-20.311477661132812,19.944629669189453,0.16285496950149536,-0.20363426208496094,-0.25490641593933105,-0.1611788421869278,9.735331535339355,-1.1112120151519775
8_20251106_181401,1762424004828,8,0.2779545485973358,0.2880038022994995,0.6825186014175415,0.6115255355834961,0.10136563330888748,1.933562994003296,-1.2667804956436157,0.24348008632659912,9.502967834472656,-1.4451236724853516,-0.06630554795265198,-0.06958512961864471,0.004318049177527428,21.83315658569336,-20.31585693359375,19.98272705078125,0.3237271308898926,-0.18589115142822266,-0.26712942123413086,-0.08024705946445465,9.688858985900879,-1.1779942512512207
8_20251106_181401,1762424004845,8,0.2786810100078583,0.2894359529018402,0.6819751262664795,0.6111249327659607,0.10639089345932007,1.9308401346206665,-1.2703795433044434,0.5044368505477905,9.507756233215332,-1.3565419912338257,-0.09684877842664719,-0.136780247092247,0.006761507596820593,21.916244506835938,-20.348106384277344,19.998886108398438,0.46774715185165405,-0.1448822021484375,-0.1428382396697998,0.03668971359729767,9.65263843536377,-1.2137037515640259
8_20251106_181401,1762424004865,8,0.27973636984825134,0.29161760210990906,0.6809884309768677,0.6107057332992554,0.11342398822307587,1.9277604818344116,-1.2738051414489746,0.6971617937088013,9.535287857055664,-1.15663480758667,-0.1634330302476883,-0.1215086281299591,-0.024392593652009964,21.9788818359375,-20.318618774414062,19.961318969726562,0.5283776521682739,-0.09388065338134766,0.045655131340026855,0.16878412663936615,9.629168510437012,-1.2022899389266968
8_20251106_181401,1762424004883,8,0.2809918522834778,0.2937518358230591,0.6794619560241699,0.6108067631721497,0.12116871029138565,1.9252676963806152,-1.2763062715530396,0.8719310164451599,9.686117172241211,-1.0285505056381226,-0.24345630407333374,-0.046983130276203156,-0.09525290876626968,22.050884246826172,-20.33856201171875,19.92318344116211,0.562517523765564,0.045558929443359375,0.1389915943145752,0.30941349267959595,9.640558242797852,-1.1675420999526978
8_20251106_181401,1762424004903,8,0.28228476643562317,0.29489484429359436,0.6776000261306763,0.6117274761199951,0.12116871029138565,1.9252676963806152,-1.2763062715530396,0.8719310164451599,9.686117172241211,-1.0285505056381226,-0.2966015338897705,0.02021198533475399,-0.1874934881925583,22.197002410888672,-20.340774536132812,19.847705841064453,0.562517523765564,0.045558929443359375,0.1389915943145752,0.30941349267959595,9.640558242797852,-1.1675420999526978
8_20251106_181401,1762424004923,8,0.2836659848690033,0.29503220319747925,0.6756905913352966,0.6131327748298645,0.14221642911434174,1.9205125570297241,-1.2801862955093384,0.8515811562538147,9.665766716003418,-1.1446642875671387,-0.30454277992248535,0.01654679886996746,-0.24002784490585327,22.304351806640625,-20.3831787109375,19.78348159790039,0.3324311375617981,0.011345863342285156,-0.01581120491027832,0.5191500186920166,9.654420852661133,-1.1288530826568604
8_20251106_181401,1762424004941,8,0.28547215461730957,0.2950534224510193,0.673738956451416,0.6144306063652039,0.1519300937652588,1.9186077117919922,-1.2820571660995483,0.6839942932128906,9.67654037475586,-1.2224724292755127,-0.30454277992248535,0.01654679886996746,-0.24002784490585327,22.413307189941406,-20.40019989013672,19.692752838134766,0.13187545537948608,0.01769542694091797,-0.07489550113677979,0.5521188378334045,9.658844947814941,-1.147576928138733
8_20251106_181401,1762424004961,8,0.2879656255245209,0.29615551233291626,0.6716524362564087,0.6150208711624146,0.1623222976922989,1.9166617393493652,-1.283633828163147,0.5978066921234131,9.680131912231445,-1.0165799856185913,-0.29476892948150635,-0.1166217103600502,-0.20948460698127747,22.413307189941406,-20.40019989013672,19.692752838134766,0.036550283432006836,0.017029762268066406,0.1047976016998291,0.5612564086914062,9.663102149963379,-1.1213775873184204
8_20251106_181401,1762424004980,8,0.29090267419815063,0.2987636625766754,0.6692219972610474,0.6150267124176025,0.1623222976922989,1.9166617393493652,-1.283633828163147,0.5978066921234131,9.680131912231445,-1.0165799856185913,-0.26361483335494995,-0.28399863839149475,-0.10624846071004868,22.49667739868164,-20.44365692138672,19.573482513427734,0.036550283432006836,0.017029762268066406,0.1047976016998291,0.5612564086914062,9.663102149963379,-1.1213775873184204
8_20251106_181401,1762424004999,8,0.2938474118709564,0.30262818932533264,0.6663538813591003,0.6148515343666077,0.18232572078704834,1.9148939847946167,-1.2856472730636597,0.9497392177581787,10.002138137817383,-1.021368145942688,-0.20802615582942963,-0.41716715693473816,0.012259290553629398,22.69253158569336,-20.44134521484375,19.36480712890625,0.2871261239051819,0.2443714141845703,0.06400609016418457,0.6626130938529968,9.757766723632812,-1.0853742361068726
8_20251106_181401,1762424005018,8,0.29703840613365173,0.30795812606811523,0.6630285382270813,0.6142663955688477,0.19331888854503632,1.9157357215881348,-1.2859210968017578,1.1316907405853271,10.215211868286133,-0.8849045038223267,-0.19336539506912231,-0.5937070846557617,0.08861737698316574,22.83580780029297,-20.51702117919922,19.09851837158203,0.3752620816230774,0.36595630645751953,0.16037583351135254,0.7564286589622498,9.849255561828613,-1.0452803373336792
8_20251106_181401,1762424005037,8,0.3005543053150177,0.3139684200286865,0.659211277961731,0.6136215925216675,0.2051992118358612,1.91786789894104,-1.2852585315704346,1.2801249027252197,10.334918022155762,-0.7089382410049438,-0.24101285636425018,-0.5808788537979126,0.021422261372208595,23.026119232177734,-20.615036010742188,18.87421417236328,0.418956995010376,0.38852977752685547,0.2690736651420593,0.8611679077148438,9.946388244628906,-0.9780119061470032
8_20251106_181401,1762424005057,8,0.3046998679637909,0.3171526789665222,0.6559383869171143,0.613446831703186,0.2051992118358612,1.91786789894104,-1.2852585315704346,1.2801249027252197,10.334918022155762,-0.7089382410049438,-0.31065142154693604,-0.5039099454879761,-0.0842573344707489,23.251567840576172,-20.747398376464844,18.555973052978516,0.418956995010376,0.38852977752685547,0.2690736651420593,0.8611679077148438,9.946388244628906,-0.9780119061470032
8_20251106_181401,1762424005075,8,0.30938100814819336,0.31925395131111145,0.652635931968689,0.6135361790657043,0.23115350306034088,1.9252300262451172,-1.2808082103729248,1.3292038440704346,10.362449645996094,-0.5138192176818848,-0.3546336889266968,-0.4629819989204407,-0.19421300292015076,23.454055786132812,-20.856231689453125,18.237281799316406,0.29111576080322266,0.2603416442871094,0.3072342872619629,1.038088083267212,10.102108001708984,-0.8210535049438477
8_20251106_181401,1762424005094,8,0.314580500125885,0.3203257620334625,0.6494772434234619,0.6136854290962219,0.24294017255306244,1.9295321702957153,-1.2771955728530884,1.03113853931427,10.376813888549805,-0.3390499949455261,-0.3546336889266968,-0.4629819989204407,-0.19421300292015076,23.692890167236328,-20.974563598632812,17.852214813232422,-0.005559682846069336,0.21976470947265625,0.38560283184051514,1.0366982221603394,10.157049179077148,-0.7246528267860413
8_20251106_181401,1762424005113,8,0.3204343020915985,0.3217921853065491,0.6460917592048645,0.6134631633758545,0.25499358773231506,1.9346868991851807,-1.271624207496643,0.9090395569801331,10.358858108520508,-0.146325021982193,-0.2807190418243408,-0.6822824478149414,-0.15023073554039001,23.968578338623047,-21.090110778808594,17.428070068359375,-0.10212689638137817,0.16144657135009766,0.4626622498035431,1.0111664533615112,10.19741153717041,-0.6089872717857361
8_20251106_181401,1762424005133,8,0.3265542685985565,0.32458198070526123,0.6424990892410278,0.612538754940033,0.26589372754096985,1.9400807619094849,-1.2655302286148071,1.0191681385040283,10.467789649963379,-0.2205420881509781,-0.20130664110183716,-0.8093423247337341,-0.07204004377126694,24.26913070678711,-21.203392028808594,16.93732452392578,0.0064013004302978516,0.21630191802978516,0.3107561469078064,1.0127668380737305,10.251487731933594,-0.5312982201576233
8_20251106_181401,1762424005152,8,0.33270642161369324,0.3287346363067627,0.6387060880661011,0.6109783053398132,0.26589372754096985,1.9400807619094849,-1.2655302286148071,1.0191681385040283,10.467789649963379,-0.2205420881509781,-0.16465476155281067,-0.9449542760848999,-0.05554669350385666,24.627090454101562,-21.37548828125,16.447711944580078,0.0064013004302978516,0.21630191802978516,0.3107561469078064,1.0127668380737305,10.251487731933594,-0.5312982201576233
8_20251106_181401,1762424005171,8,0.33945080637931824,0.33392783999443054,0.6345824599266052,0.6087449789047241,0.28725066781044006,1.953702688217163,-1.2512425184249878,1.110143780708313,10.92027473449707,0.0164736807346344,-0.18481329083442688,-1.0286426544189453,-0.1257961541414261,24.96551513671875,-21.461410522460938,15.972480773925781,0.05178713798522949,0.4728412628173828,0.3867727816104889,1.0583566427230835,10.447433471679688,-0.3702991008758545
8_20251106_181401,1762424005190,8,0.34718263149261475,0.33918699622154236,0.6301795840263367,0.6060446500778198,0.2964918613433838,1.9624706506729126,-1.2415435314178467,0.8025021553039551,11.067511558532715,0.5288108587265015,-0.22818470001220703,-1.0145928859710693,-0.26201897859573364,25.30633544921875,-21.52086639404297,15.362617492675781,-0.20468366146087646,0.4960622787475586,0.7192879915237427,1.0071858167648315,10.571449279785156,-0.19047711789608002
8_20251106_181401,1762424005209,8,0.35569414496421814,0.3432987928390503,0.6259421110153198,0.6031783223152161,0.30401182174682617,1.9727283716201782,-1.2289701700210571,0.4409932494163513,11.06152629852295,0.7550531625747681,-0.19580885767936707,-0.9431216716766357,-0.3786941170692444,25.771835327148438,-21.52215576171875,14.758712768554688,-0.4529540538787842,0.3920612335205078,0.7564242482185364,0.8939473032951355,10.669465065002441,-0.0013710856437683105
8_20251106_181401,1762424005228,8,0.36437156796455383,0.3462865352630615,0.6224044561386108,0.5999431014060974,0.3083505630493164,1.9832521677017212,-1.215928316116333,0.001676127314567566,11.13095474243164,0.6161954402923584,-0.10845521092414856,-0.9192979335784912,-0.4410023093223572,26.275192260742188,-21.50769805908203,14.075447082519531,-0.7138169407844543,0.36919212341308594,0.4940532445907593,0.7154930830001831,10.761762619018555,0.12214221060276031
8_20251106_181401,1762424005247,8,0.3730011284351349,0.3489812910556793,0.6195845603942871,0.5959842205047607,0.3083505630493164,1.9832521677017212,-1.215928316116333,0.001676127314567566,11.13095474243164,0.6161954402923584,-0.10845521092414856,-0.9192979335784912,-0.4410023093223572,26.838985443115234,-21.48993682861328,13.462215423583984,-0.7138169407844543,0.36919212341308594,0.4940532445907593,0.7154930830001831,10.761762619018555,0.12214221060276031
8_20251106_181401,1762424005265,8,0.38176923990249634,0.3525400459766388,0.6166673302650452,0.5913451910018921,0.3072883188724518,2.0051069259643555,-1.1900452375411987,-0.7129623293876648,11.261433601379395,0.38516488671302795,-0.04736873880028725,-0.991990864276886,-0.4074047803878784,27.421802520751953,-21.357696533203125,12.78426742553711,-0.9605612754821777,0.3452625274658203,0.15799200534820557,0.24759891629219055,10.916171073913574,0.2271728813648224
8_20251106_181401,1762424005285,8,0.3902514576911926,0.35788726806640625,0.6131768226623535,0.5862036347389221,0.302141934633255,2.0184290409088135,-1.1759686470031738,-0.741691529750824,11.523588180541992,0.5252196788787842,0.10595830529928207,-1.296201467514038,-0.08792252838611603,28.015594482421875,-21.24950408935547,12.07925033569336,-0.7914323806762695,0.4859333038330078,0.2384374439716339,0.04974083602428436,11.037654876708984,0.28678223490715027
8_20251106_181401,1762424005304,8,0.3983927071094513,0.3653648793697357,0.6088687777519226,0.5805777907371521,0.29590725898742676,2.032655715942383,-1.1620652675628662,-0.529813826084137,11.840805053710938,0.7239298820495605,0.17559689283370972,-1.4067680835723877,0.004318049177527428,28.636859893798828,-21.1007080078125,11.240842819213867,-0.46364372968673706,0.6425199508666992,0.3497181236743927,-0.0661700963973999,11.198285102844238,0.37421175837516785
8_20251106_181401,1762424005323,8,0.4063572585582733,0.3741660416126251,0.6040734052658081,0.5744291543960571,0.289116233587265,2.0487091541290283,-1.1471848487854004,-0.38257670402526855,12.123309135437012,0.983689546585083,0.2183574140071869,-1.4391438961029053,-0.04455112665891647,29.30475616455078,-20.986404418945312,10.403604507446289,-0.25312528014183044,0.7400188446044922,0.4875822067260742,-0.1294514238834381,11.38329029083252,0.4961073398590088
8_20251106_181401,1762424005343,8,0.4146707057952881,0.383120059967041,0.5992845296859741,0.5675607919692993,0.28161558508872986,2.066344738006592,-1.130873203277588,-0.5118581056594849,12.25259017944336,1.2889370918273926,0.2177465558052063,-1.3921072483062744,-0.20337596535682678,30.011226654052734,-20.832183837890625,9.582145690917969,-0.3059253394603729,0.6954402923583984,0.634263813495636,-0.20593276619911194,11.557149887084961,0.6546732783317566
8_20251106_181401,1762424005363,8,0.423440158367157,0.390781968832016,0.5951038002967834,0.5602136850357056,0.28161558508872986,2.066344738006592,-1.130873203277588,-0.5118581056594849,12.25259017944336,1.2889370918273926,0.2177465558052063,-1.3921072483062744,-0.20337596535682678,30.59393310546875,-20.711692810058594,8.822835922241211,-0.3059253394603729,0.6954402923583984,0.634263813495636,-0.20593276619911194,11.557149887084961,0.6546732783317566
8_20251106_181401,1762424005380,8,0.4326827824115753,0.3964686095714569,0.5918844938278198,0.5525133013725281,0.26049739122390747,2.104692220687866,-1.0917913913726807,-1.6418726444244385,12.229846954345703,2.0131521224975586,0.1975880116224289,-1.1233267784118652,-0.5558449029922485,30.59393310546875,-20.711692810058594,8.822835922241211,-1.0287470817565918,0.4219064712524414,0.9194152355194092,-0.6131255626678467,11.807940483093262,1.0937368869781494
8_20251106_181401,1762424005401,8,0.4416883885860443,0.4001956284046173,0.5898418426513672,0.5448315739631653,0.24382677674293518,2.1248254776000977,-1.0684301853179932,-2.148224353790283,12.07303237915039,2.023925542831421,0.2684483528137207,-1.0176472663879395,-0.6126552820205688,31.291332244873047,-20.50762939453125,7.961395263671875,-1.228079080581665,0.21207332611083984,0.7441508769989014,-0.9201452732086182,11.86095905303955,1.2797746658325195
8_20251106_181401,1762424005420,8,0.4503365159034729,0.40337079763412476,0.5886186957359314,0.5366722345352173,0.2231900840997696,2.14408016204834,-1.0438438653945923,-2.498960018157959,11.90305233001709,2.067019462585449,0.4022276997566223,-1.0365839004516602,-0.615098774433136,31.930213928222656,-20.26946258544922,7.057744979858398,-1.2630517482757568,0.03367424011230469,0.6297957897186279,-1.2359082698822021,11.869378089904785,1.4372236728668213
8_20251106_181401,1762424005440,8,0.4585190713405609,0.40703317523002625,0.5879852771759033,0.5275959968566895,0.2000557780265808,2.1614906787872314,-1.0195326805114746,-2.879621744155884,11.881505966186523,2.210665225982666,0.5231788754463196,-1.0909509658813477,-0.5973836779594421,32.587730407714844,-20.13030242919922,6.166479110717773,-1.3149707317352295,0.009702682495117188,0.61875319480896,-1.5646510124206543,11.871803283691406,1.591912031173706
8_20251106_181401,1762424005457,8,0.466402143239975,0.41148945689201355,0.5875638723373413,0.5176042318344116,0.17500652372837067,2.1773078441619873,-0.995592474937439,-3.281830310821533,11.931781768798828,2.428528308868408,0.6282476186752319,-1.0634620189666748,-0.5992162823677063,33.27586364746094,-19.876670837402344,5.292087554931641,-1.3737435340881348,0.047982215881347656,0.6692930459976196,-1.9080867767333984,11.88379955291748,1.7592352628707886
8_20251106_181401,1762424005476,8,0.4736804664134979,0.4161304831504822,0.5876856446266174,0.5070382952690125,0.14483454823493958,2.1928341388702393,-0.9700943827629089,-3.7498764991760254,11.761800765991211,2.3028383255004883,0.7290403246879578,-0.9150218963623047,-0.6523615121841431,33.96904373168945,-19.523391723632812,4.500904083251953,-1.4734318256378174,-0.09759902954101562,0.4348825216293335,-2.276444673538208,11.859399795532227,1.8679558038711548
8_20251106_181401,1762424005496,8,0.4792933762073517,0.41929110884666443,0.5896111726760864,0.49682143330574036,0.1085021123290062,2.2074851989746094,-0.9446461200714111,-4.302913188934326,11.571470260620117,1.8515503406524658,0.8017331957817078,-0.7128256559371948,-0.7024524211883545,34.64308166503906,-19.083396911621094,3.6700382232666016,-1.6211748123168945,-0.23034381866455078,-0.013124346733093262,-2.6817383766174316,11.801814079284668,1.864674687385559
8_20251106_181401,1762424005515,8,0.4843388795852661,0.42222046852111816,0.5923897624015808,0.48602479696273804,0.1085021123290062,2.2074851989746094,-0.9446461200714111,-4.302913188934326,11.571470260620117,1.8515503406524658,0.8420502543449402,-0.5515574216842651,-0.7055068016052246,35.29206848144531,-18.634323120117188,3.0276832580566406,-1.6211748123168945,-0.23034381866455078,-0.013124346733093262,-2.6817383766174316,11.801814079284668,1.864674687385559
8_20251106_181401,1762424005533,8,0.48834219574928284,0.4246051013469696,0.596025288105011,0.4753801226615906,0.03029051050543785,2.228318214416504,-0.9016788005828857,-5.034310340881348,10.838874816894531,1.8359886407852173,0.889086902141571,-0.41777801513671875,-0.6596919298171997,35.9715576171875,-18.08252716064453,2.3208389282226562,-1.5506548881530762,-0.6965312957763672,-0.0011216402053833008,-3.4836554527282715,11.535406112670898,1.8371102809906006
8_20251106_181401,1762424005553,8,0.4910794496536255,0.4266815483570099,0.6003183722496033,0.46518996357917786,-0.013929694890975952,2.2340469360351562,-0.8813962340354919,-5.198306083679199,10.430681228637695,1.8120477199554443,0.9623906016349792,-0.301102876663208,-0.5686730742454529,36.4874382019043,-17.594520568847656,1.9309539794921875,-1.371720552444458,-0.8837795257568359,-0.020050048828125,-3.826585531234741,11.314460754394531,1.8320977687835693
8_20251106_181401,1762424005571,8,0.4924625754356384,0.4290465712547302,0.6049948930740356,0.4553908705711365,-0.05990596488118172,2.236013650894165,-0.8623831272125244,-5.272523403167725,10.047625541687012,1.739027738571167,1.0185902118682861,-0.21313832700252533,-0.459328293800354,37.05619430541992,-17.02812957763672,1.5581321716308594,-1.156750202178955,-1.0134687423706055,-0.07445597648620605,-4.1157732009887695,11.061094284057617,1.813483715057373
8_20251106_181401,1762424005591,8,0.49254488945007324,0.43178945779800415,0.6098500490188599,0.446139395236969,-0.10947154462337494,2.23420786857605,-0.8435127139091492,-5.296464443206787,9.820186614990234,1.7665598392486572,1.0185902118682861,-0.21313832700252533,-0.459328293800354,37.57602310180664,-16.453567504882812,1.305257797241211,-0.9445528984069824,-0.9927263259887695,-0.037539005279541016,-4.351911544799805,10.812912940979004,1.8040988445281982
8_20251106_181401,1762424005610,8,0.4916093945503235,0.4349595606327057,0.6147642135620117,0.43725889921188354,-0.15667115151882172,2.2289514541625977,-0.8264833092689514,-5.2509765625,9.490997314453125,1.8036683797836304,1.0650157928466797,-0.13922370970249176,-0.36892029643058777,38.02274703979492,-15.872161865234375,1.1443195343017578,-0.7192521095275879,-1.0575323104858398,-0.00034439563751220703,-4.531724452972412,10.548529624938965,1.8040127754211426
8_20251106_181401,1762424005632,8,0.48925817012786865,0.43799757957458496,0.62041175365448,0.42880508303642273,-0.20542410016059875,2.2197887897491455,-0.8108851313591003,-5.042689800262451,9.263558387756348,1.3332278728485107,1.2366688251495361,0.19919534027576447,-0.3224945664405823,38.3198356628418,-15.339714050292969,1.152414321899414,-0.40877246856689453,-1.0279769897460938,-0.37662792205810547,-4.633917331695557,10.291535377502441,1.7098557949066162
8_20251106_181401,1762424005650,8,0.48529762029647827,0.44068771600723267,0.6272394061088562,0.4205368459224701,-0.20542410016059875,2.2197887897491455,-0.8108851313591003,-5.042689800262451,9.263558387756348,1.3332278728485107,1.3319637775421143,0.32869866490364075,-0.36464422941207886,38.54122543334961,-14.8271484375,1.4141120910644531,-0.40877246856689453,-1.0279769897460938,-0.37662792205810547,-4.633917331695557,10.291535377502441,1.7098557949066162
8_20251106_181401,1762424005668,8,0.48021170496940613,0.4430930018424988,0.6351089477539062,0.4119489789009094,-0.2548274099826813,2.2056989669799805,-0.7980606555938721,-4.8643293380737305,8.814664840698242,0.893910825252533,1.3319637775421143,0.32869866490364075,-0.36464422941207886,38.714481353759766,-14.305335998535156,1.6876277923583984,-0.18432950973510742,-1.1814966201782227,-0.6527559161186218,-4.679999828338623,9.996161460876465,1.5466667413711548
8_20251106_181401,1762424005686,8,0.4740751385688782,0.44478166103363037,0.6439549922943115,0.40341541171073914,-0.33249953389167786,2.1722936630249023,-0.7862804532051086,-4.930167198181152,7.83906888961792,0.06794680655002594,1.3527331352233887,0.6243572235107422,-0.42756330966949463,38.8385124206543,-13.775764465332031,2.121641159057617,-0.1698751449584961,-1.464810848236084,-1.0021154880523682,-4.760292053222656,9.303879737854004,1.070062279701233
8_20251106_181401,1762424005705,8,0.4670363962650299,0.44566234946250916,0.6533470153808594,0.3954741358757019,-0.37236878275871277,2.147733211517334,-0.7855379581451416,-4.981640338897705,7.286032676696777,-0.25405946373939514,1.3527331352233887,0.6243572235107422,-0.42756330966949463,38.85873031616211,-13.129386901855469,2.716075897216797,-0.1770787239074707,-1.6142778396606445,-1.0592974424362183,-4.804561614990234,8.900310516357422,0.8052379488945007
8_20251106_181401,1762424005724,8,0.45901212096214294,0.4458257555961609,0.662983775138855,0.3885868489742279,-0.37236878275871277,2.147733211517334,-0.7855379581451416,-4.981640338897705,7.286032676696777,-0.25405946373939514,1.2348363399505615,0.9114636182785034,-0.3628116250038147,38.786128997802734,-12.591590881347656,3.5617752075195312,-0.1770787239074707,-1.6142778396606445,-1.0592974424362183,-4.804561614990234,8.900310516357422,0.8052379488945007
8_20251106_181401,1762424005745,8,0.45011404156684875,0.44522079825401306,0.672823429107666,0.3827328383922577,-0.4132130444049835,2.1164751052856445,-0.7888417840003967,-5.125286102294922,6.697083950042725,-0.5257896780967712,1.14687180519104,1.0696775913238525,-0.30355775356292725,38.65742874145508,-11.970001220703125,4.420385360717773,-0.2565793991088867,-1.7625813484191895,-1.0648221969604492,-4.868706703186035,8.459665298461914,0.5390324592590332
8_20251106_181401,1762424005763,8,0.4402124583721161,0.44384849071502686,0.682727038860321,0.37827935814857483,-0.487000972032547,2.0452239513397217,-0.8037996888160706,-5.438913345336914,5.744233131408691,-0.8358254432678223,1.0778440237045288,1.2712628841400146,-0.20032164454460144,38.48060989379883,-11.327545166015625,5.385692596435547,-0.3835105895996094,-1.8095078468322754,-0.9038500785827637,-5.055402755737305,7.553740978240967,0.0680246353149414
8_20251106_181401,1762424005783,8,0.4288819432258606,0.44207462668418884,0.6926243901252747,0.3753688633441925,-0.5272436141967773,1.99672269821167,-0.8170766830444336,-5.334770202636719,5.162467002868652,-1.0824177265167236,1.0521876811981201,1.4832329750061035,-0.024392593652009964,38.159000396728516,-10.634666442871094,6.630275726318359,-0.2234935760498047,-1.9130191802978516,-0.920353889465332,-5.111276626586914,7.075486183166504,-0.1620638221502304
8_20251106_181401,1762424005801,8,0.4152885973453522,0.4399951696395874,0.7026984095573425,0.3743721842765808,-0.5272436141967773,1.99672269821167,-0.8170766830444336,-5.334770202636719,5.162467002868652,-1.0824177265167236,1.0100380182266235,1.6530532836914062,0.2395009547472,38.700279235839844,-9.669242858886719,11.183982849121094,-0.2234935760498047,-1.9130191802978516,-0.920353889465332,-5.111276626586914,7.075486183166504,-0.1620638221502304
8_20251106_181401,1762424005819,8,0.3995223939418793,0.43855464458465576,0.7121518850326538,0.3753550350666046,-0.5892031788825989,1.9038596153259277,-0.8488394618034363,-4.404662132263184,4.7027997970581055,-2.0400569438934326,0.9666666388511658,1.7171940803527832,0.5321051478385925,38.700279235839844,-9.669242858886719,11.183982849121094,0.5487632751464844,-1.5347990989685059,-1.2771860361099243,-4.953425407409668,6.237598896026611,-0.7628709077835083
8_20251106_181401,1762424005840,8,0.38224929571151733,0.43862608075141907,0.7202524542808533,0.37779501080513,-0.6171842813491821,1.8458313941955566,-0.8733130693435669,-3.619398355484009,4.660902976989746,-2.2914373874664307,0.9489516019821167,1.6933704614639282,0.814324676990509,38.212318420410156,-9.113479614257812,12.541196823120117,1.0672218799591064,-1.2613568305969238,-1.222853183746338,-4.686620235443115,5.92225980758667,-1.0685842037200928
8_20251106_181401,1762424005859,8,0.36398768424987793,0.4406696557998657,0.7267096638679504,0.38107261061668396,-0.6357712745666504,1.7923102378845215,-0.8980748653411865,-2.6952760219573975,4.593868255615234,-2.426703929901123,0.9489516019821167,1.6933704614639282,0.814324676990509,37.59947967529297,-8.616157531738281,13.919483184814453,1.5930755138397217,-1.0627131462097168,-1.0864957571029663,-4.288351535797119,5.656581401824951,-1.3402081727981567
8_20251106_181401,1762424005878,8,0.3448009788990021,0.4443092942237854,0.7318179607391357,0.38489481806755066,-0.6466343998908997,1.7387957572937012,-0.9250918030738831,-1.8118536472320557,4.683647155761719,-2.6134438514709473,0.9636123776435852,1.7159724235534668,1.136250376701355,36.83781814575195,-8.3680419921875,15.47658920288086,1.9811983108520508,-0.7783474922180176,-1.0185885429382324,-3.7930519580841064,5.461994647979736,-1.5948553085327148
8_20251106_181401,1762424005896,8,0.3244898021221161,0.4481436312198639,0.7365062832832336,0.389142781496048,-0.650114893913269,1.6890344619750977,-0.9525489807128906,-1.2360728979110718,4.812928199768066,-2.8708090782165527,0.961779773235321,1.8607473373413086,1.0617247819900513,35.92961502075195,-8.141471862792969,16.973480224609375,2.0455832481384277,-0.5192532539367676,-1.0207630395889282,-3.281656265258789,5.332181453704834,-1.8500460386276245
8_20251106_181401,1762424005916,8,0.3034529983997345,0.45131775736808777,0.7412369251251221,0.39344170689582825,-0.650114893913269,1.6890344619750977,-0.9525489807128906,-1.2360728979110718,4.812928199768066,-2.8708090782165527,0.904358446598053,2.147242784500122,0.8717459440231323,34.92091751098633,-7.96014404296875,18.587303161621094,2.0455832481384277,-0.5192532539367676,-1.0207630395889282,-3.281656265258789,5.332181453704834,-1.8500460386276245
8_20251106_181401,1762424005935,8,0.28095728158950806,0.4514257609844208,0.7471657991409302,0.3987744450569153,-0.6455440521240234,1.6281968355178833,-0.9888186454772949,-0.9404017925262451,4.500498294830322,-3.043184280395508,0.7693573832511902,2.610889196395874,0.7324687838554382,33.76185607910156,-7.863555908203125,20.180137634277344,1.8730034828186035,-0.665346622467041,-0.9545106887817383,-2.8134052753448486,5.165844917297363,-2.0886735916137695
8_20251106_181401,1762424005954,8,0.2560511827468872,0.44815966486930847,0.7539534568786621,0.40638023614883423,-0.6370136737823486,1.5781892538070679,-1.0206220149993896,-0.791967511177063,4.061181545257568,-3.5555214881896973,0.5494461059570312,2.993290662765503,0.7990530729293823,32.332305908203125,-7.810905456542969,21.896820068359375,1.6171501874923706,-0.8837308883666992,-1.173478364944458,-2.4091176986694336,4.944912433624268,-2.3820431232452393
8_20251106_181401,1762424005973,8,0.22888897359371185,0.44317159056663513,0.7599064707756042,0.41683444380760193,-0.6038394570350647,1.4724500179290771,-1.1030210256576538,0.5128161907196045,3.5823616981506348,-6.112419128417969,0.5494461059570312,2.993290662765503,0.7990530729293823,30.70867156982422,-7.828544616699219,23.626277923583984,2.005831003189087,-0.8578596115112305,-2.5561766624450684,-1.4930148124694824,4.440221309661865,-3.5562424659729004
8_20251106_181401,1762424005992,8,0.20213010907173157,0.43927958607673645,0.7626270651817322,0.4296240210533142,-0.5759071111679077,1.419508695602417,-1.151764154434204,1.7733092308044434,3.9295060634613037,-5.573747158050537,-0.17565032839775085,2.6005046367645264,1.3744876384735107,29.033287048339844,-7.829444885253906,25.332359313964844,2.6130592823028564,-0.4085724353790283,-1.6140036582946777,-0.8397500514984131,4.338078498840332,-3.9597434997558594
8_20251106_181401,1762424006012,8,0.17793022096157074,0.4383278489112854,0.7611879706382751,0.4436241686344147,-0.5353549122810364,1.366398811340332,-1.2026336193084717,3.3115177154541016,4.282635688781738,-4.659201145172119,-0.26850175857543945,2.28346586227417,1.5901228189468384,27.28116226196289,-7.898033142089844,27.04769515991211,3.321014404296875,-0.04435443878173828,-0.5595660209655762,-0.009496569633483887,4.326990127563477,-4.099635124206543
8_20251106_181401,1762424006031,8,0.15527060627937317,0.4398811459541321,0.7572006583213806,0.4572119414806366,-0.48882943391799927,1.3218975067138672,-1.2471836805343628,4.804238319396973,4.69561767578125,-4.528722763061523,-0.14144191145896912,2.0702741146087646,1.642046332359314,25.244937896728516,-8.113380432128906,28.557029724121094,3.8509879112243652,0.29490184783935547,-0.34327030181884766,0.9532503485679626,4.4007158279418945,-4.185452461242676
8_20251106_181401,1762424006050,8,0.13311558961868286,0.4426642656326294,0.7525361776351929,0.46906062960624695,-0.48882943391799927,1.3218975067138672,-1.2471836805343628,4.804238319396973,4.69561767578125,-4.528722763061523,-0.027210205793380737,1.8619691133499146,1.574851155281067,23.253089904785156,-8.370567321777344,30.02957534790039,3.8509879112243652,0.29490184783935547,-0.34327030181884766,0.9532503485679626,4.4007158279418945,-4.185452461242676
8_20251106_181401,1762424006069,8,0.11198151111602783,0.44581472873687744,0.7478452920913696,0.4789956510066986,-0.3508627414703369,1.2389142513275146,-1.3416314125061035,7.144469738006592,5.543128490447998,-4.827985763549805,0.03143281117081642,1.6432795524597168,1.3531073331832886,21.234233856201172,-8.69091796875,31.378173828125,4.11790132522583,0.8083300590515137,-0.4200320243835449,3.0265684127807617,4.734798431396484,-4.40795373916626
8_20251106_181401,1762424006089,8,0.0930035412311554,0.44841545820236206,0.7436116933822632,0.4871504604816437,-0.3508627414703369,1.2389142513275146,-1.3416314125061035,7.144469738006592,5.543128490447998,-4.827985763549805,0.011274273507297039,1.5327130556106567,0.9566560983657837,19.174083709716797,-9.101280212402344,32.69641876220703,4.11790132522583,0.8083300590515137,-0.4200320243835449,3.0265684127807617,4.734798431396484,-4.40795373916626
8_20251106_181401,1762424006106,8,0.07633896172046661,0.44813239574432373,0.7407865524291992,0.4945553243160248,-0.25880223512649536,1.203163981437683,-1.3902013301849365,7.707082748413086,5.930972099304199,-4.64603328704834,0.011274273507297039,1.5327130556106567,0.9566560983657837,17.29114532470703,-9.6348876953125,33.72175979614258,3.7444114685058594,0.9569392204284668,-0.19046354293823242,3.9626712799072266,4.974032878875732,-4.455569744110107
8_20251106_181401,1762424006126,8,0.062231265008449554,0.44429782032966614,0.7394464612007141,0.5019418597221375,-0.18006831407546997,1.1781296730041504,-1.4280458688735962,7.5754075050354,6.093770980834961,-4.679551601409912,-0.12372683733701706,1.541875958442688,0.12404753267765045,15.55380630493164,-10.194618225097656,34.5494499206543,2.890188694000244,0.8957905769348145,-0.1791853904724121,4.685218811035156,5.1979804039001465,-4.5003662109375
8_20251106_181401,1762424006146,8,0.05030212178826332,0.4381101429462433,0.7388849854469299,0.5094881653785706,0.00029831379652023315,1.1289933919906616,-1.5098580121994019,6.670437812805176,5.286959648132324,-5.1416120529174805,-0.2764430046081543,1.5204956531524658,0.03547215089201927,13.87185287475586,-10.637748718261719,35.34092712402344,1.2075276374816895,-0.007981300354003906,-0.45789623260498047,5.462910175323486,5.294940948486328,-4.6837158203125
8_20251106_181401,1762424006165,8,0.03970031812787056,0.4312756359577179,0.7378302812576294,0.5177177786827087,0.09345456212759018,1.1048345565795898,-1.5522375106811523,6.544748306274414,5.216333866119385,-5.267302513122559,-0.49391084909439087,1.358616590499878,0.17597101628780365,12.261581420898438,-11.124458312988281,35.945064544677734,0.8654704093933105,-0.06288576126098633,-0.4668693542480469,5.6792778968811035,5.279219627380371,-4.800433158874512
8_20251106_181401,1762424006183,8,0.030474258586764336,0.42605555057525635,0.7350109219551086,0.5265994071960449,0.1754494607448578,1.0838263034820557,-1.5883452892303467,6.632132530212402,5.136131286621094,-4.7489800453186035,-0.6747267842292786,1.103275179862976,0.3879410922527313,10.887737274169922,-11.543014526367188,36.275733947753906,0.7622838020324707,-0.1144704818725586,0.04116249084472656,5.869848728179932,5.250601768493652,-4.79014253616333
8_20251106_181401,1762424006202,8,0.022425295785069466,0.4230422377586365,0.7305147647857666,0.5356123447418213,0.1754494607448578,1.0838263034820557,-1.5883452892303467,6.632132530212402,5.136131286621094,-4.7489800453186035,-0.6747267842292786,1.103275179862976,0.3879410922527313,9.611690521240234,-11.943199157714844,36.66465759277344,0.7622838020324707,-0.1144704818725586,0.04116249084472656,5.869848728179932,5.250601768493652,-4.79014253616333
8_20251106_181401,1762424006223,8,0.015686258673667908,0.4225129187107086,0.7244547009468079,0.544428288936615,0.3512149751186371,1.0422909259796143,-1.6555558443069458,7.596954345703125,5.686774253845215,-4.0259623527526855,-0.8323299288749695,0.5895379185676575,0.6823779344558716,8.41659164428711,-12.436531066894531,36.879188537597656,1.1917266845703125,0.35940027236938477,0.5107178688049316,6.4052276611328125,5.32737398147583,-4.536680221557617
8_20251106_181401,1762424006243,8,0.010206066071987152,0.42394840717315674,0.7175707221031189,0.5524996519088745,0.3512149751186371,1.0422909259796143,-1.6555558443069458,7.596954345703125,5.686774253845215,-4.0259623527526855,-0.8213343620300293,0.3574092984199524,0.6952060461044312,8.41659164428711,-12.436531066894531,36.879188537597656,1.1917266845703125,0.35940027236938477,0.5107178688049316,6.4052276611328125,5.32737398147583,-4.536680221557617
8_20251106_181401,1762424006260,8,0.0062599703669548035,0.4267544150352478,0.7104735374450684,0.5595255494117737,0.522468090057373,1.0160155296325684,-1.709410309791565,8.196676254272461,6.825168609619141,-4.027159214019775,-0.8329407572746277,0.1973627656698227,0.5559288859367371,7.342128753662109,-12.9583740234375,36.97618865966797,1.188471794128418,1.0277299880981445,0.3341374397277832,7.008204460144043,5.797438621520996,-4.361296653747559
8_20251106_181401,1762424006279,8,0.004208358004689217,0.4293880760669708,0.7038053870201111,0.5659206509590149,0.6067743301391602,1.0077801942825317,-1.7323062419891357,8.261316299438477,6.602517127990723,-3.8559811115264893,-0.8983033299446106,0.09046143293380737,0.3060852289199829,6.446708679199219,-13.554588317871094,36.916500091552734,1.0024895668029785,0.6440629959106445,0.404252290725708,7.258826732635498,5.958454132080078,-4.260233402252197
8_20251106_181401,1762424006299,8,0.00451474217697978,0.4308962821960449,0.6977254748344421,0.5722649097442627,0.6892774105072021,1.0012342929840088,-1.7527774572372437,8.138020515441895,6.424156665802002,-3.793734312057495,-1.0271958112716675,0.028153229504823685,0.13565395772457123,5.667201995849609,-14.255332946777344,36.805274963378906,0.7033548355102539,0.3725619316101074,0.3731992244720459,7.434665679931641,6.0515947341918945,-4.166933536529541
8_20251106_181401,1762424006317,8,0.006762312259525061,0.43172457814216614,0.6914950609207153,0.5791396498680115,0.7649113535881042,0.9968823194503784,-1.7696901559829712,7.995572090148926,6.67673397064209,-3.5531272888183594,-1.1292102336883545,-0.12822814285755157,0.08800651878118515,4.962497711181641,-15.161964416503906,36.49025344848633,0.44872522354125977,0.5001115798950195,0.4910449981689453,7.546846866607666,6.17662239074707,-4.044172286987305
8_20251106_181401,1762424006336,8,0.011400331743061543,0.4338694214820862,0.6843332052230835,0.5859311819076538,0.8460713028907776,0.9939835667610168,-1.784917950630188,7.982404708862305,6.734192848205566,-3.180845260620117,-1.144481897354126,-0.40678244829177856,0.18696659803390503,4.453474044799805,-16.0433349609375,36.18334197998047,0.3484463691711426,0.4460563659667969,0.6906616687774658,7.633958339691162,6.2881364822387695,-3.871506929397583
8_20251106_181401,1762424006356,8,0.01668422482907772,0.4372653365135193,0.6771065592765808,0.5916479825973511,0.9247456192970276,0.9929824471473694,-1.7961347103118896,8.151187896728516,6.864670753479004,-2.802577495574951,-1.10844087600708,-0.7421472072601318,0.3787781000137329,4.194902420043945,-17.01982879638672,35.7627067565918,0.41378355026245117,0.4612274169921875,0.8551435470581055,7.7374043464660645,6.403443336486816,-3.6577210426330566
8_20251106_181401,1762424006375,8,0.022899646311998367,0.44370678067207336,0.6691060066223145,0.5957323312759399,0.9972128868103027,0.9939519166946411,-1.8024765253067017,8.270893096923828,7.086125373840332,-2.2794671058654785,-1.049797773361206,-1.0817879438400269,0.5162227153778076,4.082029342651367,-18.022300720214844,35.13090515136719,0.426790714263916,0.5461459159851074,1.1026029586791992,7.844102382659912,6.539979457855225,-3.3820700645446777
8_20251106_181401,1762424006393,8,0.0303648691624403,0.4530031979084015,0.6605129241943359,0.5979872345924377,1.063336968421936,0.9965082406997681,-1.8036415576934814,8.211040496826172,7.223785400390625,-1.5372965335845947,-0.9911547303199768,-1.3114731311798096,0.5302726030349731,4.09173583984375,-18.992660522460938,34.599151611328125,0.2935504913330078,0.5470447540283203,1.4758188724517822,7.917490005493164,6.676740646362305,-3.013115406036377
8_20251106_181401,1762424006414,8,0.03892361372709274,0.4635227620601654,0.6519297361373901,0.598848283290863,1.063336968421936,0.9965082406997681,-1.8036415576934814,8.211040496826172,7.223785400390625,-1.5372965335845947,-0.9343443512916565,-1.351790189743042,0.4820142388343811,4.2479705810546875,-19.953086853027344,34.03273391723633,0.2935504913330078,0.5470447540283203,1.4758188724517822,7.917490005493164,6.676740646362305,-3.013115406036377
8_20251106_181401,1762424006433,8,0.04796970635652542,0.47398465871810913,0.6434875130653381,0.5991337299346924,1.1996783018112183,1.0085105895996094,-1.79177725315094,7.691521644592285,7.502697944641113,-1.2547926902770996,-0.9465616345405579,-1.3646183013916016,0.39099544286727905,4.660198211669922,-20.908309936523438,33.368221282958984,-0.1859893798828125,0.5381889343261719,1.1465861797332764,7.877511024475098,6.964509010314941,-2.401378870010376
8_20251106_181401,1762424006451,8,0.05738864094018936,0.48341459035873413,0.6355065107345581,0.5992898941040039,1.2548733949661255,1.0159192085266113,-1.7807292938232422,7.440140724182129,7.596067905426025,-0.6694356203079224,-1.058349847793579,-1.3805007934570312,0.25293999910354614,5.113399505615234,-21.797149658203125,32.58485412597656,-0.3498964309692383,0.5052475929260254,1.3855546712875366,7.790037155151367,7.0908203125,-2.054990291595459
8_20251106_181401,1762424006470,8,0.068334199488163,0.4919792115688324,0.6272947192192078,0.5998234748840332,1.3083882331848145,1.0256575345993042,-1.7646899223327637,7.121726036071777,7.932438850402832,-0.24687716364860535,-1.058349847793579,-1.3805007934570312,0.25293999910354614,5.7027587890625,-22.63957977294922,31.807674407958984,-0.5346488952636719,0.6732945442199707,1.4464905261993408,7.656374931335449,7.259144306182861,-1.6933677196502686
8_20251106_181401,1762424006490,8,0.08042477071285248,0.4990694224834442,0.6188555955886841,0.6012315154075623,1.3597500324249268,1.0381194353103638,-1.743394374847412,6.948153495788574,8.15509033203125,0.03562647104263306,-1.251994013786316,-1.2589387893676758,-0.0011797333136200905,6.351032257080078,-23.515579223632812,31.018638610839844,-0.5665774345397949,0.7167568206787109,1.383195400238037,7.514730930328369,7.438333511352539,-1.3475689888000488
8_20251106_181401,1762424006509,8,0.09305096417665482,0.5048126578330994,0.6104922890663147,0.603162407875061,1.4040405750274658,1.0516217947006226,-1.720964789390564,6.762610912322998,8.260431289672852,-0.1774483323097229,-1.242220163345337,-1.234504222869873,-0.1050267443060875,7.17645263671875,-24.267173767089844,30.211811065673828,-0.6016964912414551,0.6576781272888184,0.9360966086387634,7.364307403564453,7.602753162384033,-1.1135449409484863
8_20251106_181401,1762424006527,8,0.10606236755847931,0.5096145272254944,0.6025619506835938,0.6049486398696899,1.4411499500274658,1.0655407905578613,-1.6977657079696655,6.246683120727539,8.320283889770508,0.10984352976083755,-1.2819263935089111,-1.3621748685836792,-0.2131498008966446,8.079109191894531,-24.950408935546875,29.328147888183594,-0.8940997123718262,0.5740246772766113,0.9787107706069946,7.140782833099365,7.7462592124938965,-0.8688672184944153
8_20251106_181401,1762424006545,8,0.12075288593769073,0.514521062374115,0.5945398807525635,0.6059778332710266,1.4411499500274658,1.0655407905578613,-1.6977657079696655,6.246683120727539,8.320283889770508,0.10984352976083755,-1.3698909282684326,-1.4715197086334229,-0.2858427166938782,9.016788482666016,-25.67974090576172,28.269187927246094,-0.8940997123718262,0.5740246772766113,0.9787107706069946,7.140782833099365,7.7462592124938965,-0.8688672184944153
8_20251106_181401,1762424006566,8,0.1369299590587616,0.5193014740943909,0.5860751867294312,0.6067058444023132,1.4753758907318115,1.0828696489334106,-1.668304681777954,5.5140886306762695,8.61355972290039,0.7670236229896545,-1.3698909282684326,-1.4715197086334229,-0.2858427166938782,10.015594482421875,-26.404830932617188,27.185646057128906,-1.3013553619384766,0.6938400268554688,1.3087127208709717,6.815443992614746,7.919719696044922,-0.5416890978813171
8_20251106_181401,1762424006584,8,0.15319611132144928,0.523399829864502,0.5776370167732239,0.6073870658874512,1.5172104835510254,1.1202056407928467,-1.6112102270126343,4.0668559074401855,9.273134231567383,0.44142621755599976,-1.2904784679412842,-1.4122657775878906,-0.3408205211162567,11.053863525390625,-27.088783264160156,25.996238708496094,-1.8749709129333496,0.8979787826538086,0.5954849123954773,5.941826820373535,8.375155448913574,-0.15405869483947754
8_20251106_181401,1762424006603,8,0.16907639801502228,0.5270348191261292,0.5697327852249146,0.6074965596199036,1.527466058731079,1.1425025463104248,-1.5789601802825928,3.2708182334899902,8.927186965942383,0.5024757385253906,-1.2245051860809326,-1.4000484943389893,-0.31272074580192566,12.14208984375,-27.744712829589844,24.836353302001953,-2.1368069648742676,0.44162559509277344,0.5252275466918945,5.407625198364258,8.48556137084961,-0.022751815617084503
8_20251106_181401,1762424006623,8,0.1845678985118866,0.5307787656784058,0.5618905425071716,0.6070318222045898,1.5293024778366089,1.162746787071228,-1.5478025674819946,2.703416585922241,8.529766082763672,0.7251268625259399,-1.186631441116333,-1.4562480449676514,-0.15511766076087952,13.266960144042969,-28.40973663330078,23.56954574584961,-2.1633670330047607,0.03536415100097656,0.598302960395813,4.866783618927002,8.494401931762695,0.12682390213012695
8_20251106_181401,1762424006642,8,0.19927313923835754,0.5355561375617981,0.5532565712928772,0.6061163544654846,1.5236378908157349,1.1841720342636108,-1.5143712759017944,2.3993661403656006,8.882896423339844,0.8747581243515015,-1.161586046218872,-1.5228322744369507,0.08311959356069565,14.356571197509766,-29.06378173828125,22.22043228149414,-1.9739339351654053,0.31079578399658203,0.5983474254608154,4.373300075531006,8.572100639343262,0.2764107286930084
8_20251106_181401,1762424006661,8,0.21289636194705963,0.5418906807899475,0.5431966185569763,0.6049520969390869,1.512903094291687,1.206003189086914,-1.481339454650879,2.3239519596099854,9.481420516967773,1.3188633918762207,-1.1237125396728516,-1.5093932151794434,0.26760074496269226,14.356571197509766,-29.06378173828125,22.22043228149414,-1.6394784450531006,0.7274560928344727,0.8339621424674988,3.963430404663086,8.7539644241333,0.4849012494087219
8_20251106_181401,1762424006679,8,0.22518716752529144,0.54893559217453,0.5322983264923096,0.6038368940353394,1.512903094291687,1.206003189086914,-1.481339454650879,2.3239519596099854,9.481420516967773,1.3188633918762207,-1.1237125396728516,-1.5093932151794434,0.26760074496269226,15.4351806640625,-29.717002868652344,20.708633422851562,-1.6394784450531006,0.7274560928344727,0.8339621424674988,3.963430404663086,8.7539644241333,0.4849012494087219
8_20251106_181401,1762424006698,8,0.23635326325893402,0.5553332567214966,0.5214468240737915,0.6031876802444458,1.4785699844360352,1.2549245357513428,-1.4131944179534912,1.6105104684829712,10.193665504455566,1.8539445400238037,-1.0723998546600342,-1.3524010181427002,0.31402647495269775,16.474414825439453,-30.422836303710938,19.19430923461914,-1.5717543363571167,0.9493722915649414,0.9206222295761108,3.182264804840088,9.244293212890625,0.9333223104476929
8_20251106_181401,1762424006718,8,0.24615123867988586,0.5602384209632874,0.511624276638031,0.6031443476676941,1.4531806707382202,1.2830249071121216,-1.3746033906936646,1.361524224281311,9.907570838928223,1.9018265008926392,-0.992987334728241,-1.1257702112197876,0.28775927424430847,17.480316162109375,-31.06867218017578,17.720382690429688,-1.4565924406051636,0.5306215286254883,0.7748034000396729,2.8181166648864746,9.376949310302734,1.1270231008529663
8_20251106_181401,1762424006737,8,0.2544073462486267,0.5636264085769653,0.503033459186554,0.6037876605987549,1.4251210689544678,1.3091484308242798,-1.3391402959823608,0.9425569772720337,9.654993057250977,1.3583660125732422,-0.8952489495277405,-0.8753156661987305,0.260881245136261,18.428302764892578,-31.66797637939453,16.21802520751953,-1.5004478693008423,0.22243499755859375,0.1850743293762207,2.443004846572876,9.432558059692383,1.1732916831970215
8_20251106_181401,1762424006756,8,0.2612329125404358,0.5663467645645142,0.4949279725551605,0.6050248146057129,1.3938552141189575,1.335016131401062,-1.3051527738571167,0.7629995346069336,9.815397262573242,1.2817548513412476,-0.8256104588508606,-0.6205850839614868,0.4203169345855713,19.192794799804688,-32.29175567626953,14.708047866821289,-1.3440041542053223,0.3062715530395508,0.08677053451538086,2.107003688812256,9.509125709533691,1.1949843168258667
8_20251106_181401,1762424006775,8,0.2665902078151703,0.5688357949256897,0.4868217408657074,0.6069267392158508,1.3603962659835815,1.3612189292907715,-1.272810459136963,0.7378615140914917,10.102689743041992,1.2147200107574463,-0.8286647200584412,-0.5142946243286133,0.5064488649368286,19.86111068725586,-32.89691162109375,13.20819091796875,-1.0953137874603271,0.4748516082763672,0.015788555145263672,1.8331753015518188,9.627838134765625,1.1989314556121826
8_20251106_181401,1762424006794,8,0.27143844962120056,0.5714017748832703,0.47806981205940247,0.6093196868896484,1.325687289237976,1.388205885887146,-1.2420846223831177,0.7677876949310303,10.391178131103516,1.1991584300994873,-0.8286647200584412,-0.5142946243286133,0.5064488649368286,20.45783233642578,-33.469970703125,11.787281036376953,-0.852310061454773,0.6106719970703125,0.00018155574798583984,1.6200977563858032,9.780506134033203,1.1989768743515015
8_20251106_181401,1762424006813,8,0.2757073640823364,0.5735219120979309,0.46937817335128784,0.6121618747711182,1.2909040451049805,1.4163169860839844,-1.211324691772461,0.960512638092041,10.682062149047852,1.771347999572754,-0.8304973244667053,-0.301102876663208,0.5492093563079834,20.934707641601562,-34.01343536376953,10.375774383544922,-0.5276681184768677,0.7212448120117188,0.4578969478607178,1.4881807565689087,9.960817337036133,1.3134510517120361
8_20251106_181401,1762424006832,8,0.2794538736343384,0.5749823451042175,0.4608164429664612,0.615588366985321,1.2570165395736694,1.4456877708435059,-1.1792175769805908,1.1807698011398315,10.932245254516602,2.365084648132324,-0.8304973244667053,-0.301102876663208,0.5492093563079834,21.206462860107422,-34.50963592529297,9.159994125366211,-0.24592876434326172,0.7771425247192383,0.8413069248199463,1.4266985654830933,10.155102729797363,1.523777723312378
8_20251106_181401,1762424006852,8,0.2822144627571106,0.5752329230308533,0.4531641900539398,0.6197614669799805,1.2232111692428589,1.4776102304458618,-1.1446329355239868,1.4536969661712646,10.994491577148438,2.338749647140503,-0.773076057434082,-0.1117347925901413,0.5229421854019165,21.34418487548828,-35.002960205078125,8.033697128295898,0.0215986967086792,0.6715106964111328,0.6519775390625,1.4320982694625854,10.322980880737305,1.686772108078003
8_20251106_181401,1762424006870,8,0.2836521863937378,0.5739031434059143,0.44741418957710266,0.6244975328445435,1.19451105594635,1.506513237953186,-1.1157419681549072,1.5147465467453003,10.97653579711914,1.4110361337661743,-0.6301336884498596,0.13994146883487701,0.435588538646698,21.45009994506836,-35.39942169189453,7.029687881469727,0.06611859798431396,0.5228443145751953,-0.2205888032913208,1.4486279487609863,10.453691482543945,1.6316249370574951
8_20251106_181401,1762424006889,8,0.2846461236476898,0.5710101127624512,0.4437096416950226,0.6293216943740845,1.1652131080627441,1.5376535654067993,-1.0888243913650513,1.2597750425338745,11.239887237548828,0.8831374645233154,-0.6026448011398315,0.3610745072364807,0.11488456279039383,21.42147445678711,-35.8052978515625,6.087863922119141,-0.15108239650726318,0.6289567947387695,-0.5987900495529175,1.4108574390411377,10.610930442810059,1.481927514076233
8_20251106_181401,1762424006909,8,0.2868901789188385,0.5673017501831055,0.44040393829345703,0.6339614391326904,1.136203646659851,1.5686964988708496,-1.0631450414657593,0.9820595383644104,11.142925262451172,1.5211646556854248,-0.7077135443687439,0.38428735733032227,0.0030963197350502014,21.31542205810547,-36.05524444580078,5.321750640869141,-0.34303826093673706,0.4255952835083008,0.031389713287353516,1.3250977993011475,10.717329978942871,1.4897749423980713
8_20251106_181401,1762424006928,8,0.29035618901252747,0.5627751350402832,0.43716171383857727,0.6386446952819824,1.136203646659851,1.5686964988708496,-1.0631450414657593,0.9820595383644104,11.142925262451172,1.5211646556854248,-0.6936636567115784,0.5321166515350342,-0.10563760250806808,21.20989227294922,-36.281288146972656,4.6778106689453125,-0.34303826093673706,0.4255952835083008,0.031389713287353516,1.3250977993011475,10.717329978942871,1.4897749423980713
8_20251106_181401,1762424006948,8,0.2937447428703308,0.5567378997802734,0.4350327253341675,0.6438194513320923,1.0748353004455566,1.6324090957641602,-1.0063146352767944,0.5954126119613647,10.993293762207031,2.482395648956299,-0.6936636567115784,0.5321166515350342,-0.10563760250806808,21.058746337890625,-36.448265075683594,4.08729362487793,-0.5070279836654663,0.15478229522705078,0.6823930740356445,1.102440595626831,10.83851146697998,1.8000025749206543
8_20251106_181401,1762424006966,8,0.29662853479385376,0.5487598180770874,0.43449971079826355,0.6496800184249878,1.0463520288467407,1.659209966659546,-0.9801458120346069,0.24467715620994568,10.854436874389648,2.366281509399414,-0.6319662928581238,1.0043150186538696,-0.29195135831832886,20.899261474609375,-36.52961730957031,3.6468124389648438,-0.6862107515335083,0.012740135192871094,0.45302319526672363,0.9308878779411316,10.841696739196777,1.9132583141326904
8_20251106_181401,1762424006985,8,0.2988065183162689,0.5389256477355957,0.4350094199180603,0.6565368175506592,1.0158576965332031,1.6862844228744507,-0.9531375765800476,0.2267214059829712,10.914289474487305,2.192709445953369,-0.6625095009803772,1.1716920137405396,-0.23208659887313843,20.75662612915039,-36.49945831298828,3.438974380493164,-0.5633332133293152,0.058073997497558594,0.22356092929840088,0.7900546193122864,10.856215476989746,1.9691485166549683
8_20251106_181401,1762424007004,8,0.2999955713748932,0.5281135439872742,0.43552571535110474,0.6643915176391602,0.9863474369049072,1.7129626274108887,-0.9260847568511963,0.5930185317993164,11.205172538757324,2.477607250213623,-0.6869441270828247,1.2254481315612793,-0.0842573419213295,20.606948852539062,-36.37030792236328,3.3003387451171875,-0.1576288938522339,0.27916526794433594,0.4067668914794922,0.7506474256515503,10.926007270812988,2.070840358734131
8_20251106_181401,1762424007023,8,0.2999861538410187,0.5174133777618408,0.43533316254615784,0.672886848449707,0.959039568901062,1.7396212816238403,-0.8987036943435669,1.0155768394470215,11.40507984161377,2.683499813079834,-0.6588443517684937,1.296919345855713,0.08495219051837921,20.44277572631836,-36.27989196777344,3.1874542236328125,0.21194356679916382,0.3832578659057617,0.4901275634765625,0.8036332726478577,11.021821975708008,2.1933722496032715
8_20251106_181401,1762424007043,8,0.2983139455318451,0.5069268941879272,0.43461889028549194,0.6820119619369507,0.9345718622207642,1.766395926475525,-0.8713830709457397,1.3411743640899658,11.549922943115234,2.670332431793213,-0.6154729723930359,1.3763316869735718,0.24377700686454773,20.316570281982422,-36.16197967529297,3.076568603515625,0.4300329089164734,0.42248058319091797,0.38156819343566895,0.9111414551734924,11.127442359924316,2.288764238357544
8_20251106_181401,1762424007063,8,0.2949778139591217,0.49665793776512146,0.43351706862449646,0.6916515827178955,0.9121074676513672,1.7972412109375,-0.8410484790802002,1.873861312866211,11.942554473876953,2.780460834503174,-0.568436324596405,1.4221465587615967,0.3427371084690094,20.04163360595703,-36.08019256591797,3.1079483032226562,0.7701759338378906,0.6520900726318359,0.3933572769165039,1.1036853790283203,11.290464401245117,2.38710355758667
8_20251106_181401,1762424007083,8,0.2905663549900055,0.48664820194244385,0.432233989238739,0.701369047164917,0.9121074676513672,1.7972412109375,-0.8410484790802002,1.873861312866211,11.942554473876953,2.780460834503174,-0.5336170792579651,1.489952564239502,0.31463730335235596,20.04163360595703,-36.08019256591797,3.1079483032226562,0.7701759338378906,0.6520900726318359,0.3933572769165039,1.1036853790283203,11.290464401245117,2.38710355758667
8_20251106_181401,1762424007100,8,0.2856425344944,0.4760379195213318,0.4314959645271301,0.7110608220100403,0.8854384422302246,1.8546439409255981,-0.7843267321586609,2.756086826324463,12.276531219482422,3.801543951034546,-0.5330062508583069,1.6084601879119873,0.15031470358371735,19.73065948486328,-35.976890563964844,3.2600326538085938,1.1169105768203735,0.6412334442138672,1.0040702819824219,1.6391762495040894,11.635297775268555,2.797473669052124
8_20251106_181401,1762424007119,8,0.2811086177825928,0.4638020098209381,0.4317440688610077,0.7207375764846802,0.8774933218955994,1.8837182521820068,-0.7533682584762573,2.6998252868652344,11.949736595153809,3.705780029296875,-0.5330062508583069,1.6084601879119873,0.15031470358371735,19.347991943359375,-35.84162139892578,3.504579544067383,0.8485192060470581,0.25155162811279297,0.7266449928283691,1.8513060808181763,11.698184967041016,2.979135036468506
8_20251106_181401,1762424007139,8,0.2769481837749481,0.44904252886772156,0.4336664080619812,0.730475127696991,0.8710178136825562,1.9112682342529297,-0.7225297689437866,2.3347253799438477,11.196792602539062,2.9396681785583496,-0.4835261404514313,2.1344149112701416,-0.2858426868915558,18.902179718017578,-35.748130798339844,3.759397506713867,0.3867354393005371,-0.40111351013183594,-0.03157353401184082,1.9479899406433105,11.597906112670898,2.9712417125701904
8_20251106_181401,1762424007158,8,0.2727067470550537,0.4312483072280884,0.43721359968185425,0.7406079769134521,0.8651377558708191,1.9319970607757568,-0.6970047950744629,1.934910774230957,10.090719223022461,2.130462884902954,-0.5562190413475037,2.442901372909546,-0.35487037897109985,18.36624526977539,-35.736351013183594,4.090297698974609,-0.010463237762451172,-1.20574951171875,-0.6726231575012207,1.9453740119934082,11.296468734741211,2.803086042404175
8_20251106_181401,1762424007178,8,0.2676708698272705,0.41067275404930115,0.44126054644584656,0.7516577243804932,0.8604478240013123,1.9477369785308838,-0.6758123636245728,2.189882278442383,10.112266540527344,2.0801868438720703,-0.798732340335846,2.473444700241089,-0.1923803985118866,17.80926513671875,-35.66365051269531,4.448568344116211,0.19560670852661133,-0.947361946105957,-0.5783193111419678,1.9942755699157715,11.0596284866333,2.658506155014038
8_20251106_181401,1762424007196,8,0.26188963651657104,0.38974520564079285,0.44291821122169495,0.7637643218040466,0.8575366735458374,1.9648483991622925,-0.6500005125999451,2.6651110649108887,11.223127365112305,3.7907702922821045,-1.0473543405532837,2.233985662460327,0.15092557668685913,17.206161499023438,-35.544166564941406,4.832965850830078,0.5366683006286621,0.1307992935180664,0.905811071395874,2.1284427642822266,11.092328071594238,2.8849592208862305
8_20251106_181401,1762424007214,8,0.25564804673194885,0.3714655339717865,0.4404975175857544,0.7762856483459473,0.8575366735458374,1.9648483991622925,-0.6500005125999451,2.6651110649108887,11.223127365112305,3.7907702922821045,-0.9459507465362549,1.9664270877838135,0.6096850037574768,16.524822235107422,-35.506004333496094,5.334484100341797,0.5366683006286621,0.1307992935180664,0.905811071395874,2.1284427642822266,11.092328071594238,2.8849592208862305
8_20251106_181401,1762424007234,8,0.24654337763786316,0.35696184635162354,0.4362741708755493,0.7883269786834717,0.8621712923049927,2.0043256282806396,-0.5769383907318115,3.961515426635742,12.685922622680664,7.393888473510742,-0.48474788665771484,1.8491408824920654,1.0146883726119995,15.808013916015625,-35.46874237060547,5.68585205078125,1.3032138347625732,1.107046127319336,3.0950546264648438,2.658301591873169,11.578876495361328,4.298833847045898
8_20251106_181401,1762424007254,8,0.23295490443706512,0.34559154510498047,0.4335739016532898,0.7989444136619568,0.8734616041183472,2.0307579040527344,-0.5274245738983154,4.879652500152588,13.317964553833008,7.110188007354736,-0.0149929104372859,1.8045477867126465,1.2162736654281616,14.966625213623047,-35.48951721191406,6.017742156982422,1.777080774307251,1.3912696838378906,2.2490835189819336,3.102571725845337,11.926694869995117,4.861104488372803
8_20251106_181401,1762424007273,8,0.21618959307670593,0.3362008035182953,0.4333873391151428,0.8077168464660645,0.8910424113273621,2.0599310398101807,-0.4771687686443329,5.7965922355651855,13.865015983581543,6.891128063201904,0.2598962187767029,1.7990500926971436,1.175345778465271,14.01385498046875,-35.54296112060547,6.38524055480957,2.155216693878174,1.5506563186645508,1.6240191459655762,3.6413755416870117,12.314359664916992,5.267108917236328
8_20251106_181401,1762424007291,8,0.19879789650440216,0.32735151052474976,0.43526753783226013,0.8147776126861572,0.8910424113273621,2.0599310398101807,-0.4771687686443329,5.7965922355651855,13.865015983581543,6.891128063201904,0.4498751759529114,1.8277606964111328,0.9383301734924316,13.012649536132812,-35.587562561035156,6.805105209350586,2.155216693878174,1.5506563186645508,1.6240191459655762,3.6413755416870117,12.314359664916992,5.267108917236328
8_20251106_181401,1762424007310,8,0.18247683346271515,0.31776759028434753,0.4392217993736267,0.8202500939369202,0.9424605369567871,2.1219608783721924,-0.3782444894313812,6.548338890075684,13.171924591064453,6.029252529144287,0.6441301107406616,1.8027153015136719,0.7269710302352905,11.79239273071289,-35.64605712890625,7.175594329833984,1.9060401916503906,0.4513530731201172,0.4067554473876953,4.642298698425293,12.720571517944336,5.622497081756592
8_20251106_181401,1762424007329,8,0.167266383767128,0.3078904449939728,0.44510194659233093,0.8240811228752136,0.9755182862281799,2.15159010887146,-0.3311840295791626,6.681211471557617,12.530305862426758,5.433122158050537,0.8353307843208313,1.6609946489334106,0.582196056842804,10.554618835449219,-35.793785095214844,7.597808837890625,1.6311302185058594,-0.15221214294433594,-0.15150022506713867,5.050081253051758,12.682518005371094,5.584622383117676
8_20251106_181401,1762424007350,8,0.1529698669910431,0.2987671196460724,0.45254966616630554,0.8261581063270569,0.9755182862281799,2.15159010887146,-0.3311840295791626,6.681211471557617,12.530305862426758,5.433122158050537,0.9746079444885254,1.5259935855865479,0.4930098354816437,9.169525146484375,-35.95252227783203,8.162817001342773,1.6311302185058594,-0.15221214294433594,-0.15150022506713867,5.050081253051758,12.682518005371094,5.584622383117676
8_20251106_181401,1762424007368,8,0.13954627513885498,0.2905876934528351,0.46095770597457886,0.8268032670021057,1.0538208484649658,2.200282335281372,-0.2497168481349945,7.185169219970703,11.123772621154785,4.082850456237793,1.0387486219406128,1.395268440246582,0.4923989772796631,7.8638916015625,-35.99348449707031,8.733144760131836,1.423722743988037,-1.1284103393554688,-1.0666656494140625,5.761446475982666,12.252182960510254,5.1495161056518555
8_20251106_181401,1762424007387,8,0.126325324177742,0.2834903299808502,0.4696018397808075,0.8265284299850464,1.097325325012207,2.2161574363708496,-0.21950702369213104,7.917763710021973,10.752687454223633,3.467566967010498,1.0387486219406128,1.395268440246582,0.4923989772796631,6.548313140869141,-35.974205017089844,9.480012893676758,1.7250537872314453,-1.1995964050292969,-1.3455595970153809,6.192709922790527,11.95228385925293,4.813126564025879
8_20251106_181401,1762424007406,8,0.11322202533483505,0.27847108244895935,0.4777759313583374,0.825448215007782,1.1458572149276733,2.2283811569213867,-0.19409869611263275,8.81794548034668,10.910697937011719,3.6136069297790527,1.0888395309448242,0.9053549766540527,0.5559288859367371,5.296695709228516,-35.88884735107422,10.298233032226562,2.100188732147217,-0.8332691192626953,-0.9596157073974609,6.717756748199463,11.743967056274414,4.573222637176514
8_20251106_181401,1762424007425,8,0.10145215690135956,0.2758248448371887,0.4857499599456787,0.8232102394104004,1.1992714405059814,2.238301992416382,-0.1718907654285431,9.381754875183105,11.127364158630371,3.8697757720947266,1.1181610822677612,0.6359636783599854,0.2999765872955322,4.158683776855469,-35.721397399902344,11.163000106811523,2.1311984062194824,-0.4932823181152344,-0.5627574920654297,7.250556468963623,11.620646476745605,4.432533264160156
8_20251106_181401,1762424007444,8,0.09274929016828537,0.27420780062675476,0.4941613972187042,0.8197634816169739,1.2526156902313232,2.245497226715088,-0.15267330408096313,9.391331672668457,10.916683197021484,4.119958877563477,1.1193828582763672,0.46614325046539307,-0.09525290131568909,3.0796852111816406,-35.587379455566406,12.002395629882812,1.7126202583312988,-0.5631704330444336,-0.2500596046447754,7.678711414337158,11.479853630065918,4.370018482208252
8_20251106_181401,1762424007463,8,0.08785517513751984,0.27207404375076294,0.5032821297645569,0.8154534101486206,1.3131400346755981,2.2494804859161377,-0.13422918319702148,9.065733909606934,10.291823387145996,3.764435291290283,1.065626621246338,0.3916177451610565,-0.38663536310195923,2.323781967163086,-35.30821990966797,12.965312957763672,1.1096181869506836,-0.9504241943359375,-0.484466552734375,7.95611572265625,11.242247581481934,4.248901844024658
8_20251106_181401,1762424007483,8,0.0856199711561203,0.2689875066280365,0.5125212073326111,0.8109481930732727,1.3723411560058594,2.2491562366485596,-0.11974482238292694,8.516288757324219,9.890811920166016,3.249704122543335,1.0020967721939087,0.17842595279216766,-0.5112518072128296,1.583984375,-34.964942932128906,13.875974655151367,0.4481382369995117,-1.0811481475830078,-0.7993581295013428,8.068150520324707,10.971960067749023,4.049062252044678
8_20251106_181401,1762424007502,8,0.08575757592916489,0.26699909567832947,0.5212572813034058,0.806007444858551,1.4252688884735107,2.2452733516693115,-0.10843885689973831,7.885442733764648,9.663372039794922,3.405320644378662,1.0020967721939087,0.17842595279216766,-0.5112518072128296,1.1385421752929688,-34.58842468261719,14.636474609375,-0.14616680145263672,-1.046870231628418,-0.51499342918396,8.031609535217285,10.71024227142334,3.920314073562622
8_20251106_181401,1762424007521,8,0.08751372247934341,0.26695382595062256,0.529383659362793,0.8005185723304749,1.4737993478775024,2.2380294799804688,-0.0985955074429512,7.39345645904541,9.414386749267578,3.593257427215576,0.9465081691741943,-0.10501528531312943,-0.5271342992782593,1.1385421752929688,-34.58842468261719,14.636474609375,-0.5105223655700684,-1.0366849899291992,-0.2616453170776367,7.9039788246154785,10.451071739196777,3.854902744293213
8_20251106_181401,1762424007539,8,0.08981888741254807,0.2685546875,0.5371279120445251,0.7945467829704285,1.5154415369033813,2.228644609451294,-0.09035423398017883,7.07743501663208,9.28749942779541,3.6040306091308594,0.9361234307289124,-0.34080904722213745,-0.4794868230819702,0.7165679931640625,-34.22314453125,15.424724578857422,-0.6612348556518555,-0.9308586120605469,-0.200697660446167,7.7386698722839355,10.218358039855957,3.8047282695770264
8_20251106_181401,1762424007559,8,0.09219382703304291,0.270658940076828,0.5450296401977539,0.7881540060043335,1.5154415369033813,2.228644609451294,-0.09035423398017883,7.07743501663208,9.28749942779541,3.6040306091308594,1.0430246591567993,-0.476421058177948,-0.47887593507766724,0.5754795074462891,-33.827171325683594,16.238037109375,-0.6612348556518555,-0.9308586120605469,-0.200697660446167,7.7386698722839355,10.218358039855957,3.8047282695770264
8_20251106_181401,1762424007579,8,0.09469863027334213,0.27295368909835815,0.5533321499824524,0.7812502384185791,1.5944643020629883,2.2012507915496826,-0.07676605880260468,6.787749290466309,9.364110946655273,3.4615817070007324,1.0075945854187012,-0.6034809350967407,-0.541795015335083,0.5946025848388672,-33.406837463378906,16.90930938720703,-0.639808177947998,-0.5266075134277344,-0.20639848709106445,7.427557468414307,9.890718460083008,3.667980194091797
8_20251106_181401,1762424007600,8,0.0984717532992363,0.2758120596408844,0.5613225698471069,0.7740464806556702,1.6278510093688965,2.183828592300415,-0.07149624079465866,6.326885223388672,8.955917358398438,3.393350124359131,0.9495624899864197,-0.6266937255859375,-0.6499180793762207,0.7586460113525391,-33.001953125,17.57242202758789,-0.8805379867553711,-0.7478408813476562,-0.21970391273498535,7.207423210144043,9.703758239746094,3.613054037094116
8_20251106_181401,1762424007616,8,0.10328806191682816,0.27808094024658203,0.5690464377403259,0.7669346332550049,1.6492856740951538,2.168715238571167,-0.06912944465875626,5.803774833679199,8.417243957519531,2.86904239654541,0.942232072353363,-0.6022591590881348,-0.7446020841598511,1.0743637084960938,-32.487342834472656,18.270565032958984,-1.1229190826416016,-1.0292110443115234,-0.5952093601226807,6.926693916320801,9.446455001831055,3.464251756668091
8_20251106_181401,1762424007634,8,0.10929623246192932,0.2799959182739258,0.5766667127609253,0.7596789598464966,1.668155550956726,2.1494979858398438,-0.06952759623527527,5.286649227142334,8.201775550842285,2.275305986404419,0.8933629393577576,-0.6273046731948853,-0.7971364855766296,1.471944808959961,-32.04144287109375,18.8624267578125,-1.3120355606079102,-0.9957437515258789,-0.9511566162109375,6.598684787750244,9.197519302368164,3.2264626026153564
8_20251106_181401,1762424007656,8,0.11524619162082672,0.2811405062675476,0.5842790007591248,0.7525267004966736,1.6831074953079224,2.1251182556152344,-0.07409559190273285,4.81980037689209,8.278387069702148,1.9951963424682617,0.7858507037162781,-0.7506992816925049,-0.7867517471313477,2.064910888671875,-31.5706787109375,19.502948760986328,-1.423107624053955,-0.7353057861328125,-0.9850130081176758,6.242908000946045,9.013692855834961,2.9802093505859375
8_20251106_181401,1762424007673,8,0.1220979318022728,0.28300848603248596,0.590964674949646,0.7454925179481506,1.6911122798919678,2.1042160987854004,-0.07905285060405731,4.549266815185547,8.587224960327148,2.477607250213623,0.7858507037162781,-0.7506992816925049,-0.7867517471313477,2.6451969146728516,-31.10138702392578,20.210559844970703,-1.3549132347106934,-0.3411741256713867,-0.4020814895629883,5.90418004989624,8.928399085998535,2.8796887397766113
8_20251106_181401,1762424007693,8,0.1300058811903,0.2852548658847809,0.5967654585838318,0.7386468052864075,1.6950424909591675,2.0815412998199463,-0.08443432301282883,4.417591094970703,8.727279663085938,2.8307368755340576,0.675284206867218,-0.8551571369171143,-0.8075211644172668,3.311971664428711,-30.624916076660156,20.759410858154297,-1.1892714500427246,-0.16089534759521484,-0.03916144371032715,5.606862545013428,8.888175010681152,2.8698983192443848
8_20251106_181401,1762424007711,8,0.13836152851581573,0.2861518859863281,0.6024800539016724,0.7321140766143799,1.6950424909591675,2.0815412998199463,-0.08443432301282883,4.417591094970703,8.727279663085938,2.8307368755340576,0.6868906617164612,-0.7684143781661987,-0.9981108903884888,4.135643005371094,-30.17498016357422,21.232746124267578,-1.1892714500427246,-0.16089534759521484,-0.03916144371032715,5.606862545013428,8.888175010681152,2.8698983192443848
8_20251106_181401,1762424007731,8,0.1470147669315338,0.2864064574241638,0.6086788177490234,0.7251676321029663,1.6872636079788208,2.0386648178100586,-0.09634820371866226,3.224133014678955,8.414850234985352,2.337552547454834,0.767524778842926,-0.817894458770752,-0.984671950340271,4.936252593994141,-29.70165252685547,21.719146728515625,-1.6314363479614258,-0.3241872787475586,-0.39107322692871094,4.855569362640381,8.73903751373291,2.728625774383545
8_20251106_181401,1762424007752,8,0.15572434663772583,0.28712156414985657,0.6152242422103882,0.7175028324127197,1.6872636079788208,2.0386648178100586,-0.09634820371866226,3.224133014678955,8.414850234985352,2.337552547454834,0.767524778842926,-0.817894458770752,-0.984671950340271,5.811489105224609,-29.19831085205078,22.195499420166016,-1.6314363479614258,-0.3241872787475586,-0.39107322692871094,4.855569362640381,8.73903751373291,2.728625774383545
8_20251106_181401,1762424007769,8,0.16400305926799774,0.28824418783187866,0.621782660484314,0.709510087966919,1.6723138093948364,2.013425827026367,-0.10617111623287201,2.7776336669921875,8.285569190979004,1.9963934421539307,0.8023440837860107,-0.8588223457336426,-0.8930422067642212,6.7324371337890625,-28.75390625,22.60491180419922,-1.6623482704162598,-0.3627748489379883,-0.5857858657836914,4.439981937408447,8.648344039916992,2.582179307937622
8_20251106_181401,1762424007790,8,0.1722056120634079,0.2895148694515228,0.6281746029853821,0.7013722658157349,1.6347126960754395,1.9696478843688965,-0.1307423859834671,1.8319646120071411,7.513471603393555,0.6533039212226868,0.7021622657775879,-0.8722614049911499,-0.9144225120544434,7.747234344482422,-28.16473388671875,22.912532806396484,-1.7700663805007935,-0.8065690994262695,-1.3599309921264648,3.6020309925079346,8.320040702819824,2.013234853744507
8_20251106_181401,1762424007807,8,0.18094179034233093,0.29057252407073975,0.6338756680488586,0.6935628056526184,1.608891248703003,1.9449175596237183,-0.14960408210754395,1.260972023010254,6.996346473693848,-0.20019224286079407,0.45231860876083374,-0.8722614049911499,-0.8441730737686157,8.709156036376953,-27.653945922851562,23.20309066772461,-1.872847318649292,-1.058955192565918,-1.7707417011260986,3.133819341659546,8.055301666259766,1.570549488067627
8_20251106_181401,1762424007826,8,0.1900152564048767,0.2916336953639984,0.6377245187759399,0.6871327757835388,1.5767298936843872,1.9165235757827759,-0.17534691095352173,0.8491870760917664,6.744965553283691,-0.9184219241142273,0.08824322372674942,-0.8740939497947693,-0.6926785707473755,9.722923278808594,-27.10095977783203,23.36124038696289,-1.8277058601379395,-1.048269271850586,-1.9911770820617676,2.6768929958343506,7.793234825134277,1.072755217552185
8_20251106_181401,1762424007846,8,0.1991027593612671,0.29289886355400085,0.6388456225395203,0.6829675436019897,1.5412278175354004,1.888023018836975,-0.2009008526802063,0.8731280565261841,7.236952781677246,0.6724568009376526,0.08824322372674942,-0.8740939497947693,-0.6926785707473755,10.724506378173828,-26.54876708984375,23.518898010253906,-1.4430121183395386,-0.4450259208679199,-0.32023876905441284,2.3161401748657227,7.681978702545166,0.9926955699920654
8_20251106_181401,1762424007865,8,0.2095821350812912,0.29555386304855347,0.6374428868293762,0.6799924969673157,1.5013062953948975,1.8586827516555786,-0.2236219048500061,0.8623546361923218,7.405736923217773,1.9245703220367432,-0.20069578289985657,-1.0646837949752808,-0.5894424915313721,11.672794342041016,-26.098731994628906,23.5238037109375,-1.163028359413147,-0.2209935188293457,0.745499849319458,2.0253829956054688,7.626730442047119,1.1790704727172852
8_20251106_181401,1762424007883,8,0.21970364451408386,0.2985108494758606,0.6362324953079224,0.6766312122344971,1.5013062953948975,1.8586827516555786,-0.2236219048500061,0.8623546361923218,7.405736923217773,1.9245703220367432,0.21530309319496155,-1.072624921798706,-0.6267052292823792,12.7044677734375,-25.68053436279297,23.504318237304688,-1.163028359413147,-0.2209935188293457,0.745499849319458,2.0253829956054688,7.626730442047119,1.1790704727172852
8_20251106_181401,1762424007903,8,0.22922354936599731,0.3014395236968994,0.6370477080345154,0.6713873744010925,1.4195263385772705,1.8053851127624512,-0.26374638080596924,0.20637156069278717,7.277652740478516,0.7143534421920776,0.2495115101337433,-0.908913254737854,-0.6798504590988159,13.672473907470703,-25.328018188476562,23.37293243408203,-1.2375224828720093,-0.25577831268310547,-0.40965425968170166,1.4438940286636353,7.533431053161621,1.1240077018737793
8_20251106_181401,1762424007922,8,0.23799371719360352,0.3030758202075958,0.6385820508003235,0.6661208271980286,1.3746145963668823,1.7791026830673218,-0.28709739446640015,-0.3765915036201477,7.100489616394043,-0.3689761757850647,0.04609356448054314,-0.641354501247406,-0.6932894587516785,14.65606689453125,-24.935279846191406,23.067115783691406,-1.4563884735107422,-0.34635305404663086,-1.1943871974945068,1.0797969102859497,7.446842670440674,0.8254109621047974
8_20251106_181401,1762424007941,8,0.24585175514221191,0.30247652530670166,0.6395180821418762,0.6626322269439697,1.326767086982727,1.753492832183838,-0.3131949305534363,-0.8087263107299805,7.2130126953125,-0.6012037992477417,-0.19458714127540588,-0.5436161756515503,-0.7055067420005798,14.65606689453125,-24.935279846191406,23.067115783691406,-1.510818600654602,-0.18706417083740234,-1.141291856765747,0.7020922899246216,7.400076866149902,0.5400880575180054
8_20251106_181401,1762424007961,8,0.2540905773639679,0.30080676078796387,0.6392551064491272,0.6605347990989685,1.273573398590088,1.727543592453003,-0.34082967042922974,-1.0565155744552612,7.288426399230957,0.03442941606044769,-0.19458714127540588,-0.5436161756515503,-0.7055067420005798,15.619930267333984,-24.669578552246094,22.82575225830078,-1.406886339187622,-0.08932018280029297,-0.404526948928833,0.35037070512771606,7.37774658203125,0.4389563500881195
8_20251106_181401,1762424007979,8,0.26262035965919495,0.29921016097068787,0.6379016041755676,0.6592308878898621,1.2239328622817993,1.7053345441818237,-0.3642095923423767,-1.3390191793441772,7.36862850189209,0.5395842790603638,-0.3130948543548584,-0.6053134799003601,-0.5369080901145935,16.56252670288086,-24.36644744873047,22.44903564453125,-1.3515119552612305,-0.007294654846191406,0.08050233125686646,0.012492746114730835,7.375923156738281,0.4590819478034973
8_20251106_181401,1762424007999,8,0.27051177620887756,0.29845213890075684,0.6361694931983948,0.6580563187599182,1.1664397716522217,1.6823971271514893,-0.3875628709793091,-1.6634196043014526,7.542201042175293,0.8951079845428467,-0.3130948543548584,-0.6053134799003601,-0.5369080901145935,17.42526626586914,-24.181640625,22.12106704711914,-1.3407299518585205,0.13302230834960938,0.34882086515426636,-0.3226896822452545,7.409178733825684,0.5462871193885803
8_20251106_181401,1762424008018,8,0.2772236764431,0.2991563379764557,0.6345638036727905,0.6564916372299194,1.1105124950408936,1.6625635623931885,-0.40775442123413086,-1.7950949668884277,7.725349426269531,0.8687728643417358,-0.06325121968984604,-0.6633456349372864,-0.1667240858078003,18.298484802246094,-24.02155303955078,21.83361053466797,-1.1779242753982544,0.25293684005737305,0.2579886317253113,-0.6171706914901733,7.472412586212158,0.6107842326164246
8_20251106_181401,1762424008036,8,0.28240326046943665,0.30134743452072144,0.6330935955047607,0.6546988487243652,1.0576695203781128,1.6463207006454468,-0.42515891790390015,-1.6358873844146729,8.125164031982422,0.9226400852203369,0.043039239943027496,-0.6499066352844238,0.005539777688682079,19.065441131591797,-23.817581176757812,21.46169662475586,-0.8149733543395996,0.5222015380859375,0.24948465824127197,-0.8209140300750732,7.602962493896484,0.6731554269790649
8_20251106_181401,1762424008056,8,0.2863180339336395,0.30493536591529846,0.6317319273948669,0.6526493430137634,1.0576695203781128,1.6463207006454468,-0.42515891790390015,-1.6358873844146729,8.125164031982422,0.9226400852203369,0.043039239943027496,-0.6499066352844238,0.005539777688682079,19.77228546142578,-23.59326934814453,21.168956756591797,-0.8149733543395996,0.5222015380859375,0.24948465824127197,-0.8209140300750732,7.602962493896484,0.6731554269790649
8_20251106_181401,1762424008075,8,0.28897368907928467,0.30903226137161255,0.6308005452156067,0.6504490375518799,0.9471228122711182,1.6197514533996582,-0.46365007758140564,-1.318669319152832,8.552511215209961,0.03562647104263306,0.12672771513462067,-0.6077569723129272,0.11671715974807739,20.450218200683594,-23.457908630371094,20.819324493408203,-0.3105192184448242,0.6521453857421875,-0.45494285225868225,-1.0081501007080078,7.900365829467773,0.4905693233013153
8_20251106_181401,1762424008094,8,0.2914794385433197,0.3132356107234955,0.6298147439956665,0.6482719779014587,0.9471228122711182,1.6197514533996582,-0.46365007758140564,-1.318669319152832,8.552511215209961,0.03562647104263306,-0.007662530057132244,-0.5210141539573669,0.11366283148527145,21.012161254882812,-23.41948699951172,20.65265655517578,-0.3105192184448242,0.6521453857421875,-0.45494285225868225,-1.0081501007080078,7.900365829467773,0.4905693233013153
8_20251106_181401,1762424008114,8,0.2939736843109131,0.31664589047431946,0.6282178163528442,0.6470372676849365,0.8933200240135193,1.6107913255691528,-0.4827803373336792,-1.2959253787994385,8.70932388305664,0.4641701579093933,-0.11334212869405746,-0.4092259109020233,0.10816504806280136,21.45221710205078,-23.4122314453125,20.29132843017578,-0.23022019863128662,0.6471662521362305,-0.02111932635307312,-1.0657051801681519,8.06215763092041,0.48528948426246643
8_20251106_181401,1762424008133,8,0.2960832715034485,0.31890884041786194,0.626266360282898,0.6468557119369507,0.7983545064926147,1.6021384000778198,-0.5139181017875671,-1.00384521484375,9.172582626342773,0.8544082641601562,-0.11273126304149628,-0.3487502932548523,0.10877592116594315,21.82933807373047,-23.43486785888672,20.00811767578125,0.058934688568115234,0.7514677047729492,0.2435140609741211,-1.0627799034118652,8.421114921569824,0.6108942031860352
8_20251106_181401,1762424008152,8,0.29790550470352173,0.3208802342414856,0.6243745684623718,0.646872878074646,0.7549579739570618,1.6020193099975586,-0.5266027450561523,-0.9176577925682068,9.379671096801758,1.0854387283325195,-0.11334212869405746,-0.272392213344574,0.1112193763256073,22.132034301757812,-23.48725128173828,19.70792007446289,0.11609774827957153,0.7668447494506836,0.37963563203811646,-1.0337555408477783,8.612826347351074,0.7058030962944031
8_20251106_181401,1762424008170,8,0.2992057800292969,0.3223687410354614,0.6226900815963745,0.6471563577651978,0.7164876461029053,1.6043751239776611,-0.537473201751709,-0.795558750629425,9.613096237182617,0.9274282455444336,-0.1060117557644844,-0.15877138078212738,0.08983910828828812,22.435138702392578,-23.527488708496094,19.448535919189453,0.19055742025375366,0.8002157211303711,0.1773000955581665,-0.9861161708831787,8.812880516052246,0.7501281499862671
8_20251106_181401,1762424008190,8,0.2999204397201538,0.3230203092098236,0.6214108467102051,0.6477299928665161,0.7164876461029053,1.6043751239776611,-0.537473201751709,-0.795558750629425,9.613096237182617,0.9274282455444336,-0.09807050973176956,-0.0549243725836277,0.031196095049381256,22.628074645996094,-23.575546264648438,19.2523193359375,0.19055742025375366,0.8002157211303711,0.1773000955581665,-0.9861161708831787,8.812880516052246,0.7501281499862671
8_20251106_181401,1762424008209,8,0.3003769516944885,0.32278725504875183,0.6206514239311218,0.6483624577522278,0.6407762169837952,1.6158664226531982,-0.5596068501472473,-0.7799971103668213,9.631052017211914,0.594648540019989,-0.1115095317363739,0.0837419182062149,-0.023781727999448776,22.754932403564453,-23.72735595703125,18.98395538330078,0.1322992444038391,0.5188417434692383,-0.12747007608413696,-0.9122963547706604,9.112210273742676,0.722118616104126
8_20251106_181401,1762424008228,8,0.3004407286643982,0.32141146063804626,0.6203691363334656,0.6492859125137329,0.6073482632637024,1.6230653524398804,-0.5709922313690186,-0.7584502696990967,9.529303550720215,0.2822186350822449,-0.1218942329287529,0.14910443127155304,-0.011564434505999088,22.873058319091797,-23.794082641601562,18.919692993164062,0.1230769157409668,0.33367443084716797,-0.3519200086593628,-0.8815271854400635,9.195629119873047,0.6341386437416077
8_20251106_181401,1762424008246,8,0.30006229877471924,0.31969740986824036,0.6201969981193542,0.650470495223999,0.6073482632637024,1.6230653524398804,-0.5709922313690186,-0.7584502696990967,9.529303550720215,0.2822186350822449,-0.16709822416305542,0.10206785798072815,0.07273489981889725,22.969112396240234,-23.83606719970703,18.733333587646484,0.1230769157409668,0.33367443084716797,-0.3519200086593628,-0.8815271854400635,9.195629119873047,0.6341386437416077
8_20251106_181401,1762424008266,8,0.2995210289955139,0.3186514377593994,0.6194144487380981,0.6519771218299866,0.5470548868179321,1.6393866539001465,-0.5945897698402405,-0.5046757459640503,9.610702514648438,0.3935442566871643,-0.1842024326324463,0.05014435946941376,0.199794739484787,22.99972152709961,-23.94615936279297,18.678363800048828,0.27700066566467285,0.27158451080322266,-0.13387000560760498,-0.7816764116287231,9.339118003845215,0.5274142622947693
8_20251106_181401,1762424008285,8,0.29862740635871887,0.3187151849269867,0.6179536581039429,0.6537396907806396,0.5470548868179321,1.6393866539001465,-0.5945897698402405,-0.5046757459640503,9.610702514648438,0.3935442566871643,-0.09990310668945312,0.004940368235111237,0.2914244532585144,22.982376098632812,-24.058349609375,18.513301849365234,0.27700066566467285,0.27158451080322266,-0.13387000560760498,-0.7816764116287231,9.339118003845215,0.5274142622947693
8_20251106_181401,1762424008303,8,0.2971291244029999,0.319841206073761,0.616585910320282,0.6551623344421387,0.49946531653404236,1.6578691005706787,-0.6183145046234131,-0.006703227758407593,9.877645492553711,0.07153794914484024,-0.057753439992666245,-0.012774708680808544,0.33051979541778564,22.966453552246094,-24.133811950683594,18.443645477294922,0.5296916961669922,0.36476802825927734,-0.31570184230804443,-0.5363949537277222,9.512877464294434,0.3872397840023041
8_20251106_181401,1762424008323,8,0.2954070568084717,0.32156792283058167,0.6152719855308533,0.6563300490379333,0.4789261817932129,1.6689094305038452,-0.6311393976211548,0.22791846096515656,9.905177116394043,0.24151897430419922,-0.08646408468484879,0.07335721701383591,0.30547434091567993,22.825557708740234,-24.267845153808594,18.40857696533203,0.611450731754303,0.3138399124145508,-0.11657664179801941,-0.3835322856903076,9.591337203979492,0.35809561610221863
8_20251106_181401,1762424008342,8,0.2933531701564789,0.322531521320343,0.6141229271888733,0.6578528881072998,0.4789261817932129,1.6689094305038452,-0.6311393976211548,0.22791846096515656,9.905177116394043,0.24151897430419922,-0.17015254497528076,0.25050801038742065,0.21689896285533905,22.71790313720703,-24.450401306152344,18.441505432128906,0.611450731754303,0.3138399124145508,-0.11657664179801941,-0.3835322856903076,9.591337203979492,0.35809561610221863
8_20251106_181401,1762424008363,8,0.2909870445728302,0.32158583402633667,0.613203227519989,0.6602203249931335,0.44927969574928284,1.6918957233428955,-0.6556411385536194,0.5475306510925293,10.21401596069336,0.0799172967672348,-0.32409045100212097,0.386730819940567,0.14603865146636963,22.612056732177734,-24.60730743408203,18.4208984375,0.6125432252883911,0.4360532760620117,-0.18473760783672333,-0.06501258164644241,9.777962684631348,0.26465490460395813
8_20251106_181401,1762424008382,8,0.28876370191574097,0.3190433979034424,0.6118778586387634,0.6636507511138916,0.43772754073143005,1.7062065601348877,-0.6679452061653137,0.6708267331123352,10.304990768432617,0.4294557273387909,-0.3784574270248413,0.3726809322834015,0.10999765247106552,22.612056732177734,-24.60730743408203,18.4208984375,0.5886714458465576,0.42162322998046875,0.13184067606925964,0.0821552649140358,9.883367538452148,0.29761505126953125
8_20251106_181401,1762424008400,8,0.2870636582374573,0.31631284952163696,0.6102431416511536,0.6671910881996155,0.4299088716506958,1.7190629243850708,-0.677315354347229,0.7270880341529846,10.372026443481445,0.5611311793327332,-0.3625749349594116,0.31281620264053345,0.06906970590353012,22.410808563232422,-24.756126403808594,18.20740509033203,0.5159462094306946,0.3909273147583008,0.21081289649009705,0.21114182472229004,9.981099128723145,0.3503182828426361
8_20251106_181401,1762424008420,8,0.2859557569026947,0.3137880563735962,0.6085857152938843,0.6703653931617737,0.42316609621047974,1.7334617376327515,-0.686456024646759,0.7079352140426636,10.253517150878906,0.5970426201820374,-0.3497467637062073,0.2847164273262024,0.044024258852005005,22.19487762451172,-24.932334899902344,18.141571044921875,0.39743471145629883,0.21793460845947266,0.197379469871521,0.31050050258636475,10.035582542419434,0.39966315031051636
8_20251106_181401,1762424008439,8,0.28506195545196533,0.3112727701663971,0.6070138216018677,0.6733373403549194,0.4182499647140503,1.7463977336883545,-0.6937676072120667,0.6552650928497314,10.2894287109375,0.6042249202728271,-0.3497467637062073,0.2847164273262024,0.044024258852005005,21.97834014892578,-25.12096405029297,18.06195831298828,0.27581167221069336,0.2030773162841797,0.16364943981170654,0.3794534206390381,10.08635139465332,0.4405754804611206
8_20251106_181401,1762424008457,8,0.284376323223114,0.3090461492538452,0.6055490970611572,0.6759666204452515,0.41397836804389954,1.7603209018707275,-0.7001250386238098,0.6193536520004272,10.433074951171875,0.7957528233528137,-0.2978232502937317,0.18819978833198547,0.040969934314489365,21.799278259277344,-25.28276824951172,18.051925659179688,0.1919201910495758,0.27737903594970703,0.2841418981552124,0.42743346095085144,10.155695915222168,0.5116109251976013
8_20251106_181401,1762424008476,8,0.2839164435863495,0.3072717785835266,0.6040544509887695,0.6783021092414856,0.4104698896408081,1.7742564678192139,-0.7048069834709167,0.6277329325675964,10.413923263549805,1.0064334869384766,-0.28866028785705566,0.2071365863084793,0.038526471704244614,21.579723358154297,-25.521896362304688,17.998287200927734,0.160239577293396,0.20658206939697266,0.3958580493927002,0.46749335527420044,10.207341194152832,0.6105754375457764
8_20251106_181401,1762424008496,8,0.2833345830440521,0.30535054206848145,0.6026617884635925,0.6806477308273315,0.40730661153793335,1.7886817455291748,-0.7086493968963623,0.5810480117797852,10.36843490600586,0.8867285251617432,-0.2660582959651947,0.21874302625656128,0.025087449699640274,21.424510955810547,-25.706016540527344,17.86705780029297,0.09084373712539673,0.1288747787475586,0.22092247009277344,0.4902042746543884,10.2395601272583,0.6658060550689697
8_20251106_181401,1762424008514,8,0.2826352119445801,0.30325448513031006,0.6014881730079651,0.6829099655151367,0.4043835699558258,1.8012354373931885,-0.7110399007797241,0.40149059891700745,10.32893180847168,1.0291774272918701,-0.20741529762744904,0.13261109590530396,0.031806960701942444,21.20818328857422,-25.88275909423828,17.855289459228516,-0.07097095251083374,0.07149696350097656,0.2906970977783203,0.4724615514278412,10.257434844970703,0.7384803295135498
8_20251106_181401,1762424008534,8,0.28226396441459656,0.3019670248031616,0.600446343421936,0.6845488548278809,0.4006238579750061,1.814612865447998,-0.7125303149223328,0.2506623864173889,10.299005508422852,1.0782564878463745,-0.12250510603189468,0.07152462005615234,0.07090230286121368,20.995269775390625,-26.008468627929688,17.763477325439453,-0.17743933200836182,0.03325653076171875,0.27182096242904663,0.42810171842575073,10.265748977661133,0.8064355254173279
8_20251106_181401,1762424008552,8,0.2816072702407837,0.3013402223587036,0.5997507572174072,0.6857043504714966,0.3970991373062134,1.826279878616333,-0.7130969762802124,0.30213552713394165,10.358858108520508,1.093818187713623,-0.10051397234201431,0.07946586608886719,0.14420606195926666,20.901817321777344,-26.152694702148438,17.811206817626953,-0.10077294707298279,0.07448673248291016,0.2299060821533203,0.40290847420692444,10.284371376037598,0.8639121055603027
8_20251106_181401,1762424008572,8,0.2804877460002899,0.3011948764324188,0.5989735126495361,0.6869053840637207,0.39387282729148865,1.8385157585144043,-0.7125267386436462,0.5654863715171814,10.258306503295898,1.2482374906539917,-0.10051397234201431,0.07946586608886719,0.14420606195926666,20.81873321533203,-26.333396911621094,17.818084716796875,0.13006234169006348,-0.020852088928222656,0.30746030807495117,0.4354240298271179,10.279158592224121,0.9407771825790405
8_20251106_181401,1762424008590,8,0.27876046299934387,0.30107399821281433,0.5979191660881042,0.6885780096054077,0.39240729808807373,1.8489850759506226,-0.7112261056900024,0.960512638092041,10.282247543334961,1.2709813117980957,-0.12006164342164993,0.12405897676944733,0.2498856484889984,20.65054702758789,-26.519386291503906,17.794498443603516,0.4200708866119385,0.002471923828125,0.2641632556915283,0.5404417514801025,10.279775619506836,1.0068180561065674
8_20251106_181401,1762424008610,8,0.2767259180545807,0.3012245297431946,0.596777617931366,0.6903209686279297,0.39292341470718384,1.8604947328567505,-0.7092429995536804,1.219075322151184,10.430681228637695,1.2075377702713013,-0.05714257434010506,0.042203113436698914,0.23094883561134338,20.517410278320312,-26.728240966796875,17.785369873046875,0.5429068803787231,0.12072467803955078,0.1605757474899292,0.6761684417724609,10.309956550598145,1.046962022781372
8_20251106_181401,1762424008629,8,0.2750362455844879,0.30202072858810425,0.5958598852157593,0.691440224647522,0.39490827918052673,1.8711018562316895,-0.7067697048187256,1.229848861694336,10.389981269836426,1.2961194515228271,0.03448713198304176,-0.02193767949938774,0.14542779326438904,20.412872314453125,-26.86016845703125,17.77880859375,0.44294434785842896,0.06401920318603516,0.19932591915130615,0.786904513835907,10.32596206665039,1.096793532371521
8_20251106_181401,1762424008650,8,0.2740447223186493,0.303097128868103,0.5955865383148193,0.6915983557701111,0.39812391996383667,1.8818079233169556,-0.7040783762931824,1.1245083808898926,10.197256088256836,1.124941349029541,0.03448713198304176,-0.02193767949938774,0.14542779326438904,20.22565460205078,-26.94769287109375,17.79690170288086,0.27008306980133057,-0.10296440124511719,0.022518277168273926,0.854425311088562,10.300220489501953,1.102423071861267
8_20251106_181401,1762424008668,8,0.273349404335022,0.3033770024776459,0.5959948897361755,0.6913990378379822,0.4009823799133301,1.889268398284912,-0.7023324966430664,1.0299415588378906,9.948270797729492,0.9549604058265686,0.05586739629507065,0.08985055983066559,-0.03599902242422104,20.137012481689453,-27.027381896972656,17.670238494873047,0.14041298627853394,-0.2815589904785156,-0.11797016859054565,0.8895285725593567,10.229829788208008,1.0729305744171143
8_20251106_181401,1762424008686,8,0.2727859616279602,0.3026582896709442,0.5967264175415039,0.6913055181503296,0.4009823799133301,1.889268398284912,-0.7023324966430664,1.0299415588378906,9.948270797729492,0.9549604058265686,0.024713296443223953,0.12405899167060852,-0.07142917811870575,20.082134246826172,-27.131690979003906,17.733745574951172,0.14041298627853394,-0.2815589904785156,-0.11797016859054565,0.8895285725593567,10.229829788208008,1.0729305744171143
8_20251106_181401,1762424008706,8,0.27243703603744507,0.3015064597129822,0.5974330902099609,0.6913360953330994,0.40702933073043823,1.9021223783493042,-0.7006874084472656,0.8348224759101868,9.779486656188965,0.7789941430091858,0.024713296443223953,0.12405899167060852,-0.07142917811870575,19.955142974853516,-27.227806091308594,17.754024505615234,-0.04650360345840454,-0.3052654266357422,-0.19654661417007446,0.8813260793685913,10.084752082824707,0.9755407571792603
8_20251106_181401,1762424008724,8,0.27203691005706787,0.30020129680633545,0.5981183648109436,0.691469132900238,0.40939927101135254,1.9061475992202759,-0.7010949850082397,0.8839015364646912,9.77230453491211,0.6245747804641724,0.008830814622342587,0.10634391009807587,-0.05554669350385666,19.832576751708984,-27.248306274414062,17.748855590820312,0.0020603537559509277,-0.24995803833007812,-0.2807728052139282,0.8818411827087402,10.022262573242188,0.9053475856781006
8_20251106_181401,1762424008743,8,0.27171602845191956,0.2991791069507599,0.5986761450767517,0.6915556192398071,0.41193056106567383,1.9093478918075562,-0.7020110487937927,0.8432018756866455,9.59514045715332,0.7538561224937439,0.008830814622342587,0.10634391009807587,-0.05554669350385666,19.83409881591797,-27.211448669433594,17.830745697021484,-0.03091144561767578,-0.34169769287109375,-0.12119317054748535,0.8741133213043213,9.936838150024414,0.8750492930412292
8_20251106_181401,1762424008763,8,0.27180996537208557,0.2986018657684326,0.598972499370575,0.6915115118026733,0.41428133845329285,1.911251187324524,-0.7027875781059265,0.8563693761825562,9.562820434570312,0.9058813452720642,-0.03759490326046944,0.02693150006234646,-0.059822745621204376,19.76199722290039,-27.19164276123047,17.882396697998047,-0.01419520378112793,-0.29921436309814453,0.024665653705596924,0.8705645799636841,9.862034797668457,0.8812156915664673
8_20251106_181401,1762424008783,8,0.27207836508750916,0.2979527711868286,0.5990341305732727,0.6916325688362122,0.4165380299091339,1.9124107360839844,-0.7034043073654175,0.9198130369186401,9.658584594726562,0.9118666052818298,-0.06935986876487732,0.0299858208745718,-0.0634879320859909,19.728370666503906,-27.132049560546875,17.963340759277344,0.039398789405822754,-0.16275978088378906,0.024520695209503174,0.8804142475128174,9.821344375610352,0.8873459100723267
8_20251106_181401,1762424008802,8,0.27244389057159424,0.2973223328590393,0.5989425182342529,0.6918392777442932,0.41888538002967834,1.9133957624435425,-0.7038664221763611,0.9102365970611572,9.763925552368164,0.9382017254829407,-0.09012926369905472,0.006772962398827076,-0.06593139469623566,19.728370666503906,-27.132049560546875,17.963340759277344,0.02385789155960083,-0.04593467712402344,0.040684640407562256,0.8863787055015564,9.809860229492188,0.8975170850753784
8_20251106_181401,1762424008820,8,0.2729502320289612,0.29686832427978516,0.5986393094062805,0.6920970678329468,0.4209982752799988,1.914107084274292,-0.7038459777832031,0.9293893575668335,9.756742477416992,1.0662859678268433,-0.09012926369905472,0.006772962398827076,-0.06593139469623566,19.765533447265625,-27.11724853515625,17.978591918945312,0.034408509731292725,-0.042494773864746094,0.135015070438385,0.8949808478355408,9.799237251281738,0.9312708973884583
8_20251106_181401,1762424008839,8,0.2736276388168335,0.29636120796203613,0.5982561111450195,0.6923781633377075,0.42307350039482117,1.914776086807251,-0.7031594514846802,0.8791133165359497,9.783077239990234,1.1740202903747559,-0.10356829315423965,0.006162097677588463,-0.07631609588861465,19.815292358398438,-27.089492797851562,18.03514862060547,-0.012694001197814941,-0.012928009033203125,0.19419950246810913,0.8918073177337646,9.796005249023438,0.9798207879066467
8_20251106_181401,1762424008859,8,0.27431532740592957,0.2952834367752075,0.5977358818054199,0.6930155754089355,0.42485177516937256,1.9153730869293213,-0.701464056968689,0.7941228151321411,9.77230453491211,1.3116810321807861,-0.13411152362823486,0.05075522139668465,-0.1050267368555069,19.82878875732422,-27.063720703125,18.0496826171875,-0.07814759016036987,-0.018960952758789062,0.2654881477355957,0.872270405292511,9.791265487670898,1.0461928844451904
8_20251106_181401,1762424008878,8,0.27494826912879944,0.2936081290245056,0.5973549485206604,0.6938045620918274,0.42485177516937256,1.9153730869293213,-0.701464056968689,0.7941228151321411,9.77230453491211,1.3116810321807861,-0.10967693477869034,0.10084613412618637,-0.1306830644607544,19.842483520507812,-27.037681579589844,18.037185668945312,-0.07814759016036987,-0.018960952758789062,0.2654881477355957,0.872270405292511,9.791265487670898,1.0461928844451904
8_20251106_181401,1762424008896,8,0.2754145860671997,0.29172831773757935,0.5971168279647827,0.6946170926094055,0.42701444029808044,1.9165695905685425,-0.6978820562362671,0.6684325933456421,9.897994995117188,1.0746653079986572,-0.10356829315423965,0.05075522139668465,-0.09525289386510849,19.85416030883789,-27.049171447753906,18.010379791259766,-0.1482682228088379,0.0865020751953125,0.004623889923095703,0.81670081615448,9.811492919921875,1.0700414180755615
8_20251106_181401,1762424008915,8,0.27602994441986084,0.29066261649131775,0.5968046188354492,0.695087730884552,0.4271760582923889,1.917501449584961,-0.695758044719696,0.5882303714752197,9.894403457641602,1.2230994701385498,-0.10356829315423965,0.05075522139668465,-0.09525289386510849,19.843570709228516,-27.03619384765625,17.888507843017578,-0.1827763319015503,0.06632804870605469,0.12244641780853271,0.77100670337677,9.828075408935547,1.100653052330017
8_20251106_181401,1762424008934,8,0.27652841806411743,0.2901242673397064,0.5964805483818054,0.6953926086425781,0.42696934938430786,1.9188511371612549,-0.6931710839271545,0.6397034525871277,9.99734878540039,1.3080899715423584,-0.07913370430469513,-0.011552979238331318,-0.0011797333136200905,19.857166290283203,-27.010284423828125,17.8895263671875,-0.10504263639450073,0.13541889190673828,0.16594958305358887,0.7447460889816284,9.861929893493652,1.1421403884887695
8_20251106_181401,1762424008954,8,0.2768391966819763,0.28969642519950867,0.5960548520088196,0.6958122253417969,0.4268254041671753,1.920783519744873,-0.6900869011878967,0.7653936147689819,10.053610801696777,1.3056957721710205,-0.08218803256750107,0.01349247433245182,0.025698315352201462,19.868324279785156,-27.045677185058594,17.74054718017578,0.016517996788024902,0.15334510803222656,0.1308443546295166,0.748875617980957,9.90026569366455,1.174851417541504
8_20251106_181401,1762424008973,8,0.2767069637775421,0.2891748249530792,0.5955585241317749,0.6965064406394958,0.4268254041671753,1.920783519744873,-0.6900869011878967,0.7653936147689819,10.053610801696777,1.3056957721710205,-0.06691641360521317,0.022044582292437553,0.028141774237155914,19.915050506591797,-27.080032348632812,17.72820281982422,0.016517996788024902,0.15334510803222656,0.1308443546295166,0.748875617980957,9.90026569366455,1.174851417541504
8_20251106_181401,1762424008993,8,0.27651476860046387,0.2889547049999237,0.5950675010681152,0.6970936059951782,0.42796164751052856,1.9264191389083862,-0.6844978332519531,0.9545274376869202,10.21521282196045,1.1704292297363281,-0.05286652222275734,-0.01094211358577013,-0.008510109968483448,19.963077545166016,-27.101028442382812,17.635021209716797,0.13908666372299194,0.21286582946777344,-0.004362344741821289,0.8154407739639282,10.002346992492676,1.1747915744781494
8_20251106_181401,1762424009011,8,0.27666571736335754,0.2891460657119751,0.5947145819664001,0.6972554922103882,0.42796164751052856,1.9264191389083862,-0.6844978332519531,0.9545274376869202,10.21521282196045,1.1704292297363281,-0.0650838166475296,-0.02254854142665863,-0.04455112665891647,20.012218475341797,-27.097312927246094,17.582916259765625,0.13908666372299194,0.21286582946777344,-0.004362344741821289,0.8154407739639282,10.002346992492676,1.1747915744781494
8_20251106_181401,1762424009031,8,0.277256578207016,0.28937503695487976,0.5942907929420471,0.6972870826721191,0.42968907952308655,1.933021903038025,-0.6790663599967957,0.7941228151321411,10.081143379211426,1.2326757907867432,-0.0650838166475296,-0.02254854142665863,-0.04455112665891647,20.058242797851562,-27.14422607421875,17.57030487060547,-0.027816593647003174,0.03893756866455078,0.033789873123168945,0.8219394087791443,10.042205810546875,1.1988859176635742
8_20251106_181401,1762424009050,8,0.2778600752353668,0.28894877433776855,0.593959629535675,0.6975058317184448,0.42968907952308655,1.933021903038025,-0.6790663599967957,0.7941228151321411,10.081143379211426,1.2326757907867432,-0.07974456995725632,0.03365100920200348,-0.09525290131568909,20.118877410888672,-27.140663146972656,17.613304138183594,-0.027816593647003174,0.03893756866455078,0.033789873123168945,0.8219394087791443,10.042205810546875,1.1988859176635742
8_20251106_181401,1762424009070,8,0.2784471809864044,0.28811752796173096,0.5938234925270081,0.6977313756942749,0.42991316318511963,1.9361926317214966,-0.6764692068099976,0.6349152326583862,10.004531860351562,1.1632468700408936,-0.09501618891954422,0.047700896859169006,-0.07998127490282059,20.155532836914062,-27.138145446777344,17.60125732421875,-0.14961934089660645,-0.03013896942138672,-0.02851128578186035,0.7845345735549927,10.03467082977295,1.191758155822754
8_20251106_181401,1762424009089,8,0.2789413034915924,0.2870662212371826,0.5937660336494446,0.6980162262916565,0.4286319613456726,1.9412710666656494,-0.6720059514045715,0.5810480117797852,10.005728721618652,1.3224544525146484,-0.12494855374097824,0.028153227642178535,-0.05432496219873428,20.239818572998047,-27.15715789794922,17.550098419189453,-0.12506020069122314,-0.013734817504882812,0.1121833324432373,0.7061082124710083,10.019463539123535,1.2102711200714111
8_20251106_181401,1762424009106,8,0.2795555293560028,0.2861834168434143,0.5934453010559082,0.6984056234359741,0.42742490768432617,1.9433187246322632,-0.6691538095474243,0.5259838104248047,9.933905601501465,1.4864501953125,-0.10051397234201431,-0.0005574141396209598,-0.05554669350385666,20.301860809326172,-27.12847900390625,17.5936279296875,-0.14409953355789185,-0.06844615936279297,0.22094321250915527,0.6700833439826965,10.002351760864258,1.2655069828033447
8_20251106_181401,1762424009125,8,0.2801884412765503,0.2854265570640564,0.5930513739585876,0.698796272277832,0.42742490768432617,1.9433187246322632,-0.6691538095474243,0.5259838104248047,9.933905601501465,1.4864501953125,-0.051033928990364075,-0.009720385074615479,-0.058601014316082,20.3363037109375,-27.16376495361328,17.59430694580078,-0.14409953355789185,-0.06844615936279297,0.22094321250915527,0.6700833439826965,10.002351760864258,1.2655069828033447
8_20251106_181401,1762424009146,8,0.28071534633636475,0.2845917344093323,0.5928648710250854,0.6990834474563599,0.4252069294452667,1.9454951286315918,-0.6653203368186951,0.40747585892677307,9.974605560302734,1.4661004543304443,-0.027821067720651627,-0.005444332025945187,-0.050048910081386566,20.348491668701172,-27.16297149658203,17.594799041748047,-0.21008601784706116,-0.02219676971435547,0.1604747772216797,0.6175618767738342,9.99680233001709,1.3056256771087646
8_20251106_181401,1762424009166,8,0.28112584352493286,0.28368040919303894,0.592944324016571,0.6992214918136597,0.4186655580997467,1.9492530822753906,-0.6584306955337524,0.26742106676101685,10.030866622924805,1.3332279920578003,-0.034540582448244095,0.015935933217406273,-0.020727403461933136,20.408504486083984,-27.183441162109375,17.52914047241211,-0.22696304321289062,0.029462814331054688,0.015941739082336426,0.49438410997390747,10.00140380859375,1.3172862529754639
8_20251106_181401,1762424009182,8,0.2814105451107025,0.2828182280063629,0.593116819858551,0.6993099451065063,0.41554540395736694,1.9506161212921143,-0.6556119322776794,0.332061767578125,9.948270797729492,1.4122332334518433,-0.034540582448244095,0.015935933217406273,-0.020727403461933136,20.446163177490234,-27.16796112060547,17.476810455322266,-0.1298578977584839,-0.042507171630859375,0.0759575366973877,0.4619196653366089,9.990777969360352,1.3362756967544556
8_20251106_181401,1762424009203,8,0.2814754247665405,0.28200778365135193,0.5933520793914795,0.6994115114212036,0.41160887479782104,1.9518523216247559,-0.6523602604866028,0.4481755495071411,9.852506637573242,1.257813811302185,0.001500437967479229,0.054420411586761475,0.001263725571334362,20.434062957763672,-27.18023681640625,17.36792755126953,-0.010995298624038696,-0.11061668395996094,-0.06276953220367432,0.4591708481311798,9.963123321533203,1.3205833435058594
8_20251106_181401,1762424009222,8,0.28123030066490173,0.2811400592327118,0.5936974883079529,0.6995663642883301,0.4082050323486328,1.9523354768753052,-0.650381326675415,0.4517666697502136,9.751955032348633,1.0231921672821045,0.004554761573672295,0.031207552179694176,-0.010342703200876713,20.434062957763672,-27.18023681640625,17.36792755126953,-0.005923330783843994,-0.16893482208251953,-0.23791289329528809,0.4576900005340576,9.920889854431152,1.2611050605773926
8_20251106_181401,1762424009240,8,0.2811560034751892,0.280735045671463,0.5940549373626709,0.6994553804397583,0.4051063656806946,1.952327847480774,-0.648970901966095,0.44338732957839966,9.741180419921875,1.110576868057251,-0.044314414262771606,-0.003000873140990734,-0.012786162085831165,20.444740295410156,-27.204689025878906,17.381404876708984,-0.0114421546459198,-0.1437673568725586,-0.1204226016998291,0.45482948422431946,9.884947776794434,1.23099946975708
8_20251106_181401,1762424009259,8,0.2811923027038574,0.28044718503952026,0.5942946076393127,0.6993526816368103,0.4051063656806946,1.952327847480774,-0.648970901966095,0.44338732957839966,9.741180419921875,1.110576868057251,-0.09501618891954422,0.0043295035138726234,-0.031112104654312134,20.480976104736328,-27.225936889648438,17.23366928100586,-0.0114421546459198,-0.1437673568725586,-0.1204226016998291,0.45482948422431946,9.884947776794434,1.23099946975708
8_20251106_181401,1762424009279,8,0.2822781205177307,0.28051015734672546,0.5938500165939331,0.6992676258087158,0.3985261917114258,1.9514602422714233,-0.6441513299942017,0.3823378086090088,9.832157135009766,1.5606672763824463,-0.10540089011192322,0.08252018690109253,-0.05432496219873428,20.50503921508789,-27.236366271972656,17.180320739746094,-0.047926902770996094,-0.020761489868164062,0.22496891021728516,0.4302647113800049,9.85291862487793,1.3356983661651611
8_20251106_181401,1762424009299,8,0.2824651002883911,0.2789716422557831,0.5935617685317993,0.7000519633293152,0.3944118022918701,1.9503324031829834,-0.6408818960189819,0.2303125560283661,9.659782409667969,1.455327033996582,-0.10540089011192322,0.08252018690109253,-0.05432496219873428,20.532318115234375,-27.196029663085938,17.073963165283203,-0.1599617302417755,-0.1545095443725586,0.0957028865814209,0.3902742862701416,9.814291954040527,1.3596241474151611
8_20251106_181401,1762424009317,8,0.2825384736061096,0.2771301567554474,0.5936320424079895,0.7006939053535461,0.3902991712093353,1.9489127397537231,-0.6384850740432739,0.08068138360977173,9.610702514648438,1.2518285512924194,-0.021101556718349457,0.11856120824813843,-0.07020744681358337,20.522048950195312,-27.159423828125,17.101295471191406,-0.2476743459701538,-0.1628713607788086,-0.08623647689819336,0.32835572957992554,9.773573875427246,1.3380650281906128
8_20251106_181401,1762424009336,8,0.28248023986816406,0.2753555476665497,0.5941457152366638,0.7009814977645874,0.3853313624858856,1.9469929933547974,-0.6367517113685608,0.02082890272140503,9.59274673461914,1.0938180685043335,-0.021101556718349457,0.11856120824813843,-0.07020744681358337,20.420642852783203,-27.229103088378906,17.150115966796875,-0.24602144956588745,-0.14466190338134766,-0.19539761543273926,0.2668503522872925,9.737408638000488,1.2892156839370728
8_20251106_181401,1762424009355,8,0.2822418808937073,0.2737025022506714,0.5949472784996033,0.701045036315918,0.3801143169403076,1.9449299573898315,-0.6360877752304077,0.08546958118677139,9.6502046585083,0.9310194253921509,-0.03209712356328964,0.12466984987258911,-0.0011797333136200905,20.361927032470703,-27.195266723632812,17.13494110107422,-0.14510461688041687,-0.06976318359375,-0.2865569591522217,0.23057419061660767,9.71996784210205,1.2175763845443726
8_20251106_181401,1762424009374,8,0.28176626563072205,0.2722601294517517,0.5957056879997253,0.7011539936065674,0.37504246830940247,1.9431498050689697,-0.6367456912994385,0.18841582536697388,9.78547191619873,0.747870922088623,-0.09440532326698303,0.11367429047822952,0.0647936537861824,20.37401580810547,-27.194610595703125,17.148948669433594,-0.03372669219970703,0.05240345001220703,-0.3757643699645996,0.2221425175666809,9.733068466186523,1.1236352920532227
8_20251106_181401,1762424009394,8,0.28114721179008484,0.27145200967788696,0.5959317088127136,0.7015236616134644,0.37047579884529114,1.9417109489440918,-0.6378836631774902,0.3883230686187744,9.84532356262207,0.9657338261604309,-0.2190217226743698,0.06724856793880463,0.1271018534898758,20.347431182861328,-27.2340087890625,17.160690307617188,0.13294443488121033,0.08980464935302734,-0.12632113695144653,0.2553786337375641,9.755518913269043,1.0920549631118774
8_20251106_181401,1762424009415,8,0.2807469666004181,0.27138906717300415,0.5951634645462036,0.7023599743843079,0.3670561909675598,1.9411624670028687,-0.637592613697052,0.5942155718803406,10.02009391784668,1.517573595046997,-0.2190217226743698,0.06724856793880463,0.1271018534898758,20.2744140625,-27.23863983154297,17.144229888916016,0.27106955647468567,0.21166038513183594,0.3404148817062378,0.3231460154056549,9.808433532714844,1.1771587133407593
8_20251106_181401,1762424009434,8,0.28055110573768616,0.2712266445159912,0.5929237008094788,0.7043923735618591,0.36523833870887756,1.9413275718688965,-0.6352918744087219,0.7318762540817261,10.040443420410156,1.9245703220367432,-0.3833443224430084,0.04892262816429138,0.15092557668685913,20.172386169433594,-27.332351684570312,17.084392547607422,0.3269841969013214,0.18560791015625,0.5979292392730713,0.40489205718040466,9.854835510253906,1.3266410827636719
8_20251106_181401,1762424009452,8,0.28055837750434875,0.2700626850128174,0.5894497632980347,0.7077443599700928,0.3644133508205414,1.9415440559387207,-0.630357563495636,0.7342703342437744,9.88243293762207,2.4895777702331543,-0.49574345350265503,0.11306342482566833,0.05196549743413925,20.105506896972656,-27.44879913330078,17.025501251220703,0.2635025978088379,0.022077560424804688,0.9303493499755859,0.4707677364349365,9.860355377197266,1.5592284202575684
8_20251106_181401,1762424009470,8,0.2806563377380371,0.26832854747772217,0.5859479308128357,0.7112642526626587,0.36414286494255066,1.9414297342300415,-0.6231020092964172,0.6792060732841492,9.73040771484375,2.602100372314453,-0.3326425552368164,0.11795034259557724,0.011037560179829597,20.072662353515625,-27.612686157226562,16.926475524902344,0.16675066947937012,-0.1039581298828125,0.8342976570129395,0.512455403804779,9.834365844726562,1.7678027153015137
8_20251106_181401,1762424009489,8,0.2804841995239258,0.26626017689704895,0.5831707119941711,0.7143850922584534,0.3642732799053192,1.940859079360962,-0.6139577031135559,0.6588562726974487,9.668160438537598,2.448878288269043,-0.3326425552368164,0.11795034259557724,0.011037560179829597,20.05764389038086,-27.675323486328125,16.83005142211914,0.11712068319320679,-0.1329641342163086,0.5448604822158813,0.5417355895042419,9.801124572753906,1.9040178060531616
8_20251106_181401,1762424009509,8,0.28010958433151245,0.2648659348487854,0.5816103219985962,0.7163198590278625,0.36426201462745667,1.9398701190948486,-0.6048266887664795,0.49246636033058167,9.638235092163086,2.065822124481201,0.03204367309808731,0.014714204706251621,0.018367938697338104,20.024192810058594,-27.85163116455078,16.717247009277344,-0.0394153892993927,-0.1303119659423828,0.12944352626800537,0.5318817496299744,9.768547058105469,1.9363785982131958
