session_id,timestamp,label,quaternion_w,quaternion_x,quaternion_y,quaternion_z,position_x,position_y,position_z,accelerometer_x,accelerometer_y,accelerometer_z,gyroscope_x,gyroscope_y,gyroscope_z,magnetometer_x,magnetometer_y,magnetometer_z,linear_acceleration_x,linear_acceleration_y,linear_acceleration_z,gravity_x,gravity_y,gravity_z
4_20251106_214251,1762436534182,4,0.3739085793495178,0.40919214487075806,0.6775525808334351,0.4834011495113373,-0.4751640260219574,2.832054376602173,1.3591068983078003,-0.7716177701950073,9.480224609375,-2.56915283203125,-0.056840963661670685,0.18242710828781128,-0.059521134942770004,28.730531692504883,-12.708305358886719,16.685840606689453,0.11535072326660156,0.8606948852539062,-0.045490264892578125,-0.8869684934616089,8.619529724121094,-2.523662567138672
4_20251106_214251,1762436534200,4,0.3730081021785736,0.4076387286186218,0.6782239079475403,0.4844667315483093,-0.4586227238178253,2.854858875274658,1.3110277652740479,-0.9870866537094116,9.432341575622559,-2.7319517135620117,-0.056840963661670685,0.18242710828781128,-0.059521134942770004,28.615617752075195,-13.0283203125,16.648284912109375,-0.08009451627731323,0.6502494812011719,-0.16663122177124023,-0.9069921374320984,8.782092094421387,-2.5653204917907715
4_20251106_214251,1762436534220,4,0.3716959059238434,0.4048529267311096,0.6797071099281311,0.48573094606399536,-0.4427938461303711,2.8795270919799805,1.2624531984329224,-1.1834027767181396,9.43832778930664,-2.697237014770508,-0.14114029705524445,0.26000693440437317,-0.12366193532943726,28.47795295715332,-13.31292724609375,16.678123474121094,-0.2211284637451172,0.5249881744384766,-0.10553336143493652,-0.9622743129730225,8.913339614868164,-2.5917036533355713
4_20251106_214251,1762436534240,4,0.37095406651496887,0.402211457490921,0.6805757880210876,0.487273633480072,-0.4272596836090088,2.907681703567505,1.2116137742996216,-1.2863490581512451,9.585563659667969,-2.5428178310394287,-0.21933098137378693,0.11767544597387314,-0.011262817308306694,28.470003128051758,-13.451324462890625,16.702251434326172,-0.25925981998443604,0.5377788543701172,0.0391087532043457,-1.027089238166809,9.047784805297852,-2.5819265842437744
4_20251106_214251,1762436534260,4,0.3709193766117096,0.4006240665912628,0.6801724433898926,0.4891672730445862,-0.41386210918426514,2.9348843097686768,1.1665793657302856,-1.2432552576065063,9.616687774658203,-2.2651023864746094,-0.2791956961154938,0.0058872089721262455,0.14023162424564362,28.32469367980957,-13.649360656738281,16.787513732910156,-0.17293274402618408,0.4551219940185547,0.25345945358276367,-1.0703225135803223,9.161565780639648,-2.518561840057373
4_20251106_214251,1762436534280,4,0.37115490436553955,0.4002935588359833,0.6785048246383667,0.49156925082206726,-0.4025058150291443,2.959599256515503,1.1294831037521362,-1.1103827953338623,9.753150939941406,-1.9466874599456787,-0.2730870544910431,-0.08879681676626205,0.27095669507980347,28.281694412231445,-13.764892578125,16.797183990478516,-0.03204822540283203,0.4732685089111328,0.45749950408935547,-1.0783345699310303,9.279882431030273,-2.404186964035034
4_20251106_214251,1762436534296,4,0.37133175134658813,0.4011795222759247,0.6760385036468506,0.49410492181777954,-0.39169013500213623,2.984299898147583,1.0960962772369385,-1.0672889947891235,9.775895118713379,-1.6510162353515625,-0.2730870544910431,-0.08879681676626205,0.27095669507980347,28.281694412231445,-13.764892578125,16.797183990478516,0.008836507797241211,0.39681053161621094,0.602536678314209,-1.0761255025863647,9.379084587097168,-2.2535529136657715
4_20251106_214251,1762436534316,4,0.3709595501422882,0.40240269899368286,0.6737907528877258,0.4964545667171478,-0.3802093267440796,3.0100395679473877,1.063645839691162,-0.8446378111839294,9.73280143737793,-1.878455400466919,-0.09043852239847183,0.09018653631210327,0.24530036747455597,28.25078010559082,-13.8797607421875,16.820858001708984,0.1851901412010193,0.2829732894897461,0.3000781536102295,-1.0298279523849487,9.449828147888184,-2.1785335540771484
4_20251106_214251,1762436534335,4,0.36939945816993713,0.4028201401233673,0.6728631854057312,0.4985329210758209,-0.3682164251804352,3.0350518226623535,1.0321632623672485,-0.633957028388977,9.653796195983887,-2.4171276092529297,-0.0226325374096632,0.1805945336818695,0.18543560802936554,28.24827003479004,-13.91796875,16.874130249023438,0.31669676303863525,0.16317462921142578,-0.19087529182434082,-0.9506537914276123,9.490621566772461,-2.226252317428589
4_20251106_214251,1762436534353,4,0.3672843873500824,0.40278568863868713,0.6727720499038696,0.500243604183197,-0.3682164251804352,3.0350518226623535,1.0321632623672485,-0.633957028388977,9.653796195983887,-2.4171276092529297,-0.0562300980091095,0.16165772080421448,0.16955313086509705,28.158342361450195,-13.999412536621094,16.923179626464844,0.31669676303863525,0.16317462921142578,-0.19087529182434082,-0.9506537914276123,9.490621566772461,-2.226252317428589
4_20251106_214251,1762436534374,4,0.36541852355003357,0.40270790457725525,0.6725590825080872,0.5019561052322388,-0.3422330617904663,3.0820515155792236,0.9708858132362366,-0.4555967450141907,9.543667793273926,-2.5176796913146973,-0.11853829771280289,0.0987386479973793,0.13778817653656006,28.051000595092773,-14.169952392578125,17.01043701171875,0.3197094202041626,0.030118942260742188,-0.17023348808288574,-0.7753061652183533,9.513548851013184,-2.3474462032318115
4_20251106_214251,1762436534391,4,0.364528089761734,0.402849018573761,0.6717861294746399,0.5035228729248047,-0.32899346947669983,3.103910446166992,0.9425076842308044,-0.5130550861358643,9.555638313293457,-2.2794671058654785,-0.1539684534072876,0.06453022360801697,0.08647553622722626,27.960355758666992,-14.275566101074219,16.964344024658203,0.2098008394241333,0.03367137908935547,0.054383277893066406,-0.7228559255599976,9.521966934204102,-2.333850383758545
4_20251106_214251,1762436534412,4,0.364025354385376,0.40239834785461426,0.6710875630378723,0.5051758289337158,-0.32899346947669983,3.103910446166992,0.9425076842308044,-0.5130550861358643,9.555638313293457,-2.2794671058654785,-0.1539684534072876,0.06453022360801697,0.08647553622722626,27.813722610473633,-14.51019287109375,16.94068145751953,0.2098008394241333,0.03367137908935547,0.054383277893066406,-0.7228559255599976,9.521966934204102,-2.333850383758545
4_20251106_214251,1762436534431,4,0.3637692332267761,0.40151581168174744,0.6705988049507141,0.5067092776298523,-0.3028141260147095,3.1466758251190186,0.8900325298309326,-0.8003469705581665,9.475436210632324,-1.9203522205352783,-0.12525780498981476,0.11584285646677017,0.0015653413720428944,27.646238327026367,-14.683624267578125,16.9173583984375,-0.07487589120864868,-0.04107952117919922,0.27823734283447266,-0.7254710793495178,9.516515731811523,-2.198589563369751
4_20251106_214251,1762436534449,4,0.36334168910980225,0.4003378450870514,0.6704758405685425,0.5081088542938232,-0.3028141260147095,3.1466758251190186,0.8900325298309326,-0.8003469705581665,9.475436210632324,-1.9203522205352783,-0.09410370886325836,0.13294707238674164,0.0070631238631904125,27.530319213867188,-14.80364990234375,16.897052764892578,-0.07487589120864868,-0.04107952117919922,0.27823734283447266,-0.7254710793495178,9.516515731811523,-2.198589563369751
4_20251106_214251,1762436534469,4,0.362634539604187,0.3991186022758484,0.6705901622772217,0.50942063331604,-0.2909841239452362,3.1663269996643066,0.8669478297233582,-0.7644355297088623,9.511346817016602,-1.9909780025482178,-0.09410370886325836,0.13294707238674164,0.0070631238631904125,27.437572479248047,-14.935317993164062,16.945045471191406,-0.031171560287475586,-0.0041351318359375,0.16608929634094238,-0.7332639694213867,9.515481948852539,-2.15706729888916
4_20251106_214251,1762436534488,4,0.36209636926651,0.397859126329422,0.6706699728965759,0.5106820464134216,-0.27975666522979736,3.185128688812256,0.8451656699180603,-0.7369033694267273,9.559228897094727,-2.1082887649536133,-0.13991856575012207,0.14272090792655945,-0.027756165713071823,27.319650650024414,-15.081268310546875,17.00531005859375,-0.002911508083343506,0.03499794006347656,0.03902292251586914,-0.7339918613433838,9.52423095703125,-2.1473116874694824
4_20251106_214251,1762436534507,4,0.36165833473205566,0.39626753330230713,0.6707245111465454,0.5121561884880066,-0.262534499168396,3.2155022621154785,0.8108892440795898,-0.9727221131324768,9.433539390563965,-1.9766135215759277,-0.15274672210216522,0.1353905349969864,-0.017982328310608864,27.243417739868164,-15.136665344238281,17.041858673095703,-0.17155712842941284,-0.07279109954833984,0.10924673080444336,-0.801164984703064,9.506330490112305,-2.085860252380371
4_20251106_214251,1762436534525,4,0.36129656434059143,0.3947046101093292,0.6706467270851135,0.5137178301811218,-0.25459226965904236,3.2304139137268066,0.79411381483078,-0.9583574533462524,9.431144714355469,-1.9969632625579834,-0.16801834106445312,0.0987386479973793,0.04249328002333641,27.17169761657715,-15.1279296875,16.944564819335938,-0.12575393915176392,-0.06014823913574219,0.07111763954162598,-0.8326035141944885,9.491292953491211,-2.0680809020996094
4_20251106_214251,1762436534545,4,0.3609127104282379,0.39359965920448303,0.6701775193214417,0.5154448747634888,-0.24716556072235107,3.244293451309204,0.7786842584609985,-0.8757610321044922,9.38685417175293,-1.8832436800003052,-0.1845116913318634,0.06453022360801697,0.10724493861198425,27.081066131591797,-15.221923828125,16.993350982666016,-0.034526050090789795,-0.08355045318603516,0.14786970615386963,-0.8412349820137024,9.470404624938965,-2.031113386154175
4_20251106_214251,1762436534564,4,0.36057382822036743,0.39314043521881104,0.6692013144493103,0.5172975063323975,-0.23954540491104126,3.257857322692871,0.7637733817100525,-0.777603030204773,9.366504669189453,-1.8604997396469116,-0.1845116913318634,0.06453022360801697,0.10724493861198425,26.994155883789062,-15.25286865234375,17.016422271728516,0.050905585289001465,-0.08312034606933594,0.13649094104766846,-0.8285086154937744,9.449625015258789,-1.99699068069458
4_20251106_214251,1762436534583,4,0.36013272404670715,0.3926742374897003,0.6680960655212402,0.5193832516670227,-0.23250985145568848,3.2693116664886475,0.751431405544281,-0.6171984672546387,9.391641616821289,-1.831770658493042,-0.21200060844421387,0.06514108926057816,0.1976529061794281,26.96898078918457,-15.26715087890625,17.02869415283203,0.16904813051223755,-0.04638671875,0.13217604160308838,-0.7862465977668762,9.438028335571289,-1.9639467000961304
4_20251106_214251,1762436534602,4,0.35946208238601685,0.3924945592880249,0.6667155623435974,0.5217522978782654,-0.22384171187877655,3.2814323902130127,0.7387874126434326,-0.3777885437011719,9.447903633117676,-1.8377559185028076,-0.21200060844421387,0.06514108926057816,0.1976529061794281,26.901918411254883,-15.37225341796875,17.091712951660156,0.3267664313316345,0.007900238037109375,0.1009526252746582,-0.7045549750328064,9.440003395080566,-1.9387085437774658
4_20251106_214251,1762436534621,4,0.35870590806007385,0.3926655054092407,0.665023922920227,0.5242967009544373,-0.21463285386562347,3.292839527130127,0.727932333946228,-0.19942817091941833,9.610702514648438,-1.7360066175460815,-0.25476112961769104,0.015050179325044155,0.2178114354610443,26.79828453063965,-15.491348266601562,17.058380126953125,0.4041014611721039,0.13655948638916016,0.16216158866882324,-0.6035296320915222,9.474143028259277,-1.8981682062149048
4_20251106_214251,1762436534640,4,0.35814768075942993,0.39320775866508484,0.6629469990730286,0.5268958210945129,-0.20465750992298126,3.3041133880615234,0.7187184691429138,-0.15633440017700195,9.63344669342041,-1.4977937936782837,-0.268200159072876,-0.015493057668209076,0.17505091428756714,26.705934524536133,-15.622482299804688,17.05230712890625,0.35775619745254517,0.1274423599243164,0.32029950618743896,-0.5140905976295471,9.506004333496094,-1.8180932998657227
4_20251106_214251,1762436534660,4,0.3579220771789551,0.3936522901058197,0.6607113480567932,0.5295188426971436,-0.1932598054409027,3.316211462020874,0.7104528546333313,-0.04620583355426788,9.777091979980469,-1.5061731338500977,-0.2162766456604004,0.013828449882566929,0.12312741577625275,26.599578857421875,-15.791671752929688,17.00440216064453,0.3743078112602234,0.21687030792236328,0.2495361566543579,-0.42051365971565247,9.560221672058105,-1.7557092905044556
4_20251106_214251,1762436534680,4,0.3575652241706848,0.39352136850357056,0.6589450240135193,0.5320521593093872,-0.18117399513721466,3.328735113143921,0.7034173607826233,-0.006703227758407593,9.899190902709961,-1.487020492553711,-0.19795072078704834,0.06086503341794014,0.047991059720516205,26.49110984802246,-15.99853515625,16.955707550048828,0.3310483694076538,0.2711753845214844,0.2149510383605957,-0.3377515971660614,9.628015518188477,-1.7019715309143066
4_20251106_214251,1762436534699,4,0.35714271664619446,0.3928966820240021,0.6576514840126038,0.5343929529190063,-0.16974583268165588,3.3409621715545654,0.6979465484619141,-0.1479550451040268,9.965028762817383,-1.3816800117492676,-0.18145737051963806,0.08407789468765259,-0.017982330173254013,26.36048126220703,-16.16918182373047,16.893306732177734,0.15183724462985992,0.2696104049682617,0.25623321533203125,-0.2997922897338867,9.695418357849121,-1.6379132270812988
4_20251106_214251,1762436534717,4,0.3569132387638092,0.39194726943969727,0.6566745042800903,0.5364409685134888,-0.15960243344306946,3.352559804916382,0.6933354139328003,-0.35743871331214905,9.936300277709961,-1.5109614133834839,-0.15213584899902344,0.05414551869034767,-0.04241691902279854,26.36048126220703,-16.16918182373047,16.893306732177734,-0.046117156744003296,0.1927051544189453,0.10156142711639404,-0.31132155656814575,9.743595123291016,-1.612522840499878
4_20251106_214251,1762436534736,4,0.3569613993167877,0.3907449543476105,0.6559423208236694,0.5381789803504944,-0.15003031492233276,3.364682197570801,0.6886420249938965,-0.5298137664794922,9.923131942749023,-1.6378486156463623,-0.1643531620502472,0.03276525437831879,-0.03264308348298073,26.290388107299805,-16.336395263671875,16.88742446899414,-0.1747937798500061,0.1436290740966797,-0.02026057243347168,-0.3550199866294861,9.779502868652344,-1.6175880432128906
4_20251106_214251,1762436534755,4,0.35726481676101685,0.3895858824253082,0.6553020477294922,0.5395960211753845,-0.15003031492233276,3.364682197570801,0.6886420249938965,-0.5298137664794922,9.923131942749023,-1.6378486156463623,-0.19245293736457825,0.036430444568395615,0.010117447935044765,26.233383178710938,-16.489990234375,16.855262756347656,-0.1747937798500061,0.1436290740966797,-0.02026057243347168,-0.3550199866294861,9.779502868652344,-1.6175880432128906
4_20251106_214251,1762436534775,4,0.35756126046180725,0.3885752260684967,0.6545805335044861,0.5410023927688599,-0.13317610323429108,3.387929677963257,0.6795507669448853,-0.5190403461456299,9.706466674804688,-1.5049760341644287,-0.23215913772583008,0.009552396833896637,0.07609084248542786,26.115942001342773,-16.646881103515625,16.753067016601562,-0.10324931144714355,-0.06800270080566406,0.1023331880569458,-0.41579103469848633,9.774469375610352,-1.6073092222213745
4_20251106_214251,1762436534793,4,0.35788795351982117,0.38816794753074646,0.6533433794975281,0.5425719022750854,-0.1262454241514206,3.396881103515625,0.6765276193618774,-0.4520055949687958,9.428750991821289,-1.3278127908706665,-0.23215913772583008,0.009552396833896637,0.07609084248542786,26.017438888549805,-16.677810668945312,16.694549560546875,-0.02897164225578308,-0.27657508850097656,0.22359716892242432,-0.4230339527130127,9.705326080322266,-1.5514099597930908
4_20251106_214251,1762436534812,4,0.35787734389305115,0.3881092965602875,0.6518111228942871,0.5444604754447937,-0.11870499700307846,3.4041526317596436,0.6733935475349426,-0.2078075110912323,9.084001541137695,-1.5887696743011475,-0.19367465376853943,-0.035040728747844696,0.22941787540912628,25.998205184936523,-16.804176330566406,16.691421508789062,0.1721811592578888,-0.49705982208251953,-0.029887795448303223,-0.3799886703491211,9.581061363220215,-1.5588818788528442
4_20251106_214251,1762436534831,4,0.3576785922050476,0.38885900378227234,0.6498501300811768,0.5463968515396118,-0.10996897518634796,3.408708333969116,0.6698579788208008,0.19320401549339294,8.723688125610352,-1.7623417377471924,-0.2523176670074463,-0.06130790710449219,0.2953912913799286,25.981889724731445,-16.88018035888672,16.675830841064453,0.45855414867401123,-0.6858987808227539,-0.16276788711547852,-0.2653501331806183,9.409586906433105,-1.5995738506317139
4_20251106_214251,1762436534850,4,0.35713377594947815,0.3904021382331848,0.6474290490150452,0.5485228300094604,-0.09918993711471558,3.41019868850708,0.6663350462913513,0.6385064125061035,8.375347137451172,-1.659395456314087,-0.3433364927768707,-0.09734892845153809,0.3161606788635254,25.95309066772461,-16.957382202148438,16.700298309326172,0.7230852842330933,-0.8273916244506836,-0.04785728454589844,-0.08457884192466736,9.202738761901855,-1.6115381717681885
4_20251106_214251,1762436534871,4,0.35676711797714233,0.39274853467941284,0.6441894173622131,0.5508954524993896,-0.09918993711471558,3.41019868850708,0.6663350462913513,0.6385064125061035,8.375347137451172,-1.659395456314087,-0.3433364927768707,-0.09734892845153809,0.3161606788635254,25.98199462890625,-17.092994689941406,16.685348510742188,0.7230852842330933,-0.8273916244506836,-0.04785728454589844,-0.08457884192466736,9.202738761901855,-1.6115381717681885
4_20251106_214251,1762436534891,4,0.35745924711227417,0.3941058814525604,0.6403040885925293,0.5539982914924622,-0.06956838071346283,3.4042484760284424,0.6606252789497375,1.227454662322998,8.025808334350586,-1.423576831817627,-0.5094917416572571,-0.24762165546417236,0.3155498206615448,25.900604248046875,-17.259788513183594,16.557327270507812,0.8831782937049866,-0.7743034362792969,0.1342768669128418,0.3442763686180115,8.800111770629883,-1.5578536987304688
4_20251106_214251,1762436534908,4,0.3588925898075104,0.39569053053855896,0.6356065273284912,0.5573413968086243,-0.051656778901815414,3.3979837894439697,0.6590175628662109,1.478835105895996,7.965956687927246,-1.2907042503356934,-0.6011214256286621,-0.368572860956192,0.2960021495819092,25.83985137939453,-17.499664306640625,16.361122131347656,0.9076470136642456,-0.6673240661621094,0.21371948719024658,0.5711880922317505,8.633280754089355,-1.50442373752594
4_20251106_214251,1762436534930,4,0.36146754026412964,0.397519052028656,0.6300252676010132,0.5607030987739563,-0.03144080936908722,3.389737606048584,0.6587582230567932,1.3292038440704346,7.981517791748047,-1.0608707666397095,-0.6878642439842224,-0.43882232904434204,0.19887463748455048,25.802764892578125,-17.750503540039062,16.165634155273438,0.6064126491546631,-0.5214099884033203,0.3548424243927002,0.7227911949157715,8.502927780151367,-1.4157131910324097
4_20251106_214251,1762436534945,4,0.3653170168399811,0.39891088008880615,0.6240053176879883,0.5639423727989197,-0.03144080936908722,3.389737606048584,0.6587582230567932,1.3292038440704346,7.981517791748047,-1.0608707666397095,-0.6878642439842224,-0.43882232904434204,0.19887463748455048,25.787317276000977,-18.06146240234375,15.861678123474121,0.6064126491546631,-0.5214099884033203,0.3548424243927002,0.7227911949157715,8.502927780151367,-1.4157131910324097
4_20251106_214251,1762436534965,4,0.3696845471858978,0.39923983812332153,0.618186891078949,0.5672616958618164,0.004590615630149841,3.3720762729644775,0.6629767417907715,0.7438467741012573,8.015035629272461,-0.746046781539917,-0.7190183401107788,-0.3704054653644562,0.03943895548582077,25.713449478149414,-18.33818817138672,15.501996040344238,-0.027702927589416504,-0.311676025390625,0.4335663318634033,0.7715497016906738,8.326711654663086,-1.1796131134033203
4_20251106_214251,1762436534985,4,0.3741297125816345,0.3990163505077362,0.6128010153770447,0.570340096950531,0.021030046045780182,3.3613903522491455,0.6667124032974243,0.2686181366443634,7.8917388916015625,-0.888495683670044,-0.7147423028945923,-0.37223806977272034,0.021723877638578415,25.709062576293945,-18.684677124023438,15.062575340270996,-0.4023452699184418,-0.3479785919189453,0.2328939437866211,0.6709634065628052,8.239717483520508,-1.121389627456665
4_20251106_214251,1762436535003,4,0.3786149322986603,0.39859840273857117,0.6075415015220642,0.5732917189598083,0.032680168747901917,3.3500735759735107,0.6702175140380859,-0.3059655725955963,7.354264259338379,-0.9950330853462219,-0.7733852863311768,-0.3600207567214966,0.05959748849272728,25.756832122802734,-18.976951599121094,14.545075416564941,-0.7815432548522949,-0.7083625793457031,0.10108524560928345,0.4755776524543762,8.062626838684082,-1.0961183309555054
4_20251106_214251,1762436535023,4,0.3831387758255005,0.39812710881233215,0.6018598079681396,0.5765970945358276,0.04143350198864937,3.3353123664855957,0.673758864402771,-0.690218448638916,7.1364006996154785,-1.1482553482055664,-0.8998342752456665,-0.3233689069747925,0.1671096682548523,25.783950805664062,-19.207763671875,14.000880241394043,-0.9326369166374207,-0.7409806251525879,-0.04170966148376465,0.24241845309734344,7.877381324768066,-1.1065456867218018
4_20251106_214251,1762436535041,4,0.38746246695518494,0.39760512113571167,0.5952007174491882,0.5809639692306519,0.04689520597457886,3.3212971687316895,0.6759147047996521,-0.5788928270339966,7.31117057800293,-1.4606852531433105,-1.089813232421875,-0.2909930348396301,0.3619755208492279,25.870393753051758,-19.459983825683594,13.485642433166504,-0.6570490598678589,-0.4529685974121094,-0.2833116054534912,0.07815621048212051,7.764139175415039,-1.1773736476898193
4_20251106_214251,1762436535061,4,0.39122164249420166,0.3972170352935791,0.5869049429893494,0.5871173739433289,0.04689520597457886,3.3212971687316895,0.6759147047996521,-0.5788928270339966,7.31117057800293,-1.4606852531433105,-1.3647023439407349,-0.3997269868850708,0.6118192076683044,25.917951583862305,-19.764144897460938,12.900296211242676,-0.6570490598678589,-0.4529685974121094,-0.2833116054534912,0.07815621048212051,7.764139175415039,-1.1773736476898193
4_20251106_214251,1762436535079,4,0.39513063430786133,0.3978218138217926,0.5756761431694031,0.5951525568962097,0.05269133299589157,3.3044893741607666,0.6770102381706238,-0.0701468363404274,7.61881160736084,-1.5600404739379883,-1.6554739475250244,-0.5524431467056274,0.7810288071632385,25.951406478881836,-20.10649871826172,12.286635398864746,-0.11864243447780609,-0.11626195907592773,-0.306133508682251,0.04849559813737869,7.735073566436768,-1.2539069652557373
4_20251106_214251,1762436535100,4,0.39995166659355164,0.3992343246936798,0.5613505840301514,0.6045958399772644,0.06488147377967834,3.2805593013763428,0.6843226552009583,0.7067382335662842,8.224519729614258,0.18406060338020325,-1.838733434677124,-0.5359498262405396,0.7700331807136536,25.956459045410156,-20.52552032470703,11.643376350402832,0.4603469967842102,0.3789396286010742,1.0719892978668213,0.24639123678207397,7.845580101013184,-0.8879286646842957
4_20251106_214251,1762436535119,4,0.4052462875843048,0.3995971977710724,0.5457944273948669,0.6149845123291016,0.06488147377967834,3.2805593013763428,0.6843226552009583,0.7067382335662842,8.224519729614258,0.18406060338020325,-1.8894351720809937,-0.41866376996040344,0.6722947955131531,25.94718360900879,-21.0062255859375,10.80907917022705,0.4603469967842102,0.3789396286010742,1.0719892978668213,0.24639123678207397,7.845580101013184,-0.8879286646842957
4_20251106_214251,1762436535138,4,0.4104970395565033,0.398275226354599,0.5305156707763672,0.625637412071228,0.07478965818881989,3.2703397274017334,0.6972599029541016,0.8360195159912109,8.558496475219727,0.9705220460891724,-1.8894351720809937,-0.41866376996040344,0.6722947955131531,25.87626075744629,-21.51507568359375,9.877188682556152,0.4717026352882385,0.5703334808349609,1.4867606163024902,0.3643168807029724,7.988162994384766,-0.5162385702133179
4_20251106_214251,1762436535156,4,0.41578182578086853,0.3951472043991089,0.5159697532653809,0.6362069845199585,0.09147092700004578,3.257627487182617,0.7311163544654846,0.5223926305770874,8.10122299194336,2.193906545639038,-1.927919626235962,-0.1895895004272461,0.48292675614356995,25.87626075744629,-21.51507568359375,9.877188682556152,0.06133067607879639,0.010686874389648438,1.834470510482788,0.461061954498291,8.090536117553711,0.3594360649585724
4_20251106_214251,1762436535176,4,0.42102283239364624,0.3910066783428192,0.5015575885772705,0.6467561721801758,0.10055889934301376,3.2500157356262207,0.7594873309135437,0.517604410648346,7.791187286376953,2.8295397758483887,-1.939526081085205,-0.21768927574157715,0.5611174702644348,25.727598190307617,-22.104576110839844,8.994837760925293,0.045233964920043945,-0.23947906494140625,1.9760830402374268,0.472370445728302,8.03066635131836,0.8534567356109619
4_20251106_214251,1762436535195,4,0.4257582128047943,0.38703542947769165,0.4865339696407318,0.657433032989502,0.10055889934301376,3.2500157356262207,0.7594873309135437,0.517604410648346,7.791187286376953,2.8295397758483887,-1.9254761934280396,-0.22135445475578308,0.6124300956726074,25.56319808959961,-22.7808837890625,7.920920372009277,0.045233964920043945,-0.23947906494140625,1.9760830402374268,0.472370445728302,8.03066635131836,0.8534567356109619
4_20251106_214251,1762436535214,4,0.4300837516784668,0.3832222521305084,0.4711185693740845,0.6679940223693848,0.11187805980443954,3.2418248653411865,0.797162652015686,1.1448582410812378,7.852236747741699,3.6507155895233154,-1.8149096965789795,-0.10529016703367233,0.4432205259799957,25.37311553955078,-23.48375701904297,6.831978797912598,0.5379902124404907,-0.1427440643310547,2.237807035446167,0.6068680286407471,7.994980812072754,1.4129085540771484
4_20251106_214251,1762436535233,4,0.4342394769191742,0.3781554698944092,0.457274466753006,0.6777422428131104,0.13650637865066528,3.2283623218536377,0.8778054714202881,1.4560911655426025,7.884556770324707,4.542517185211182,-1.5968308448791504,0.05170205980539322,0.14023162424564362,25.128631591796875,-24.08892822265625,5.621048927307129,0.5149651765823364,-0.0815887451171875,2.025358200073242,0.9411259889602661,7.9661455154418945,2.5171589851379395
4_20251106_214251,1762436535252,4,0.43870487809181213,0.37155160307884216,0.44634556770324707,0.6857572793960571,0.14855800569057465,3.2211108207702637,0.9246199727058411,0.6588562726974487,7.763654708862305,4.078062057495117,-1.440449595451355,0.04437168687582016,-0.046692971140146255,24.88868522644043,-24.60674285888672,4.466032981872559,-0.2258157730102539,-0.16199302673339844,1.2487225532531738,0.8846720457077026,7.925647735595703,2.8293395042419434
4_20251106_214251,1762436535271,4,0.443850040435791,0.364806205034256,0.43697232007980347,0.6920756697654724,0.1579785794019699,3.216667413711548,0.972059965133667,0.1453220546245575,8.817058563232422,3.910475254058838,-1.4880969524383545,-0.021601703017950058,-0.03753000125288963,24.700204849243164,-25.0712890625,3.327549934387207,-0.591480016708374,0.7131280899047852,0.8649086952209473,0.7368020415306091,8.103930473327637,3.0455665588378906
4_20251106_214251,1762436535290,4,0.4492991268634796,0.35819539427757263,0.42710360884666443,0.6981467604637146,0.1641295850276947,3.218517780303955,1.0221216678619385,-0.28322163224220276,10.316961288452148,4.865720748901367,-1.6438674926757812,-0.025877756997942924,0.06204095110297203,24.48091697692871,-25.426010131835938,2.2710695266723633,-0.8160189390182495,1.7704248428344727,1.4561233520507812,0.5327973365783691,8.546536445617676,3.409597396850586
4_20251106_214251,1762436535310,4,0.45461803674697876,0.3513193428516388,0.41593095660209656,0.7049103379249573,0.16594398021697998,3.229123830795288,1.0815773010253906,-0.8937166929244995,11.426626205444336,6.499692916870117,-1.6676912307739258,0.07919097691774368,0.17871609330177307,24.316518783569336,-25.664810180664062,1.245957374572754,-1.1412112712860107,2.3040714263916016,2.472076416015625,0.24749454855918884,9.122554779052734,4.027616500854492
4_20251106_214251,1762436535329,4,0.45873507857322693,0.34388676285743713,0.40467894077301025,0.7124176621437073,0.1638822853565216,3.2476248741149902,1.1454439163208008,-1.1008062362670898,12.377084732055664,7.748215198516846,-1.5113098621368408,0.17326414585113525,0.3815232217311859,24.141443252563477,-25.87915802001953,0.207366943359375,-1.0786406993865967,2.6036243438720703,2.9764790534973145,-0.022165581583976746,9.773460388183594,4.771736145019531
4_20251106_214251,1762436535349,4,0.4606032073497772,0.3369610607624054,0.3941580057144165,0.7203758955001831,0.1604914665222168,3.2739040851593018,1.2167761325836182,-0.5441784262657166,12.945682525634766,8.656776428222656,-1.3146114349365234,0.24534618854522705,0.5861629247665405,24.055208206176758,-26.01354217529297,-0.7315921783447266,-0.4176102876663208,2.537777900695801,3.1080322265625,-0.12656815350055695,10.407904624938965,5.548744201660156
4_20251106_214251,1762436535366,4,0.4600413739681244,0.3309394121170044,0.3846155107021332,0.7286370396614075,0.15838631987571716,3.3039960861206055,1.2900019884109497,0.2578446865081787,13.023489952087402,9.214601516723633,-1.063546061515808,0.27222421765327454,0.6814578175544739,23.9711856842041,-26.110122680664062,-1.6832761764526367,0.3075302839279175,2.09246826171875,2.9326858520507812,-0.04968558996915817,10.931021690368652,6.281915664672852
4_20251106_214251,1762436535386,4,0.4579230546951294,0.32622411847114563,0.376444935798645,0.7363243103027344,0.15838631987571716,3.3039960861206055,1.2900019884109497,0.2578446865081787,13.023489952087402,9.214601516723633,-0.739176869392395,0.3461388349533081,0.6503036618232727,23.81155014038086,-26.238067626953125,-2.4897518157958984,0.3075302839279175,2.09246826171875,2.9326858520507812,-0.04968558996915817,10.931021690368652,6.281915664672852
4_20251106_214251,1762436535405,4,0.454633504152298,0.3223538100719452,0.37080416083335876,0.7429001927375793,0.1597459763288498,3.3461663722991943,1.3862532377243042,0.9844536781311035,12.896602630615234,9.334305763244629,-0.739176869392395,0.3461388349533081,0.6503036618232727,23.650320053100586,-26.379783630371094,-3.174844741821289,0.8273113965988159,1.5724639892578125,2.4419121742248535,0.1571422517299652,11.324138641357422,6.892393589019775
4_20251106_214251,1762436535424,4,0.4507960379123688,0.31915178894996643,0.3679385185241699,0.7480282783508301,0.1647537350654602,3.3835062980651855,1.4708092212677002,1.575796127319336,12.323217391967773,8.928504943847656,-0.1545793116092682,0.3345324397087097,0.47315290570259094,23.439739227294922,-26.537094116210938,-3.8756799697875977,1.1349231004714966,0.7992630004882812,1.6288890838623047,0.44087302684783936,11.523954391479492,7.299615859985352
4_20251106_214251,1762436535442,4,0.4468165338039398,0.3174915611743927,0.3667545020580292,0.751694917678833,0.1738498955965042,3.4199535846710205,1.5532549619674683,2.0222954750061035,11.879111289978027,8.071418762207031,0.06105592101812363,0.2911610007286072,0.4029034674167633,23.200077056884766,-26.760398864746094,-4.416620254516602,1.265138030052185,0.28412532806396484,0.6174426078796387,0.7571574449539185,11.594985961914062,7.453976154327393
4_20251106_214251,1762436535462,4,0.442967027425766,0.31707563996315,0.3670659363269806,0.7539932727813721,0.20184263586997986,3.4807283878326416,1.6958807706832886,2.628002643585205,10.656923294067383,6.728329181671143,0.21316125988960266,0.2624503970146179,0.27156755328178406,22.93415069580078,-26.999465942382812,-4.796609878540039,1.2210904359817505,-0.7177667617797852,-0.5701375007629395,1.4069122076034546,11.374690055847168,7.298466682434082
4_20251106_214251,1762436535482,4,0.4395894408226013,0.31716370582580566,0.3687354028224945,0.7551175355911255,0.22081412374973297,3.505096673965454,1.761850118637085,2.6327905654907227,9.848915100097656,6.275844573974609,0.3041801154613495,0.24473533034324646,0.18360301852226257,22.700382232666016,-27.288536071777344,-4.95992374420166,0.9807026386260986,-1.2206201553344727,-0.8180975914001465,1.652087926864624,11.069535255432129,7.093942165374756
4_20251106_214251,1762436535500,4,0.4366786777973175,0.31755778193473816,0.3711920976638794,0.7554370760917664,0.24232904613018036,3.5229763984680176,1.8230810165405273,2.9248709678649902,9.148641586303711,6.569121837615967,0.41352489590644836,0.196477010846138,0.19520944356918335,22.381832122802734,-27.55926513671875,-5.0044965744018555,1.0182263851165771,-1.5367145538330078,-0.41985607147216797,1.906644582748413,10.685356140136719,6.988977909088135
4_20251106_214251,1762436535520,4,0.4333474636077881,0.31872230768203735,0.37422215938568115,0.755370020866394,0.2669740319252014,3.533512830734253,1.88010835647583,3.4396018981933594,8.334648132324219,6.5727128982543945,0.6175537109375,0.1298927664756775,0.23674824833869934,22.06309700012207,-27.818649291992188,-4.927159309387207,1.2263660430908203,-1.8805665969848633,-0.3330116271972656,2.213235855102539,10.215214729309082,6.90572452545166
4_20251106_214251,1762436535539,4,0.4293113350868225,0.32131218910217285,0.3781405985355377,0.754625678062439,0.2974323630332947,3.536123275756836,1.9335832595825195,4.125511169433594,7.608038425445557,5.737172603607178,0.6920791864395142,0.029710935428738594,0.2734001576900482,21.853864669799805,-28.047927856445312,-4.628619194030762,1.529820203781128,-2.085740566253662,-0.9348416328430176,2.595690965652466,9.693778991699219,6.672014236450195
4_20251106_214251,1762436535558,4,0.4250214993953705,0.32504892349243164,0.38191473484039307,0.7535523176193237,0.2974323630332947,3.536123275756836,1.9335832595825195,4.125511169433594,7.608038425445557,5.737172603607178,0.5082089304924011,-0.09062942117452621,0.3271562457084656,21.648157119750977,-28.21442413330078,-4.32875919342041,1.529820203781128,-2.085740566253662,-0.9348416328430176,2.595690965652466,9.693778991699219,6.672014236450195
4_20251106_214251,1762436535578,4,0.4212508797645569,0.32926949858665466,0.3836367428302765,0.7529622316360474,0.3745870888233185,3.5178170204162598,2.0181925296783447,6.120992660522461,6.663566589355469,4.966272354125977,0.17345504462718964,-0.2854952812194824,0.3509799540042877,21.648157119750977,-28.21442413330078,-4.32875919342041,2.437952995300293,-1.978407859802246,-1.1364927291870117,3.683039665222168,8.641974449157715,6.102765083312988
4_20251106_214251,1762436535596,4,0.41897669434547424,0.333798348903656,0.3819654583930969,0.7530866861343384,0.3745870888233185,3.5178170204162598,2.0181925296783447,6.120992660522461,6.663566589355469,4.966272354125977,-0.18084649741649628,-0.5732125639915466,0.28683915734291077,21.463197708129883,-28.442245483398438,-4.015722274780273,2.437952995300293,-1.978407859802246,-1.1364927291870117,3.683039665222168,8.641974449157715,6.102765083312988
4_20251106_214251,1762436535615,4,0.4193515479564667,0.3390147387981415,0.3766009211540222,0.7532496452331543,0.477639764547348,3.484203577041626,2.0804548263549805,8.349898338317871,7.42369270324707,5.586344242095947,-0.42885756492614746,-0.8493233919143677,0.024778202176094055,21.352863311767578,-28.640060424804688,-3.71273136138916,3.137139320373535,-0.6942787170410156,-0.2429814338684082,5.212759017944336,8.117971420288086,5.8293256759643555
4_20251106_214251,1762436535635,4,0.42321404814720154,0.3444459140300751,0.369048535823822,0.7523629665374756,0.477639764547348,3.484203577041626,2.0804548263549805,8.349898338317871,7.42369270324707,5.586344242095947,-0.5088808536529541,-0.9977635741233826,-0.44864195585250854,21.185405731201172,-28.790267944335938,-3.5462989807128906,3.137139320373535,-0.6942787170410156,-0.2429814338684082,5.212759017944336,8.117971420288086,5.8293256759643555
4_20251106_214251,1762436535653,4,0.43118178844451904,0.3490314781665802,0.36169180274009705,0.7492918968200684,0.6073082089424133,3.450618267059326,2.1424784660339355,7.817211151123047,8.49625015258789,6.752270221710205,-0.5088808536529541,-0.9977635741233826,-0.44864195585250854,21.013885498046875,-28.825828552246094,-3.621273994445801,1.5450372695922852,0.3332653045654297,0.6504411697387695,6.272173881530762,8.162984848022461,6.1018290519714355
4_20251106_214251,1762436535678,4,0.44305920600891113,0.35161420702934265,0.3562778830528259,0.743728518486023,0.6670339703559875,3.4389235973358154,2.1732959747314453,6.520807266235352,9.166597366333008,7.190390586853027,-0.4117533564567566,-0.9879897236824036,-1.4553470611572266,20.92816162109375,-28.85515594482422,-3.7603979110717773,0.19890642166137695,0.8028898239135742,0.8708491325378418,6.321900844573975,8.363707542419434,6.3195414543151855
4_20251106_214251,1762436535691,4,0.4575949013233185,0.35268479585647583,0.35297104716300964,0.7359563708305359,0.7259881496429443,3.4304757118225098,2.2103145122528076,4.9766130447387695,9.645417213439941,7.796097278594971,-0.30668461322784424,-1.0875606536865234,-1.718018889427185,20.937780380249023,-28.72608184814453,-4.1091814041137695,-1.076230525970459,1.0253677368164062,1.1812448501586914,6.0528435707092285,8.620049476623535,6.614852428436279
4_20251106_214251,1762436535710,4,0.47383078932762146,0.353636234998703,0.35095933079719543,0.7261221408843994,0.7259881496429443,3.4304757118225098,2.2103145122528076,4.9766130447387695,9.645417213439941,7.796097278594971,-0.1020449548959732,-1.2201182842254639,-1.8603503704071045,21.26520538330078,-28.373672485351562,-4.69828987121582,-1.076230525970459,1.0253677368164062,1.1812448501586914,6.0528435707092285,8.620049476623535,6.614852428436279
4_20251106_214251,1762436535730,4,0.4907311499118805,0.3554975688457489,0.35028257966041565,0.7142174243927002,0.8026314973831177,3.4273362159729004,2.293458938598633,0.6061860918998718,10.357662200927734,8.98237419128418,-0.1020449548959732,-1.2201182842254639,-1.8603503704071045,21.696548461914062,-27.913375854492188,-5.389492988586426,-3.8809831142425537,1.164743423461914,1.5985288619995117,4.48716926574707,9.19291877746582,7.383845329284668
4_20251106_214251,1762436535749,4,0.5063077807426453,0.3580056130886078,0.35168009996414185,0.7012884616851807,0.8134681582450867,3.430532217025757,2.3387465476989746,-1.7292572259902954,10.150571823120117,9.260088920593262,0.5295891761779785,-0.9525595307350159,-1.5622484683990479,22.199790954589844,-27.260215759277344,-6.128350257873535,-4.973141193389893,0.7661228179931641,1.5009946823120117,3.2438840866088867,9.384449005126953,7.75909423828125
4_20251106_214251,1762436535769,4,0.5182067155838013,0.3609808683395386,0.3557087481021881,0.6889309883117676,0.8058239817619324,3.4342777729034424,2.3856422901153564,-2.8353309631347656,9.565215110778809,8.288084030151367,0.9113795757293701,-0.8902513384819031,-1.1224257946014404,22.800615310668945,-26.387619018554688,-6.899835586547852,-4.863371849060059,0.14461326599121094,0.42319202423095703,2.028041124343872,9.420601844787598,7.86489200592041
4_20251106_214251,1762436535787,4,0.5258386731147766,0.36640751361846924,0.36113548278808594,0.6773627996444702,0.8058239817619324,3.4342777729034424,2.3856422901153564,-2.8353309631347656,9.565215110778809,8.288084030151367,0.9113795757293701,-0.8902513384819031,-1.1224257946014404,23.523818969726562,-25.483177185058594,-7.5442423820495605,-4.863371849060059,0.14461326599121094,0.42319202423095703,2.028041124343872,9.420601844787598,7.86489200592041
4_20251106_214251,1762436535807,4,0.5303399562835693,0.375977098941803,0.3653433620929718,0.6662619709968567,0.7827584743499756,3.4370384216308594,2.4255990982055664,-3.170504570007324,9.158217430114746,6.3536529541015625,1.1172410249710083,-1.393603801727295,-0.22201114892959595,24.247121810913086,-24.578598022460938,-8.202165603637695,-4.158836841583252,-0.20990753173828125,-1.2089910507202148,0.9883320927619934,9.368124961853027,7.562644004821777
4_20251106_214251,1762436535825,4,0.533092737197876,0.3886977732181549,0.3665441870689392,0.65602707862854,0.7156491279602051,3.434091567993164,2.469370126724243,-2.9646122455596924,7.734925746917725,3.2556893825531006,0.9413119554519653,-1.4821792840957642,0.07609084248542786,24.931554794311523,-23.714340209960938,-8.835319519042969,-2.4898552894592285,-1.1651434898376465,-2.972877264022827,-0.4747570753097534,8.900069236755371,6.228566646575928
4_20251106_214251,1762436535846,4,0.534927487373352,0.40230295062065125,0.3650176525115967,0.6471220850944519,0.6686583161354065,3.425095796585083,2.4735665321350098,-2.434319257736206,7.288426399230957,1.9772405624389648,0.6969661116600037,-1.3832192420959473,0.18421387672424316,25.461111068725586,-22.99896240234375,-9.355615615844727,-1.5676498413085938,-1.2893142700195312,-3.4010610580444336,-0.8666694760322571,8.577740669250488,5.378301620483398
4_20251106_214251,1762436535863,4,0.5365855693817139,0.41456741094589233,0.3619683086872101,0.6396785974502563,0.6298972964286804,3.4150197505950928,2.467580556869507,-2.060840129852295,7.139991760253906,1.1835968494415283,0.6969661116600037,-1.3832192420959473,0.18421387672424316,25.648958206176758,-22.531051635742188,-9.893904685974121,-0.9553365707397461,-1.1501989364624023,-3.3557636737823486,-1.1055035591125488,8.290190696716309,4.539360523223877
4_20251106_214251,1762436535882,4,0.5390589237213135,0.4239112138748169,0.35794833302497864,0.6337094902992249,0.5864987969398499,3.4009621143341064,2.451758623123169,-1.9231791496276855,7.065774917602539,1.0890299081802368,0.3561035990715027,-1.1816338300704956,0.13839903473854065,25.757740020751953,-22.180381774902344,-10.4915771484375,-0.6541404724121094,-0.9795322418212891,-2.7602643966674805,-1.2690386772155762,8.045307159423828,3.849294424057007
4_20251106_214251,1762436535901,4,0.5429888963699341,0.4299316704273224,0.3530369699001312,0.6290363073348999,0.5864987969398499,3.4009621143341064,2.451758623123169,-1.9231791496276855,7.065774917602539,1.0890299081802368,-0.007971784099936485,-0.9305683970451355,0.051045384258031845,25.738231658935547,-21.939193725585938,-10.98813533782959,-0.6541404724121094,-0.9795322418212891,-2.7602643966674805,-1.2690386772155762,8.045307159423828,3.849294424057007
4_20251106_214251,1762436535921,4,0.5476229786872864,0.43279141187667847,0.34794074296951294,0.6258896589279175,0.5390268564224243,3.382838249206543,2.426805019378662,-1.8369916677474976,7.041833877563477,1.3607600927352905,-0.4991070032119751,-0.556719183921814,-0.08212313055992126,25.63764190673828,-21.852783203125,-11.558384895324707,-0.45436227321624756,-0.8027787208557129,-1.9908274412155151,-1.38262939453125,7.8446125984191895,3.3515875339508057
4_20251106_214251,1762436535940,4,0.5527048707008362,0.43331536650657654,0.34270697832107544,0.6239446997642517,0.45608195662498474,3.350649356842041,2.379364013671875,-2.135056972503662,7.633176803588867,2.9468507766723633,-0.5510305166244507,-0.34597086906433105,-0.05157988891005516,25.49907112121582,-21.80548095703125,-12.22551155090332,-0.4861503839492798,-0.10314226150512695,-0.14200782775878906,-1.6489065885543823,7.736319065093994,3.0888586044311523
4_20251106_214251,1762436535959,4,0.5571317672729492,0.43220508098602295,0.3381604254245758,0.6232579946517944,0.41542768478393555,3.336130142211914,2.3568003177642822,-1.8405827283859253,8.070099830627441,3.1503489017486572,-0.5858498811721802,-0.22440877556800842,0.011339177377521992,25.307540893554688,-21.825088500976562,-12.801305770874023,-0.15334093570709229,0.26702451705932617,0.049192190170288086,-1.687241792678833,7.803075313568115,3.101156711578369
4_20251106_214251,1762436535980,4,0.5613107681274414,0.43045279383659363,0.333494633436203,0.6232351064682007,0.37330198287963867,3.3235414028167725,2.3340678215026855,-1.5197737216949463,8.595603942871094,3.3873648643493652,-0.7269595861434937,-0.14255291223526,0.12679259479045868,25.119436264038086,-21.78204345703125,-13.362264633178711,0.13397443294525146,0.6340227127075195,0.22896671295166016,-1.6537481546401978,7.961581230163574,3.158398151397705
4_20251106_214251,1762436535999,4,0.5650326013565063,0.427817165851593,0.327955961227417,0.6246243119239807,0.3390215337276459,3.3162899017333984,2.3164968490600586,-0.9511750936508179,9.262361526489258,3.875761032104492,-0.8998342752456665,-0.14682896435260773,0.3247127830982208,24.92275619506836,-21.68848419189453,-14.030787467956543,0.5620584487915039,1.0406246185302734,0.573890209197998,-1.5132335424423218,8.221736907958984,3.301870822906494
4_20251106_214251,1762436536017,4,0.5682398676872253,0.42490485310554504,0.32052868604660034,0.6275513768196106,0.31169015169143677,3.314436435699463,2.3039207458496094,-0.08331436663866043,10.119449615478516,4.616734504699707,-0.9945182800292969,-0.15660279989242554,0.5348502993583679,24.92275619506836,-21.68848419189453,-14.030787467956543,1.1439353227615356,1.5181703567504883,1.0518910884857178,-1.2272497415542603,8.601279258728027,3.5648434162139893
4_20251106_214251,1762436536036,4,0.5706110000610352,0.4222196042537689,0.3114964962005615,0.6317465305328369,0.2904362678527832,3.3199846744537354,2.2979495525360107,1.015576958656311,11.300935745239258,5.98496150970459,-0.9902422428131104,-0.08513163030147552,0.6020454168319702,24.764057159423828,-21.555816650390625,-14.602434158325195,1.7942613363265991,2.1597251892089844,1.9360942840576172,-0.7786843776702881,9.141210556030273,4.048867225646973
4_20251106_214251,1762436536055,4,0.5722262263298035,0.4193151891231537,0.302495539188385,0.63657546043396,0.27817288041114807,3.3344945907592773,2.301184892654419,2.11087703704834,12.508758544921875,7.295731067657471,-0.7825483083724976,0.13661226630210876,0.4609356224536896,24.553003311157227,-21.477630615234375,-15.06896686553955,2.3116490840911865,2.6940383911132812,2.5974912643432617,-0.20077213644981384,9.814720153808594,4.698239803314209
4_20251106_214251,1762436536073,4,0.5729665756225586,0.41567227244377136,0.29645949602127075,0.6411221623420715,0.2745524048805237,3.3570199012756348,2.312532663345337,2.8111510276794434,13.659123420715332,8.124088287353516,-0.4056447148323059,0.29726967215538025,0.23613739013671875,24.416969299316406,-21.36888885498047,-15.599611282348633,2.409538507461548,3.0755224227905273,2.7406787872314453,0.40161246061325073,10.583600997924805,5.38340950012207
4_20251106_214251,1762436536093,4,0.5730870366096497,0.4124903082847595,0.2943020462989807,0.6440569162368774,0.27828148007392883,3.3892149925231934,2.332078218460083,3.084078311920166,14.085273742675781,8.359907150268555,-0.044012799859046936,0.26061779260635376,0.07059305906295776,24.279130935668945,-21.285804748535156,-16.076719284057617,2.145972728729248,2.8013381958007812,2.381197929382324,0.938105583190918,11.283935546875,5.9787092208862305
4_20251106_214251,1762436536111,4,0.5721104741096497,0.41074278950691223,0.29521191120147705,0.6456236243247986,0.2873111069202423,3.4296963214874268,2.358319044113159,2.9380383491516113,14.890887260437012,8.775283813476562,0.20827433466911316,0.004054618533700705,0.03882808983325958,24.0996150970459,-21.281654357910156,-16.43523406982422,1.5999462604522705,2.885561943054199,2.237259864807129,1.3380920886993408,12.005325317382812,6.538023948669434
4_20251106_214251,1762436536130,4,0.571787416934967,0.412221759557724,0.2958911061286926,0.6446555852890015,0.2873111069202423,3.4296963214874268,2.358319044113159,2.9380383491516113,14.890887260437012,8.775283813476562,0.20827433466911316,0.004054618533700705,0.03882808983325958,24.005624771118164,-21.248451232910156,-16.627593994140625,1.5999462604522705,2.885561943054199,2.237259864807129,1.3380920886993408,12.005325317382812,6.538023948669434
4_20251106_214251,1762436536150,4,0.5698983669281006,0.41613250970840454,0.29803556203842163,0.6428253054618835,0.3013642430305481,3.4861338138580322,2.398754596710205,2.7022194862365723,16.162153244018555,10.38172435760498,1.1019693613052368,0.05903243646025658,0.10785579681396484,23.88454246520996,-21.266929626464844,-16.835506439208984,1.0913019180297852,3.3254623413085938,3.074960708618164,1.610917568206787,12.836690902709961,7.306763648986816
4_20251106_214251,1762436536170,4,0.5649982690811157,0.42169278860092163,0.30455446243286133,0.6404675841331482,0.33077508211135864,3.6096253395080566,2.500868558883667,2.139606237411499,16.63259506225586,12.089913368225098,1.7836943864822388,0.08224529772996902,0.23674824833869934,23.84819984436035,-21.470375061035156,-16.746095657348633,0.27611422538757324,2.4207592010498047,3.119441032409668,1.8634920120239258,14.211835861206055,8.97047233581543
4_20251106_214251,1762436536189,4,0.5564345717430115,0.43072232604026794,0.31471678614616394,0.6370338797569275,0.345356285572052,3.674326181411743,2.559790849685669,2.048630714416504,15.488214492797852,11.321407318115234,2.4837453365325928,-0.10406844317913055,0.5324068069458008,23.87019157409668,-21.696578979492188,-16.49256706237793,0.1481109857559204,1.0211029052734375,1.8807487487792969,1.9005197286605835,14.467111587524414,9.440658569335938
4_20251106_214251,1762436536207,4,0.5434871912002563,0.4449509382247925,0.32686710357666016,0.6322960257530212,0.35920074582099915,3.7309741973876953,2.6141035556793213,2.1934735774993896,13.824316024780273,9.961559295654297,2.96755051612854,-0.2726671099662781,0.7578158974647522,23.88364028930664,-22.061996459960938,-16.133811950683594,0.23436307907104492,-0.5142364501953125,0.4167203903198242,1.9591104984283447,14.338552474975586,9.544838905334473
4_20251106_214251,1762436536226,4,0.5273158550262451,0.46296805143356323,0.33984455466270447,0.6261822581291199,0.3746035397052765,3.781120538711548,2.6651651859283447,2.5130858421325684,11.911431312561035,8.30484390258789,3.230222225189209,-0.29343652725219727,0.8072959780693054,23.825624465942383,-22.58489990234375,-15.496832847595215,0.4431803226470947,-1.941697120666504,-0.9919958114624023,2.0699055194854736,13.853128433227539,9.296839714050293
4_20251106_214251,1762436536245,4,0.5092553496360779,0.48218050599098206,0.3537313938140869,0.6188982725143433,0.3746035397052765,3.781120538711548,2.6651651859283447,2.5130858421325684,11.911431312561035,8.30484390258789,3.344454050064087,-0.37651410698890686,0.7120010256767273,23.640153884887695,-23.394302368164062,-14.55920124053955,0.4431803226470947,-1.941697120666504,-0.9919958114624023,2.0699055194854736,13.853128433227539,9.296839714050293
4_20251106_214251,1762436536264,4,0.4909549057483673,0.5017592906951904,0.3679227828979492,0.6097817420959473,0.39313244819641113,3.8213846683502197,2.70957350730896,2.772845506668091,10.156557083129883,6.549968719482422,3.344454050064087,-0.37651410698890686,0.7120010256767273,23.450380325317383,-24.255958557128906,-13.419881820678711,0.5623519420623779,-2.9572572708129883,-2.1974964141845703,2.210493564605713,13.113814353942871,8.747465133666992
4_20251106_214251,1762436536284,4,0.473187118768692,0.5213215351104736,0.38223060965538025,0.5985128283500671,0.4268324077129364,3.8542182445526123,2.7516427040100098,2.724963665008545,7.868995666503906,3.583681106567383,3.3047478199005127,-0.4711981415748596,0.3931296169757843,23.133825302124023,-25.20184326171875,-12.192436218261719,0.30436229705810547,-3.516993522644043,-3.537336826324463,2.4206013679504395,11.38598918914795,7.121017932891846
4_20251106_214251,1762436536304,4,0.4563731551170349,0.539604902267456,0.3963042199611664,0.5860827565193176,0.44394344091415405,3.8520493507385254,2.7541773319244385,2.4903416633605957,6.777286529541016,2.5961151123046875,3.13492751121521,-0.41316598653793335,0.2587393820285797,22.862924575805664,-26.171958923339844,-10.733779907226562,0.05579233169555664,-3.686962127685547,-3.619922637939453,2.434549331665039,10.464248657226562,6.216037750244141
4_20251106_214251,1762436536321,4,0.4404999911785126,0.5559914112091064,0.4100317060947418,0.5733300447463989,0.44394344091415405,3.8520493507385254,2.7541773319244385,2.4903416633605957,6.777286529541016,2.5961151123046875,3.001147985458374,-0.3942291736602783,0.162222757935524,22.55750846862793,-27.083694458007812,-9.072531700134277,0.05579233169555664,-3.686962127685547,-3.619922637939453,2.434549331665039,10.464248657226562,6.216037750244141
4_20251106_214251,1762436536341,4,0.42542678117752075,0.5710035562515259,0.42324715852737427,0.560204267501831,0.4756779372692108,3.8078250885009766,2.718745470046997,2.3191637992858887,4.896721839904785,0.4366379976272583,2.8484318256378174,-0.43821144104003906,0.027832524850964546,22.180498123168945,-27.963333129882812,-7.33233642578125,-0.07576203346252441,-3.698627471923828,-3.8782777786254883,2.394925832748413,8.595349311828613,4.314915657043457
4_20251106_214251,1762436536359,4,0.41153889894485474,0.584676206111908,0.43604907393455505,0.5464893579483032,0.4887527823448181,3.7719075679779053,2.684786796569824,2.2593111991882324,4.0875163078308105,-0.8023081421852112,2.6810548305511475,-0.4003378450870514,-0.1059468537569046,21.836217880249023,-28.690826416015625,-5.57447624206543,-0.10849165916442871,-3.606266498565674,-4.09377908706665,2.367802858352661,7.693782806396484,3.291471004486084
4_20251106_214251,1762436536380,4,0.3987962603569031,0.5967527627944946,0.4485222101211548,0.5326119661331177,0.4887527823448181,3.7719075679779053,2.684786796569824,2.2593111991882324,4.0875163078308105,-0.8023081421852112,2.442206621170044,-0.3728489279747009,-0.17130938172340393,21.536954879760742,-29.26525115966797,-3.8119773864746094,-0.10849165916442871,-3.606266498565674,-4.09377908706665,2.367802858352661,7.693782806396484,3.291471004486084
4_20251106_214251,1762436536400,4,0.3873613178730011,0.6074207425117493,0.45991194248199463,0.5191071629524231,0.5045682191848755,3.712341070175171,2.6213021278381348,2.3538782596588135,3.722416400909424,-2.2459497451782227,2.1019551753997803,-0.4266050159931183,-0.1933005154132843,21.410900115966797,-29.5772705078125,-2.1324377059936523,-0.011139631271362305,-3.177093029022217,-4.429936408996582,2.365017890930176,6.899509429931641,2.1839869022369385
4_20251106_214251,1762436536419,4,0.37794792652130127,0.6169660091400146,0.46930205821990967,0.5062251091003418,0.529403567314148,3.599856376647949,2.484036922454834,2.563361644744873,3.614682197570801,-4.102573394775391,1.6150957345962524,-0.4980762004852295,-0.2556087076663971,21.304771423339844,-29.761978149414062,-0.5443820953369141,0.1338350772857666,-2.1110992431640625,-4.122035503387451,2.4295265674591064,5.725781440734863,0.019462168216705322
4_20251106_214251,1762436536437,4,0.37174493074417114,0.624783456325531,0.47630980610847473,0.49455058574676514,0.529403567314148,3.599856376647949,2.484036922454834,2.563361644744873,3.614682197570801,-4.102573394775391,1.1154084205627441,-0.5102934837341309,-0.37045127153396606,21.304771423339844,-29.761978149414062,-0.5443820953369141,0.1338350772857666,-2.1110992431640625,-4.122035503387451,2.4295265674591064,5.725781440734863,0.019462168216705322
4_20251106_214251,1762436536456,4,0.3689677119255066,0.630319356918335,0.4814888834953308,0.4844881296157837,0.5489881634712219,3.478158473968506,2.3201866149902344,1.5087612867355347,3.9797821044921875,-3.4106783866882324,0.7592743039131165,-0.4088899493217468,-0.4413115680217743,21.325016021728516,-29.874610900878906,0.9147348403930664,-0.6980777978897095,-1.0844964981079102,-2.117912769317627,2.206839084625244,5.064278602600098,-1.2927656173706055
4_20251106_214251,1762436536475,4,0.3681023120880127,0.6335420608520508,0.48590973019599915,0.47646284103393555,0.5534371733665466,3.4163742065429688,2.234726667404175,0.8527782559394836,4.222783088684082,-2.868415355682373,0.588232159614563,-0.2628932595252991,-0.3698404133319855,21.36728858947754,-29.833877563476562,2.1882810592651367,-1.0832486152648926,-0.6731967926025391,-1.2605198621749878,1.936026930809021,4.895979881286621,-1.6078954935073853
4_20251106_214251,1762436536494,4,0.36735883355140686,0.6356183290481567,0.48968344926834106,0.4703689217567444,0.5534371733665466,3.4163742065429688,2.234726667404175,0.8527782559394836,4.222783088684082,-2.868415355682373,0.588232159614563,-0.2628932595252991,-0.3698404133319855,21.46592140197754,-29.686813354492188,3.1955766677856445,-1.0832486152648926,-0.6731967926025391,-1.2605198621749878,1.936026930809021,4.895979881286621,-1.6078954935073853
4_20251106_214251,1762436536514,4,0.3652862012386322,0.6380956172943115,0.49242693185806274,0.4657421410083771,0.5535996556282043,3.3539371490478516,2.1461989879608154,0.5259838104248047,4.681252479553223,-2.617034912109375,0.6737532615661621,-0.14438551664352417,0.1457294076681137,21.592214584350586,-29.510482788085938,3.9475717544555664,-1.1280344724655151,-0.1717820167541504,-0.8073115348815918,1.6540182828903198,4.853034496307373,-1.8097233772277832
4_20251106_214251,1762436536532,4,0.36142921447753906,0.6420913338661194,0.49383947253227234,0.4617469608783722,0.551023006439209,3.248307466506958,1.9837793111801147,1.7517622709274292,5.258230209350586,-3.672832489013672,0.635879635810852,-0.15171587467193604,0.23491565883159637,21.71739387512207,-29.358863830566406,4.658490180969238,0.17536616325378418,0.3022274971008301,-1.2906436920166016,1.576396107673645,4.956002712249756,-2.3821887969970703
4_20251106_214251,1762436536551,4,0.35719525814056396,0.6462921500205994,0.4946511387825012,0.4582993686199188,0.551023006439209,3.248307466506958,1.9837793111801147,1.7517622709274292,5.258230209350586,-3.672832489013672,0.5069872140884399,-0.05947531759738922,0.16527707874774933,21.76923370361328,-29.235511779785156,5.203742027282715,0.17536616325378418,0.3022274971008301,-1.2906436920166016,1.576396107673645,4.956002712249756,-2.3821887969970703
4_20251106_214251,1762436536570,4,0.35364270210266113,0.649580180644989,0.49533790349960327,0.4556564390659332,0.5545444488525391,3.1550302505493164,1.8143712282180786,2.425701141357422,5.465320110321045,-4.574211120605469,0.3292255401611328,0.022380556911230087,0.05593230202794075,21.75731086730957,-29.17797088623047,5.650609016418457,0.5776472091674805,0.3311343193054199,-1.4655239582061768,1.8480539321899414,5.134185791015625,-3.108687162399292
4_20251106_214251,1762436536590,4,0.35120439529418945,0.6514958143234253,0.4961223304271698,0.45395076274871826,0.558358371257782,3.1109087467193604,1.7253515720367432,2.2102322578430176,5.339630126953125,-4.479643821716309,0.3292255401611328,0.022380556911230087,0.05593230202794075,21.784652709960938,-29.079566955566406,6.018641471862793,0.28974270820617676,0.16435527801513672,-1.0967655181884766,1.9204895496368408,5.175274848937988,-3.382878303527832
4_20251106_214251,1762436536610,4,0.3503786325454712,0.6523615121841431,0.49650272727012634,0.4529285728931427,0.558358371257782,3.1109087467193604,1.7253515720367432,2.2102322578430176,5.339630126953125,-4.479643821716309,-0.06294960528612137,0.019326234236359596,-0.08151225745677948,21.762928009033203,-29.007972717285156,6.235505104064941,0.28974270820617676,0.16435527801513672,-1.0967655181884766,1.9204895496368408,5.175274848937988,-3.382878303527832
4_20251106_214251,1762436536630,4,0.3508872985839844,0.6522920727729797,0.4965328872203827,0.4526016414165497,0.5645447373390198,3.034545421600342,1.5609391927719116,1.6847275495529175,5.510807991027832,-4.365923881530762,-0.16496402025222778,0.07369319349527359,-0.07357102632522583,21.690048217773438,-28.977630615234375,6.4901628494262695,-0.1878526210784912,0.24634313583374023,-0.6358528137207031,1.8725801706314087,5.264464855194092,-3.7300710678100586
4_20251106_214251,1762436536649,4,0.3518420159816742,0.6516993045806885,0.49621084332466125,0.4530673325061798,0.5668454170227051,2.9975481033325195,1.4724771976470947,1.7194420099258423,5.715503692626953,-4.752571105957031,-0.2578154504299164,0.14272090792655945,0.0052305301651358604,21.638708114624023,-29.007537841796875,6.649868965148926,-0.12251055240631104,0.36083078384399414,-0.818000078201294,1.8419525623321533,5.354672908782959,-3.9345710277557373
4_20251106_214251,1762436536666,4,0.3526979386806488,0.6507895588874817,0.4953351318836212,0.4546649754047394,0.5689319968223572,2.970087766647339,1.4021022319793701,1.9863839149475098,5.806479454040527,-5.001557350158691,-0.37387973070144653,0.18303799629211426,0.05471057444810867,21.573871612548828,-29.063217163085938,6.795039176940918,0.11554503440856934,0.36144495010375977,-0.8535890579223633,1.8708388805389404,5.445034503936768,-4.147968292236328
4_20251106_214251,1762436536686,4,0.3538599908351898,0.6496105194091797,0.4937724471092224,0.4571411609649658,0.5721902251243591,2.9408886432647705,1.320325255393982,2.1755177974700928,5.935760498046875,-5.175129413604736,-0.37387973070144653,0.18303799629211426,0.05471057444810867,21.525436401367188,-29.05437469482422,6.847405433654785,0.2437431812286377,0.3925809860229492,-0.8217291831970215,1.931774616241455,5.543179512023926,-4.353400230407715
4_20251106_214251,1762436536706,4,0.35593175888061523,0.6476742625236511,0.49167388677597046,0.46052953600883484,0.5755269527435303,2.9156265258789062,1.2447761297225952,2.076162815093994,5.940548896789551,-4.98958683013916,-0.7660549283027649,0.27772200107574463,-0.03814086690545082,21.570556640625,-29.114120483398438,6.861563682556152,0.11551058292388916,0.31789541244506836,-0.5089492797851562,1.960652232170105,5.622653484344482,-4.480637550354004
4_20251106_214251,1762436536723,4,0.35942137241363525,0.6444322466850281,0.48917195200920105,0.46500980854034424,0.5783133506774902,2.8936734199523926,1.176781415939331,1.8726643323898315,5.940548896789551,-4.480840682983398,-0.9823010563850403,0.37973642349243164,-0.10716858506202698,21.61000633239746,-29.08460235595703,6.660819053649902,-0.07039034366607666,0.2543163299560547,-0.00016260147094726562,1.9430546760559082,5.686232566833496,-4.480678081512451
4_20251106_214251,1762436536742,4,0.36406439542770386,0.6396011114120483,0.48648008704185486,0.4708552062511444,0.5813741683959961,2.8732569217681885,1.1096779108047485,2.0402512550354004,6.268540382385254,-4.087011337280273,-0.9823010563850403,0.37973642349243164,-0.10716858506202698,21.584495544433594,-29.134124755859375,6.4290056228637695,0.07775735855102539,0.46584653854370117,0.31493330001831055,1.962493896484375,5.802693843841553,-4.401944637298584
4_20251106_214251,1762436536761,4,0.36862996220588684,0.6322538256645203,0.48466840386390686,0.4790235757827759,0.5856907367706299,2.8565287590026855,1.0470858812332153,2.4759771823883057,6.774892330169678,-3.9804744720458984,-1.2639096975326538,1.1170501708984375,-0.3521253168582916,21.612564086914062,-29.09270477294922,6.2145185470581055,0.41078662872314453,0.7777585983276367,0.3371758460998535,2.065190553665161,5.997133731842041,-4.317650318145752
4_20251106_214251,1762436536780,4,0.3726375699043274,0.6216242909431458,0.48465001583099365,0.48973348736763,0.5856907367706299,2.8565287590026855,1.0470858812332153,2.4759771823883057,6.774892330169678,-3.9804744720458984,-1.3647023439407349,1.1958516836166382,-0.5030089020729065,21.638715744018555,-29.08869171142578,5.972207069396973,0.41078662872314453,0.7777585983276367,0.3371758460998535,2.065190553665161,5.997133731842041,-4.317650318145752
4_20251106_214251,1762436536802,4,0.3774334788322449,0.6094232797622681,0.4851788580417633,0.5007481575012207,0.5938574075698853,2.832524299621582,0.9357966184616089,1.6667717695236206,6.9664201736450195,-3.0778989791870117,-1.4801557064056396,0.9747186899185181,-0.5023980140686035,21.7141056060791,-29.080825805664062,5.664275169372559,-0.35075199604034424,0.6176619529724121,0.8576028347015381,2.017523765563965,6.348758220672607,-3.93550181388855
4_20251106_214251,1762436536819,4,0.38381826877593994,0.5975683927536011,0.48429709672927856,0.5109323263168335,0.5944902896881104,2.8243112564086914,0.8914880156517029,1.1257054805755615,6.912552833557129,-2.3405165672302246,-1.751990556716919,0.7047164440155029,-0.3545687794685364,21.876911163330078,-29.02973175048828,5.360568046569824,-0.7134546041488647,0.4510354995727539,1.2759881019592285,1.8391600847244263,6.461517333984375,-3.616504669189453
4_20251106_214251,1762436536840,4,0.39227426052093506,0.5864757895469666,0.480165034532547,0.5211607813835144,0.5944902896881104,2.8243112564086914,0.8914880156517029,1.1257054805755615,6.912552833557129,-2.3405165672302246,-2.0244362354278564,0.5776565670967102,-0.13038145005702972,21.876911163330078,-29.02973175048828,5.360568046569824,-0.7134546041488647,0.4510354995727539,1.2759881019592285,1.8391600847244263,6.461517333984375,-3.616504669189453
4_20251106_214251,1762436536857,4,0.401670902967453,0.5756555795669556,0.47286298871040344,0.5326178073883057,0.590793251991272,2.814291477203369,0.8304662108421326,1.509958267211914,7.259696960449219,-0.002679102122783661,-2.1789848804473877,0.4133339822292328,0.11640790104866028,22.029436111450195,-28.953643798828125,4.989317893981934,-0.15150713920593262,0.537074089050293,2.4936506748199463,1.6614654064178467,6.722622871398926,-2.4963297843933105
4_20251106_214251,1762436536877,4,0.4111939072608948,0.5656821131706238,0.4626758098602295,0.5448434948921204,0.5905987024307251,2.8122506141662598,0.814495325088501,2.2700846195220947,7.353066921234131,0.6054220199584961,-2.23823881149292,0.0938517302274704,0.3766362965106964,22.182750701904297,-28.87647247314453,4.5099382400512695,0.4868953227996826,0.5043549537658691,2.4814014434814453,1.783189296722412,6.848711967468262,-1.8759794235229492
4_20251106_214251,1762436536895,4,0.42085936665534973,0.5578621625900269,0.44928044080734253,0.5566096901893616,0.5940719246864319,2.8123843669891357,0.8084478378295898,3.2612416744232178,7.611629486083984,1.213523030281067,-2.3494160175323486,-0.21891102194786072,0.4963657557964325,22.287803649902344,-28.81342315673828,3.866135597229004,1.1824419498443604,0.6103343963623047,2.471601963043213,2.0787997245788574,7.00129508972168,-1.258078932762146
4_20251106_214251,1762436536915,4,0.4315848648548126,0.5515520572662354,0.4330146908760071,0.5674707889556885,0.6035088896751404,2.8150906562805176,0.811190128326416,3.977077007293701,7.8450541496276855,1.7438158988952637,-2.4996888637542725,-0.28427353501319885,0.38091233372688293,22.417003631591797,-28.77227783203125,3.060591697692871,1.5186219215393066,0.6750073432922363,2.4015159606933594,2.4584550857543945,7.170046806335449,-0.6577000021934509
4_20251106_214251,1762436536934,4,0.4436419904232025,0.544221818447113,0.41590896248817444,0.5779481530189514,0.6162071228027344,2.819284677505493,0.8201733827590942,4.33858585357666,7.933635711669922,2.038290023803711,-2.5980379581451416,-0.3343644440174103,0.15550324320793152,22.482131958007812,-28.8089599609375,2.10233211517334,1.5041046142578125,0.6108708381652832,2.156792163848877,2.8344812393188477,7.322764873504639,-0.11850202083587646
4_20251106_214251,1762436536952,4,0.4573732614517212,0.5356165170669556,0.398803174495697,0.5872654318809509,0.6331920623779297,2.824585199356079,0.8358116149902344,4.384073734283447,7.7217583656311035,2.2980499267578125,-2.6866135597229004,-0.3844553530216217,-0.03142135217785835,22.52155113220215,-28.89543914794922,0.9392919540405273,1.2396740913391113,0.3191947937011719,1.933241605758667,3.144399642944336,7.402563571929932,0.3648083209991455
4_20251106_214251,1762436536971,4,0.4723219871520996,0.5258170366287231,0.38175052404403687,0.5955626964569092,0.6331920623779297,2.824585199356079,0.8358116149902344,4.384073734283447,7.7217583656311035,2.2980499267578125,-2.8521578311920166,-0.3801792860031128,-0.19635483622550964,22.457304000854492,-28.911300659179688,-0.46987056732177734,1.2396740913391113,0.3191947937011719,1.933241605758667,3.144399642944336,7.402563571929932,0.3648083209991455
4_20251106_214251,1762436536991,4,0.48858731985092163,0.5142662525177002,0.36438626050949097,0.6033533811569214,0.6698493361473083,2.833888530731201,0.890265703201294,3.1235809326171875,7.325534820556641,4.107988357543945,-2.914466142654419,-0.4620351791381836,-0.27821069955825806,22.446413040161133,-28.859718322753906,-2.024430274963379,-0.1412649154663086,-0.04431867599487305,2.552304983139038,3.264845848083496,7.369853496551514,1.5556833744049072
4_20251106_214251,1762436537010,4,0.5056710243225098,0.5021275281906128,0.34634044766426086,0.6100926995277405,0.6698493361473083,2.833888530731201,0.890265703201294,3.1235809326171875,7.325534820556641,4.107988357543945,-2.8600990772247314,-0.46997642517089844,-0.21040472388267517,22.449710845947266,-28.781417846679688,-3.6590700149536133,-0.1412649154663086,-0.04431867599487305,2.552304983139038,3.264845848083496,7.369853496551514,1.5556833744049072
4_20251106_214251,1762436537030,4,0.5218449831008911,0.4899255335330963,0.32806092500686646,0.6164631843566895,0.6963093876838684,2.84665584564209,0.9755359292030334,2.311981678009033,8.161075592041016,5.619861602783203,-2.8600990772247314,-0.46997642517089844,-0.21040472388267517,22.44886016845703,-28.576988220214844,-5.426723480224609,-0.6557998657226562,0.5607757568359375,2.7518064975738525,2.9677815437316895,7.600299835205078,2.8680551052093506
4_20251106_214251,1762436537048,4,0.5361955761909485,0.4757867753505707,0.3110368251800537,0.6240010857582092,0.704626739025116,2.8546626567840576,1.0249029397964478,2.189882278442383,8.268810272216797,6.318938255310059,-2.755641222000122,0.2740568220615387,-0.20551781356334686,22.518386840820312,-28.216552734375,-7.323919773101807,-0.6223194599151611,0.5348086357116699,2.7607064247131348,2.812201738357544,7.734001636505127,3.558231830596924
4_20251106_214251,1762436537068,4,0.5489057302474976,0.4588349461555481,0.29680827260017395,0.6325170993804932,0.704626739025116,2.8546626567840576,1.0249029397964478,2.189882278442383,8.268810272216797,6.318938255310059,-2.598649024963379,0.42127519845962524,-0.281875878572464,22.573013305664062,-27.682449340820312,-9.164336204528809,-0.6223194599151611,0.5348086357116699,2.7607064247131348,2.812201738357544,7.734001636505127,3.558231830596924
4_20251106_214251,1762436537087,4,0.5608800053596497,0.4413885772228241,0.2842276990413666,0.6401596069335938,0.71596759557724,2.879027843475342,1.152930736541748,2.2078380584716797,9.067242622375488,7.778141975402832,-2.4135568141937256,0.5550545454025269,-0.3735055923461914,22.721202850341797,-26.99237060546875,-10.97111988067627,-0.3753011226654053,0.9233732223510742,2.859710693359375,2.583139181137085,8.143869400024414,4.918431282043457
4_20251106_214251,1762436537106,4,0.5719279646873474,0.4236367344856262,0.2737407386302948,0.6469128727912903,0.7187880277633667,2.892759323120117,1.2243993282318115,1.9815958738327026,8.606378555297852,8.298858642578125,-2.135002851486206,0.6802818775177002,-0.47307655215263367,22.884410858154297,-26.239654541015625,-12.681479454040527,-0.48123466968536377,0.3700075149536133,2.7043418884277344,2.4628305435180664,8.236371040344238,5.594516754150391
4_20251106_214251,1762436537125,4,0.5818727612495422,0.4061376452445984,0.26586687564849854,0.6525267362594604,0.7187880277633667,2.892759323120117,1.2243993282318115,1.9815958738327026,8.606378555297852,8.298858642578125,-1.8949329853057861,0.6063672304153442,-0.45352888107299805,23.1675968170166,-25.26861572265625,-14.15316104888916,-0.48123466968536377,0.3700075149536133,2.7043418884277344,2.4628305435180664,8.236371040344238,5.594516754150391
4_20251106_214251,1762436537144,4,0.5906570553779602,0.3902333676815033,0.25888964533805847,0.6571288704872131,0.7173134684562683,2.9181621074676514,1.3712633848190308,1.5410816669464111,8.206563949584961,7.815250396728516,-1.7587101459503174,0.4029492735862732,-0.26721513271331787,23.363391876220703,-24.317581176757812,-15.439311981201172,-0.5952818393707275,-0.041869163513183594,1.38507080078125,2.1363635063171387,8.248433113098145,6.430179595947266
4_20251106_214251,1762436537163,4,0.5982006192207336,0.37679556012153625,0.2508547902107239,0.6612510681152344,0.7173134684562683,2.9181621074676514,1.3712633848190308,1.5410816669464111,8.206563949584961,7.815250396728516,-1.7587101459503174,0.4029492735862732,-0.26721513271331787,23.59897232055664,-23.301780700683594,-16.6821231842041,-0.5952818393707275,-0.041869163513183594,1.38507080078125,2.1363635063171387,8.248433113098145,6.430179595947266
4_20251106_214251,1762436537182,4,0.6049435138702393,0.36493659019470215,0.2411666363477707,0.6653595566749573,0.7123457193374634,2.940908432006836,1.5241460800170898,2.1635472774505615,7.924059867858887,7.5459136962890625,-1.8588919639587402,0.14149919152259827,-0.006375899538397789,24.317970275878906,-20.098403930664062,-16.824020385742188,0.06815242767333984,-0.24418067932128906,0.7223052978515625,2.0953948497772217,8.168240547180176,6.8236083984375
4_20251106_214251,1762436537200,4,0.6116025447845459,0.3532961308956146,0.22988663613796234,0.6695343852043152,0.7104300856590271,2.9491443634033203,1.5921605825424194,2.1324238777160645,7.7373199462890625,7.539928913116455,-1.9633498191833496,0.029710935428738594,0.015615230426192284,24.489965438842773,-19.078598022460938,-17.609466552734375,0.02962327003479004,-0.34473609924316406,0.573056697845459,2.1028006076812744,8.082056045532227,6.966872215270996
4_20251106_214251,1762436537221,4,0.6185590028762817,0.3417922854423523,0.21708571910858154,0.6733770370483398,0.7072753310203552,2.9556798934936523,1.6671841144561768,1.7302154302597046,7.372220039367676,8.029521942138672,-2.0940747261047363,-0.09612719714641571,0.0431041419506073,24.65984535217285,-18.096466064453125,-18.39570426940918,-0.29806816577911377,-0.567868709564209,0.8501195907592773,2.0282835960388184,7.940088748931885,7.1794023513793945
4_20251106_214251,1762436537240,4,0.6258442401885986,0.33029523491859436,0.2025732696056366,0.6768959760665894,0.7022295594215393,2.9592416286468506,1.7459135055541992,1.354341983795166,7.069365978240967,9.63237190246582,-2.120952844619751,-0.10529017448425293,0.10907752811908722,24.730531692504883,-17.146209716796875,-19.145843505859375,-0.5391533374786377,-0.6965785026550293,1.9623756408691406,1.8934953212738037,7.765944480895996,7.66999626159668
4_20251106_214251,1762436537260,4,0.6326088309288025,0.31856197118759155,0.18761813640594482,0.6805319786071777,0.6959899067878723,2.959939956665039,1.8288991451263428,1.41778564453125,6.882626533508301,10.364965438842773,-1.8650004863739014,0.0834670215845108,0.12251655757427216,24.802824020385742,-16.170562744140625,-19.922489166259766,-0.3805677890777588,-0.7066545486450195,2.155975341796875,1.7983534336090088,7.58928108215332,8.208990097045898
4_20251106_214251,1762436537279,4,0.6379399299621582,0.30675870180130005,0.1753816306591034,0.684231698513031,0.6903015375137329,2.9582340717315674,1.9041173458099365,1.6548012495040894,6.653989791870117,9.94120979309082,-1.5308575630187988,0.2587851881980896,0.08525380492210388,24.802824020385742,-16.170562744140625,-19.922489166259766,-0.11484181880950928,-0.7482328414916992,1.3857755661010742,1.7696430683135986,7.402222633361816,8.555434226989746
4_20251106_214251,1762436537296,4,0.6420830488204956,0.2956431806087494,0.16643407940864563,0.6874766945838928,0.6854990720748901,2.9536566734313965,1.9775691032409668,2.013916015625,6.201505661010742,9.365428924560547,-1.3243852853775024,0.26183950901031494,0.05959748849272728,24.75830841064453,-15.316162109375,-20.597793579101562,0.1954183578491211,-0.960573673248291,0.6479959487915039,1.818497657775879,7.162079334259033,8.717432975769043
4_20251106_214251,1762436537317,4,0.6456726789474487,0.2857987880706787,0.15890231728553772,0.6900550127029419,0.6813609004020691,2.9433419704437256,2.0599703788757324,2.171926498413086,5.5981926918029785,9.013496398925781,-1.271239995956421,0.23557235300540924,-0.024090979248285294,24.629491806030273,-14.454360961914062,-21.316816329956055,0.28274309635162354,-1.2511091232299805,0.23685073852539062,1.8891834020614624,6.849301815032959,8.77664566040039
4_20251106_214251,1762436537335,4,0.6496809720993042,0.27643200755119324,0.15167836844921112,0.6917323470115662,0.6813609004020691,2.9433419704437256,2.0599703788757324,2.171926498413086,5.5981926918029785,9.013496398925781,-1.271239995956421,0.23557235300540924,-0.024090979248285294,24.53382110595703,-13.641212463378906,-21.954326629638672,0.28274309635162354,-1.2511091232299805,0.23685073852539062,1.8891834020614624,6.849301815032959,8.77664566040039
4_20251106_214251,1762436537354,4,0.6542747020721436,0.2667955160140991,0.14467567205429077,0.6926858425140381,0.6744071245193481,2.916844129562378,2.2008299827575684,1.6164957284927368,5.600586891174316,9.961559295654297,-1.2791812419891357,0.2435135841369629,-0.1316031813621521,24.497188568115234,-12.838264465332031,-22.427452087402344,-0.23427677154541016,-0.7760028839111328,0.8336153030395508,1.850772500038147,6.376589775085449,9.127943992614746
4_20251106_214251,1762436537373,4,0.6592167615890503,0.2572503685951233,0.13876552879810333,0.6928200721740723,0.6685798764228821,2.900775909423828,2.271550416946411,1.069444179534912,5.567069053649902,10.023805618286133,-1.0525505542755127,0.39500802755355835,-0.3594557046890259,24.435083389282227,-12.050003051757812,-22.84775733947754,-0.6250627040863037,-0.6476168632507324,0.7166891098022461,1.6945068836212158,6.214685916900635,9.307116508483887
4_20251106_214251,1762436537392,4,0.6643694639205933,0.2475314438343048,0.13487876951694489,0.6922059655189514,0.6604390144348145,2.883967638015747,2.340566396713257,0.7450437545776367,5.652060031890869,9.974727630615234,-0.9609208106994629,0.46647918224334717,-0.36067745089530945,24.410959243774414,-11.222633361816406,-23.171184539794922,-0.7595704793930054,-0.4501008987426758,0.5340890884399414,1.504614233970642,6.102160930633545,9.440638542175293
4_20251106_214251,1762436537413,4,0.6684022545814514,0.23769459128379822,0.13241702318191528,0.6922466158866882,0.6504669189453125,2.867136001586914,2.4077906608581543,0.6887824535369873,5.787326335906982,10.045352935791016,-0.876621425151825,0.37912553548812866,-0.2543869912624359,24.47981071472168,-10.453041076660156,-23.356847763061523,-0.652665376663208,-0.25186777114868164,0.48377227783203125,1.3414478302001953,6.039194107055664,9.561580657958984
4_20251106_214251,1762436537431,4,0.672393262386322,0.22924846410751343,0.12951700389385223,0.6917786598205566,0.6386052966117859,2.8492002487182617,2.4766530990600586,0.7199057340621948,5.676000595092773,10.100417137145996,-0.8075937032699585,0.27650028467178345,-0.17986148595809937,24.549070358276367,-9.671295166015625,-23.501697540283203,-0.49723362922668457,-0.2905550003051758,0.43106937408447266,1.2171393632888794,5.966555595397949,9.669347763061523
4_20251106_214251,1762436537450,4,0.6757937669754028,0.2220367044210434,0.1263037621974945,0.6914114952087402,0.6386052966117859,2.8492002487182617,2.4766530990600586,0.7199057340621948,5.676000595092773,10.100417137145996,-0.7819373607635498,0.24168099462985992,-0.1566486358642578,24.65449333190918,-8.887710571289062,-23.59101104736328,-0.49723362922668457,-0.2905550003051758,0.43106937408447266,1.2171393632888794,5.966555595397949,9.669347763061523
4_20251106_214251,1762436537470,4,0.6790680885314941,0.215267613530159,0.12295404821634293,0.6909477114677429,0.611763596534729,2.8150970935821533,2.605635404586792,0.43979620933532715,5.838799476623535,10.376935958862305,-0.7422311902046204,0.20502911508083344,-0.07296015322208405,24.77695655822754,-8.216896057128906,-23.546554565429688,-0.522781252861023,-0.06414365768432617,0.4911623001098633,0.9625774621963501,5.902943134307861,9.885773658752441
4_20251106_214251,1762436537488,4,0.6817550659179688,0.20910483598709106,0.11949837952852249,0.6908004879951477,0.611763596534729,2.8150970935821533,2.605635404586792,0.43979620933532715,5.838799476623535,10.376935958862305,-0.6194473505020142,0.17448589205741882,0.025389064103364944,24.835866928100586,-7.600006103515625,-23.53264045715332,-0.522781252861023,-0.06414365768432617,0.4911623001098633,0.9625774621963501,5.902943134307861,9.885773658752441
4_20251106_214251,1762436537507,4,0.6834844946861267,0.2040223926305771,0.11653701961040497,0.6911171674728394,0.5854790210723877,2.785707473754883,2.7221481800079346,0.9820595979690552,5.878302097320557,10.555295944213867,-0.49116575717926025,0.20808343589305878,0.03516290336847305,24.897794723510742,-6.932624816894531,-23.544702529907227,0.06782013177871704,-0.022090435028076172,0.44056034088134766,0.9142394661903381,5.900392532348633,10.11473560333252
4_20251106_214251,1762436537526,4,0.6848493814468384,0.1996212601661682,0.11460747569799423,0.6913738250732422,0.573677659034729,2.7710301876068115,2.779574155807495,1.1173261404037476,5.6448774337768555,10.642681121826172,-0.35738641023635864,0.26672643423080444,-0.02531270682811737,24.963956832885742,-6.4028472900390625,-23.532146453857422,0.16246932744979858,-0.20441198348999023,0.42235660552978516,0.954856812953949,5.849289417266846,10.220324516296387
4_20251106_214251,1762436537546,4,0.6863414645195007,0.1957177370786667,0.11397631466388702,0.691114604473114,0.573677659034729,2.7710301876068115,2.779574155807495,1.1173261404037476,5.6448774337768555,10.642681121826172,-0.2419329583644867,0.2734459638595581,-0.06624063849449158,25.01180076599121,-5.9749908447265625,-23.454608917236328,0.16246932744979858,-0.20441198348999023,0.42235660552978516,0.954856812953949,5.849289417266846,10.220324516296387
4_20251106_214251,1762436537564,4,0.6878008842468262,0.19246840476989746,0.1141853854060173,0.6905415058135986,0.5519642233848572,2.740250587463379,2.887329339981079,0.9377686977386475,5.168452262878418,10.163861274719238,-0.20161589980125427,0.25634175539016724,-0.04608210548758507,25.02197265625,-5.574226379394531,-23.419620513916016,-0.0210874080657959,-0.4855327606201172,-0.07405948638916016,0.9588561058044434,5.653985023498535,10.237920761108398
4_20251106_214251,1762436537584,4,0.6890689730644226,0.1896129995584488,0.11452079564332962,0.6900115013122559,0.5519642233848572,2.740250587463379,2.887329339981079,0.9377686977386475,5.168452262878418,10.163861274719238,-0.20833541452884674,0.2068617045879364,-0.027145300060510635,25.036392211914062,-5.2994537353515625,-23.265134811401367,-0.0210874080657959,-0.4855327606201172,-0.07405948638916016,0.9588561058044434,5.653985023498535,10.237920761108398
4_20251106_214251,1762436537602,4,0.6902681589126587,0.1870366930961609,0.11443319171667099,0.6895304322242737,0.5340947508811951,2.7052745819091797,2.9839682579040527,1.2597750425338745,4.900312423706055,10.266807556152344,-0.20833541452884674,0.2068617045879364,-0.027145300060510635,25.03669548034668,-5.074485778808594,-23.233840942382812,0.20848488807678223,-0.48522329330444336,0.032085418701171875,1.0512901544570923,5.385535717010498,10.234722137451172
4_20251106_214251,1762436537621,4,0.6915587782859802,0.18488973379135132,0.11395711451768875,0.6888948082923889,0.5269263982772827,2.686694383621216,3.0290040969848633,1.3196275234222412,4.788987159729004,10.372146606445312,-0.16496402025222778,0.13233621418476105,-0.10289253294467926,25.075572967529297,-4.809600830078125,-23.186769485473633,0.21466994285583496,-0.47723913192749023,0.1099395751953125,1.1049575805664062,5.266226291656494,10.26220703125
4_20251106_214251,1762436537641,4,0.6932202577590942,0.18303056061267853,0.11370720714330673,0.6877617239952087,0.5203737616539001,2.668055534362793,3.071833610534668,1.1987255811691284,4.9062981605529785,10.278778076171875,-0.09349284321069717,0.1347796618938446,-0.18474841117858887,25.099149703979492,-4.5961456298828125,-23.10069465637207,0.07501435279846191,-0.28794240951538086,0.013257026672363281,1.1237112283706665,5.194240570068359,10.265521049499512
4_20251106_214251,1762436537660,4,0.6952580213546753,0.18152831494808197,0.1140584647655487,0.6860425472259521,0.5131722092628479,2.649611234664917,3.1125645637512207,0.7677876949310303,4.925450801849365,10.281171798706055,-0.026908589527010918,0.1714315563440323,-0.2598847448825836,25.13089370727539,-4.4453582763671875,-22.94786834716797,-0.28473877906799316,-0.21503210067749023,0.012520790100097656,1.0525264739990234,5.1404829025268555,10.268651008605957
4_20251106_214251,1762436537679,4,0.6975871324539185,0.1801571398973465,0.11526772379875183,0.6838339567184448,0.5041407346725464,2.6300182342529297,3.152765989303589,0.45056962966918945,4.762652397155762,10.09443187713623,0.06594284623861313,0.20747257769107819,-0.22567632794380188,25.164133071899414,-4.2809295654296875,-22.90290641784668,-0.4815654754638672,-0.3022642135620117,-0.1393756866455078,0.9321351051330566,5.064916610717773,10.233807563781738
4_20251106_214251,1762436537700,4,0.699484646320343,0.17914468050003052,0.11733656376600266,0.6818068027496338,0.4945117235183716,2.610140323638916,3.1898350715637207,0.5870332717895508,4.648932456970215,9.864598274230957,0.06594284623861313,0.20747257769107819,-0.22567632794380188,25.231307983398438,-4.1640777587890625,-22.884563446044922,-0.27608150243759155,-0.33278751373291016,-0.2953672409057617,0.8631147742271423,4.981719970703125,10.159965515136719
4_20251106_214251,1762436537719,4,0.7005811333656311,0.17871803045272827,0.1196889728307724,0.6803826093673706,0.48588842153549194,2.590768575668335,3.2216124534606934,0.8874926567077637,4.459798812866211,9.548578262329102,0.18506145477294922,0.1818162500858307,-0.033253949135541916,25.285097122192383,-4.061248779296875,-22.799392700195312,0.01950228214263916,-0.41753721237182617,-0.48910999298095703,0.8679903745651245,4.877336025238037,10.037688255310059
4_20251106_214251,1762436537736,4,0.7010607123374939,0.17886248230934143,0.12201247364282608,0.6794372797012329,0.48588842153549194,2.590768575668335,3.2216124534606934,0.8874926567077637,4.459798812866211,9.548578262329102,0.18689405918121338,0.1708206832408905,-0.030810486525297165,25.285097122192383,-4.061248779296875,-22.799392700195312,0.01950228214263916,-0.41753721237182617,-0.48910999298095703,0.8679903745651245,4.877336025238037,10.037688255310059
4_20251106_214251,1762436537755,4,0.7014882564544678,0.17913898825645447,0.12419882416725159,0.6785264611244202,0.4776773750782013,2.5696473121643066,3.2514007091522217,1.0036064386367798,4.301788330078125,9.383384704589844,0.16062688827514648,0.12867102026939392,-0.036919135600328445,25.303836822509766,-3.9355621337890625,-22.728679656982422,0.10849285125732422,-0.46043825149536133,-0.523442268371582,0.8951135873794556,4.762226581573486,9.906826972961426
4_20251106_214251,1762436537774,4,0.7020132541656494,0.1795109361410141,0.12590424716472626,0.6775701642036438,0.47036752104759216,2.5491840839385986,3.2762539386749268,0.9317834973335266,4.25151252746582,9.166719436645508,0.11542288213968277,0.05842157453298569,0.013782636262476444,25.329843521118164,-3.8853607177734375,-22.564449310302734,0.02933591604232788,-0.4085712432861328,-0.5920858383178711,0.9024475812911987,4.660083770751953,9.758805274963379
4_20251106_214251,1762436537794,4,0.7023476958274841,0.18008992075920105,0.1267765611410141,0.676906943321228,0.45779627561569214,2.5100128650665283,3.3158164024353027,1.0191681385040283,4.130610466003418,9.252906799316406,0.08060359954833984,0.0003894263645634055,0.06692786514759064,25.3909854888916,-3.8695068359375,-22.494152069091797,0.09270477294921875,-0.35303592681884766,-0.3009834289550781,0.9264633655548096,4.483646392822266,9.553890228271484
4_20251106_214251,1762436537813,4,0.702490508556366,0.18087197840213776,0.1269374042749405,0.6765199899673462,0.45217302441596985,2.488726854324341,3.334932804107666,1.149646520614624,4.291014671325684,9.323532104492188,0.06960804015398026,-0.032597269862890244,0.05654316768050194,25.426950454711914,-3.8679351806640625,-22.411582946777344,0.17854654788970947,-0.15410518646240234,-0.18428611755371094,0.9710999727249146,4.445119857788086,9.507818222045898
4_20251106_214251,1762436537832,4,0.7020057439804077,0.18162770569324493,0.12698213756084442,0.6768122911453247,0.4475911855697632,2.4693856239318848,3.351919412612915,1.1508435010910034,4.397552013397217,9.410917282104492,0.06960804015398026,-0.032597269862890244,0.05654316768050194,25.47359275817871,-3.8908157348632812,-22.315534591674805,0.14379489421844482,-0.03805398941040039,-0.07752037048339844,1.0070486068725586,4.435606002807617,9.48843765258789
4_20251106_214251,1762436537851,4,0.7025464177131653,0.18244941532611847,0.127156600356102,0.6759970188140869,0.44351470470428467,2.4513208866119385,3.3676962852478027,1.1077497005462646,4.548379898071289,9.357049942016602,0.08365792036056519,-0.013049598783254623,-0.002099846489727497,25.50483512878418,-3.9652557373046875,-22.166969299316406,0.08056092262268066,0.09021902084350586,-0.10511016845703125,1.027188777923584,4.458160877227783,9.462160110473633
4_20251106_214251,1762436537871,4,0.7034328579902649,0.18318256735801697,0.12794898450374603,0.6747261881828308,0.43894442915916443,2.4338433742523193,3.3833210468292236,0.8647487163543701,4.651326656341553,9.412113189697266,0.15573996305465698,0.06025417149066925,-0.12854886054992676,25.525287628173828,-4.0269927978515625,-22.113243103027344,-0.129952073097229,0.15453243255615234,-0.040038108825683594,0.9947007894515991,4.4967942237854,9.45215129852295
4_20251106_214251,1762436537890,4,0.704524040222168,0.18388156592845917,0.12934039533138275,0.6731303930282593,0.43894442915916443,2.4338433742523193,3.3833210468292236,0.8647487163543701,4.651326656341553,9.412113189697266,0.15573996305465698,0.06025417149066925,-0.12854886054992676,25.548460006713867,-4.03863525390625,-22.044944763183594,-0.129952073097229,0.15453243255615234,-0.040038108825683594,0.9947007894515991,4.4967942237854,9.45215129852295
4_20251106_214251,1762436537910,4,0.7055516839027405,0.18479987978935242,0.13107532262802124,0.6714648604393005,0.4280046224594116,2.4041950702667236,3.410710096359253,0.6540679931640625,4.806942939758301,9.272059440612793,0.22293508052825928,0.043149955570697784,-0.09372955560684204,25.606571197509766,-4.084892272949219,-22.043548583984375,-0.22011178731918335,0.2132430076599121,-0.13134765625,0.8741797804832458,4.593699932098389,9.403407096862793
4_20251106_214251,1762436537927,4,0.706408679485321,0.18606822192668915,0.13277655839920044,0.6698774695396423,0.4280046224594116,2.4041950702667236,3.410710096359253,0.6540679931640625,4.806942939758301,9.272059440612793,0.24553710222244263,0.012606720440089703,-0.06257545948028564,25.61382293701172,-4.1719970703125,-22.044904708862305,-0.22011178731918335,0.2132430076599121,-0.13134765625,0.8741797804832458,4.593699932098389,9.403407096862793
4_20251106_214251,1762436537947,4,0.7070397734642029,0.18773679435253143,0.13437452912330627,0.6684258580207825,0.41628143191337585,2.38181471824646,3.431039571762085,0.5750627517700195,4.854825019836426,8.944067001342773,0.23576325178146362,-0.016714785248041153,-0.05280161648988724,25.55984878540039,-4.263481140136719,-22.00816535949707,-0.19564849138259888,0.17229127883911133,-0.3311338424682617,0.7707112431526184,4.6825337409973145,9.275200843811035
4_20251106_214251,1762436537965,4,0.7075925469398499,0.1895217001438141,0.1357189118862152,0.6670642495155334,0.40939876437187195,2.3713912963867188,3.4395627975463867,0.4589489698410034,4.763849258422852,8.957235336303711,0.174676775932312,-0.04420369863510132,-0.024701841175556183,25.58120346069336,-4.3123931884765625,-21.98120880126953,-0.24940979480743408,0.06505250930786133,-0.25437259674072266,0.7083587646484375,4.69879674911499,9.211607933044434
4_20251106_214251,1762436537985,4,0.7081221342086792,0.19112424552440643,0.13644811511039734,0.6658952832221985,0.40237629413604736,2.3616743087768555,3.4473330974578857,0.5319689512252808,4.7662434577941895,9.092501640319824,0.12764018774032593,-0.10895536094903946,0.04554760083556175,25.61423683166504,-4.372795104980469,-21.981056213378906,-0.1411118507385254,0.053957462310791016,-0.09528541564941406,0.6730808019638062,4.712285995483398,9.187787055969238
4_20251106_214251,1762436538003,4,0.7083682417869568,0.1928669959306717,0.1363181173801422,0.6651571989059448,0.40237629413604736,2.3616743087768555,3.4473330974578857,0.5319689512252808,4.7662434577941895,9.092501640319824,0.12641844153404236,-0.17615047097206116,0.09380590915679932,25.621686935424805,-4.459632873535156,-22.009445190429688,-0.1411118507385254,0.053957462310791016,-0.09528541564941406,0.6730808019638062,4.712285995483398,9.187787055969238
4_20251106_214251,1762436538022,4,0.7083539962768555,0.19507043063640594,0.13562624156475067,0.6646710634231567,0.39043837785720825,2.3445255756378174,3.461374282836914,0.8647487163543701,4.815322399139404,9.110457420349121,0.1453552544116974,-0.19875246286392212,0.0638735443353653,25.642040252685547,-4.521507263183594,-21.942203521728516,0.1341591477394104,0.06307029724121094,-0.056194305419921875,0.7305895686149597,4.752252101898193,9.166651725769043
4_20251106_214251,1762436538042,4,0.7084776759147644,0.1975337713956833,0.13492421805858612,0.6639542579650879,0.39043837785720825,2.3445255756378174,3.461374282836914,0.8647487163543701,4.815322399139404,9.110457420349121,0.1453552544116974,-0.19875246286392212,0.0638735443353653,25.611324310302734,-4.6361083984375,-21.945560455322266,0.1341591477394104,0.06307029724121094,-0.056194305419921875,0.7305895686149597,4.752252101898193,9.166651725769043
4_20251106_214251,1762436538062,4,0.7088673710823059,0.19961489737033844,0.1347053050994873,0.6629595756530762,0.3790568709373474,2.3289692401885986,3.473649501800537,0.5535158514976501,4.830883979797363,9.04102897644043,0.1386357545852661,-0.07413607090711594,0.014393500983715057,25.569732666015625,-4.726524353027344,-21.93536376953125,-0.1403326392173767,0.05377197265625,-0.08518695831298828,0.6938484907150269,4.777112007141113,9.126215934753418
4_20251106_214251,1762436538079,4,0.7091827392578125,0.2011575847864151,0.13489408791065216,0.6621171236038208,0.3790568709373474,2.3289692401885986,3.473649501800537,0.5535158514976501,4.830883979797363,9.04102897644043,0.1386357545852661,-0.07413607090711594,0.014393500983715057,25.542131423950195,-4.790496826171875,-21.978212356567383,-0.1403326392173767,0.05377197265625,-0.08518695831298828,0.6938484907150269,4.777112007141113,9.126215934753418
4_20251106_214251,1762436538100,4,0.7091348767280579,0.20301569998264313,0.13486020267009735,0.6616079807281494,0.36940014362335205,2.316499948501587,3.4823975563049316,0.8791133165359497,4.838066101074219,8.920126914978027,0.17101158201694489,-0.17004182934761047,0.0999145656824112,25.526914596557617,-4.853401184082031,-22.047603607177734,0.1566835641860962,0.0439906120300293,-0.14223957061767578,0.7224297523498535,4.7940754890441895,9.062366485595703
4_20251106_214251,1762436538120,4,0.7090254426002502,0.20530904829502106,0.13465319573879242,0.6610594391822815,0.3651582598686218,2.310142993927002,3.4863083362579346,0.8874926567077637,4.829687118530273,8.933294296264648,0.17956368625164032,-0.13888771831989288,0.034552037715911865,25.45893669128418,-4.982940673828125,-22.052696228027344,0.13205033540725708,0.028489112854003906,-0.10325813293457031,0.7554423213005066,4.8011980056762695,9.036552429199219
4_20251106_214251,1762436538138,4,0.7092145085334778,0.2076455056667328,0.1345875859260559,0.6601396203041077,0.3616667687892914,2.3051340579986572,3.489527463912964,0.74025559425354,4.869189739227295,9.050605773925781,0.1850614696741104,-0.04359283298254013,-0.0442495159804821,25.382282257080078,-5.062103271484375,-22.151836395263672,-0.012149333953857422,0.05439329147338867,0.011242866516113281,0.7524049282073975,4.814796447753906,9.039362907409668
4_20251106_214251,1762436538157,4,0.7096253633499146,0.20922763645648956,0.1353430151939392,0.6590431928634644,0.35791218280792236,2.300234079360962,3.4928650856018066,0.6600532531738281,4.859613418579102,9.079334259033203,0.227211132645607,0.04131736233830452,-0.07906879484653473,25.382282257080078,-5.062103271484375,-22.151836395263672,-0.07388132810592651,0.03585338592529297,0.03197669982910156,0.7339345812797546,4.823760032653809,9.047357559204102
4_20251106_214251,1762436538176,4,0.7101598381996155,0.21029268205165863,0.13709574937820435,0.6577649712562561,0.35425758361816406,2.2958645820617676,3.495805025100708,0.7019500136375427,4.927845001220703,8.963220596313477,0.26630648970603943,0.0987386479973793,-0.09739474952220917,25.3665714263916,-5.1256866455078125,-22.15364646911621,-0.025587618350982666,0.0832681655883789,-0.06730937957763672,0.7275376319885254,4.844576835632324,9.030529975891113
4_20251106_214251,1762436538194,4,0.7105613946914673,0.2110723853111267,0.13954326510429382,0.65656578540802,0.35425758361816406,2.2958645820617676,3.495805025100708,0.7019500136375427,4.927845001220703,8.963220596313477,0.28463244438171387,0.10240383446216583,-0.08212313055992126,25.273515701293945,-5.269371032714844,-22.159982681274414,-0.025587618350982666,0.0832681655883789,-0.06730937957763672,0.7275376319885254,4.844576835632324,9.030529975891113
4_20251106_214251,1762436538214,4,0.7107804417610168,0.2121371328830719,0.14207200706005096,0.6554422378540039,0.34732672572135925,2.288119316101074,3.499605894088745,0.7019500136375427,4.866795539855957,8.777677536010742,0.2889084815979004,0.0370413102209568,-0.029588758945465088,25.267467498779297,-5.381980895996094,-22.20290756225586,-0.01771676540374756,0.008282661437988281,-0.17025279998779297,0.7196667790412903,4.858512878417969,8.947930335998535
4_20251106_214251,1762436538233,4,0.7107963562011719,0.2137470841407776,0.14401033520698547,0.6544781923294067,0.3443942666053772,2.2850120067596436,3.500234603881836,0.7725759744644165,4.9685444831848145,8.636425971984863,0.276691198348999,-0.007551814895123243,0.01683695986866951,25.276029586791992,-5.4441070556640625,-22.19021987915039,0.04232734441757202,0.08802556991577148,-0.24920368194580078,0.7302486300468445,4.880518913269043,8.885629653930664
4_20251106_214251,1762436538253,4,0.7106049060821533,0.21554246544837952,0.14542271196842194,0.6537846326828003,0.3415868878364563,2.2821197509765625,3.4999840259552,0.8623546361923218,5.045156002044678,8.60290813446045,0.2473696768283844,0.003443750087171793,0.010728312656283379,25.305044174194336,-5.567970275878906,-22.123807907104492,0.10568481683731079,0.13170957565307617,-0.22617721557617188,0.756669819355011,4.913446426391602,8.829085350036621
4_20251106_214251,1762436538270,4,0.709992527961731,0.21718433499336243,0.14691437780857086,0.6535730361938477,0.3398098647594452,2.2802793979644775,3.499134063720703,0.9305864572525024,5.088249683380127,8.529888153076172,0.2473696768283844,0.003443750087171793,0.010728312656283379,25.344032287597656,-5.728843688964844,-22.044179916381836,0.1391332745552063,0.13984251022338867,-0.23935794830322266,0.7914531826972961,4.948407173156738,8.769246101379395
4_20251106_214251,1762436538291,4,0.7099383473396301,0.21889714896678925,0.14830932021141052,0.6527449488639832,0.3380829989910126,2.278658628463745,3.49737286567688,0.8767192363739014,5.091840744018555,8.50235652923584,0.24553710222244263,0.014439315535128117,-0.03447567671537399,25.449588775634766,-5.7852935791015625,-21.95998764038086,0.06821286678314209,0.1147470474243164,-0.21351146697998047,0.8085063695907593,4.977093696594238,8.71586799621582
4_20251106_214251,1762436538310,4,0.7099749445915222,0.2207515686750412,0.14967073500156403,0.6517691016197205,0.3365934193134308,2.277517318725586,3.4946885108947754,0.8336254358291626,5.094234466552734,8.316814422607422,0.2516457438468933,0.026656610891222954,-0.043027784675359726,25.51576805114746,-5.89434814453125,-21.87832260131836,0.020095229148864746,0.09371280670166016,-0.3192424774169922,0.8135302066802979,5.000521659851074,8.636056900024414
4_20251106_214251,1762436538329,4,0.7100340723991394,0.2224643975496292,0.15120087563991547,0.6507683992385864,0.33519038558006287,2.2766826152801514,3.490553379058838,0.8420047760009766,5.101417064666748,8.158803939819336,0.2516457438468933,0.026656610891222954,-0.043027784675359726,25.579832077026367,-6.04107666015625,-21.79745101928711,0.022779643535614014,0.08071660995483398,-0.3818025588989258,0.8192251324653625,5.020700454711914,8.540606498718262
4_20251106_214251,1762436538349,4,0.7102636694908142,0.22410815954208374,0.15254823863506317,0.6496384739875793,0.3337797522544861,2.2761080265045166,3.4859840869903564,0.7665907144546509,5.085855484008789,8.235414505004883,0.16917899250984192,0.004665479529649019,-0.05524508282542229,25.64952278137207,-6.098960876464844,-21.809343338012695,-0.042107582092285156,0.0521240234375,-0.2441539764404297,0.808698296546936,5.033731460571289,8.479568481445312
4_20251106_214251,1762436538367,4,0.7105873227119446,0.22551016509532928,0.153556227684021,0.6485609412193298,0.33173295855522156,2.275803804397583,3.4812557697296143,0.5511218309402466,5.121767044067383,8.338360786437988,0.13741402328014374,0.0321543924510479,-0.03753000125288963,25.6444034576416,-6.1755218505859375,-21.689281463623047,-0.20606118440628052,0.07042837142944336,-0.11296558380126953,0.7571830153465271,5.0513386726379395,8.451326370239258
4_20251106_214251,1762436538386,4,0.7109193801879883,0.2263859212398529,0.15450254082679749,0.6476665735244751,0.3294169306755066,2.275770425796509,3.47627329826355,0.6217477321624756,5.144510746002197,8.272523880004883,0.1337488293647766,0.0321543887257576,0.012560906819999218,25.661739349365234,-6.2878875732421875,-21.59606170654297,-0.10834825038909912,0.07453775405883789,-0.14304161071777344,0.7300959825515747,5.069972991943359,8.415565490722656
4_20251106_214251,1762436538405,4,0.7109847068786621,0.2270083725452423,0.15554943680763245,0.6471262574195862,0.32734277844429016,2.276026964187622,3.4712836742401123,0.7342703342437744,5.186407566070557,8.21027660369873,0.1337488293647766,0.0321543887257576,0.012560906819999218,25.707775115966797,-6.323188781738281,-21.5137939453125,0.0033394694328308105,0.09314775466918945,-0.1642313003540039,0.7309308648109436,5.093259811401367,8.374507904052734
4_20251106_214251,1762436538424,4,0.710906982421875,0.22791680693626404,0.15607963502407074,0.6467645168304443,0.3253200352191925,2.2764172554016113,3.465848684310913,0.7857434749603271,5.132540702819824,8.319208145141602,0.08610138297080994,-0.026488620787858963,0.0583757609128952,25.70587158203125,-6.348976135253906,-21.446741104125977,0.043850064277648926,0.031424522399902344,-0.04423999786376953,0.7418934106826782,5.101116180419922,8.363448143005371
4_20251106_214251,1762436538443,4,0.7108141779899597,0.22894781827926636,0.15619607269763947,0.6464742422103882,0.323631227016449,2.2770824432373047,3.461186647415161,0.7917287349700928,5.215136528015137,8.452079772949219,0.06838630884885788,-0.032597269862890244,0.04554760083556175,25.61432456970215,-6.467414855957031,-21.466064453125,0.03986823558807373,0.0912160873413086,0.07090568542480469,0.751860499382019,5.123920440673828,8.381174087524414
4_20251106_214251,1762436538462,4,0.7107720375061035,0.22974944114685059,0.15605543553829193,0.6462700366973877,0.32211655378341675,2.277987480163574,3.457343101501465,0.784546434879303,5.22351598739624,8.59453010559082,0.06838630884885788,-0.032597269862890244,0.04554760083556175,25.573240280151367,-6.5455474853515625,-21.428571701049805,0.026148736476898193,0.07967662811279297,0.170684814453125,0.7583976984024048,5.143839359283447,8.423845291137695
4_20251106_214251,1762436538482,4,0.7107658982276917,0.2303035855293274,0.15608391165733337,0.6460726857185364,0.32079416513442993,2.2794294357299805,3.4539566040039062,0.8216549158096313,5.320477485656738,8.574179649353027,0.07877100259065628,0.0058872089721262455,0.03333030641078949,25.483400344848633,-6.638465881347656,-21.487916946411133,0.05060577392578125,0.1413102149963379,0.12026786804199219,0.7710491418838501,5.1791672706604,8.453911781311035
4_20251106_214251,1762436538501,4,0.7106819748878479,0.23075784742832184,0.15626470744609833,0.645959198474884,0.3199974298477173,2.2813198566436768,3.4512364864349365,0.9066454768180847,5.446167469024658,8.525100708007812,0.09098830074071884,-0.006330085452646017,0.03516290336847305,25.48965072631836,-6.738533020019531,-21.448989868164062,0.10847705602645874,0.21360015869140625,0.05695056915283203,0.798168420791626,5.232567310333252,8.46815013885498
4_20251106_214251,1762436538519,4,0.71054607629776,0.23150211572647095,0.15648198127746582,0.6457898020744324,0.3199974298477173,2.2813198566436768,3.4512364864349365,0.9066454768180847,5.446167469024658,8.525100708007812,0.09098830074071884,-0.006330085452646017,0.03516290336847305,25.557832717895508,-6.8216705322265625,-21.447895050048828,0.10847705602645874,0.21360015869140625,0.05695056915283203,0.798168420791626,5.232567310333252,8.46815013885498
4_20251106_214251,1762436538540,4,0.7105588316917419,0.23259630799293518,0.15678386390209198,0.6453091502189636,0.31961435079574585,2.284299373626709,3.448268175125122,0.9473451375961304,5.496443748474121,8.482006072998047,0.10198386758565903,-0.00022143835667520761,-0.021647518500685692,25.576763153076172,-6.9202728271484375,-21.476058959960938,0.11934137344360352,0.21110153198242188,0.011084556579589844,0.8280037641525269,5.285342216491699,8.470921516418457
4_20251106_214251,1762436538560,4,0.7107795476913452,0.2336382120847702,0.15721175074577332,0.6445851922035217,0.3188098967075348,2.2915077209472656,3.443493127822876,0.7594083547592163,5.520384311676025,8.478416442871094,0.11847720295190811,0.026656610891222954,-0.033253949135541916,25.576763153076172,-6.9202728271484375,-21.476058959960938,-0.05558431148529053,0.14525556564331055,-0.0032472610473632812,0.8149926662445068,5.375128746032715,8.481663703918457
4_20251106_214251,1762436538578,4,0.7110460996627808,0.23448440432548523,0.15808244049549103,0.6437705159187317,0.31814780831336975,2.294990062713623,3.441434621810913,0.6995559334754944,5.5383405685424805,8.42215347290039,0.09404262155294418,0.01199585571885109,-0.023480113595724106,25.62883949279785,-7.067527770996094,-21.42270851135254,-0.09234941005706787,0.1305694580078125,-0.047608375549316406,0.7919053435325623,5.407771110534668,8.469761848449707
4_20251106_214251,1762436538596,4,0.711333692073822,0.2351701855659485,0.15874525904655457,0.6430391073226929,0.31729981303215027,2.298950433731079,3.439312219619751,0.7390585541725159,5.503625869750977,8.492780685424805,0.07938187569379807,0.0022220206446945667,-0.0033215759322047234,25.62883949279785,-7.067527770996094,-21.42270851135254,-0.04227745532989502,0.07668352127075195,0.01841449737548828,0.7813360095024109,5.426942348480225,8.474366188049316
4_20251106_214251,1762436538616,4,0.711528480052948,0.23581691086292267,0.15931116044521332,0.6424465179443359,0.31655558943748474,2.3028476238250732,3.437093496322632,0.803699254989624,5.476093292236328,8.40060806274414,0.08060359954833984,-0.01121700368821621,0.01500436570495367,25.673465728759766,-7.1279449462890625,-21.34096908569336,0.017890572547912598,0.03932046890258789,-0.059006690979003906,0.7858086824417114,5.43677282333374,8.459614753723145
4_20251106_214251,1762436538635,4,0.7115355134010315,0.23648914694786072,0.15965785086154938,0.6421055197715759,0.31604406237602234,2.306940793991089,3.4342916011810303,0.8623546361923218,5.501231670379639,8.26773452758789,0.06594284623861313,-0.02771035023033619,0.009506583213806152,25.757457733154297,-7.147361755371094,-21.351579666137695,0.06123673915863037,0.05156707763671875,-0.1535043716430664,0.8011178970336914,5.44966459274292,8.421238899230957
4_20251106_214251,1762436538654,4,0.711739718914032,0.23727485537528992,0.15969796478748322,0.6415790915489197,0.31554678082466125,2.310776472091675,3.4318079948425293,0.7881375551223755,5.501231670379639,8.437715530395508,0.06594284623861313,-0.02771035023033619,0.009506583213806152,25.830488204956055,-7.1311187744140625,-21.240243911743164,-0.010384321212768555,0.04125356674194336,0.013180732727050781,0.798521876335144,5.459978103637695,8.424534797668457
4_20251106_214251,1762436538673,4,0.712023138999939,0.23797670006752014,0.15979231894016266,0.6409808993339539,0.31467148661613464,2.314424991607666,3.429859161376953,0.6516739726066589,5.461729049682617,8.574179649353027,0.047616906464099884,-0.014882192015647888,-0.014928005635738373,25.8641414642334,-7.167488098144531,-21.131433486938477,-0.11747831106185913,0.0014009475708007812,0.11971569061279297,0.7691522836685181,5.460328102111816,8.454463958740234
4_20251106_214251,1762436538692,4,0.7120822072029114,0.23811323940753937,0.16071803867816925,0.6406330466270447,0.3135797083377838,2.317594289779663,3.4279017448425293,0.6456886529922485,5.413846969604492,8.371877670288086,0.11420116573572159,0.08896481245756149,-0.05096902325749397,25.848838806152344,-7.2189178466796875,-21.092432022094727,-0.0987708568572998,-0.0371851921081543,-0.06606864929199219,0.7444595098495483,5.4510321617126465,8.437946319580078
4_20251106_214251,1762436538712,4,0.7122222781181335,0.23803187906742096,0.16207030415534973,0.6401667594909668,0.3122994005680084,2.3208658695220947,3.424680471420288,0.7234969139099121,5.3791327476501465,8.124089241027832,0.11603375524282455,0.03826303780078888,-0.021036652848124504,25.84844398498535,-7.219459533691406,-21.038366317749023,-0.016770124435424805,-0.05751991271972656,-0.2510852813720703,0.7402670383453369,5.436652660369873,8.375174522399902
4_20251106_214251,1762436538730,4,0.7123052477836609,0.23842467367649078,0.1630224734544754,0.6396863460540771,0.3122994005680084,2.3208658695220947,3.424680471420288,0.7234969139099121,5.3791327476501465,8.124089241027832,0.08243619650602341,0.004054614808410406,-0.006986764259636402,25.83515739440918,-7.2333526611328125,-20.985055923461914,-0.016770124435424805,-0.05751991271972656,-0.2510852813720703,0.7402670383453369,5.436652660369873,8.375174522399902
4_20251106_214251,1762436538751,4,0.7124770879745483,0.23906420171260834,0.16344192624092102,0.639149010181427,0.30972498655319214,2.325787305831909,3.417602300643921,0.6540679931640625,5.380329608917236,8.15281867980957,0.05250382423400879,0.046815142035484314,-0.008208494633436203,25.81007957458496,-7.24749755859375,-20.98630142211914,-0.059764087200164795,-0.035472869873046875,-0.13483810424804688,0.7138320803642273,5.415802478790283,8.287656784057617
4_20251106_214251,1762436538769,4,0.7126445174217224,0.23919570446014404,0.16401752829551697,0.6387655735015869,0.30836495757102966,2.3283560276031494,3.4132370948791504,0.7234969139099121,5.4713053703308105,8.091768264770508,0.05250382423400879,0.046815142035484314,-0.008208494633436203,25.849655151367188,-7.194618225097656,-21.010807037353516,0.0077318549156188965,0.044402122497558594,-0.15671062469482422,0.7157650589942932,5.426903247833252,8.248478889465332
4_20251106_214251,1762436538787,4,0.712774395942688,0.23904821276664734,0.16472721099853516,0.6384931802749634,0.30836495757102966,2.3283560276031494,3.4132370948791504,0.7234969139099121,5.4713053703308105,8.091768264770508,0.024404047057032585,0.05903243646025658,-0.013706276193261147,25.795087814331055,-7.2869110107421875,-20.892969131469727,0.0077318549156188965,0.044402122497558594,-0.15671062469482422,0.7157650589942932,5.426903247833252,8.248478889465332
4_20251106_214251,1762436538806,4,0.7130478024482727,0.2390809953212738,0.165201336145401,0.6380529999732971,0.30564266443252563,2.333054780960083,3.4047417640686035,0.535560131072998,5.455743789672852,8.181547164916992,0.012797616422176361,0.08163443207740784,-0.019814923405647278,25.807174682617188,-7.2862548828125,-20.878963470458984,-0.14444339275360107,0.015967845916748047,-0.026556015014648438,0.6800035238265991,5.4397759437561035,8.20810317993164
4_20251106_214251,1762436538826,4,0.7132461667060852,0.23887279629707336,0.1658019721508026,0.637753427028656,0.30304229259490967,2.335458278656006,3.4006617069244385,0.35241156816482544,5.449758529663086,8.276114463806152,0.007910698652267456,0.1457752287387848,-0.005154170095920563,25.784719467163086,-7.2504425048828125,-20.85211944580078,-0.2620735764503479,0.007986068725585938,0.054409027099609375,0.6144851446151733,5.4417724609375,8.221705436706543
4_20251106_214251,1762436538844,4,0.7133598923683167,0.2380080670118332,0.16689616441726685,0.6376640796661377,0.3001323938369751,2.3376450538635254,3.3975961208343506,0.3356528878211975,5.495246410369873,8.393424987792969,0.01646280474960804,0.17937278747558594,0.03394117206335068,25.77243423461914,-7.251373291015625,-20.839092254638672,-0.2230657935142517,0.04277944564819336,0.1373758316040039,0.5587186813354492,5.45246696472168,8.256049156188965
4_20251106_214251,1762436538864,4,0.7132109999656677,0.23681513965129852,0.16832323372364044,0.63789963722229,0.29690784215927124,2.340034008026123,3.395082712173462,0.44697850942611694,5.523975372314453,8.46045970916748,0.04883863776922226,0.16776636242866516,0.05959748849272728,25.806692123413086,-7.2753143310546875,-20.716503143310547,-0.08939212560653687,0.05720663070678711,0.1635284423828125,0.5363706350326538,5.466768741607666,8.296931266784668
4_20251106_214251,1762436538883,4,0.7128416299819946,0.2359159290790558,0.16977578401565552,0.6382606625556946,0.29690784215927124,2.340034008026123,3.395082712173462,0.44697850942611694,5.523975372314453,8.46045970916748,0.05922333151102066,0.15982511639595032,0.06326267868280411,25.912446975708008,-7.331489562988281,-20.659343719482422,-0.08939212560653687,0.05720663070678711,0.1635284423828125,0.5363706350326538,5.466768741607666,8.296931266784668
4_20251106_214251,1762436538902,4,0.7123174667358398,0.235237255692482,0.17107412219047546,0.6387494802474976,0.29141756892204285,2.3455650806427,3.390749931335449,0.686388373374939,5.591010093688965,8.325193405151367,0.03173442184925079,0.12683843076229095,0.06143008545041084,25.984758377075195,-7.33941650390625,-20.64314842224121,0.1119081974029541,0.08008956909179688,0.011575698852539062,0.5744801759719849,5.510920524597168,8.313617706298828
4_20251106_214251,1762436538921,4,0.7118774652481079,0.23487621545791626,0.17188100516796112,0.6391561031341553,0.29141756892204285,2.3455650806427,3.390749931335449,0.686388373374939,5.591010093688965,8.325193405151367,-0.006139189936220646,0.0681954100728035,0.05226711556315422,26.054054260253906,-7.3978424072265625,-20.600976943969727,0.1119081974029541,0.08008956909179688,0.011575698852539062,0.5744801759719849,5.510920524597168,8.313617706298828
4_20251106_214251,1762436538940,4,0.7117113471031189,0.2347663938999176,0.17194952070713043,0.6393630504608154,0.2882562577724457,2.3519887924194336,3.3876795768737793,0.7330732941627502,5.703533172607422,8.485597610473633,-0.018356483429670334,0.01810450293123722,0.03333030641078949,26.13815689086914,-7.405509948730469,-20.530227661132812,0.0992012619972229,0.12882614135742188,0.12807083129882812,0.6338720321655273,5.57470703125,8.357526779174805
4_20251106_214251,1762436538960,4,0.7117382884025574,0.23495081067085266,0.17162667214870453,0.639352023601532,0.2869206964969635,2.355516195297241,3.387176275253296,0.6193536520004272,5.702335834503174,8.61368179321289,-0.0006414074450731277,0.01199585571885109,-0.010651953518390656,26.18429183959961,-7.440681457519531,-20.461475372314453,-0.011614739894866943,0.10210275650024414,0.2049245834350586,0.6309683918952942,5.60023307800293,8.408757209777832
4_20251106_214251,1762436538979,4,0.7119276523590088,0.23512625694274902,0.17149585485458374,0.6391117572784424,0.2852732837200165,2.3594086170196533,3.386979341506958,0.5283778309822083,5.720292091369629,8.509538650512695,0.04456258565187454,0.046204280108213425,-0.047303833067417145,26.267282485961914,-7.473060607910156,-20.431800842285156,-0.08207249641418457,0.09604740142822266,0.08062553405761719,0.6104503273963928,5.624244689941406,8.428913116455078
4_20251106_214251,1762436538999,4,0.7122260928153992,0.2351178526878357,0.17201407253742218,0.6386429071426392,0.28304022550582886,2.363252878189087,3.3865060806274414,0.39071714878082275,5.672409534454346,8.334769248962402,0.07449495047330856,0.05353465676307678,-0.0705166906118393,26.267282485961914,-7.473060607910156,-20.431800842285156,-0.175786554813385,0.03853178024291992,-0.07531547546386719,0.5665037035942078,5.633877754211426,8.41008472442627
4_20251106_214251,1762436539017,4,0.7126670479774475,0.23524755239486694,0.17293711006641388,0.6378534436225891,0.2804723381996155,2.3663103580474854,3.3856165409088135,0.21834206581115723,5.612557411193848,8.179153442382812,0.06838630884885788,0.07247146219015121,-0.06624063849449158,26.30063819885254,-7.509834289550781,-20.28244400024414,-0.2785293161869049,-0.01705646514892578,-0.18474483489990234,0.49687138199806213,5.629613876342773,8.363898277282715
4_20251106_214251,1762436539036,4,0.7130565047264099,0.2351590394973755,0.17412911355495453,0.637126088142395,0.2764972448348999,2.369260787963867,3.384042739868164,0.13335156440734863,5.476093769073486,8.173168182373047,0.06838630884885788,0.07247146219015121,-0.06624063849449158,26.372852325439453,-7.5178985595703125,-20.252731323242188,-0.2908158600330353,-0.12281608581542969,-0.15258407592773438,0.4241674244403839,5.598909854888916,8.325752258300781
4_20251106_214251,1762436539054,4,0.7133941650390625,0.23479264974594116,0.17532475292682648,0.6365551352500916,0.2723618149757385,2.3715310096740723,3.3822505474090576,0.12497221678495407,5.496443271636963,8.144439697265625,0.04211912304162979,0.08285616338253021,-0.03142135217785835,26.339126586914062,-7.45843505859375,-20.15826988220215,-0.2393561601638794,-0.08197307586669922,-0.145050048828125,0.36432838439941406,5.578416347503662,8.28948974609375
4_20251106_214251,1762436539074,4,0.7134743332862854,0.23426370322704315,0.1760697066783905,0.6364545226097107,0.26753464341163635,2.373652696609497,3.3799760341644287,0.2123568207025528,5.488064289093018,8.163591384887695,0.017073670402169228,0.06025416776537895,0.025389065966010094,26.360382080078125,-7.507476806640625,-20.117795944213867,-0.12157724797725677,-0.0722818374633789,-0.10071849822998047,0.33393406867980957,5.5603461265563965,8.264309883117676
4_20251106_214251,1762436539095,4,0.7133296132087708,0.23389016091823578,0.17628081142902374,0.6366956233978271,0.26283761858940125,2.375586986541748,3.377441883087158,0.36917027831077576,5.506019592285156,8.185138702392578,-0.0354606956243515,0.0010002910858020186,0.1261817365884781,26.39372444152832,-7.5558624267578125,-20.063316345214844,0.02818894386291504,-0.04346132278442383,-0.06333637237548828,0.3409813344478607,5.54948091506958,8.248475074768066
4_20251106_214251,1762436539111,4,0.7127528786659241,0.23359009623527527,0.17608730494976044,0.6375047564506531,0.25985604524612427,2.376993417739868,3.3757243156433105,0.5559099912643433,5.552704811096191,8.308435440063477,-0.0354606956243515,0.0010002910858020186,0.1261817365884781,26.381637573242188,-7.5565185546875,-20.077322006225586,0.17194294929504395,0.002579212188720703,0.04796791076660156,0.3839670419692993,5.550125598907471,8.260467529296875
4_20251106_214251,1762436539131,4,0.7122664451599121,0.23337706923484802,0.17558389902114868,0.6382647752761841,0.2573912739753723,2.378944158554077,3.3742964267730713,0.7378615140914917,5.642483711242676,8.461657524108887,-0.047067128121852875,0.022991420701146126,0.10174715518951416,26.3680419921875,-7.582427978515625,-20.078340530395508,0.28311556577682495,0.07388639450073242,0.1609516143798828,0.45474594831466675,5.568597316741943,8.300705909729004
4_20251106_214251,1762436539151,4,0.7118983864784241,0.23320706188678741,0.1750561147928238,0.6388822197914124,0.2558412551879883,2.381098508834839,3.37374210357666,0.7151175737380981,5.667621612548828,8.564602851867676,-0.023854266852140427,0.039484769105911255,0.04004981741309166,26.315576553344727,-7.648658752441406,-20.054588317871094,0.20829731225967407,0.07921934127807617,0.21111774444580078,0.5068202614784241,5.588402271270752,8.353485107421875
4_20251106_214251,1762436539170,4,0.7117478251457214,0.23315942287445068,0.17471449077129364,0.6391608119010925,0.2546263039112091,2.3830761909484863,3.373781681060791,0.5738657116889954,5.600586891174316,8.550238609313965,-0.023854266852140427,0.039484769105911255,0.04004981741309166,26.351825714111328,-7.658294677734375,-20.107446670532227,0.053636372089385986,0.009747982025146484,0.15740299224853516,0.5202293395996094,5.59083890914917,8.39283561706543
