session_id,timestamp,label,quaternion_w,quaternion_x,quaternion_y,quaternion_z,position_x,position_y,position_z,accelerometer_x,accelerometer_y,accelerometer_z,gyroscope_x,gyroscope_y,gyroscope_z,magnetometer_x,magnetometer_y,magnetometer_z,linear_acceleration_x,linear_acceleration_y,linear_acceleration_z,gravity_x,gravity_y,gravity_z
0_20251106_211941,1762435143786,0,0.4415351152420044,0.33021244406700134,0.4140281677246094,0.7242838740348816,0.4695078730583191,3.551508665084839,1.9185807704925537,1.19752836227417,8.811073303222656,4.3090925216674805,-0.09980383515357971,-0.019937096163630486,-0.056569889187812805,20.589439392089844,-24.466232299804688,-1.5895767211914062,-0.22282910346984863,-0.6770877838134766,0.00858163833618164,1.4203574657440186,9.488161087036133,4.300510883331299
0_20251106_211941,1762435143805,0,0.4424247443675995,0.3298211395740509,0.4133799374103546,0.72428959608078,0.47661837935447693,3.540796995162964,1.9316964149475098,1.2513957023620605,8.84578800201416,4.371338844299316,-0.09980383515357971,-0.019937096163630486,-0.056569889187812805,20.655502319335938,-24.37409210205078,-1.6123085021972656,-0.13516950607299805,-0.5138988494873047,0.056662559509277344,1.3865652084350586,9.359686851501465,4.314676284790039
0_20251106_211941,1762435143825,0,0.4433004558086395,0.3294040262699127,0.4125860631465912,0.7243965864181519,0.48301562666893005,3.5291125774383545,1.9449489116668701,1.2561838626861572,8.809876441955566,4.603566646575928,-0.12057323753833771,-0.015050179325044155,-0.056569889187812805,20.668392181396484,-24.360740661621094,-1.6115531921386719,-0.10430514812469482,-0.4398479461669922,0.23111248016357422,1.360489010810852,9.249724388122559,4.3724541664123535
0_20251106_211941,1762435143842,0,0.44429612159729004,0.3289121985435486,0.41177040338516235,0.7244741916656494,0.48834535479545593,3.517357349395752,1.957303762435913,1.1867549419403076,8.74643325805664,4.546108245849609,-0.12057323753833771,-0.015050179325044155,-0.056569889187812805,20.757600784301758,-24.303466796875,-1.7557430267333984,-0.13898718357086182,-0.4026327133178711,0.13892316818237305,1.3257421255111694,9.149065971374512,4.407185077667236
0_20251106_211941,1762435143862,0,0.44508126378059387,0.32821404933929443,0.41135773062705994,0.7245433330535889,0.49333396553993225,3.503739595413208,1.9703561067581177,1.1161290407180786,8.751220703125,4.410841941833496,-0.08941914141178131,0.005108356010168791,-0.07550669461488724,20.800094604492188,-24.200225830078125,-1.7927093505859375,-0.16769051551818848,-0.31827640533447266,0.002925395965576172,1.283819556236267,9.069497108459473,4.40791654586792
0_20251106_211941,1762435143881,0,0.4459169805049896,0.3275480568408966,0.4109277129173279,0.724574863910675,0.49756985902786255,3.490480899810791,1.9817333221435547,1.1867549419403076,8.716506958007812,4.2612104415893555,-0.11263199150562286,-0.0003894263645634055,-0.030302703380584717,20.873804092407227,-24.19464874267578,-1.8708648681640625,-0.07765161991119385,-0.2823915481567383,-0.11736488342285156,1.2644065618515015,8.99889850616455,4.378575325012207
0_20251106_211941,1762435143900,0,0.44661563634872437,0.3270447850227356,0.41017377376556396,0.7247990369796753,0.5016206502914429,3.4771597385406494,1.9922558069229126,1.274139642715454,8.73446273803711,4.274378299713135,-0.16577723622322083,-0.05353465676307678,-0.004646388813853264,20.884876251220703,-24.21856689453125,-1.9114513397216797,0.00778651237487793,-0.2115488052368164,-0.0833578109741211,1.2663531303405762,8.946011543273926,4.357736110687256
0_20251106_211941,1762435143920,0,0.44751712679862976,0.32682791352272034,0.408748984336853,0.7251456379890442,0.5055855512619019,3.464052200317383,2.002526044845581,1.3088539838790894,8.781147003173828,4.457526683807373,-0.16577723622322083,-0.05353465676307678,-0.004646388813853264,20.932903289794922,-24.23956298828125,-2.0046310424804688,0.03400075435638428,-0.13189125061035156,0.07983255386352539,1.274853229522705,8.91303825378418,4.377694129943848
0_20251106_211941,1762435143940,0,0.4486682116985321,0.326546847820282,0.40692800283432007,0.7255849838256836,0.5096137523651123,3.4508094787597656,2.0135083198547363,1.2956864833831787,8.868532180786133,4.611946105957031,-0.2238093763589859,-0.0681954100728035,-0.044352591037750244,20.948402404785156,-24.1878662109375,-2.0706653594970703,0.016666650772094727,-0.03560447692871094,0.18740177154541016,1.279019832611084,8.904136657714844,4.424544334411621
0_20251106_211941,1762435143960,0,0.45004966855049133,0.32602056860923767,0.4051455855369568,0.7259634733200073,0.5130981802940369,3.438277244567871,2.0246312618255615,1.166405200958252,8.920005798339844,4.651448726654053,-0.21037034690380096,-0.049869466572999954,-0.07550669461488724,20.936908721923828,-24.187713623046875,-2.165769577026367,-0.09009170532226562,0.0126953125,0.18152379989624023,1.2564969062805176,8.907310485839844,4.4699249267578125
0_20251106_211941,1762435143977,0,0.451486200094223,0.32526183128356934,0.40364646911621094,0.7262468338012695,0.5156816244125366,3.427534341812134,2.0343053340911865,1.095779299736023,8.896064758300781,4.536531925201416,-0.20426170527935028,-0.06697367876768112,-0.07367410510778427,21.000125885009766,-24.169029235839844,-2.379314422607422,-0.12857401371002197,-0.008996009826660156,0.05328559875488281,1.224353313446045,8.905060768127441,4.483246326446533
0_20251106_211941,1762435143996,0,0.453035831451416,0.3246716856956482,0.40209895372390747,0.7264043092727661,0.518021285533905,3.4166057109832764,2.043787956237793,1.132887840270996,8.848182678222656,4.403659820556641,-0.21037034690380096,-0.09934951364994049,-0.04862865060567856,21.000125885009766,-24.169029235839844,-2.379314422607422,-0.07317233085632324,-0.045502662658691406,-0.06366920471191406,1.2060601711273193,8.893685340881348,4.467329025268555
0_20251106_211941,1762435144015,0,0.4546014368534088,0.3244057297706604,0.4002974331378937,0.7265400290489197,0.5200235247612,3.406019687652588,2.0522704124450684,1.1257054805755615,8.819452285766602,4.275575160980225,-0.24702224135398865,-0.13722312450408936,-0.050461240112781525,20.99929428100586,-24.20494842529297,-2.555818557739258,-0.06428372859954834,-0.059386253356933594,-0.15340328216552734,1.1899892091751099,8.878838539123535,4.428978443145752
0_20251106_211941,1762435144034,0,0.45649033784866333,0.3242957890033722,0.39806827902793884,0.7266294956207275,0.5211843848228455,3.3955209255218506,2.059648275375366,0.9198129177093506,8.717703819274902,4.181008338928223,-0.28795018792152405,-0.13294707238674164,-0.07795015722513199,21.02806854248047,-24.150978088378906,-2.7700424194335938,-0.2161409854888916,-0.1289072036743164,-0.19837617874145508,1.1359539031982422,8.846611022949219,4.379384517669678
0_20251106_211941,1762435144053,0,0.4587197005748749,0.3239159882068634,0.3956579267978668,0.7267113924026489,0.5207910537719727,3.384484052658081,2.065889835357666,0.5906244516372681,8.45914077758789,4.099609375,-0.3472040593624115,-0.13905572891235352,-0.08589139580726624,21.020084381103516,-24.099655151367188,-2.9587059020996094,-0.4362635612487793,-0.30997657775878906,-0.22382020950317383,1.0268880128860474,8.76911735534668,4.323429584503174
0_20251106_211941,1762435144073,0,0.46114829182624817,0.32322263717651367,0.392902672290802,0.7269778847694397,0.5207910537719727,3.384484052658081,2.065889835357666,0.5906244516372681,8.45914077758789,4.099609375,-0.4143991768360138,-0.13722312450408936,-0.04435259476304054,21.02579689025879,-24.022293090820312,-3.1598663330078125,-0.4362635612487793,-0.30997657775878906,-0.22382020950317383,1.0268880128860474,8.76911735534668,4.323429584503174
0_20251106_211941,1762435144092,0,0.4633130431175232,0.32221001386642456,0.38968583941459656,0.7277820110321045,0.5175163149833679,3.3704018592834473,2.07175612449646,0.2542535364627838,8.241277694702148,4.051726818084717,-0.47731825709342957,-0.10973420739173889,0.03322722390294075,21.00653076171875,-23.958938598632812,-3.3757877349853516,-0.6181075572967529,-0.422271728515625,-0.2173624038696289,0.8723611235618591,8.663549423217773,4.269089221954346
0_20251106_211941,1762435144112,0,0.46519237756729126,0.3210272192955017,0.3858913779258728,0.7291264533996582,0.5049670934677124,3.344132661819458,2.0793516635894775,-0.4723553955554962,7.81153678894043,4.081653594970703,-0.47731825709342957,-0.10973420739173889,0.03322722390294075,20.987449645996094,-23.90692901611328,-3.7136192321777344,-0.9161616563796997,-0.5772733688354492,-0.11900138854980469,0.4438062608242035,8.388810157775879,4.200654983520508
0_20251106_211941,1762435144130,0,0.46640539169311523,0.3199768662452698,0.38144785165786743,0.7311486601829529,0.4942113757133484,3.328834056854248,2.083416700363159,-0.7189475893974304,7.815128326416016,4.400068283081055,-0.5249656438827515,-0.1146211326122284,0.1486806422472,21.013107299804688,-23.903587341308594,-3.8883495330810547,-0.9302030801773071,-0.45894527435302734,0.1595306396484375,0.2112555056810379,8.274073600769043,4.240537643432617
0_20251106_211941,1762435144150,0,0.4669492244720459,0.31896764039993286,0.37644994258880615,0.7338279485702515,0.4803112745285034,3.3117034435272217,2.0888619422912598,-0.8230909109115601,7.671482086181641,4.694542407989502,-0.5469567775726318,-0.010163260623812675,0.3484334349632263,20.953449249267578,-23.91741943359375,-4.16139030456543,-0.8274771571159363,-0.4820728302001953,0.3632040023803711,0.004386231303215027,8.153554916381836,4.331338405609131
0_20251106_211941,1762435144169,0,0.46638983488082886,0.31758061051368713,0.3717922866344452,0.7371523380279541,0.4651283323764801,3.2943687438964844,2.094733238220215,-0.9571603536605835,7.4703779220581055,4.680177688598633,-0.5469567775726318,-0.010163260623812675,0.3484334349632263,20.92058563232422,-23.879974365234375,-4.378330230712891,-0.7692372798919678,-0.5465412139892578,0.2790713310241699,-0.18792307376861572,8.016919136047363,4.401106357574463
0_20251106_211941,1762435144187,0,0.4651586711406708,0.31581395864486694,0.3676367402076721,0.7407646179199219,0.4651283323764801,3.2943687438964844,2.094733238220215,-0.9571603536605835,7.4703779220581055,4.680177688598633,-0.5457351207733154,0.2042502611875534,0.4577782154083252,20.805543899536133,-24.010398864746094,-4.61515998840332,-0.7692372798919678,-0.5465412139892578,0.2790713310241699,-0.18792307376861572,8.016919136047363,4.401106357574463
0_20251106_211941,1762435144207,0,0.46315938234329224,0.313236266374588,0.3635430932044983,0.7451193332672119,0.44725754857063293,3.2752270698547363,2.1016385555267334,-1.0720772743225098,7.4224958419799805,4.741227626800537,-0.6159845590591431,0.3032103180885315,0.5530731081962585,20.727256774902344,-24.13817596435547,-4.877552032470703,-0.7073233723640442,-0.4755387306213379,0.272097110748291,-0.3647539019584656,7.898034572601318,4.469130516052246
0_20251106_211941,1762435144225,0,0.4602539837360382,0.3098919093608856,0.359142541885376,0.7504331469535828,0.4120749831199646,3.241894483566284,2.119009494781494,-1.0636978149414062,7.927650451660156,5.713231086730957,-0.6159845590591431,0.3032103180885315,0.5530731081962585,20.526405334472656,-24.286453247070312,-5.145111083984375,-0.43200188875198364,0.06836891174316406,0.8854761123657227,-0.6316959261894226,7.859281539916992,4.827754974365234
0_20251106_211941,1762435144245,0,0.4565229117870331,0.3064010441303253,0.35451406240463257,0.7563233375549316,0.3934648334980011,3.227421998977661,2.1331467628479004,-0.9224460124969482,8.463930130004883,6.393156051635742,-0.603156328201294,0.42782673239707947,0.6538657546043396,20.349319458007812,-24.44556427001953,-5.425470352172852,-0.23260009288787842,0.4837188720703125,1.2523207664489746,-0.6898459196090698,7.98021125793457,5.140835285186768
0_20251106_211941,1762435144263,0,0.45232078433036804,0.30239951610565186,0.350406676530838,0.7623487710952759,0.3749368488788605,3.215250015258789,2.1511330604553223,-0.9990571737289429,8.55490493774414,6.80134916305542,-0.5267982482910156,0.576266884803772,0.5885032415390015,20.143840789794922,-24.669723510742188,-5.6405487060546875,-0.24736905097961426,0.45975494384765625,1.3284106254577637,-0.7516881227493286,8.095149993896484,5.472938537597656
0_20251106_211941,1762435144282,0,0.447857528924942,0.29739290475845337,0.3476261794567108,0.768203854560852,0.3562788963317871,3.2051515579223633,2.171611785888672,-1.1367179155349731,8.629121780395508,6.709176540374756,-0.42661646008491516,0.6581227779388428,0.5909467339515686,19.8404541015625,-24.92400360107422,-5.995241165161133,-0.3080238699913025,0.42717742919921875,0.988990306854248,-0.8286940455436707,8.201944351196289,5.720186233520508
0_20251106_211941,1762435144302,0,0.442760705947876,0.2921351194381714,0.34589532017707825,0.7739356756210327,0.3562788963317871,3.2051515579223633,2.171611785888672,-1.1367179155349731,8.629121780395508,6.709176540374756,-0.4394446313381195,0.6623988151550293,0.6715808510780334,19.461172103881836,-25.19843292236328,-6.06929874420166,-0.3080238699913025,0.42717742919921875,0.988990306854248,-0.8286940455436707,8.201944351196289,5.720186233520508
0_20251106_211941,1762435144321,0,0.43706366419792175,0.2870390713214874,0.3438875079154968,0.7799521088600159,0.33614110946655273,3.1966300010681152,2.196702003479004,-0.9918748140335083,8.823043823242188,6.790575981140137,-0.4767073690891266,0.7185983657836914,0.684408962726593,19.046234130859375,-25.462417602539062,-6.171595573425293,-0.13054466247558594,0.49687957763671875,0.8563117980957031,-0.8613301515579224,8.326164245605469,5.934264183044434
0_20251106_211941,1762435144339,0,0.4308784604072571,0.2813165485858917,0.3418733775615692,0.7863379120826721,0.3059087097644806,3.189425230026245,2.2458126544952393,-0.5393902063369751,9.567608833312988,7.541126251220703,-0.44738587737083435,0.8700928688049316,0.5793402791023254,18.631900787353516,-25.71398162841797,-6.260112762451172,0.22021466493606567,0.8682622909545898,1.0892982482910156,-0.7596048712730408,8.699346542358398,6.4518280029296875
0_20251106_211941,1762435144360,0,0.42494556307792664,0.27431660890579224,0.340860515832901,0.7924555540084839,0.2911264896392822,3.191892623901367,2.278197765350342,-0.42088228464126587,10.143390655517578,7.647663116455078,-0.3746929466724396,1.0490761995315552,0.4889323115348816,18.177597045898438,-26.018966674804688,-6.270059585571289,0.27097803354263306,1.1552352905273438,0.9566683769226074,-0.6918603181838989,8.988155364990234,6.690994739532471
0_20251106_211941,1762435144380,0,0.4188137650489807,0.26593735814094543,0.3413408696651459,0.798347532749176,0.2799065113067627,3.1981911659240723,2.3086647987365723,-0.15034912526607513,10.510883331298828,7.650057315826416,-0.30444350838661194,1.132153868675232,0.45105868577957153,17.762065887451172,-26.283767700195312,-6.291259765625,0.4332089424133301,1.2181825637817383,0.767249584197998,-0.5835580825805664,9.29270076751709,6.882807731628418
0_20251106_211941,1762435144399,0,0.41237789392471313,0.257096529006958,0.34280794858932495,0.8039456009864807,0.27097511291503906,3.2087388038635254,2.342072010040283,0.16926303505897522,10.690441131591797,7.849964618682861,-0.25740694999694824,1.0863388776779175,0.44006311893463135,17.30807113647461,-26.576736450195312,-6.246877670288086,0.6022568941116333,1.1181926727294922,0.7737259864807129,-0.4329938590526581,9.572248458862305,7.076238632202148
0_20251106_211941,1762435144416,0,0.4060863256454468,0.24888034164905548,0.34441572427749634,0.8090304732322693,0.26574838161468506,3.2203009128570557,2.3717494010925293,0.47091948986053467,10.958580017089844,8.30604076385498,-0.22258765995502472,1.0527414083480835,0.4009677767753601,17.30807113647461,-26.576736450195312,-6.246877670288086,0.7231307029724121,1.109065055847168,0.9838414192199707,-0.25221121311187744,9.849514961242676,7.32219934463501
0_20251106_211941,1762435144436,0,0.3999950885772705,0.24096441268920898,0.34618473052978516,0.8136929273605347,0.26263928413391113,3.2368154525756836,2.406931161880493,0.6373093128204346,11.394306182861328,8.660367012023926,-0.15783599019050598,1.1223798990249634,0.2726861834526062,16.865585327148438,-26.858238220214844,-6.012513160705566,0.7116164565086365,1.2358331680297852,1.0705342292785645,-0.07430712878704071,10.158473014831543,7.589832782745361
0_20251106_211941,1762435144455,0,0.39427095651626587,0.23229336738586426,0.34895506501197815,0.8178145289421082,0.2617371678352356,3.2577309608459473,2.445443868637085,0.6516739130020142,11.606184005737305,8.685504913330078,-0.15783599019050598,1.1223798990249634,0.2726861834526062,16.463478088378906,-27.07416534423828,-5.815906524658203,0.5807848572731018,1.1581687927246094,0.8765373229980469,0.07088907063007355,10.448015213012695,7.808967590332031
0_20251106_211941,1762435144475,0,0.3889770209789276,0.22314013540744781,0.3532801866531372,0.8210350275039673,0.2617371678352356,3.2577309608459473,2.445443868637085,0.6516739130020142,11.606184005737305,8.685504913330078,-0.021002288907766342,1.2097336053848267,0.1499023735523224,16.188461303710938,-27.19384765625,-5.653095245361328,0.5807848572731018,1.1581687927246094,0.8765373229980469,0.07088907063007355,10.448015213012695,7.808967590332031
0_20251106_211941,1762435144493,0,0.38379353284835815,0.21459822356700897,0.3590486943721771,0.8232461214065552,0.26296964287757874,3.301593542098999,2.5219202041625977,0.25664764642715454,11.22911262512207,8.988358497619629,0.27709969878196716,1.2353898286819458,0.11569395661354065,15.906915664672852,-27.415199279785156,-5.370750427246094,0.08096297085285187,0.4771099090576172,0.775303840637207,0.17568467557430267,10.752002716064453,8.213054656982422
0_20251106_211941,1762435144512,0,0.3781052231788635,0.20627106726169586,0.3656579852104187,0.8250957131385803,0.26400619745254517,3.3232614994049072,2.5605804920196533,0.29854434728622437,10.998083114624023,8.996737480163574,0.27709969878196716,1.2353898286819458,0.11569395661354065,15.605451583862305,-27.53929901123047,-4.925079345703125,0.09828774631023407,0.19686412811279297,0.6269464492797852,0.2002566009759903,10.80121898651123,8.369791030883789
0_20251106_211941,1762435144531,0,0.3708258271217346,0.19921404123306274,0.3731074631214142,0.8267967104911804,0.26568424701690674,3.344097137451172,2.5971786975860596,0.4529637396335602,10.892742156982422,8.322799682617188,0.4450874626636505,1.184077262878418,0.25252765417099,15.36380386352539,-27.68414306640625,-4.518032073974609,0.20216569304466248,0.07321929931640625,-0.03759288787841797,0.2507980465888977,10.819522857666016,8.360392570495605
0_20251106_211941,1762435144550,0,0.36226680874824524,0.1946069300174713,0.38192659616470337,0.8276611566543579,0.26806625723838806,3.364351272583008,2.6299259662628174,0.5379542112350464,10.987309455871582,7.623722553253174,0.9136207103729248,0.9391205310821533,0.3808092474937439,15.087034225463867,-27.78302764892578,-3.9221725463867188,0.2297249436378479,0.13422870635986328,-0.5893359184265137,0.3082292675971985,10.853080749511719,8.213058471679688
0_20251106_211941,1762435144571,0,0.35379356145858765,0.19156910479068756,0.3917885422706604,0.8274255990982056,0.2715469002723694,3.3856067657470703,2.6609690189361572,0.669629693031311,11.182428359985352,7.652451515197754,0.9490509033203125,0.9934874773025513,0.2995642423629761,14.822265625,-27.869773864746094,-3.2039127349853516,0.2891203463077545,0.26347827911376953,-0.4484853744506836,0.3805093467235565,10.918950080871582,8.100936889648438
0_20251106_211941,1762435144589,0,0.34559357166290283,0.18794819712638855,0.40224775671958923,0.8267026543617249,0.2758886516094208,3.405489683151245,2.68928861618042,0.8180637955665588,11.174049377441406,8.21147346496582,0.9490509033203125,0.9934874773025513,0.2995642423629761,14.54923152923584,-27.89398956298828,-2.538888931274414,0.35004356503486633,0.20407962799072266,0.08842945098876953,0.4680202305316925,10.969969749450684,8.12304401397705
0_20251106_211941,1762435144609,0,0.33766788244247437,0.18207719922065735,0.413762629032135,0.8256081342697144,0.2818986177444458,3.4258618354797363,2.7172765731811523,1.0167739391326904,11.13095474243164,8.013960838317871,1.1255906820297241,1.4834009408950806,0.03200549632310867,14.308255195617676,-27.968338012695312,-1.6436729431152344,0.43900299072265625,0.12878799438476562,-0.08726692199707031,0.5777709484100342,11.002166748046875,8.101227760314941
0_20251106_211941,1762435144627,0,0.3290376663208008,0.17400260269641876,0.4272746443748474,0.8239500522613525,0.2889346480369568,3.4453835487365723,2.74063777923584,1.3483567237854004,11.856367111206055,7.870314598083496,1.1274234056472778,1.5579265356063843,0.13646334409713745,13.921764373779297,-28.028045654296875,-0.6592006683349609,0.6164686679840088,0.6833600997924805,-0.18473052978515625,0.7318880558013916,11.173007011413574,8.055045127868652
0_20251106_211941,1762435144646,0,0.3191254436969757,0.1657683402299881,0.4406575858592987,0.8224965929985046,0.29849570989608765,3.466174840927124,2.765040636062622,1.9001964330673218,12.085002899169922,8.952447891235352,1.030295968055725,1.4217036962509155,0.3814201354980469,13.563690185546875,-27.999481201171875,0.44974708557128906,0.934646725654602,0.7295961380004883,0.7179222106933594,0.9655497074127197,11.355406761169434,8.234525680541992
0_20251106_211941,1762435144666,0,0.30777040123939514,0.15933650732040405,0.45236527919769287,0.8217389583587646,0.31320932507514954,3.4876298904418945,2.794663429260254,2.833894968032837,11.576257705688477,10.112387657165527,1.25937020778656,1.213398814201355,0.6740242838859558,13.155448913574219,-28.010826110839844,1.4613265991210938,1.4946762323379517,0.1766805648803711,1.5022897720336914,1.3392187356948853,11.399577140808105,8.610097885131836
0_20251106_211941,1762435144683,0,0.29449155926704407,0.1564008742570877,0.4644160568714142,0.820445716381073,0.33499592542648315,3.50793194770813,2.8274028301239014,4.18536376953125,11.370365142822266,10.28596019744873,1.6264997720718384,0.9287358522415161,0.870722770690918,12.614978790283203,-27.993637084960938,2.508852005004883,2.276916027069092,-0.023369789123535156,1.3406896591186523,1.9084477424621582,11.3937349319458,8.945270538330078
0_20251106_211941,1762435144703,0,0.28017517924308777,0.15752534568309784,0.47770869731903076,0.8176075220108032,0.3672269582748413,3.527143955230713,2.8627259731292725,5.344107627868652,11.035191535949707,9.795169830322266,1.6264997720718384,0.9287358522415161,0.870722770690918,11.984891891479492,-28.045875549316406,3.6597557067871094,2.748528003692627,-0.286834716796875,0.6799192428588867,2.5955796241760254,11.322026252746582,9.115250587463379
0_20251106_211941,1762435144721,0,0.26681971549987793,0.1610642373561859,0.4918369948863983,0.8129956722259521,0.40353620052337646,3.541257619857788,2.8924999237060547,6.149722099304199,10.38279914855957,8.941673278808594,1.8604611158370972,0.6904985904693604,0.8230753540992737,11.355819702148438,-28.07353973388672,4.865251541137695,2.8433141708374023,-0.7513818740844727,-0.13886165618896484,3.306407928466797,11.134181022644043,9.080534934997559
0_20251106_211941,1762435144741,0,0.25665906071662903,0.16548164188861847,0.5066702961921692,0.8062426447868347,0.4503352642059326,3.5513346195220947,2.919368267059326,6.0934600830078125,9.548456192016602,7.580628395080566,2.121300220489502,0.2977125346660614,0.0668247789144516,10.653631210327148,-28.10596466064453,6.067804336547852,2.229641914367676,-1.2685794830322266,-1.199925422668457,3.8638181686401367,10.817035675048828,8.780553817749023
0_20251106_211941,1762435144760,0,0.2505762279033661,0.16950345039367676,0.5223929286003113,0.7972363233566284,0.4967181384563446,3.554032325744629,2.9355921745300293,5.37523078918457,8.485475540161133,5.855680465698242,2.121300220489502,0.2977125346660614,0.0668247789144516,10.01489543914795,-28.0845947265625,7.314414978027344,1.2091302871704102,-1.8652477264404297,-2.3398990631103516,4.16610050201416,10.350723266601562,8.195579528808594
0_20251106_211941,1762435144783,0,0.24839487671852112,0.1731456071138382,0.5379368662834167,0.7867302298545837,0.5414226055145264,3.549234628677368,2.941159725189209,4.399635314941406,7.667891502380371,4.6071577072143555,1.8781760931015015,-0.2991022765636444,-0.39926499128341675,9.563179969787598,-27.975967407226562,8.569965362548828,0.1868276596069336,-2.1462650299072266,-2.8707375526428223,4.212807655334473,9.814156532287598,7.477895259857178
0_20251106_211941,1762435144801,0,0.2490675449371338,0.1785084456205368,0.5511037707328796,0.7761344909667969,0.5888453722000122,3.534679651260376,2.937622547149658,3.7364702224731445,7.292017459869385,4.851356506347656,1.5831284523010254,-0.650349497795105,-0.2667073607444763,9.170365333557129,-27.912521362304688,9.718782424926758,-0.3810701370239258,-2.0177111625671387,-2.101231098175049,4.11754035949707,9.309728622436523,6.952587604522705
0_20251106_211941,1762435144819,0,0.25104206800460815,0.18619854748249054,0.5610701441764832,0.7664908766746521,0.6239656805992126,3.5180530548095703,2.930368185043335,3.4108729362487793,7.151962757110596,5.123085975646973,1.4951640367507935,-0.9227951765060425,-0.12498674541711807,8.887521743774414,-27.841522216796875,10.831462860107422,-0.5653338432312012,-1.726212978363037,-1.4636015892028809,3.9762067794799805,8.878175735473633,6.5866875648498535
0_20251106_211941,1762435144838,0,0.25348159670829773,0.1960853636264801,0.5693217515945435,0.7570801377296448,0.6239656805992126,3.5180530548095703,2.930368185043335,3.4108729362487793,7.151962757110596,5.123085975646973,1.6100064516067505,-1.0419137477874756,-0.1445344239473343,8.887521743774414,-27.841522216796875,10.831462860107422,-0.5653338432312012,-1.726212978363037,-1.4636015892028809,3.9762067794799805,8.878175735473633,6.5866875648498535
0_20251106_211941,1762435144855,0,0.2563689053058624,0.20674175024032593,0.5779560208320618,0.7466590404510498,0.6599166989326477,3.493246078491211,2.915452718734741,3.0888664722442627,6.974799633026123,4.535334587097168,1.5531960725784302,-1.0070945024490356,-0.18851667642593384,8.82593059539795,-27.730438232421875,11.885917663574219,-0.7098722457885742,-1.5227007865905762,-1.6410822868347168,3.798738718032837,8.4975004196167,6.176416873931885
0_20251106_211941,1762435144875,0,0.25948309898376465,0.21667632460594177,0.5862594842910767,0.7362198829650879,0.706403374671936,3.446938991546631,2.8782596588134766,2.5226621627807617,6.849109649658203,3.710568428039551,1.451792597770691,-0.8775911331176758,-0.19890138506889343,9.103928565979004,-27.634109497070312,12.885734558105469,-0.8283722400665283,-1.090402603149414,-1.5810155868530273,3.35103440284729,7.939512252807617,5.291584014892578
0_20251106_211941,1762435144894,0,0.2616695463657379,0.22489719092845917,0.5943254232406616,0.7264485955238342,0.7275694608688354,3.416712522506714,2.8483924865722656,2.4161248207092285,6.855094909667969,2.946850538253784,1.451792597770691,-0.8775911331176758,-0.19890138506889343,9.554520606994629,-27.512351989746094,13.716968536376953,-0.7479276657104492,-0.8675336837768555,-1.8757870197296143,3.1640524864196777,7.722628593444824,4.822637557983398
0_20251106_211941,1762435144913,0,0.2636571228504181,0.23231227695941925,0.6029917597770691,0.7161821722984314,0.7432733178138733,3.3881402015686035,2.813870429992676,1.9253344535827637,7.251317977905273,2.0646252632141113,1.5171550512313843,-0.7829071283340454,-0.253879189491272,10.190619468688965,-27.330467224121094,14.329694747924805,-0.9909744262695312,-0.3770484924316406,-2.2064099311828613,2.916308879852295,7.628366470336914,4.271035194396973
0_20251106_211941,1762435144933,0,0.26616334915161133,0.23955121636390686,0.6120114326477051,0.7051342129707336,0.7432733178138733,3.3881402015686035,2.813870429992676,1.9253344535827637,7.251317977905273,2.0646252632141113,1.5599156618118286,-0.9643339514732361,-0.304580956697464,10.895089149475098,-27.241180419921875,15.062040328979492,-0.9909744262695312,-0.3770484924316406,-2.2064099311828613,2.916308879852295,7.628366470336914,4.271035194396973
0_20251106_211941,1762435144952,0,0.27010390162467957,0.2484797239303589,0.6203046441078186,0.6931982636451721,0.7579492926597595,3.3288004398345947,2.724757432937622,0.6432945728302002,6.846714973449707,1.0902268886566162,1.5733546018600464,-1.0761221647262573,-0.18668408691883087,11.706018447875977,-27.195510864257812,15.851812362670898,-1.5413000583648682,-0.5412435531616211,-2.1061997413635254,2.1845946311950684,7.387958526611328,3.1964266300201416
0_20251106_211941,1762435144971,0,0.2735256552696228,0.2583598494529724,0.6281622052192688,0.6810625195503235,0.7570757865905762,3.300072193145752,2.6738011837005615,0.4062788188457489,6.970011234283447,0.5132491588592529,1.5733546018600464,-1.0761221647262573,-0.18668408691883087,17.161964416503906,-32.31069564819336,18.5639591217041,-1.4226527214050293,-0.33435773849487305,-2.1465420722961426,1.8289315700531006,7.30436897277832,2.6597912311553955
0_20251106_211941,1762435144990,0,0.27635976672172546,0.2686765193939209,0.6351433396339417,0.6693512201309204,0.7515841126441956,3.2717840671539307,2.6178877353668213,0.12976041436195374,6.941281795501709,-0.07569912075996399,1.5055485963821411,-1.10055673122406,-0.06634372472763062,18.26325035095215,-32.059078216552734,19.436552047729492,-1.3593369722366333,-0.2904696464538574,-2.188392400741577,1.4890973567962646,7.231751441955566,2.1126933097839355
0_20251106_211941,1762435145009,0,0.27906525135040283,0.27902141213417053,0.6410129070281982,0.6583099961280823,0.7417311072349548,3.24411678314209,2.5572354793548584,-0.2006251960992813,6.942479133605957,-0.6335241198539734,1.2062249183654785,-1.120104432106018,0.11997001618146896,19.429203033447266,-31.728816986083984,20.380762100219727,-1.3517780303955078,-0.23141813278198242,-2.196974039077759,1.1511528491973877,7.1738972663879395,1.5634498596191406
0_20251106_211941,1762435145029,0,0.2816838324069977,0.28976568579673767,0.645322859287262,0.6482657790184021,0.7417311072349548,3.24411678314209,2.5572354793548584,-0.2006251960992813,6.942479133605957,-0.6335241198539734,1.2062249183654785,-1.120104432106018,0.11997001618146896,20.609832763671875,-31.158222198486328,21.15427589416504,-1.3517780303955078,-0.23141813278198242,-2.196974039077759,1.1511528491973877,7.1738972663879395,1.5634498596191406
0_20251106_211941,1762435145048,0,0.28464120626449585,0.3017149865627289,0.6475472450256348,0.6392417550086975,0.7110077142715454,3.190119504928589,2.424513578414917,-0.3203301429748535,7.163932800292969,-0.43002569675445557,0.9075120687484741,-1.2966443300247192,0.41379594802856445,21.760643005371094,-30.476459503173828,21.8746280670166,-0.9386847019195557,0.028288841247558594,-1.2434561252593994,0.6183545589447021,7.13564395904541,0.8134304881095886
0_20251106_211941,1762435145066,0,0.2874433994293213,0.31446993350982666,0.6484342813491821,0.6308866143226624,0.6957734823226929,3.1688432693481445,2.3665175437927246,-0.034235358238220215,7.329125881195068,-0.3965083360671997,0.8280996680259705,-1.2392231225967407,0.4260132312774658,22.895923614501953,-29.656673431396484,22.448225021362305,-0.5220719575881958,0.1547856330871582,-0.9679510593414307,0.4878365695476532,7.17434024810791,0.571442723274231
0_20251106_211941,1762435145085,0,0.2900242209434509,0.32664021849632263,0.6487678289413452,0.6231311559677124,0.6777421832084656,3.145490884780884,2.2988176345825195,0.15729254484176636,7.314761161804199,-0.3761585056781769,0.7438003420829773,-1.1323217153549194,0.32216623425483704,23.902175903320312,-28.76919937133789,22.909879684448242,-0.26443520188331604,0.11233663558959961,-0.7580809593200684,0.4217277467250824,7.2024245262146,0.38192248344421387
0_20251106_211941,1762435145105,0,0.29271066188812256,0.3372268080711365,0.6490697860717773,0.6158789992332458,0.6610291600227356,3.1246447563171387,2.236006498336792,0.2614358365535736,7.286032199859619,-0.24208897352218628,0.7150896787643433,-1.0333616733551025,0.15295669436454773,24.729419708251953,-27.865291595458984,23.040315628051758,-0.12823352217674255,0.06688642501831055,-0.4992091655731201,0.38966935873031616,7.219145774841309,0.25712019205093384
0_20251106_211941,1762435145124,0,0.2958375811576843,0.34609851241111755,0.6498743891716003,0.608571469783783,0.6442219018936157,3.1045844554901123,2.1736459732055664,0.05075513571500778,7.125627517700195,-0.7233028411865234,0.7602936625480652,-0.9777729511260986,-0.009533307515084743,25.352012634277344,-26.93667221069336,23.109140396118164,-0.27113136649131775,-0.0748147964477539,-0.7843384146690369,0.32188650965690613,7.200442314147949,0.06103558838367462
0_20251106_211941,1762435145143,0,0.29935717582702637,0.35369545221328735,0.651511549949646,0.6006808876991272,0.6265587210655212,3.085118293762207,2.1107177734375,-0.2963891625404358,7.051410675048828,-1.282325029373169,0.7095918655395508,-0.9515057802200317,-0.07856102287769318,25.87527084350586,-26.074909210205078,22.94294548034668,-0.49462053179740906,-0.11922550201416016,-1.0746885538101196,0.19823136925697327,7.170636177062988,-0.2076365202665329
0_20251106_211941,1762435145161,0,0.3032110333442688,0.3604893386363983,0.6531724333763123,0.5928543210029602,0.6077057123184204,3.0664098262786865,2.04758358001709,-0.557345986366272,7.092110633850098,-1.429561972618103,0.5971928238868713,-0.9637230634689331,-0.029691841453313828,26.235980987548828,-25.29867935180664,22.755273818969727,-0.6044619083404541,-0.0628204345703125,-0.9775403738021851,0.047115907073020935,7.15493106842041,-0.45202159881591797
0_20251106_211941,1762435145180,0,0.307335764169693,0.36739403009414673,0.6539439558982849,0.5855967998504639,0.6077057123184204,3.0664098262786865,2.04758358001709,-0.557345986366272,7.092110633850098,-1.429561972618103,0.5196129679679871,-0.9875468015670776,0.09003764390945435,26.51258087158203,-24.739337921142578,22.42500877380371,-0.6044619083404541,-0.0628204345703125,-0.9775403738021851,0.047115907073020935,7.15493106842041,-0.45202159881591797
0_20251106_211941,1762435145200,0,0.3110928237438202,0.3747428357601166,0.653822660446167,0.5790552496910095,0.5672099590301514,3.033278226852417,1.9203089475631714,-0.40412360429763794,7.648737907409668,-1.368512511253357,0.5049521923065186,-1.0345834493637085,0.19938242435455322,26.731287002563477,-24.334796905517578,22.184228897094727,-0.25738272070884705,0.361236572265625,-0.5911508798599243,-0.1467408835887909,7.287501335144043,-0.7773616313934326
0_20251106_211941,1762435145220,0,0.3146817684173584,0.3830333352088928,0.6529248952865601,0.5726691484451294,0.5470117330551147,3.019732713699341,1.8560512065887451,-0.31913310289382935,7.787596225738525,-1.7036863565444946,0.4927349388599396,-1.1139957904815674,0.24947331845760345,26.94766616821289,-23.979808807373047,21.87481117248535,-0.137913778424263,0.40007543563842773,-0.7410597801208496,-0.18121932446956635,7.387520790100098,-0.962626576423645
0_20251106_211941,1762435145240,0,0.3183780014514923,0.39188963174819946,0.6514929533004761,0.5662286281585693,0.5277316570281982,3.0087430477142334,1.791967511177063,-0.2113986611366272,8.005459785461426,-1.9622490406036377,0.4255398213863373,-1.1359869241714478,0.2360343039035797,27.1928653717041,-23.748950958251953,21.658838272094727,-0.024143457412719727,0.4943513870239258,-0.799697995185852,-0.18725520372390747,7.5111083984375,-1.1625510454177856
0_20251106_211941,1762435145260,0,0.3224962651729584,0.4005957841873169,0.6495946645736694,0.5599517822265625,0.5113734602928162,3.001044750213623,1.734976887702942,-0.13598455488681793,8.200578689575195,-2.0556187629699707,0.338797003030777,-1.0981134176254272,0.15723276138305664,27.540576934814453,-23.648265838623047,21.363279342651367,0.04101651906967163,0.5515761375427246,-0.714454174041748,-0.17700107395648956,7.649002552032471,-1.3411645889282227
0_20251106_211941,1762435145276,0,0.327031672000885,0.40828701853752136,0.6476017832756042,0.5540432333946228,0.495671808719635,2.9954402446746826,1.6794332265853882,-0.24252192676067352,8.343027114868164,-1.910775899887085,0.2398369461297989,-1.0174791812896729,0.07598775625228882,27.540576934814453,-23.648265838623047,21.363279342651367,-0.05241668224334717,0.5552196502685547,-0.45568907260894775,-0.19010524451732635,7.787807464599609,-1.4550868272781372
0_20251106_211941,1762435145296,0,0.33196115493774414,0.4148557484149933,0.6454832553863525,0.5486783385276794,0.495671808719635,2.9954402446746826,1.6794332265853882,-0.24252192676067352,8.343027114868164,-1.910775899887085,0.1824156492948532,-0.916075587272644,0.03933586925268173,27.945707321166992,-23.594783782958984,21.163732528686523,-0.05241668224334717,0.5552196502685547,-0.45568907260894775,-0.19010524451732635,7.787807464599609,-1.4550868272781372
0_20251106_211941,1762435145314,0,0.33652621507644653,0.42022377252578735,0.6435789465904236,0.5440296530723572,0.46314072608947754,2.9881932735443115,1.568010926246643,-0.5034786462783813,8.30711555480957,-1.8545145988464355,0.14026598632335663,-0.8494913578033447,0.06193786859512329,28.449129104614258,-23.522258758544922,20.95485496520996,-0.21990329027175903,0.33963489532470703,-0.27172207832336426,-0.2835753560066223,7.967480659484863,-1.5827925205230713
0_20251106_211941,1762435145333,0,0.34082287549972534,0.4252765476703644,0.6414638161659241,0.5399109125137329,0.44681137800216675,2.9862215518951416,1.5152533054351807,-0.6303659677505493,8.264022827148438,-1.9035935401916504,0.08101211488246918,-0.8238350749015808,0.12974384427070618,28.977405548095703,-23.45907974243164,20.584501266479492,-0.27743250131607056,0.23723316192626953,-0.25664079189300537,-0.35293346643447876,8.026789665222168,-1.646952748298645
0_20251106_211941,1762435145352,0,0.34488585591316223,0.43043357133865356,0.6387965679168701,0.5363950133323669,0.43094131350517273,2.984943389892578,1.4650074243545532,-0.4831288754940033,8.243671417236328,-1.6929128170013428,0.0003779744729399681,-0.8281111121177673,0.20976711809635162,29.434383392333984,-23.363399505615234,20.25254249572754,-0.10415631532669067,0.17350482940673828,-0.03676807880401611,-0.3789725601673126,8.07016658782959,-1.6561447381973267
0_20251106_211941,1762435145371,0,0.3489494323730469,0.4358651340007782,0.6353030204772949,0.5335222482681274,0.43094131350517273,2.984943389892578,1.4650074243545532,-0.4831288754940033,8.243671417236328,-1.6929128170013428,-0.0436042845249176,-0.8177263736724854,0.2684101462364197,29.929006576538086,-23.263858795166016,19.773378372192383,-0.10415631532669067,0.17350482940673828,-0.03676807880401611,-0.3789725601673126,8.07016658782959,-1.6561447381973267
0_20251106_211941,1762435145390,0,0.3526843786239624,0.4412733018398285,0.6313994526863098,0.5312497615814209,0.40401017665863037,2.9830846786499023,1.3718161582946777,0.14412499964237213,8.11319351196289,-1.7659327983856201,-0.0796453058719635,-0.8635412454605103,0.31055980920791626,30.35625648498535,-23.281436920166016,19.30290412902832,0.3805575966835022,0.021791458129882812,-0.0966951847076416,-0.23643259704113007,8.091402053833008,-1.6692376136779785
0_20251106_211941,1762435145410,0,0.35660627484321594,0.4471026360988617,0.6268644332885742,0.5291240215301514,0.39352065324783325,2.982008218765259,1.3258421421051025,0.4038847088813782,8.022217750549316,-1.822194218635559,-0.12790361046791077,-0.9398993253707886,0.33682698011398315,30.735862731933594,-23.28909683227539,18.77666664123535,0.5122538805007935,-0.055347442626953125,-0.12236535549163818,-0.10836914926767349,8.07756519317627,-1.699828863143921
0_20251106_211941,1762435145429,0,0.36097073554992676,0.4533301591873169,0.6216579675674438,0.527004063129425,0.3858862519264221,2.9808061122894287,1.2844287157058716,0.5595011711120605,7.993488311767578,-1.6713659763336182,-0.17310760915279388,-0.9899902939796448,0.29528820514678955,31.0428466796875,-23.300846099853516,18.179903030395508,0.5342962741851807,-0.0672616958618164,0.022770404815673828,0.02520490437746048,8.060750007629395,-1.694136381149292
0_20251106_211941,1762435145448,0,0.36593353748321533,0.4593817889690399,0.6161801815032959,0.5247694849967957,0.3797316253185272,2.9797849655151367,1.2449612617492676,0.42543160915374756,8.104814529418945,-1.7395977973937988,-0.22564198076725006,-0.9441753625869751,0.16883918642997742,31.410734176635742,-23.331851959228516,17.395837783813477,0.32018136978149414,0.035251617431640625,-0.03636908531188965,0.10525023937225342,8.069562911987305,-1.7032287120819092
0_20251106_211941,1762435145467,0,0.3715669512748718,0.464385062456131,0.6109611392021179,0.5225045084953308,0.3740866184234619,2.9791676998138428,1.2071144580841064,0.17883943021297455,8.198184967041016,-1.8317705392837524,-0.30322179198265076,-0.8097851276397705,0.01551214512437582,31.601884841918945,-23.475109100341797,16.670373916625977,0.058871351182460785,0.10289764404296875,-0.10283339023590088,0.11996807903051376,8.095287322998047,-1.7289371490478516
0_20251106_211941,1762435145486,0,0.37754273414611816,0.46754828095436096,0.6064539551734924,0.5206473469734192,0.3681792914867401,2.979215145111084,1.1714953184127808,-0.07852619886398315,8.326269149780273,-1.6067253351211548,-0.38507768511772156,-0.6271365880966187,-0.1439235508441925,31.83110237121582,-23.59073257446289,15.933393478393555,-0.15879543125629425,0.1847848892211914,0.09776949882507324,0.0802692323923111,8.141484260559082,-1.704494833946228
0_20251106_211941,1762435145505,0,0.38359013199806213,0.46851369738578796,0.6029340624809265,0.5194458961486816,0.3681792914867401,2.979215145111084,1.1714953184127808,-0.07852619886398315,8.326269149780273,-1.6067253351211548,-0.4205078184604645,-0.4890812337398529,-0.231888085603714,32.05881118774414,-23.73160171508789,15.209402084350586,-0.15879543125629425,0.1847848892211914,0.09776949882507324,0.0802692323923111,8.141484260559082,-1.704494833946228
0_20251106_211941,1762435145524,0,0.389486700296402,0.468107670545578,0.6000943779945374,0.5187119245529175,0.3532011806964874,2.980846881866455,1.1084153652191162,-0.5848780870437622,8.334648132324219,-1.2260637283325195,-0.43150338530540466,-0.48236170411109924,-0.20928609371185303,32.19084930419922,-23.841556549072266,14.522829055786133,-0.4580625295639038,0.12132644653320312,0.3263063430786133,-0.1268155723810196,8.213321685791016,-1.5523700714111328
0_20251106_211941,1762435145544,0,0.3953033983707428,0.4676576852798462,0.5971202254295349,0.5181495547294617,0.3433225452899933,2.981588840484619,1.0799949169158936,-0.7153564691543579,8.126361846923828,-0.9938360452651978,-0.4461641311645508,-0.5171809196472168,-0.09322177618741989,32.42318344116211,-23.906543731689453,13.746355056762695,-0.4708327353000641,-0.06956768035888672,0.4468271732330322,-0.24452373385429382,8.195929527282715,-1.44066321849823
0_20251106_211941,1762435145562,0,0.4007803797721863,0.46788814663887024,0.5934481024742126,0.5179527997970581,0.3339144289493561,2.9818248748779297,1.0570138692855835,-0.635154128074646,8.034188270568848,-0.9052544236183167,-0.46815526485443115,-0.5312308669090271,0.054607491940259933,32.69538879394531,-23.91824722290039,12.904829025268555,-0.3125043213367462,-0.1293926239013672,0.4283270239830017,-0.3226498067378998,8.163580894470215,-1.3335814476013184
0_20251106_211941,1762435145581,0,0.40578973293304443,0.4689716398715973,0.5888582468032837,0.5183109641075134,0.3244931101799011,2.981884002685547,1.0343197584152222,-0.3179360628128052,8.09882926940918,-1.2057137489318848,-0.49381157755851746,-0.5318417549133301,0.17433695495128632,32.84394073486328,-23.95193862915039,12.206811904907227,0.0037710070610046387,-0.05180168151855469,0.1022942066192627,-0.3217070698738098,8.150630950927734,-1.3080079555511475
0_20251106_211941,1762435145601,0,0.41033175587654114,0.470659077167511,0.5835333466529846,0.5192270278930664,0.3160753846168518,2.9819393157958984,1.0130541324615479,-0.12760519981384277,8.15030288696289,-1.200925588607788,-0.5982694625854492,-0.5739914178848267,0.20915624499320984,32.941139221191406,-24.027149200439453,11.573623657226562,0.15528151392936707,-0.00026226043701171875,0.08566594123840332,-0.28288671374320984,8.150565147399902,-1.2865915298461914
0_20251106_211941,1762435145620,0,0.4153204560279846,0.47242018580436707,0.57732754945755,0.5205967426300049,0.3077985644340515,2.9818263053894043,0.9929951429367065,-0.2365366816520691,8.095237731933594,-0.8896927237510681,-0.6990621089935303,-0.6234714388847351,0.21954095363616943,33.06532287597656,-24.062427520751953,10.874626159667969,0.03708001971244812,-0.044261932373046875,0.3175191283226013,-0.2736167013645172,8.13949966430664,-1.2072118520736694
0_20251106_211941,1762435145639,0,0.42090046405792236,0.47405898571014404,0.5703451037406921,0.5223191976547241,0.30017757415771484,2.981254816055298,0.9759108424186707,-0.3287094831466675,7.968350410461426,-0.835825502872467,-0.7289944887161255,-0.6161410808563232,0.2415320873260498,33.08789825439453,-24.167652130126953,10.251482009887695,-0.04407423734664917,-0.13691997528076172,0.29710906744003296,-0.2846352458000183,8.105270385742188,-1.1329345703125
0_20251106_211941,1762435145660,0,0.42673930525779724,0.4754839539527893,0.5634022951126099,0.523819088935852,0.30017757415771484,2.981254816055298,0.9759108424186707,-0.3287094831466675,7.968350410461426,-0.835825502872467,-0.7289944887161255,-0.6161410808563232,0.2415320873260498,33.08789825439453,-24.167652130126953,10.251482009887695,-0.04407423734664917,-0.13691997528076172,0.29710906744003296,-0.2846352458000183,8.105270385742188,-1.1329345703125
0_20251106_211941,1762435145679,0,0.4324931204319,0.4768989086151123,0.5557867884635925,0.5259450674057007,0.28497835993766785,2.9807183742523193,0.9420890808105469,-0.27364522218704224,8.577648162841797,-1.0584766864776611,-1.0203770399093628,-0.7670246362686157,0.4687737822532654,33.10693359375,-24.347278594970703,9.532140731811523,0.016418486833572388,0.38927555084228516,0.07312631607055664,-0.2900637090206146,8.188372611999512,-1.1316030025482178
0_20251106_211941,1762435145698,0,0.43933889269828796,0.47971561551094055,0.5459004044532776,0.5280596613883972,0.2785947024822235,2.983475923538208,0.9294534921646118,-0.2006252408027649,9.036118507385254,-0.3833407759666443,-1.174925684928894,-0.8391066789627075,0.5878923535346985,33.124053955078125,-24.56430435180664,8.784975051879883,0.07155078649520874,0.678196907043457,0.5986098051071167,-0.27217602729797363,8.357921600341797,-0.981950581073761
0_20251106_211941,1762435145716,0,0.4465813636779785,0.4826543629169464,0.5343629121780396,0.5310989618301392,0.2738538682460785,2.989004373550415,0.9211147427558899,0.13574564456939697,9.59514045715332,0.24989831447601318,-1.222573161125183,-0.7248749732971191,0.6581418514251709,33.02586364746094,-24.888935089111328,8.03128433227539,0.3263373374938965,0.9897747039794922,0.9854791164398193,-0.1905916929244995,8.605365753173828,-0.7355808019638062
0_20251106_211941,1762435145736,0,0.4526665210723877,0.4844403862953186,0.5220152735710144,0.5365729928016663,0.2711954414844513,2.9989986419677734,0.9163748621940613,0.5810480117797852,9.973407745361328,0.6006337404251099,-1.1822561025619507,-0.5501676797866821,0.6037748456001282,32.8271369934082,-25.293643951416016,7.109891891479492,0.6173117756843567,1.0944337844848633,1.0689716339111328,-0.03626376390457153,8.878973960876465,-0.4683379530906677
0_20251106_211941,1762435145755,0,0.45799413323402405,0.48518940806388855,0.5106131434440613,0.5423161387443542,0.27073946595191956,3.011408805847168,0.9156374931335449,0.6720237731933594,10.114660263061523,0.8220879435539246,-1.1822561025619507,-0.5501676797866821,0.6037748456001282,32.729312896728516,-25.64096450805664,6.1123809814453125,0.5666300058364868,0.9885492324829102,1.0323407649993896,0.10539373755455017,9.126111030578613,-0.2102527767419815
0_20251106_211941,1762435145773,0,0.46336430311203003,0.48502033948898315,0.5003630518913269,0.547435462474823,0.27126747369766235,3.0252037048339844,0.9182440042495728,0.4864811301231384,10.192468643188477,1.117759108543396,-1.0796308517456055,-0.3675191402435303,0.2775731086730957,32.590999603271484,-26.065601348876953,5.071266174316406,0.3048699200153351,0.8530864715576172,1.062409520149231,0.18161121010780334,9.33938217163086,0.05534958839416504
0_20251106_211941,1762435145793,0,0.46885251998901367,0.48355141282081604,0.4915961027145386,0.5519860982894897,0.27126747369766235,3.0252037048339844,0.9182440042495728,0.4864811301231384,10.192468643188477,1.117759108543396,-1.0258747339248657,-0.21052688360214233,0.13585248589515686,32.42932891845703,-26.46725845336914,4.083763122558594,0.3048699200153351,0.8530864715576172,1.062409520149231,0.18161121010780334,9.33938217163086,0.05534958839416504
0_20251106_211941,1762435145811,0,0.4738789200782776,0.48054078221321106,0.4846157133579254,0.5564772486686707,0.2723196744918823,3.0573599338531494,0.933736264705658,0.11539581418037415,9.88482666015625,1.47208571434021,-0.9256929159164429,-0.1451643705368042,0.1492915153503418,32.22101593017578,-26.846027374267578,3.000211715698242,-0.056933969259262085,0.3262920379638672,0.9243317246437073,0.17232978343963623,9.558534622192383,0.5477539896965027
0_20251106_211941,1762435145832,0,0.4781395494937897,0.4776610732078552,0.4783289134502411,0.5607351660728455,0.27285829186439514,3.074016809463501,0.9457584619522095,0.21355387568473816,9.722028732299805,1.5103912353515625,-0.8413935899734497,-0.2422918677330017,0.2995642423629761,31.969200134277344,-27.128055572509766,1.9708747863769531,0.03297927975654602,0.13079547882080078,0.7701098322868347,0.18057459592819214,9.591233253479004,0.7402814030647278
0_20251106_211941,1762435145850,0,0.4816761612892151,0.47636064887046814,0.4713076949119568,0.5647456645965576,0.2746073603630066,3.0890800952911377,0.959394633769989,0.6409004926681519,9.602323532104492,1.755786418914795,-0.8194024562835693,-0.3705734610557556,0.4589999318122864,31.728965759277344,-27.421710968017578,0.9282493591308594,0.3682607412338257,0.008872032165527344,0.8124040365219116,0.27263975143432617,9.593451499938965,0.9433823823928833
0_20251106_211941,1762435145870,0,0.48482370376586914,0.4765840172767639,0.46301934123039246,0.568706214427948,0.2789424657821655,3.1035373210906982,0.9761409759521484,1.1233114004135132,9.394036293029785,1.9664671421051025,-0.7601486444473267,-0.39561891555786133,0.4565564692020416,31.49126625061035,-27.653934478759766,0.022106170654296875,0.6805373430252075,-0.1595325469970703,0.8184678554534912,0.44277405738830566,9.553568840026855,1.1479992866516113
0_20251106_211941,1762435145888,0,0.48773911595344543,0.47718024253845215,0.4548535645008087,0.5722917318344116,0.2847639322280884,3.115293025970459,0.9923890233039856,1.3016717433929443,9.307848930358887,1.9317526817321777,-0.6807361841201782,-0.3522475063800812,0.29162299633026123,31.3043270111084,-27.845439910888672,-0.867767333984375,0.6871181726455688,-0.19657611846923828,0.6270027160644531,0.6145535707473755,9.504425048828125,1.3047499656677246
0_20251106_211941,1762435145907,0,0.49084359407424927,0.4771336019039154,0.44803425669670105,0.5750490427017212,0.2847639322280884,3.115293025970459,0.9923890233039856,1.3016717433929443,9.307848930358887,1.9317526817321777,-0.6831796169281006,-0.32781293988227844,0.09003764390945435,31.116512298583984,-28.026546478271484,-1.541116714477539,0.6871181726455688,-0.19657611846923828,0.6270027160644531,0.6145535707473755,9.504425048828125,1.3047499656677246
0_20251106_211941,1762435145926,0,0.4951077699661255,0.4762530028820038,0.44203126430511475,0.5767666101455688,0.29664185643196106,3.135042428970337,1.0328015089035034,0.1525043398141861,8.891276359558105,2.884603977203369,-0.6831796169281006,-0.32781293988227844,0.09003764390945435,30.934534072875977,-28.106929779052734,-2.2393875122070312,-0.41273510456085205,-0.43359375,1.1156808137893677,0.565239429473877,9.324870109558105,1.7689231634140015
0_20251106_211941,1762435145945,0,0.49932050704956055,0.4747075140476227,0.43689966201782227,0.5783169269561768,0.29875192046165466,3.1414692401885986,1.0565612316131592,-0.4160940945148468,8.605181694030762,2.9600181579589844,-0.6526364088058472,-0.28199806809425354,0.01673387736082077,30.752456665039062,-28.187442779541016,-2.9241409301757812,-0.7850668430328369,-0.5757503509521484,0.952876091003418,0.3689727485179901,9.18093204498291,2.0071420669555664
0_20251106_211941,1762435145964,0,0.5023346543312073,0.4738274812698364,0.43250352144241333,0.5797310471534729,0.29875192046165466,3.1414692401885986,1.0565612316131592,-0.4160940945148468,8.605181694030762,2.9600181579589844,-0.43272510170936584,-0.20319651067256927,0.27451878786087036,30.60724639892578,-28.253559112548828,-3.5530948638916016,-0.7850668430328369,-0.5757503509521484,0.952876091003418,0.3689727485179901,9.18093204498291,2.0071420669555664
0_20251106_211941,1762435145984,0,0.5039543509483337,0.47362297773361206,0.42790451645851135,0.5819011926651001,0.29871079325675964,3.1487367153167725,1.0998669862747192,0.18841582536697388,8.70932388305664,1.6624164581298828,-0.632477879524231,-0.19342267513275146,0.42418065667152405,30.412290573120117,-28.335811614990234,-4.14372444152832,-0.03530623018741608,-0.2686948776245117,-0.27827441692352295,0.22372205555438995,8.978018760681152,1.9406908750534058
0_20251106_211941,1762435146003,0,0.5056160688400269,0.4732542634010315,0.4215574562549591,0.5853820443153381,0.29972612857818604,3.1521823406219482,1.1210767030715942,0.5846391916275024,9.103153228759766,2.147221565246582,-0.8658282160758972,-0.2013639211654663,0.44495004415512085,30.217544555664062,-28.406185150146484,-4.666509628295898,0.28873372077941895,0.10010719299316406,0.16522455215454102,0.2959054708480835,9.003046035766602,1.981997013092041
0_20251106_211941,1762435146022,0,0.5081886649131775,0.4720408022403717,0.41369348764419556,0.5897282361984253,0.30208340287208557,3.1562001705169678,1.1412625312805176,0.9006602168083191,9.43832778930664,2.8151750564575195,-0.9788382053375244,-0.05109120160341263,0.31239238381385803,30.02721405029297,-28.412555694580078,-5.309621810913086,0.48380380868911743,0.34822559356689453,0.6665425300598145,0.41685640811920166,9.090102195739746,2.148632526397705
0_20251106_211941,1762435146040,0,0.5112780928611755,0.46879950165748596,0.4064871668815613,0.5946342945098877,0.30208340287208557,3.1562001705169678,1.1412625312805176,0.9006602168083191,9.43832778930664,2.8151750564575195,-0.9904446005821228,0.30015602707862854,0.03933586925268173,29.86288833618164,-28.368732452392578,-5.788501739501953,0.48380380868911743,0.34822559356689453,0.6665425300598145,0.41685640811920166,9.090102195739746,2.148632526397705
0_20251106_211941,1762435146061,0,0.5145946145057678,0.46239230036735535,0.40200674533843994,0.5998135805130005,0.30718013644218445,3.1623659133911133,1.1677989959716797,1.158025860786438,9.601125717163086,3.390955924987793,-0.9110321998596191,0.5866515636444092,-0.29663974046707153,29.733909606933594,-28.347370147705078,-6.29347038269043,0.5929355621337891,0.40881919860839844,0.993858814239502,0.5650902986526489,9.192306518554688,2.397097110748291
0_20251106_211941,1762435146079,0,0.5183377861976624,0.4533914625644684,0.40073591470718384,0.6042953133583069,0.3196692168712616,3.175753355026245,1.2201284170150757,0.8767191767692566,9.72801399230957,3.5896663665771484,-0.8774346113204956,0.7088245153427124,-0.5440399050712585,29.64522361755371,-28.248950958251953,-6.7278032302856445,0.13949429988861084,0.3612394332885742,0.7542426586151123,0.7372248768806458,9.366774559020996,2.835423707962036
0_20251106_211941,1762435146099,0,0.5227171182632446,0.4428112506866455,0.40131184458732605,0.60797518491745,0.32481563091278076,3.1835668087005615,1.2498557567596436,0.3009384572505951,9.53648567199707,3.5980453491210938,-0.956847071647644,0.6233034133911133,-0.55931156873703,29.59552001953125,-28.098461151123047,-7.10554313659668,-0.34902915358543396,0.13576889038085938,0.6100974082946777,0.649967610836029,9.400716781616211,2.987947940826416
0_20251106_211941,1762435146119,0,0.5277180671691895,0.43217936158180237,0.40112391114234924,0.6114198565483093,0.3277047872543335,3.191315174102783,1.2808212041854858,-0.007900282740592957,9.507756233215332,3.8841404914855957,-1.040535569190979,0.4455418288707733,-0.3760521411895752,29.636756896972656,-27.84195327758789,-7.477738380432129,-0.5262943506240845,0.0856313705444336,0.7169539928436279,0.5183940529823303,9.422124862670898,3.1671864986419678
0_20251106_211941,1762435146136,0,0.5327467918395996,0.4228286147117615,0.3987554907798767,0.6151348948478699,0.32924729585647583,3.198180675506592,1.3083364963531494,0.15848958492279053,9.699284553527832,4.31028938293457,-1.040535569190979,0.26411500573158264,-0.15308652818202972,29.636756896972656,-27.84195327758789,-7.477738380432129,-0.28792357444763184,0.2217273712158203,0.9144821166992188,0.44641315937042236,9.477557182312012,3.3958072662353516
0_20251106_211941,1762435146156,0,0.5371663570404053,0.41531118750572205,0.3945246636867523,0.6191278100013733,0.33135145902633667,3.20735764503479,1.3426294326782227,0.571471631526947,9.972211837768555,4.56047248840332,-0.947073221206665,0.04786888509988785,-0.004035525023937225,29.75404167175293,-27.51870346069336,-7.76457405090332,0.1000467836856842,0.3957233428955078,0.931732177734375,0.4714248478412628,9.576488494873047,3.6287403106689453
0_20251106_211941,1762435146175,0,0.5410232543945312,0.4100281298160553,0.3891155421733856,0.6227036714553833,0.33436569571495056,3.2166433334350586,1.3763978481292725,0.8779162168502808,9.942285537719727,4.6562371253967285,-0.835895836353302,-0.11095594614744186,-0.013198493979871273,29.910097122192383,-27.155269622802734,-8.062663078308105,0.3251931071281433,0.29263782501220703,0.8219976425170898,0.5527231097221375,9.64964771270752,3.8342394828796387
0_20251106_211941,1762435146194,0,0.5449792742729187,0.406245619058609,0.3835206925868988,0.6251991391181946,0.33436569571495056,3.2166433334350586,1.3763978481292725,0.8779162168502808,9.942285537719727,4.6562371253967285,-0.7491530179977417,-0.08591048419475555,-0.1384257674217224,30.0892276763916,-26.803607940673828,-8.278937339782715,0.3251931071281433,0.29263782501220703,0.8219976425170898,0.5527231097221375,9.64964771270752,3.8342394828796387
0_20251106_211941,1762435146212,0,0.5491809844970703,0.4023376405239105,0.3789997100830078,0.6268044710159302,0.34090253710746765,3.2339110374450684,1.444808006286621,0.481692910194397,9.672948837280273,4.9219818115234375,-0.7491530179977417,-0.08591048419475555,-0.1384257674217224,30.245594024658203,-26.428150177001953,-8.522697448730469,-0.09621423482894897,0.0049533843994140625,0.7124347686767578,0.577907145023346,9.66799545288086,4.20954704284668
0_20251106_211941,1762435146232,0,0.5530450940132141,0.397783100605011,0.3756703734397888,0.6283164024353027,0.34284451603889465,3.2428367137908936,1.4833272695541382,0.19679516553878784,9.765121459960938,5.246381759643555,-0.7137228846549988,0.0399276427924633,-0.16957987844944,30.31875991821289,-26.03219985961914,-8.86397647857666,-0.3048895597457886,0.07770061492919922,0.8294677734375,0.5016847252845764,9.687420845031738,4.416913986206055
0_20251106_211941,1762435146251,0,0.556833803653717,0.3930988013744354,0.37213966250419617,0.6300170421600342,0.3424272835254669,3.2506520748138428,1.5211548805236816,-0.289206862449646,9.599929809570312,5.533674240112305,-0.6782927513122559,0.05947531759738922,-0.07306323200464249,30.380245208740234,-25.624752044677734,-9.178449630737305,-0.6327133178710938,-0.0699930191040039,0.8934082984924316,0.34350642561912537,9.669922828674316,4.640265941619873
0_20251106_211941,1762435146270,0,0.559834897518158,0.38873693346977234,0.368584007024765,0.6321505308151245,0.3424272835254669,3.2506520748138428,1.5211548805236816,-0.289206862449646,9.599929809570312,5.533674240112305,-0.6599668264389038,0.1272813081741333,0.11141791194677353,30.401945114135742,-25.28207015991211,-9.536262512207031,-0.6327133178710938,-0.0699930191040039,0.8934082984924316,0.34350642561912537,9.669922828674316,4.640265941619873
0_20251106_211941,1762435146290,0,0.561433732509613,0.38457566499710083,0.3648625910282135,0.6354281902313232,0.3327401578426361,3.2633180618286133,1.5967930555343628,-0.6555039882659912,9.589155197143555,4.9698638916015625,-0.8273437023162842,0.2977125644683838,0.38936135172843933,30.345199584960938,-25.032596588134766,-9.844799995422363,-0.6150426864624023,-0.006682395935058594,0.18451213836669922,-0.04046132415533066,9.595837593078613,4.785351753234863
0_20251106_211941,1762435146309,0,0.5613905787467957,0.3794263005256653,0.36011451482772827,0.6412439942359924,0.3327401578426361,3.2633180618286133,1.5967930555343628,-0.6555039882659912,9.589155197143555,4.9698638916015625,-1.0142682790756226,0.48646971583366394,0.6001096963882446,30.32178497314453,-24.843120574951172,-10.193735122680664,-0.6150426864624023,-0.006682395935058594,0.18451213836669922,-0.04046132415533066,9.595837593078613,4.785351753234863
0_20251106_211941,1762435146328,0,0.5600247383117676,0.37291398644447327,0.35446614027023315,0.6493544578552246,0.3253604471683502,3.2768733501434326,1.6722043752670288,0.855172336101532,9.9805908203125,6.341682434082031,-1.0142682790756226,0.48646971583366394,0.6001096963882446,30.186481475830078,-24.698596954345703,-10.5343599319458,0.680844247341156,0.2615642547607422,1.1046476364135742,0.17432810366153717,9.719026565551758,5.237034797668457
0_20251106_211941,1762435146346,0,0.5582063794136047,0.36620667576789856,0.3491992652416229,0.6575394868850708,0.32518821954727173,3.2837677001953125,1.7100493907928467,0.9832565784454346,9.945877075195312,6.514057636260986,-0.8041309118270874,0.5793212056159973,0.4693846106529236,30.072025299072266,-24.61526870727539,-10.875323295593262,0.647142767906189,0.18148040771484375,1.0216178894042969,0.3361138105392456,9.764396667480469,5.4924397468566895
0_20251106_211941,1762435146365,0,0.5563072562217712,0.3597855567932129,0.34546858072280884,0.6646262407302856,0.3264658749103546,3.290637254714966,1.7497678995132446,0.8647487163543701,9.748363494873047,6.13698673248291,-0.6624102592468262,0.6532358527183533,0.3869178891181946,29.92848777770996,-24.59793472290039,-11.056392669677734,0.42290791869163513,-0.012825965881347656,0.5156373977661133,0.441840797662735,9.761189460754395,5.621349334716797
0_20251106_211941,1762435146385,0,0.5541627407073975,0.35337311029434204,0.34324756264686584,0.6709785461425781,0.3297205865383148,3.2979772090911865,1.7907664775848389,1.0921881198883057,9.915949821472168,6.042420387268066,-0.6624102592468262,0.6532358527183533,0.3869178891181946,29.759984970092773,-24.582996368408203,-11.157344818115234,0.5202778577804565,0.12380790710449219,0.3368568420410156,0.5719102621078491,9.792141914367676,5.705563545227051
0_20251106_211941,1762435146404,0,0.5517774224281311,0.34645745158195496,0.3415240943431854,0.6773995757102966,0.33466583490371704,3.304940938949585,1.8277992010116577,1.4501057863235474,10.071565628051758,6.509269714355469,-0.695396900177002,0.7320374250411987,0.3185010552406311,29.547874450683594,-24.69601058959961,-11.262407302856445,0.7025564312934875,0.2235393524169922,0.6429653167724609,0.7475493550300598,9.848026275634766,5.866304397583008
0_20251106_211941,1762435146422,0,0.5497869253158569,0.33922910690307617,0.3397473990917206,0.683542013168335,0.34099075198173523,3.3120479583740234,1.8674116134643555,1.245410442352295,9.893206596374512,6.769029140472412,-0.6123193502426147,0.576266884803772,0.20182587206363678,29.325706481933594,-24.76053237915039,-11.27229118347168,0.3982888460159302,0.036144256591796875,0.7221798896789551,0.8471215963363647,9.857062339782715,6.046849250793457
0_20251106_211941,1762435146442,0,0.5487133860588074,0.3330765664577484,0.3379761576652527,0.6882919073104858,0.346463143825531,3.318722724914551,1.908287763595581,0.5666834115982056,9.714845657348633,6.462584495544434,-0.4449423849582672,0.400337815284729,0.14745891094207764,29.128517150878906,-24.811046600341797,-11.267414093017578,-0.22435057163238525,-0.11377334594726562,0.33258819580078125,0.7910339832305908,9.828619003295898,6.129996299743652
0_20251106_211941,1762435146461,0,0.5479630827903748,0.328665554523468,0.3365713953971863,0.6916900873184204,0.346463143825531,3.318722724914551,1.908287763595581,0.5666834115982056,9.714845657348633,6.462584495544434,-0.3636974096298218,0.31176242232322693,0.21770834922790527,28.92831039428711,-24.912059783935547,-11.236559867858887,-0.22435057163238525,-0.11377334594726562,0.33258819580078125,0.7910339832305908,9.828619003295898,6.129996299743652
0_20251106_211941,1762435146480,0,0.5468401312828064,0.3254202604293823,0.3351345360279083,0.6948038339614868,0.3522443473339081,3.3289873600006104,1.9838929176330566,0.3919142186641693,9.443115234375,7.025197505950928,-0.38691025972366333,0.2610606849193573,0.24886246025562286,28.840497970581055,-24.955829620361328,-11.18671989440918,-0.2297719419002533,-0.2913494110107422,0.6736726760864258,0.6216861605644226,9.734464645385742,6.351524829864502
0_20251106_211941,1762435146500,0,0.5457519888877869,0.32244330644607544,0.33325156569480896,0.6979458928108215,0.35413801670074463,3.3308095932006836,2.0240790843963623,0.4517666697502136,8.858955383300781,7.082655906677246,-0.2965022921562195,0.25922808051109314,0.1486806422472,28.665775299072266,-25.03054428100586,-11.113808631896973,-0.13593560457229614,-0.7004070281982422,0.584904670715332,0.5877022743225098,9.559362411499023,6.497751235961914
0_20251106_211941,1762435146519,0,0.5450164079666138,0.3195345997810364,0.3321639895439148,0.7003726363182068,0.35413801670074463,3.3308095932006836,2.0240790843963623,0.4517666697502136,8.858955383300781,7.082655906677246,-0.18104885518550873,0.378346711397171,0.0014622574672102928,28.54241943359375,-25.052120208740234,-11.010847091674805,-0.13593560457229614,-0.7004070281982422,0.584904670715332,0.5877022743225098,9.559362411499023,6.497751235961914
0_20251106_211941,1762435146540,0,0.5444499850273132,0.31589269638061523,0.33287230134010315,0.7021268010139465,0.3557228744029999,3.3304190635681152,2.095374822616577,0.24108600616455078,9.353336334228516,5.688093185424805,-0.2286963015794754,0.47547417879104614,-0.0822262093424797,28.51945686340332,-25.02859115600586,-11.011300086975098,-0.2497974932193756,-0.07458972930908203,-0.6189250946044922,0.4908834993839264,9.427926063537598,6.307018280029297
0_20251106_211941,1762435146559,0,0.5442856550216675,0.31123626232147217,0.33410021662712097,0.7037487030029297,0.3548366129398346,3.3306033611297607,2.122913360595703,0.031602367758750916,9.619081497192383,5.862862586975098,-0.44249895215034485,0.5353389978408813,-0.027248382568359375,28.51945686340332,-25.02859115600586,-11.011300086975098,-0.3674249053001404,0.1529245376586914,-0.35532474517822266,0.3990272879600525,9.466156959533691,6.21818733215332
0_20251106_211941,1762435146576,0,0.5443700551986694,0.3054441511631012,0.33408164978027344,0.706225574016571,0.3548366129398346,3.3306033611297607,2.122913360595703,0.031602367758750916,9.619081497192383,5.862862586975098,-0.5524545907974243,0.5634387135505676,0.08820504695177078,28.473037719726562,-24.98221206665039,-10.944624900817871,-0.3674249053001404,0.1529245376586914,-0.35532474517822266,0.3990272879600525,9.466156959533691,6.21818733215332
0_20251106_211941,1762435146595,0,0.5438238382339478,0.2992021143436432,0.3331965506076813,0.709727942943573,0.3505471646785736,3.3317205905914307,2.1795647144317627,0.18482467532157898,9.516136169433594,6.883945465087891,-0.41623178124427795,0.6752269268035889,0.2513059377670288,28.483516693115234,-25.006938934326172,-10.90411376953125,-0.10108241438865662,0.018197059631347656,0.44638681411743164,0.2859070897102356,9.497939109802246,6.437558650970459
0_20251106_211941,1762435146614,0,0.5412949919700623,0.29323992133140564,0.33329370617866516,0.7140905857086182,0.34915193915367126,3.332836389541626,2.2082531452178955,0.579850971698761,9.700481414794922,6.821699142456055,-0.3020000755786896,0.7002724409103394,0.3899722099304199,28.470441818237305,-25.00894546508789,-10.782958030700684,0.2351551055908203,0.1620340347290039,0.3073124885559082,0.3446958661079407,9.538447380065918,6.5143866539001465
0_20251106_211941,1762435146633,0,0.5373349785804749,0.28814032673835754,0.33385416865348816,0.7188794612884521,0.3490792214870453,3.3343935012817383,2.2361960411071777,0.8013051152229309,9.719634056091309,6.765438079833984,-0.25190916657447815,0.6850007772445679,0.46449771523475647,28.408016204833984,-25.026554107666016,-10.677543640136719,0.3652874231338501,0.14494991302490234,0.20084142684936523,0.4360176920890808,9.574684143066406,6.564596652984619
0_20251106_211941,1762435146653,0,0.5327502489089966,0.28375479578971863,0.3344123065471649,0.723760187625885,0.35095760226249695,3.3357362747192383,2.265859365463257,1.077823519706726,9.504165649414062,7.130537986755371,-0.17066414654254913,0.6660640239715576,0.548797070980072,28.257976531982422,-25.087665557861328,-10.549322128295898,0.5134446620941162,-0.05641460418701172,0.45275306701660156,0.5643788576126099,9.560580253601074,6.6777849197387695
0_20251106_211941,1762435146672,0,0.5273202657699585,0.28019794821739197,0.33519062399864197,0.7287452816963196,0.35519129037857056,3.3366291522979736,2.2941551208496094,1.4896084070205688,9.444313049316406,7.233484268188477,-0.030165258795022964,0.6605662107467651,0.5982770919799805,28.171995162963867,-25.08255386352539,-10.363263130187988,0.7401836514472961,-0.09301376342773438,0.44455957412719727,0.7494247555732727,9.53732681274414,6.788924694061279
0_20251106_211941,1762435146691,0,0.5212298035621643,0.2775522768497467,0.33662545680999756,0.7334626913070679,0.3622293472290039,3.337097406387329,2.3215298652648926,1.848723292350769,9.398824691772461,6.968936443328857,0.07612520456314087,0.6605662107467651,0.5952227711677551,28.006059646606445,-25.19589614868164,-10.114941596984863,0.8794388771057129,-0.11080169677734375,0.14400911331176758,0.9692844152450562,9.509626388549805,6.82492733001709
0_20251106_211941,1762435146709,0,0.5147767066955566,0.27544477581977844,0.33872708678245544,0.7378340363502502,0.371029794216156,3.33697772026062,2.3460206985473633,1.9708223342895508,9.28989315032959,6.765438079833984,0.1256052404642105,0.6196383237838745,0.5396340489387512,28.478504180908203,-25.38296127319336,-8.883833885192871,0.8012304306030273,-0.17578697204589844,-0.047591209411621094,1.1695919036865234,9.465680122375488,6.8130292892456055
0_20251106_211941,1762435146730,0,0.5085523128509521,0.27371737360954285,0.3411145508289337,0.7416833639144897,0.371029794216156,3.33697772026062,2.3460206985473633,1.9708223342895508,9.28989315032959,6.765438079833984,0.18669171631336212,0.5878733396530151,0.47610414028167725,28.28065299987793,-25.624134063720703,-8.571551322937012,0.8012304306030273,-0.17578697204589844,-0.047591209411621094,1.1695919036865234,9.465680122375488,6.8130292892456055
0_20251106_211941,1762435146748,0,0.5027337670326233,0.2723453640937805,0.3439001441001892,0.7448620796203613,0.39497533440589905,3.333657741546631,2.394087553024292,1.8894230127334595,8.875714302062988,6.591865539550781,0.21479149162769318,0.5512214303016663,0.41868287324905396,27.998008728027344,-25.858585357666016,-8.235404968261719,0.45073258876800537,-0.42392826080322266,-0.15648460388183594,1.438690423965454,9.299642562866211,6.748350143432617
0_20251106_211941,1762435146767,0,0.4973570704460144,0.2711605131626129,0.34683120250701904,0.7475399971008301,0.4076012372970581,3.329606533050537,2.414592742919922,1.841541051864624,8.626728057861328,6.443431854248047,0.2080719769001007,0.48463714122772217,0.38813963532447815,27.698848724365234,-26.169307708740234,-7.887816429138184,0.32228052616119385,-0.5383310317993164,-0.24393463134765625,1.5192605257034302,9.165059089660645,6.687366485595703
0_20251106_211941,1762435146787,0,0.4923795759677887,0.2702558636665344,0.3494604527950287,0.7499343156814575,0.42121779918670654,3.323678731918335,2.433927059173584,1.8451322317123413,8.547721862792969,6.302180290222168,0.2080719769001007,0.48463714122772217,0.38813963532447815,27.460323333740234,-26.476459503173828,-7.497226715087891,0.2606973648071289,-0.4938697814941406,-0.3081488609313965,1.5844348669052124,9.04159164428711,6.6103291511535645
0_20251106_211941,1762435146804,0,0.48739030957221985,0.269809752702713,0.3519625663757324,0.7521806359291077,0.42121779918670654,3.323678731918335,2.433927059173584,1.8451322317123413,8.547721862792969,6.302180290222168,0.2538868486881256,0.3789575397968292,0.38325271010398865,27.270851135253906,-26.768421173095703,-7.050346374511719,0.2606973648071289,-0.4938697814941406,-0.3081488609313965,1.5844348669052124,9.04159164428711,6.6103291511535645
0_20251106_211941,1762435146824,0,0.48262420296669006,0.2698080539703369,0.3544218838214874,0.7540972232818604,0.44552081823349,3.3095905780792236,2.464085817337036,1.6212838888168335,8.46392822265625,6.1202287673950195,0.285040944814682,0.3343644440174103,0.3490442633628845,27.04199981689453,-27.112995147705078,-6.605993270874023,0.00021696090698242188,-0.3773660659790039,-0.33147621154785156,1.621066927909851,8.841294288635254,6.451704978942871
0_20251106_211941,1762435146844,0,0.47814643383026123,0.2701158821582794,0.35699447989463806,0.7556244730949402,0.44552081823349,3.3095905780792236,2.464085817337036,1.6212838888168335,8.46392822265625,6.1202287673950195,0.30336686968803406,0.2830517888069153,0.32705315947532654,26.80609703063965,-27.370189666748047,-6.187315940856934,0.00021696090698242188,-0.3773660659790039,-0.33147621154785156,1.621066927909851,8.841294288635254,6.451704978942871
0_20251106_211941,1762435146863,0,0.47391992807388306,0.2707476019859314,0.3595464527606964,0.756850004196167,0.4669537842273712,3.289912700653076,2.4890966415405273,1.3256126642227173,7.994685649871826,6.04122257232666,0.3332992494106293,0.25983893871307373,0.34721168875694275,26.609668731689453,-27.574642181396484,-5.779626846313477,-0.20805203914642334,-0.5929675102233887,-0.2818613052368164,1.5336647033691406,8.587653160095215,6.323083877563477
0_20251106_211941,1762435146882,0,0.46945518255233765,0.27163150906562805,0.3621789216995239,0.7580597400665283,0.47556009888648987,3.2792747020721436,2.4980993270874023,1.4536969661712646,8.062917709350586,5.8329362869262695,0.3375752866268158,0.2512868344783783,0.3801983594894409,26.387165069580078,-27.806201934814453,-5.332898139953613,-0.06397426128387451,-0.4197883605957031,-0.3921184539794922,1.5176712274551392,8.482706069946289,6.225054740905762
0_20251106_211941,1762435146901,0,0.4648435413837433,0.2726910710334778,0.36467209458351135,0.7593249082565308,0.48499226570129395,3.2670388221740723,2.5059735774993896,1.6320573091506958,8.15149974822998,5.689291000366211,0.3021451532840729,0.257395476102829,0.3808092474937439,26.18640899658203,-28.086132049560547,-4.913276672363281,0.09150886535644531,-0.2649650573730469,-0.42861080169677734,1.5405484437942505,8.416464805603027,6.117901802062988
0_20251106_211941,1762435146920,0,0.46021997928619385,0.2735588550567627,0.3669571280479431,0.7607269883155823,0.49410727620124817,3.255380630493164,2.5121700763702393,1.7601416110992432,8.19219970703125,5.786252021789551,0.3021451532840729,0.257395476102829,0.3808092474937439,25.952308654785156,-28.317676544189453,-4.548135757446289,0.1756744384765625,-0.1794118881225586,-0.26531982421875,1.5844671726226807,8.371611595153809,6.051571846008301
0_20251106_211941,1762435146939,0,0.4558875858783722,0.2745131254196167,0.369067519903183,0.7619699835777283,0.5027669668197632,3.2442195415496826,2.5172321796417236,1.769718050956726,8.10002613067627,5.842513084411621,0.31863850355148315,0.19753074645996094,0.294066458940506,25.65677261352539,-28.565479278564453,-4.212743759155273,0.14820075035095215,-0.2172689437866211,-0.16724681854248047,1.621517300605774,8.31729507446289,6.009759902954102
0_20251106_211941,1762435146960,0,0.45199233293533325,0.27560120820999146,0.3714013397693634,0.7627633810043335,0.5027669668197632,3.2442195415496826,2.5172321796417236,1.769718050956726,8.10002613067627,5.842513084411621,0.3571229875087738,0.17126356065273285,0.21831920742988586,25.44694709777832,-28.79556655883789,-3.83310604095459,0.14820075035095215,-0.2172689437866211,-0.16724681854248047,1.621517300605774,8.31729507446289,6.009759902954102
0_20251106_211941,1762435146978,0,0.448630690574646,0.27674511075019836,0.37406861782073975,0.7630303502082825,0.5215826034545898,3.2184691429138184,2.524087905883789,1.7385947704315186,8.10002613067627,5.449880599975586,0.33574268221855164,0.1535484790802002,0.15540015697479248,25.44694709777832,-28.79556655883789,-3.83310604095459,0.07703626155853271,-0.11855792999267578,-0.3885841369628906,1.6615585088729858,8.218584060668945,5.838464736938477
0_20251106_211941,1762435146996,0,0.44582709670066833,0.2776865065097809,0.3766810894012451,0.763046383857727,0.5215826034545898,3.2184691429138184,2.524087905883789,1.7385947704315186,8.10002613067627,5.449880599975586,0.29786908626556396,0.13216820359230042,0.07537689059972763,25.2529296875,-28.96194076538086,-3.465174674987793,0.07703626155853271,-0.11855792999267578,-0.3885841369628906,1.6615585088729858,8.218584060668945,5.838464736938477
0_20251106_211941,1762435147015,0,0.44380563497543335,0.27837151288986206,0.37915199995040894,0.7627513408660889,0.5371676683425903,3.1956539154052734,2.5249035358428955,1.527914047241211,8.204170227050781,5.374466419219971,0.2593846023082733,0.13400080800056458,0.018566470593214035,25.09344482421875,-29.17508316040039,-3.204957962036133,-0.10525989532470703,0.018163681030273438,-0.2885317802429199,1.633173942565918,8.186006546020508,5.662998199462891
0_20251106_211941,1762435147035,0,0.44228595495224,0.27865585684776306,0.3815142512321472,0.7623522281646729,0.5441232323646545,3.184406280517578,2.524442434310913,1.4201796054840088,8.223321914672852,5.538462162017822,0.21967840194702148,0.11262054741382599,-0.024194058030843735,24.874351501464844,-29.355602264404297,-2.8382720947265625,-0.17039549350738525,0.029851913452148438,-0.09962892532348633,1.590575098991394,8.193470001220703,5.638091087341309
0_20251106_211941,1762435147054,0,0.4411987364292145,0.27871087193489075,0.3836519122123718,0.7618891596794128,0.5493441224098206,3.1748571395874023,2.5238234996795654,1.2956864833831787,8.220928192138672,5.546841621398926,0.24533472955226898,0.08574249595403671,-0.016863681375980377,24.743661880493164,-29.49154281616211,-2.6025238037109375,-0.23591089248657227,0.021966934204101562,-0.07299947738647461,1.531597375869751,8.19896125793457,5.6198410987854
0_20251106_211941,1762435147072,0,0.4401707053184509,0.2790856957435608,0.38579919934272766,0.761262059211731,0.5537778735160828,3.1651382446289062,2.522339105606079,1.2394251823425293,8.146711349487305,5.305037498474121,0.2508324980735779,0.048479750752449036,-0.004646388813853264,24.677330017089844,-29.560855865478516,-2.3494873046875,-0.23373770713806152,-0.041800498962402344,-0.2518429756164551,1.4731628894805908,8.188511848449707,5.556880474090576
0_20251106_211941,1762435147092,0,0.43932461738586426,0.27983683347702026,0.38774973154067993,0.7604836225509644,0.5574319362640381,3.155284881591797,2.51948881149292,1.2166812419891357,8.144317626953125,5.107524394989014,0.2508324980735779,0.048479750752449036,-0.004646388813853264,24.708385467529297,-29.623950958251953,-2.079010009765625,-0.20518529415130615,-0.035355567932128906,-0.3594851493835449,1.421866536140442,8.179673194885254,5.467009544372559
0_20251106_211941,1762435147111,0,0.4384485185146332,0.28056398034095764,0.38953831791877747,0.7598069906234741,0.5599762797355652,3.1462230682373047,2.515913724899292,1.1472524404525757,8.117981910705566,5.101539134979248,0.17325268685817719,0.026488622650504112,-0.018696274608373642,24.729766845703125,-29.64963150024414,-1.8622970581054688,-0.21969127655029297,-0.049353599548339844,-0.2923760414123535,1.3669437170028687,8.167335510253906,5.393915176391602
0_20251106_211941,1762435147131,0,0.4378589689731598,0.28105297684669495,0.39096564054489136,0.7592329382896423,0.5615325570106506,3.136658191680908,2.511646270751953,1.0419120788574219,8.00186824798584,5.166179656982422,0.12927041947841644,-0.00283288536593318,-0.03274616599082947,24.65435218811035,-29.680721282958984,-1.7441215515136719,-0.2600252628326416,-0.13237380981445312,-0.1821885108947754,1.3019373416900635,8.134242057800293,5.348368167877197
0_20251106_211941,1762435147150,0,0.4376388192176819,0.28151774406433105,0.39197784662246704,0.7586655616760254,0.5621744394302368,3.1277809143066406,2.5071308612823486,1.023956298828125,8.044961929321289,5.106327533721924,0.10850103199481964,-0.020547961816191673,-0.020528871566057205,24.62828826904297,-29.696216583251953,-1.6102027893066406,-0.22238492965698242,-0.07142448425292969,-0.1936326026916504,1.2463412284851074,8.116386413574219,5.299960136413574
0_20251106_211941,1762435147169,0,0.4374184310436249,0.28200763463974,0.3927377164363861,0.7582175731658936,0.5621247887611389,3.119309186935425,2.502763032913208,1.0060005187988281,8.102420806884766,5.271520614624023,0.07368174195289612,-0.022991418838500977,-0.02236146479845047,24.699512481689453,-29.705623626708984,-1.4453296661376953,-0.19227254390716553,-0.011172294616699219,-0.022751808166503906,1.1982730627059937,8.113593101501465,5.294272422790527
0_20251106_211941,1762435147188,0,0.437313437461853,0.2823665738105774,0.39325302839279175,0.7578774094581604,0.5615041255950928,3.111664056777954,2.4990012645721436,0.9892418384552002,8.260431289672852,5.435516357421875,0.07429260015487671,0.013049597851932049,-0.05290469899773598,24.77213478088379,-29.701534271240234,-1.3748054504394531,-0.16722500324249268,0.11747074127197266,0.11299514770507812,1.1564668416976929,8.142960548400879,5.322521209716797
0_20251106_211941,1762435147207,0,0.4372744560241699,0.28231945633888245,0.3939952552318573,0.7575318217277527,0.5603598356246948,3.1047866344451904,2.4953131675720215,0.9186159372329712,8.144317626953125,5.199697494506836,0.1304921656847,0.029542947188019753,-0.07795015722513199,24.831668853759766,-29.711063385009766,-1.2780036926269531,-0.19028067588806152,0.0010852813720703125,-0.09825897216796875,1.1088966131210327,8.143232345581055,5.297956466674805
0_20251106_211941,1762435147225,0,0.4372096061706543,0.28227970004081726,0.3952679932117462,0.7569208145141602,0.5585425496101379,3.0979785919189453,2.4904091358184814,0.8647487163543701,8.175440788269043,4.8585381507873535,0.1304921656847,0.029542947188019753,-0.07795015722513199,24.845684051513672,-29.661388397216797,-1.1412944793701172,-0.195318341255188,0.025766372680664062,-0.351534366607666,1.060067057609558,8.149674415588379,5.2100725173950195
0_20251106_211941,1762435147245,0,0.4372072219848633,0.2827034890651703,0.3963463306427002,0.756199836730957,0.5560587048530579,3.0915727615356445,2.484301805496216,0.8408077359199524,8.281977653503418,4.8142476081848145,0.1366008073091507,-0.016882773488759995,-0.05840248614549637,24.847702026367188,-29.623851776123047,-1.1269855499267578,-0.17540746927261353,0.10584259033203125,-0.31665992736816406,1.016215205192566,8.176135063171387,5.1309075355529785
0_20251106_211941,1762435147264,0,0.4371291995048523,0.28345781564712524,0.39690685272216797,0.7556683421134949,0.5533719062805176,3.0861048698425293,2.4780492782592773,0.8539752960205078,8.29035758972168,4.860932350158691,0.07307088375091553,-0.03398698568344116,-0.0144202234223485,24.849224090576172,-29.586986541748047,-1.045095443725586,-0.1297919750213623,0.09137821197509766,-0.21598052978515625,0.9837672710418701,8.198979377746582,5.076912879943848
0_20251106_211941,1762435147283,0,0.43713003396987915,0.28417113423347473,0.39723455905914307,0.7552276253700256,0.5505421757698059,3.081207036972046,2.47161865234375,0.882704496383667,8.30711555480957,4.898040771484375,0.03397553786635399,-0.027267474681138992,0.005127446260303259,24.898178100585938,-29.57192611694336,-0.9752883911132812,-0.08085024356842041,0.08650875091552734,-0.1430978775024414,0.9635547399520874,8.220606803894043,5.041138648986816
0_20251106_211941,1762435147303,0,0.4370783269405365,0.2846921384334564,0.39745768904685974,0.7549439072608948,0.5505421757698059,3.081207036972046,2.47161865234375,0.882704496383667,8.30711555480957,4.898040771484375,0.006486620754003525,-0.01810450293123722,-0.015031089074909687,24.923255920410156,-29.557781219482422,-0.9740428924560547,-0.08085024356842041,0.08650875091552734,-0.1430978775024414,0.9635547399520874,8.220606803894043,5.041138648986816
0_20251106_211941,1762435147321,0,0.43717074394226074,0.28507137298583984,0.39759641885757446,0.7546741962432861,0.5472117066383362,3.0759170055389404,2.4647960662841797,0.8563693761825562,8.176637649536133,5.020139694213867,-0.024056613445281982,0.005108356010168791,0.008181770332157612,24.924762725830078,-29.532535552978516,-0.9870319366455078,-0.08574831485748291,-0.035175323486328125,-0.016798973083496094,0.9421176910400391,8.211812973022461,5.036938667297363
0_20251106_211941,1762435147340,0,0.43705320358276367,0.28501003980636597,0.3974009156227112,0.7548683881759644,0.544135332107544,3.0717053413391113,2.4597151279449463,0.7941228151321411,8.2508544921875,5.229623794555664,-0.05093466117978096,0.00938440952450037,0.04666624963283539,24.93825912475586,-29.506763458251953,-0.9724979400634766,-0.11839592456817627,0.031232833862304688,0.15414810180664062,0.9125187397003174,8.219621658325195,5.075475692749023
0_20251106_211941,1762435147361,0,0.43669307231903076,0.28467413783073425,0.39688146114349365,0.7554765939712524,0.5370224714279175,3.0645036697387695,2.4514763355255127,0.7318762540817261,8.372953414916992,5.179347038269043,-0.03993909806013107,-0.008941532112658024,0.10592012852430344,24.90271759033203,-29.484569549560547,-0.9193763732910156,-0.11771798133850098,0.10694313049316406,0.04426002502441406,0.849594235420227,8.266010284423828,5.135087013244629
0_20251106_211941,1762435147381,0,0.435373991727829,0.2842939496040344,0.396467000246048,0.7565978765487671,0.5328592658042908,3.061854600906372,2.447258234024048,0.8396106958389282,8.566875457763672,5.19610595703125,-0.05276725813746452,-0.01199585571885109,0.1492915153503418,24.865341186523438,-29.51125717163086,-1.0024738311767578,-0.007986843585968018,0.240692138671875,0.04881477355957031,0.8475975394248962,8.326183319091797,5.14729118347168
0_20251106_211941,1762435147399,0,0.4343862235546112,0.28446969389915466,0.3958173990249634,0.7574391961097717,0.5296979546546936,3.0602967739105225,2.4447689056396484,0.8779162764549255,8.529766082763672,5.467836380004883,-0.04726947098970413,0.0014431677991524339,0.14073941111564636,24.826669692993164,-29.551311492919922,-1.0047359466552734,0.024254977703094482,0.16286659240722656,0.2564358711242676,0.853661298751831,8.366899490356445,5.211400508880615
0_20251106_211941,1762435147417,0,0.4334651529788971,0.2847919464111328,0.39528802037239075,0.7581219673156738,0.5296979546546936,3.0602967739105225,2.4447689056396484,0.8779162764549255,8.529766082763672,5.467836380004883,0.0058757588267326355,0.03137553855776787,0.11630482226610184,24.826669692993164,-29.551311492919922,-1.0047359466552734,0.024254977703094482,0.16286659240722656,0.2564358711242676,0.853661298751831,8.366899490356445,5.211400508880615
0_20251106_211941,1762435147436,0,0.4323318302631378,0.28473061323165894,0.39508819580078125,0.7588958740234375,0.5240603685379028,3.057328224182129,2.4414095878601074,0.9413598775863647,8.34901237487793,5.19610595703125,0.029088616371154785,0.04176023602485657,0.12974384427070618,24.802791595458984,-29.552227020263672,-1.0732975006103516,0.06378817558288574,-0.015661239624023438,-0.05728721618652344,0.877571702003479,8.364673614501953,5.253393173217773
0_20251106_211941,1762435147454,0,0.4310111701488495,0.28466570377349854,0.3949339687824249,0.7597512602806091,0.5219554305076599,3.056164503097534,2.439438581466675,1.0119857788085938,8.44357967376709,5.101539611816406,0.029088616371154785,0.04176023602485657,0.12974384427070618,24.715770721435547,-29.594921112060547,-1.1315879821777344,0.10753130912780762,0.0631246566772461,-0.12148284912109375,0.9044544696807861,8.380455017089844,5.2230224609375
0_20251106_211941,1762435147475,0,0.42976561188697815,0.28498950600624084,0.3944408595561981,0.7605911493301392,0.5202096104621887,3.055269956588745,2.4376728534698486,1.0610647201538086,8.490264892578125,5.326584815979004,-0.05459985136985779,0.0014431677991524339,0.17067177593708038,24.639537811279297,-29.650318145751953,-1.0950374603271484,0.125288188457489,0.08784770965576172,0.08284950256347656,0.9357765316963196,8.402417182922363,5.243735313415527
0_20251106_211941,1762435147493,0,0.4285968840122223,0.28558170795440674,0.3937220275402069,0.7614005208015442,0.5202096104621887,3.055269956588745,2.4376728534698486,1.0610647201538086,8.490264892578125,5.326584815979004,-0.025889208540320396,-0.006498073693364859,0.1590653359889984,24.54144287109375,-29.66909408569336,-1.112741470336914,0.125288188457489,0.08784770965576172,0.08284950256347656,0.9357765316963196,8.402417182922363,5.243735313415527
0_20251106_211941,1762435147512,0,0.4274449646472931,0.28614357113838196,0.39302942156791687,0.7621945738792419,0.5184673070907593,3.0544471740722656,2.435100793838501,1.0969762802124023,8.576452255249023,5.186530113220215,-0.023445749655365944,-0.01871536858379841,0.13218730688095093,24.41665267944336,-29.739009857177734,-1.200063705444336,0.10086953639984131,0.12804603576660156,-0.0628504753112793,0.996106743812561,8.448406219482422,5.249380588531494
0_20251106_211941,1762435147531,0,0.42657366394996643,0.28674444556236267,0.39230695366859436,0.7628288269042969,0.5173937082290649,3.054971933364868,2.434246063232422,0.8731280565261841,8.685382843017578,5.424742698669434,-0.08147789537906647,-0.03337612375617027,0.08942677825689316,24.32822036743164,-29.806812286376953,-1.2588825225830078,-0.09838294982910156,0.18958091735839844,0.1402897834777832,0.9715110063552856,8.49580192565918,5.28445291519165
0_20251106_211941,1762435147551,0,0.4263118505477905,0.287246435880661,0.3914579451084137,0.763222336769104,0.5173937082290649,3.054971933364868,2.434246063232422,0.8731280565261841,8.685382843017578,5.424742698669434,-0.10346902906894684,0.01793651469051838,0.057661812752485275,24.250268936157227,-29.899341583251953,-1.2771892547607422,-0.09838294982910156,0.18958091735839844,0.1402897834777832,0.9715110063552856,8.49580192565918,5.28445291519165
0_20251106_211941,1762435147570,0,0.4261002540588379,0.28660452365875244,0.3908916115760803,0.7638717889785767,0.5115666389465332,3.0576109886169434,2.437922954559326,0.353608638048172,8.615955352783203,5.968203067779541,-0.10346902906894684,0.01793651469051838,0.057661812752485275,24.18450355529785,-29.991077423095703,-1.2950057983398438,-0.42667654156684875,0.05621337890625,0.4456443786621094,0.7802851796150208,8.559741973876953,5.522558689117432
0_20251106_211941,1762435147590,0,0.4247182309627533,0.2844875454902649,0.391355961561203,0.7651939392089844,0.5115666389465332,3.0576109886169434,2.437922954559326,0.353608638048172,8.615955352783203,5.968203067779541,0.07307088375091553,0.24456731975078583,0.2061019241809845,24.106367111206055,-30.072261810302734,-1.1914024353027344,-0.42667654156684875,0.05621337890625,0.4456443786621094,0.7802851796150208,8.559741973876953,5.522558689117432
0_20251106_211941,1762435147610,0,0.4219589829444885,0.28208523988723755,0.3926456570625305,0.7669471502304077,0.5059871077537537,3.060482978820801,2.4431231021881104,1.2932924032211304,8.456747055053711,5.247579574584961,0.0999489277601242,0.257395476102829,0.23236910998821259,24.017244338989258,-30.141010284423828,-1.1556072235107422,0.413362979888916,-0.09694480895996094,-0.2480010986328125,0.8799294233322144,8.553691864013672,5.495580673217773
0_20251106_211941,1762435147627,0,0.4188691973686218,0.2807212471961975,0.3939388394355774,0.768476665019989,0.5058951377868652,3.0610570907592773,2.443575382232666,1.5410816669464111,8.370559692382812,4.94831657409668,0.0999489277601242,0.257395476102829,0.23236910998821259,23.915725708007812,-30.22243881225586,-1.1881465911865234,0.5289218425750732,-0.14650535583496094,-0.43781137466430664,1.012159824371338,8.517065048217773,5.386127948760986
0_20251106_211941,1762435147645,0,0.4159536361694336,0.2810610830783844,0.3950653374195099,0.7693572640419006,0.5071728229522705,3.061279773712158,2.4426074028015137,1.5686137676239014,8.372953414916992,4.808261871337891,0.1054467111825943,0.11384227871894836,0.21465402841567993,23.776052474975586,-30.320018768310547,-1.1007747650146484,0.4451632499694824,-0.11528968811035156,-0.4622926712036133,1.123450517654419,8.488243103027344,5.270554542541504
0_20251106_211941,1762435147665,0,0.4136296808719635,0.28248870372772217,0.3954949975013733,0.769866406917572,0.509852945804596,3.0612189769744873,2.440347671508789,1.5614314079284668,8.390909194946289,4.8633270263671875,0.03702985867857933,0.04053850844502449,0.23359084129333496,23.696914672851562,-30.414165496826172,-0.9568862915039062,0.3503847122192383,-0.07786750793457031,-0.32578182220458984,1.2110466957092285,8.46877670288086,5.189108848571777
0_20251106_211941,1762435147685,0,0.41161730885505676,0.28432926535606384,0.3952127695083618,0.7704121470451355,0.5132813453674316,3.0611963272094727,2.438014268875122,1.6727570295333862,8.480688095092773,5.026124954223633,-0.019780561327934265,-0.039484769105911255,0.22748219966888428,23.61817169189453,-30.50777816772461,-0.8670635223388672,0.36936819553375244,0.00952911376953125,-0.1303873062133789,1.3033888339996338,8.471158981323242,5.156512260437012
0_20251106_211941,1762435147703,0,0.4101182520389557,0.2863661050796509,0.3942248225212097,0.770963191986084,0.5181322693824768,3.061645269393921,2.4357552528381348,1.70866858959198,8.626728057861328,5.223638534545898,-0.019780561327934265,-0.039484769105911255,0.22748219966888428,23.503379821777344,-30.591480255126953,-0.7514152526855469,0.32422375679016113,0.12445545196533203,0.053700923919677734,1.3844448328018188,8.502272605895996,5.169937610626221
0_20251106_211941,1762435147722,0,0.40942785143852234,0.28835785388946533,0.3930310606956482,0.7711972594261169,0.5230154991149902,3.0625956058502197,2.43375563621521,1.5686137676239014,8.700944900512695,5.184135437011719,-0.009395861066877842,-0.03459784761071205,0.014290418475866318,23.34164810180664,-30.652706146240234,-0.6912651062011719,0.14733517169952393,0.1589374542236328,0.011358261108398438,1.4212785959243774,8.542007446289062,5.17277717590332
0_20251106_211941,1762435147741,0,0.4093061089515686,0.28939101099967957,0.3925226926803589,0.7711337804794312,0.5273855328559875,3.0638227462768555,2.431614398956299,1.323218584060669,8.660244941711426,5.084780216217041,-0.009395861066877842,-0.03459784761071205,0.014290418475866318,23.214458465576172,-30.749088287353516,-0.643951416015625,-0.07844793796539307,0.0945901870727539,-0.07039737701416016,1.401666522026062,8.565654754638672,5.155177593231201
0_20251106_211941,1762435147760,0,0.409859299659729,0.2897258400917053,0.39257773756980896,0.7706860899925232,0.5307897925376892,3.065241575241089,2.429393768310547,1.1292966604232788,8.657851219177246,5.087174415588379,-0.0436042845249176,-0.007108938414603472,-0.07856101542711258,23.199254989624023,-30.80038070678711,-0.6184654235839844,-0.21789586544036865,0.07375717163085938,-0.05440235137939453,1.3471925258636475,8.584094047546387,5.141576766967773
0_20251106_211941,1762435147780,0,0.41055548191070557,0.28965994715690613,0.3926720917224884,0.7702921032905579,0.533444344997406,3.0670664310455322,2.4274044036865234,1.1005674600601196,8.717703819274902,5.217653274536133,-0.07048232853412628,-0.03765217587351799,-0.03946567699313164,23.18345832824707,-30.852481842041016,-0.5118808746337891,-0.19730007648468018,0.1068878173828125,0.06086111068725586,1.2978675365447998,8.61081600189209,5.156792163848877
0_20251106_211941,1762435147800,0,0.4113039970397949,0.2896270751953125,0.392485648393631,0.770000159740448,0.5352199077606201,3.069413900375366,2.4260945320129395,1.0718382596969604,8.866138458251953,5.333766937255859,-0.06070849671959877,-0.0626976266503334,-0.008922441862523556,23.16925621032715,-30.890811920166016,-0.5266799926757812,-0.1808234453201294,0.20425796508789062,0.14157962799072266,1.2526617050170898,8.661880493164062,5.192187309265137
0_20251106_211941,1762435147820,0,0.4117686450481415,0.28972309827804565,0.392195463180542,0.769863486289978,0.5361874103546143,3.072185754776001,2.425255060195923,0.9868477582931519,8.801497459411621,5.3469343185424805,-0.019169695675373077,-0.04803687334060669,-0.00037033576518297195,23.181739807128906,-30.88961410522461,-0.5667381286621094,-0.21265125274658203,0.1116933822631836,0.12379741668701172,1.1994990110397339,8.689804077148438,5.223136901855469
0_20251106_211941,1762435147840,0,0.4120270609855652,0.28981611132621765,0.3922616243362427,0.7696564793586731,0.5361874103546143,3.072185754776001,2.425255060195923,0.9868477582931519,8.801497459411621,5.3469343185424805,0.010151810944080353,-0.008941532112658024,0.022231658920645714,23.181739807128906,-30.88961410522461,-0.5667381286621094,-0.21265125274658203,0.1116933822631836,0.12379741668701172,1.1994990110397339,8.689804077148438,5.223136901855469
0_20251106_211941,1762435147856,0,0.41193991899490356,0.289675235748291,0.39263713359832764,0.769564688205719,0.5366210341453552,3.0776216983795166,2.4245924949645996,1.1580257415771484,8.756010055541992,5.322993278503418,0.02725602313876152,0.01793651469051838,0.03994673490524292,23.143672943115234,-30.917247772216797,-0.5552215576171875,-0.0006866455078125,0.03758430480957031,0.0627584457397461,1.158712387084961,8.718425750732422,5.260234832763672
0_20251106_211941,1762435147876,0,0.4114764630794525,0.28944647312164307,0.3932107388973236,0.7696058750152588,0.5370826721191406,3.0802104473114014,2.4242799282073975,1.25259268283844,8.703338623046875,5.224835395812988,0.04436023533344269,0.022212568670511246,0.04849884286522865,23.182035446166992,-30.889209747314453,-0.6072864532470703,0.0751042366027832,-0.0120697021484375,-0.028319835662841797,1.1774884462356567,8.715408325195312,5.25315523147583
0_20251106_211941,1762435147896,0,0.4109278917312622,0.28955623507499695,0.3936888873577118,0.7696132063865662,0.5379046201705933,3.0827252864837646,2.4237804412841797,1.3172334432601929,8.7356595993042,5.179347991943359,0.03397553414106369,-0.0016111558070406318,0.06377045810222626,23.255250930786133,-30.88431167602539,-0.6178607940673828,0.11179602146148682,0.016201019287109375,-0.05904579162597656,1.205437421798706,8.71945858001709,5.238393783569336
0_20251106_211941,1762435147914,0,0.4104032516479492,0.2900691628456116,0.3938966691493988,0.7695937156677246,0.53912353515625,3.0848894119262695,2.423255681991577,1.3651152849197388,8.63750171661377,5.220047473907471,0.011373540386557579,-0.03154352679848671,0.06010527163743973,23.28013038635254,-30.870433807373047,-0.5895824432373047,0.12774229049682617,-0.06556510925292969,-0.01467752456665039,1.2373729944229126,8.7030668258667,5.234724998474121
0_20251106_211941,1762435147933,0,0.4099792242050171,0.2907748222351074,0.39386993646621704,0.76956707239151,0.53912353515625,3.0848894119262695,2.423255681991577,1.3651152849197388,8.63750171661377,5.220047473907471,0.010762672871351242,-0.059032440185546875,0.03261635825037956,23.241161346435547,-30.910892486572266,-0.5512962341308594,0.12774229049682617,-0.06556510925292969,-0.01467752456665039,1.2373729944229126,8.7030668258667,5.234724998474121
0_20251106_211941,1762435147952,0,0.40995585918426514,0.291603684425354,0.39362233877182007,0.7693925499916077,0.5422749519348145,3.0883195400238037,2.4223313331604004,1.289701223373413,8.570466995239258,5.170968532562256,0.018703915178775787,-0.06514108180999756,-0.012587630189955235,23.242063522338867,-30.898067474365234,-0.5780658721923828,0.021806955337524414,-0.09558963775634766,-0.05765819549560547,1.2678942680358887,8.666056632995605,5.228626728057861
0_20251106_211941,1762435147971,0,0.4101186692714691,0.2921891510486603,0.3935430943965912,0.7691241502761841,0.5434946417808533,3.089812755584717,2.4217443466186523,1.181966781616211,8.706930160522461,5.202091217041016,0.008319215849041939,-0.05475638806819916,-0.04862865060567856,23.192516326904297,-30.913936614990234,-0.5667743682861328,-0.06874203681945801,0.032698631286621094,-0.021228313446044922,1.250708818435669,8.67423152923584,5.2233195304870605
0_20251106_211941,1762435147990,0,0.41061291098594666,0.2925150990486145,0.39361584186553955,0.7686992287635803,0.5438571572303772,3.0911192893981934,2.4213671684265137,0.952133297920227,8.659048080444336,5.2846879959106445,0.016871321946382523,-0.03643044829368591,-0.08650226145982742,23.153743743896484,-30.95412826538086,-0.5555210113525391,-0.23886048793792725,-0.012146949768066406,0.04909467697143555,1.1909937858581543,8.671195030212402,5.235593318939209
0_20251106_211941,1762435148010,0,0.4112806022167206,0.2924444377422333,0.39409303665161133,0.7681244611740112,0.5438571572303772,3.0911192893981934,2.4213671684265137,0.952133297920227,8.659048080444336,5.2846879959106445,0.051690611988306046,-0.011384991928935051,-0.07000891119241714,23.10610008239746,-30.944210052490234,-0.6112842559814453,-0.23886048793792725,-0.012146949768066406,0.04909467697143555,1.1909937858581543,8.671195030212402,5.235593318939209
0_20251106_211941,1762435148030,0,0.41167980432510376,0.2919642925262451,0.39496493339538574,0.7676452994346619,0.5423887968063354,3.0922954082489014,2.421419620513916,0.7163146138191223,8.569269180297852,5.362496376037598,0.07673606276512146,0.029542943462729454,0.018566470593214035,23.05655288696289,-30.960079193115234,-0.5999927520751953,-0.3797432780265808,-0.08154010772705078,0.10152244567871094,1.0960578918457031,8.650809288024902,5.260973930358887
0_20251106_211941,1762435148047,0,0.41118770837783813,0.29113656282424927,0.39602985978126526,0.7676747441291809,0.5382751226425171,3.092373847961426,2.4215571880340576,0.9497392177581787,8.352603912353516,5.145830154418945,0.07917952537536621,0.048479750752449036,0.13279816508293152,23.019500732421875,-30.963138580322266,-0.5338821411132812,-0.055338382720947266,-0.20330047607421875,-0.10223007202148438,1.005077600479126,8.555904388427734,5.24806022644043
0_20251106_211941,1762435148067,0,0.40975937247276306,0.2905743420124054,0.39680999517440796,0.768248438835144,0.5366621017456055,3.091325521469116,2.4210712909698486,1.2178783416748047,8.30472183227539,5.118297576904297,0.048025425523519516,0.021601704880595207,0.21831922233104706,22.99501609802246,-30.97647476196289,-0.6162242889404297,0.1702406406402588,-0.20094585418701172,-0.10381031036376953,1.047637701034546,8.505667686462402,5.222107887268066
0_20251106_211941,1762435148086,0,0.40787559747695923,0.2908938527107239,0.39689433574676514,0.7690859436988831,0.536625862121582,3.0898380279541016,2.420400619506836,1.565022587776184,8.308313369750977,5.137450695037842,0.048025425523519516,0.021601704880595207,0.21831922233104706,22.958457946777344,-30.97885513305664,-0.6176967620849609,0.41390788555145264,-0.1578836441040039,-0.06772565841674805,1.1511147022247314,8.46619701385498,5.20517635345459
0_20251106_211941,1762435148104,0,0.40593621134757996,0.2918007969856262,0.39630743861198425,0.7700704336166382,0.5384318828582764,3.0885732173919678,2.419689178466797,1.8978023529052734,8.496249198913574,5.161391258239746,0.01748218759894371,-0.005276344250887632,0.25069504976272583,22.943254470825195,-31.030147552490234,-0.5922107696533203,0.5973501205444336,0.024041175842285156,-0.03502798080444336,1.3004522323608398,8.472208023071289,5.1964192390441895
0_20251106_211941,1762435148124,0,0.40439149737358093,0.2930389642715454,0.39534032344818115,0.7709096670150757,0.5384318828582764,3.0885732173919678,2.419689178466797,1.8978023529052734,8.496249198913574,5.161391258239746,-0.0014546196907758713,-0.02848920039832592,0.1999932825565338,22.95412826538086,-31.054332733154297,-0.6057643890380859,0.5973501205444336,0.024041175842285156,-0.03502798080444336,1.3004522323608398,8.472208023071289,5.1964192390441895
0_20251106_211941,1762435148143,0,0.40403300523757935,0.29425349831581116,0.39447811245918274,0.7710766792297363,0.5474224090576172,3.085979700088501,2.417367458343506,1.8379498720169067,8.4052734375,5.04168701171875,-0.013671914115548134,-0.03093266300857067,-0.13292798399925232,22.928447723388672,-31.08089828491211,-0.62078857421875,0.3175675868988037,-0.05624580383300781,-0.10898828506469727,1.520382285118103,8.461519241333008,5.150675296783447
0_20251106_211941,1762435148161,0,0.4049815535545349,0.29495763778686523,0.39406609535217285,0.7705205082893372,0.5519784092903137,3.0846059322357178,2.4157660007476807,1.6105104684829712,8.38851547241211,4.9722580909729,-0.013671914115548134,-0.03093266300857067,-0.13292798399925232,22.929250717163086,-31.06821060180664,-0.6340408325195312,0.07210254669189453,-0.05840301513671875,-0.14273357391357422,1.5384079217910767,8.446918487548828,5.114991664886475
0_20251106_211941,1762435148181,0,0.40674176812171936,0.2947588860988617,0.3941107392311096,0.7696460485458374,0.5564426779747009,3.0830838680267334,2.4138271808624268,1.424967885017395,8.423230171203613,5.0333075523376465,-0.029554396867752075,0.0014431677991524339,-0.2465488314628601,22.90438461303711,-31.07046890258789,-0.5674400329589844,-0.0907520055770874,-0.018950462341308594,-0.06534719467163086,1.5157198905944824,8.442180633544922,5.098654747009277
0_20251106_211941,1762435148201,0,0.4086187481880188,0.29395657777786255,0.3942265808582306,0.7688989639282227,0.5598976016044617,3.081789016723633,2.4125096797943115,1.3687065839767456,8.44477653503418,5.2368059158325195,-0.10102556645870209,0.0008323030779138207,-0.17141246795654297,22.941436767578125,-31.06740951538086,-0.6335506439208984,-0.11761057376861572,0.0020771026611328125,0.11052131652832031,1.4863171577453613,8.442699432373047,5.126284599304199
0_20251106_211941,1762435148221,0,0.4100201725959778,0.29320594668388367,0.39396220445632935,0.7685750126838684,0.5638155937194824,3.08048677444458,2.4120380878448486,1.4608792066574097,8.497446060180664,5.413969039916992,-0.08208875358104706,-0.04986947029829025,-0.07550669461488724,22.991493225097656,-31.039249420166016,-0.6175441741943359,-0.020350337028503418,0.04379749298095703,0.2301473617553711,1.481229543685913,8.453648567199707,5.183821678161621
0_20251106_211941,1762435148240,0,0.41092023253440857,0.29304125905036926,0.39325016736984253,0.7685217261314392,0.5638155937194824,3.08048677444458,2.4120380878448486,1.4608792066574097,8.497446060180664,5.413969039916992,-0.08208875358104706,-0.04986947029829025,-0.07550669461488724,23.06570816040039,-31.02138900756836,-0.6684017181396484,-0.020350337028503418,0.04379749298095703,0.2301473617553711,1.481229543685913,8.453648567199707,5.183821678161621
0_20251106_211941,1762435148258,0,0.4113869071006775,0.29341715574264526,0.3923663794994354,0.7685803771018982,0.5703959465026855,3.079441547393799,2.412926435470581,1.5410816669464111,8.584831237792969,5.366086959838867,-0.046047743409872055,-0.0883539468050003,-0.027248382568359375,23.06570816040039,-31.02138900756836,-0.6684017181396484,0.03734779357910156,0.08280754089355469,0.10707330703735352,1.5037338733673096,8.502023696899414,5.259013652801514
0_20251106_211941,1762435148277,0,0.4116280972957611,0.29405954480171204,0.3917029798030853,0.7685441374778748,0.573768675327301,3.07930326461792,2.4136598110198975,1.573401927947998,8.583633422851562,5.309825897216797,-0.0020654844120144844,-0.04437168315052986,0.008792635053396225,23.118669509887695,-30.954486846923828,-0.7597332000732422,0.05573451519012451,0.06528759002685547,0.0406498908996582,1.5176674127578735,8.518345832824707,5.269176006317139
0_20251106_211941,1762435148296,0,0.41163721680641174,0.294636070728302,0.39123180508613586,0.7685584425926208,0.5776019096374512,3.079587459564209,2.414569854736328,1.7469741106033325,8.669821739196777,5.3469343185424805,-0.009395861066877842,-0.04376082122325897,0.05155316740274429,23.146663665771484,-30.88998031616211,-0.7709484100341797,0.18344533443450928,0.12118053436279297,0.062206268310546875,1.5635287761688232,8.548641204833984,5.284728050231934
0_20251106_211941,1762435148315,0,0.4112882614135742,0.29538029432296753,0.3906516134738922,0.7687546610832214,0.5820817947387695,3.080232620239258,2.4156477451324463,1.8690731525421143,8.685382843017578,5.362496376037598,0.0070974864065647125,-0.08957567811012268,0.07293342798948288,23.173954010009766,-30.838031768798828,-0.7824287414550781,0.24443554878234863,0.10939311981201172,0.06221437454223633,1.6246376037597656,8.575989723205566,5.300282001495361
0_20251106_211941,1762435148335,0,0.4109022915363312,0.29682207107543945,0.3898274302482605,0.7688241600990295,0.5820817947387695,3.080232620239258,2.4156477451324463,1.8690731525421143,8.685382843017578,5.362496376037598,0.06390790641307831,-0.16471204161643982,0.04972057044506073,23.21997833251953,-30.884944915771484,-0.7950382232666016,0.24443554878234863,0.10939311981201172,0.06221437454223633,1.6246376037597656,8.575989723205566,5.300282001495361
0_20251106_211941,1762435148353,0,0.4107658863067627,0.2990393340587616,0.38909628987312317,0.7684080600738525,0.5920860171318054,3.081726312637329,2.4165573120117188,1.7170478105545044,8.571663856506348,5.057248115539551,0.07551433145999908,-0.21113775670528412,-0.024804923683404922,23.246946334838867,-30.856624603271484,-0.9557247161865234,0.030796289443969727,-0.012345314025878906,-0.17814254760742188,1.6862515211105347,8.584009170532227,5.235390663146973
0_20251106_211941,1762435148373,0,0.41143158078193665,0.30152735114097595,0.3885202705860138,0.7673704028129578,0.596427857875824,3.0820765495300293,2.4161887168884277,1.4979878664016724,8.467519760131836,5.070416450500488,0.07551433145999908,-0.21113775670528412,-0.024804923683404922,23.23284339904785,-30.894817352294922,-0.984039306640625,-0.1506110429763794,-0.09319114685058594,-0.13197946548461914,1.6485989093780518,8.560710906982422,5.202395915985107
0_20251106_211941,1762435148391,0,0.4126998782157898,0.30326515436172485,0.3882744312286377,0.7661279439926147,0.5992268919944763,3.0818870067596436,2.4155161380767822,1.2777307033538818,8.362180709838867,5.057248115539551,0.013816999271512032,-0.16715548932552338,-0.14636701345443726,23.242408752441406,-30.943981170654297,-1.011636734008789,-0.2966945171356201,-0.15882396697998047,-0.1161184310913086,1.574425220489502,8.521004676818848,5.173366546630859
0_20251106_211941,1762435148410,0,0.41429251432418823,0.3041355013847351,0.3881590664386749,0.7649809122085571,0.6007828712463379,3.081524133682251,2.414562702178955,1.1185232400894165,8.4579439163208,5.071613311767578,-0.01489364355802536,-0.16654463112354279,-0.14514529705047607,23.255088806152344,-30.942516326904297,-1.0787277221679688,-0.3647216558456421,-0.05044841766357422,-0.08140277862548828,1.4832448959350586,8.508392333984375,5.153016090393066
0_20251106_211941,1762435148429,0,0.41594868898391724,0.30452585220336914,0.38799747824668884,0.7640082836151123,0.6009779572486877,3.0814316272735596,2.4139227867126465,1.015576958656311,8.600393295288086,5.249973297119141,-0.03810650110244751,-0.17754018306732178,-0.13476058840751648,23.246315002441406,-30.892276763916016,-1.1592597961425781,-0.3741343021392822,0.07360076904296875,0.07756567001342773,1.3897112607955933,8.526792526245117,5.172407627105713
0_20251106_211941,1762435148449,0,0.41777661442756653,0.3047935366630554,0.38775134086608887,0.7630285024642944,0.6009779572486877,3.0814316272735596,2.4139227867126465,1.015576958656311,8.600393295288086,5.249973297119141,-0.03810650110244751,-0.17754018306732178,-0.13476058840751648,23.368274688720703,-30.884197235107422,-1.1678714752197266,-0.3741343021392822,0.07360076904296875,0.07756567001342773,1.3897112607955933,8.526792526245117,5.172407627105713
0_20251106_211941,1762435148469,0,0.4195577800273895,0.3047278821468353,0.38774657249450684,0.7620792388916016,0.5996666550636292,3.082045316696167,2.414147138595581,0.9748772382736206,8.721294403076172,5.424742698669434,0.019925646483898163,-0.11828631907701492,-0.16591468453407288,23.451744079589844,-30.92751693725586,-1.3006572723388672,-0.3318673372268677,0.15560150146484375,0.20186805725097656,1.3067445755004883,8.565692901611328,5.222874641418457
0_20251106_211941,1762435148486,0,0.4211103618144989,0.3042104244232178,0.38826847076416016,0.7611633539199829,0.5957449674606323,3.0833935737609863,2.415527820587158,0.9784684181213379,8.588422775268555,5.3182053565979,0.027866888791322708,-0.10606902837753296,-0.19157101213932037,23.541362762451172,-30.858097076416016,-1.4040355682373047,-0.21526801586151123,0.004204750061035156,0.045880794525146484,1.1937364339828491,8.58421802520752,5.272324562072754
0_20251106_211941,1762435148506,0,0.4228249490261078,0.3036596477031708,0.3888295292854309,0.7601457238197327,0.5926426649093628,3.083928108215332,2.4164187908172607,0.9676949977874756,8.523781776428223,5.301446914672852,0.015038726851344109,-0.10667988657951355,-0.19829052686691284,23.68830108642578,-30.836009979248047,-1.3978862762451172,-0.180833101272583,-0.048348426818847656,0.023297786712646484,1.1485280990600586,8.57213020324707,5.278149127960205
0_20251106_211941,1762435148526,0,0.424655020236969,0.3031182885169983,0.38933002948760986,0.7590847015380859,0.5890693068504333,3.0842270851135254,2.4172959327697754,0.9425569772720337,8.50343132019043,5.288278579711914,0.01137353852391243,-0.09324086457490921,-0.19706878066062927,23.802698135375977,-30.75284194946289,-1.4594707489013672,-0.16477692127227783,-0.05495929718017578,0.008103370666503906,1.1073338985443115,8.558390617370605,5.28017520904541
0_20251106_211941,1762435148544,0,0.4263664186000824,0.30246174335479736,0.3898206949234009,0.7581348419189453,0.5859237313270569,3.0842738151550293,2.4179301261901855,1.070641279220581,8.473505973815918,5.233214378356934,0.0015997039154171944,-0.0681954100728035,-0.1854623556137085,23.895740509033203,-30.620769500732422,-1.5480117797851562,-0.029354095458984375,-0.06790733337402344,-0.03756856918334961,1.0999953746795654,8.541413307189941,5.270782947540283
0_20251106_211941,1762435148563,0,0.42793482542037964,0.30164963006973267,0.39029112458229065,0.7573322653770447,0.5831881165504456,3.0843214988708496,2.41867995262146,1.2525928020477295,8.54173755645752,5.312219619750977,-0.03688477352261543,-0.05475638434290886,-0.17629939317703247,23.999263763427734,-30.513416290283203,-1.5960407257080078,0.12207794189453125,0.0002593994140625,0.03314924240112305,1.1305148601531982,8.541478157043457,5.2790703773498535
0_20251106_211941,1762435148583,0,0.4294707477092743,0.3009050488471985,0.39037978649139404,0.7567130327224731,0.5831881165504456,3.0843214988708496,2.41867995262146,1.2525928020477295,8.54173755645752,5.312219619750977,-0.04788033664226532,-0.052312929183244705,-0.17813198268413544,24.08748435974121,-30.45749282836914,-1.6050682067871094,0.12207794189453125,0.0002593994140625,0.03314924240112305,1.1305148601531982,8.541478157043457,5.2790703773498535
0_20251106_211941,1762435148601,0,0.4309951364994049,0.3003550171852112,0.3901817202568054,0.7561668157577515,0.5798230767250061,3.0853164196014404,2.4215378761291504,1.289701223373413,8.678200721740723,5.435515880584717,0.00465402752161026,-0.0834670290350914,-0.1958470642566681,24.167327880859375,-30.350788116455078,-1.7486934661865234,0.08751463890075684,0.09171581268310547,0.09246397018432617,1.2021865844726562,8.586484909057617,5.343051910400391
0_20251106_211941,1762435148620,0,0.4325079023838043,0.300237774848938,0.39009228348731995,0.7553954124450684,0.5784111618995667,3.0860435962677,2.422790050506592,1.2011196613311768,8.629121780395508,5.263140678405762,0.04313850402832031,-0.0987386405467987,-0.18729496002197266,24.26239776611328,-30.169559478759766,-1.728048324584961,-0.0008535385131835938,0.034110069274902344,-0.06392908096313477,1.2019731998443604,8.595011711120605,5.3270697593688965
0_20251106_211941,1762435148639,0,0.43399667739868164,0.30040010809898376,0.39028704166412354,0.754375696182251,0.5771167278289795,3.086880683898926,2.423551559448242,1.2190754413604736,8.648275375366211,5.170968055725098,0.02786688506603241,-0.09018653631210327,-0.13720405101776123,24.353748321533203,-30.051387786865234,-1.6816902160644531,0.013681769371032715,0.042611122131347656,-0.12488126754760742,1.205393671989441,8.605664253234863,5.295849323272705
0_20251106_211941,1762435148661,0,0.4351757764816284,0.300661563873291,0.39043959975242615,0.7535127997398376,0.5758444666862488,3.0882487297058105,2.424264430999756,1.2466075420379639,8.727279663085938,5.261943817138672,0.010762674733996391,-0.12195150554180145,-0.08650226145982742,24.41969871520996,-29.970996856689453,-1.7857837677001953,0.03297114372253418,0.09729194641113281,-0.027124404907226562,1.2136363983154297,8.629987716674805,5.289068222045898
0_20251106_211941,1762435148681,0,0.4361436069011688,0.3013797998428345,0.3902607560157776,0.7527586221694946,0.5744165182113647,3.089580535888672,2.424717426300049,1.1053556203842163,8.679398536682129,5.23560905456543,0.06268617510795593,-0.1555490642786026,-0.07856101542711258,24.48444938659668,-29.90383529663086,-1.822561264038086,-0.0866246223449707,0.039528846740722656,-0.04276752471923828,1.191980242729187,8.639869689941406,5.278376579284668
0_20251106_211941,1762435148698,0,0.4370790719985962,0.3025718331336975,0.3902038037776947,0.7517666816711426,0.5726525187492371,3.090506076812744,2.424447774887085,0.9138277769088745,8.571663856506348,4.989016532897949,0.10727930068969727,-0.13844485580921173,-0.07000891119241714,24.48444938659668,-29.90383529663086,-1.822561264038086,-0.22252190113067627,-0.054564476013183594,-0.23148822784423828,1.1363496780395508,8.626228332519531,5.2205047607421875
0_20251106_211941,1762435148716,0,0.43773001432418823,0.30359941720962524,0.3906494081020355,0.7507415413856506,0.5726525187492371,3.090506076812744,2.424447774887085,0.9138277769088745,8.571663856506348,4.989016532897949,0.07734693586826324,-0.11706458777189255,-0.03335702791810036,24.58475685119629,-29.84725570678711,-1.8175811767578125,-0.22252190113067627,-0.054564476013183594,-0.23148822784423828,1.1363496780395508,8.626228332519531,5.2205047607421875
0_20251106_211941,1762435148735,0,0.4382355511188507,0.3044152557849884,0.39114928245544434,0.7498554587364197,0.5700639486312866,3.090728282928467,2.423365354537964,0.8755221366882324,8.34901237487793,4.930360794067383,0.04069504886865616,-0.1042364239692688,-0.0034246593713760376,24.69995880126953,-29.751399993896484,-1.8924179077148438,-0.2086620330810547,-0.2217731475830078,-0.2321152687072754,1.084184169769287,8.570785522460938,5.162476062774658
0_20251106_211941,1762435148754,0,0.4387055039405823,0.3050604462623596,0.3912407159805298,0.749270498752594,0.5639215111732483,3.0894885063171387,2.4200987815856934,0.7989110350608826,8.339436531066895,5.009366035461426,0.025423429906368256,-0.1091233491897583,0.0020731226541101933,24.78485107421875,-29.757991790771484,-1.9297981262207031,-0.20172768831253052,-0.14921283721923828,-0.09167003631591797,1.000638723373413,8.488649368286133,5.101036071777344
0_20251106_211941,1762435148773,0,0.4390491247177124,0.3056351840496063,0.39116111397743225,0.7488765120506287,0.5639215111732483,3.0894885063171387,2.4200987815856934,0.7989110350608826,8.339436531066895,5.009366035461426,0.0028214333578944206,-0.06636281311511993,0.006349175702780485,24.8214111328125,-29.755611419677734,-1.9283275604248047,-0.20172768831253052,-0.14921283721923828,-0.09167003631591797,1.000638723373413,8.488649368286133,5.101036071777344
