session_id,timestamp,label,quaternion_w,quaternion_x,quaternion_y,quaternion_z,position_x,position_y,position_z,accelerometer_x,accelerometer_y,accelerometer_z,gyroscope_x,gyroscope_y,gyroscope_z,magnetometer_x,magnetometer_y,magnetometer_z,linear_acceleration_x,linear_acceleration_y,linear_acceleration_z,gravity_x,gravity_y,gravity_z
6_20251106_151919,1762413521757,6,0.5762243270874023,0.5563827753067017,0.5362038612365723,0.2662501633167267,-0.14986345171928406,1.8100016117095947,-1.531253695487976,-3.083120107650757,9.057665824890137,-1.9442932605743408,0.049021895974874496,0.008842267096042633,-0.03658316284418106,36.83097839355469,-11.646087646484375,-8.307910919189453,0.02518916130065918,-0.03044605255126953,-0.01332855224609375,-3.108309268951416,9.088111877441406,-1.930964708328247
6_20251106_151919,1762413521776,6,0.5757236480712891,0.5570138096809387,0.5362527370452881,0.2659152150154114,-0.14800502359867096,1.8086262941360474,-1.5377200841903687,-3.1549429893493652,8.9798583984375,-1.909578800201416,0.049021895974874496,0.008842267096042633,-0.03658316284418106,36.83097839355469,-11.646087646484375,-8.307910919189453,-0.037307024002075195,-0.08660316467285156,0.017108678817749023,-3.11763596534729,9.066461563110352,-1.926687479019165
6_20251106_151919,1762413521796,6,0.5754364132881165,0.5570123195648193,0.5366682410240173,0.2657017409801483,-0.14655207097530365,1.8070197105407715,-1.543829321861267,-3.2315540313720703,8.957113265991211,-1.9143670797348022,0.02153298258781433,0.04793760925531387,-0.07323504239320755,36.880638122558594,-11.61846923828125,-8.23784065246582,-0.09113430976867676,-0.0874786376953125,0.009856343269348145,-3.1404197216033936,9.044591903686523,-1.9242234230041504
6_20251106_151919,1762413521815,6,0.575278639793396,0.5566990375518799,0.5372937321662903,0.2654357850551605,-0.1454416662454605,1.8051726818084717,-1.5501633882522583,-3.253101110458374,8.965492248535156,-1.9981603622436523,0.0282524973154068,0.03510944917798042,-0.06346120685338974,36.85254669189453,-11.683113098144531,-8.21310806274414,-0.09014511108398438,-0.0632791519165039,-0.05914950370788574,-3.1629559993743896,9.02877140045166,-1.9390108585357666
6_20251106_151919,1762413521834,6,0.5751638412475586,0.556340217590332,0.5379667282104492,0.2650734484195709,-0.14457190036773682,1.803187608718872,-1.555946946144104,-3.2112042903900146,8.912822723388672,-1.963446021080017,0.0386371947824955,0.0015118904411792755,-0.0500221848487854,36.82445526123047,-11.747756958007812,-8.188376426696777,-0.03859877586364746,-0.0927591323852539,-0.01954805850982666,-3.172605514526367,9.005581855773926,-1.9438979625701904
6_20251106_151919,1762413521853,6,0.5751246213912964,0.5562875270843506,0.5383918285369873,0.2644053101539612,-0.14387451112270355,1.8010209798812866,-1.5613963603973389,-3.219583511352539,8.903246879577637,-1.927534580230713,0.04413497820496559,-0.01314886286854744,-0.04269180819392204,36.85789489746094,-11.796005249023438,-8.147412300109863,-0.0375823974609375,-0.08186817169189453,0.013090729713439941,-3.1820011138916016,8.985115051269531,-1.9406253099441528
6_20251106_151919,1762413521872,6,0.5751078128814697,0.5564466118812561,0.5386397838592529,0.26360082626342773,-0.14328226447105408,1.7987775802612305,-1.5663206577301025,-3.207613229751587,8.917611122131348,-1.84852933883667,0.030085090547800064,-0.005818486213684082,-0.04269180819392204,36.81781005859375,-11.861175537109375,-8.150203704833984,-0.02048969268798828,-0.05400371551513672,0.07367682456970215,-3.1871235370635986,8.971614837646484,-1.922206163406372
6_20251106_151919,1762413521891,6,0.5751090049743652,0.5564896464347839,0.5388909578323364,0.2629932463169098,-0.14279882609844208,1.7963963747024536,-1.5706192255020142,-3.2159924507141113,8.880502700805664,-1.7838886976242065,0.012980874627828598,0.025335613638162613,-0.04391353949904442,36.8692626953125,-11.81951904296875,-8.228547096252441,-0.023095130920410156,-0.07288932800292969,0.11065399646759033,-3.192897319793701,8.953392028808594,-1.8945426940917969
6_20251106_151919,1762413521910,6,0.5751766562461853,0.5563664436340332,0.5391569137573242,0.26256048679351807,-0.14241935312747955,1.7940130233764648,-1.5745470523834229,-3.221977710723877,8.909231185913086,-1.8377559185028076,0.020311255007982254,0.04488328844308853,-0.04085921496152878,36.929588317871094,-11.827972412109375,-8.239874839782715,-0.023264169692993164,-0.03532886505126953,0.04542946815490723,-3.198713541030884,8.944560050964355,-1.8831853866577148
6_20251106_151919,1762413521929,6,0.5752127170562744,0.555997908115387,0.5395388603210449,0.2624776065349579,-0.14227703213691711,1.7915434837341309,-1.5784987211227417,-3.2782390117645264,8.869729995727539,-1.9634459018707275,0.046578437089920044,0.03938550502061844,-0.03291797637939453,37.01780700683594,-11.772048950195312,-8.248902320861816,-0.06362032890319824,-0.059864044189453125,-0.0642085075378418,-3.214618682861328,8.929594039916992,-1.8992373943328857
6_20251106_151919,1762413521948,6,0.5750859379768372,0.5557283163070679,0.5400035977363586,0.2623704969882965,-0.1424838751554489,1.7890890836715698,-1.5829085111618042,-3.3392887115478516,8.890079498291016,-2.1382150650024414,0.06673696637153625,0.025335613638162613,-0.009094249457120895,37.005523681640625,-11.772979736328125,-8.235876083374023,-0.09973597526550293,-0.03161144256591797,-0.19118213653564453,-3.2395527362823486,8.921690940856934,-1.9470329284667969
6_20251106_151919,1762413521967,6,0.5747879147529602,0.5557822585105896,0.5404179096221924,0.2620561420917511,-0.14307880401611328,1.7870582342147827,-1.5880426168441772,-3.3847765922546387,9.031330108642578,-2.2914376258850098,0.06551523506641388,0.022281290963292122,0.023281581699848175,37.05830001831055,-11.694732666015625,-8.20529842376709,-0.11617922782897949,0.08771133422851562,-0.27552366256713867,-3.268597364425659,8.943618774414062,-2.015913963317871
6_20251106_151919,1762413521987,6,0.5743178129196167,0.5562404990196228,0.5407081842422485,0.2615152895450592,-0.1440054327249527,1.7858260869979858,-1.5941194295883179,-3.4003381729125977,9.19771957397461,-2.4530391693115234,0.052687082439661026,0.013729184865951538,0.039774928241968155,37.047027587890625,-11.671089172363281,-8.137680053710938,-0.1053926944732666,0.20328044891357422,-0.3497002124786377,-3.294945478439331,8.994439125061035,-2.1033389568328857
6_20251106_151919,1762413522007,6,0.5737698674201965,0.5569297671318054,0.5408393144607544,0.26097944378852844,-0.14492858946323395,1.7852119207382202,-1.6012301445007324,-3.2938008308410645,9.197721481323242,-2.44346284866333,0.012370012700557709,0.010674861259758472,0.062376923859119415,36.97612762451172,-11.638046264648438,-8.15334701538086,0.0009157657623291016,0.1626262664794922,-0.27209901809692383,-3.2947165966033936,9.03509521484375,-2.1713638305664062
6_20251106_151919,1762413522026,6,0.5731844902038574,0.5577996969223022,0.5407953262329102,0.2604984939098358,-0.14492858946323395,1.7852119207382202,-1.6012301445007324,-3.2938008308410645,9.197721481323242,-2.44346284866333,-0.027947060763835907,0.0015118904411792755,0.07398334890604019,37.0142936706543,-11.610282897949219,-8.178380012512207,0.0009157657623291016,0.1626262664794922,-0.27209901809692383,-3.2947165966033936,9.03509521484375,-2.1713638305664062
6_20251106_151919,1762413522045,6,0.5727614760398865,0.5586094260215759,0.540474534034729,0.26035958528518677,-0.14532190561294556,1.7853575944900513,-1.6090980768203735,-3.1393814086914062,9.24919319152832,-2.2902402877807617,-0.027947060763835907,0.0015118904411792755,0.07398334890604019,36.973716735839844,-11.676124572753906,-8.113590240478516,0.1242682933807373,0.1712779998779297,-0.09510111808776855,-3.2636497020721436,9.07791519165039,-2.195139169692993
6_20251106_151919,1762413522063,6,0.572519063949585,0.559307873249054,0.5399141311645508,0.2605559527873993,-0.14400190114974976,1.7865607738494873,-1.619621992111206,-2.9298977851867676,9.238420486450195,-1.9694312810897827,-0.018173225224018097,-0.008872809819877148,0.04160752147436142,36.913997650146484,-11.655250549316406,-8.088481903076172,0.22298598289489746,0.10463809967041016,0.1574770212173462,-3.152883768081665,9.133782386779785,-2.126908302307129
6_20251106_151919,1762413522082,6,0.572406530380249,0.5597295165061951,0.5393515229225159,0.261062353849411,-0.14239825308322906,1.7875580787658691,-1.6243512630462646,-2.9334888458251953,9.219266891479492,-2.0149190425872803,0.0013744458556175232,-0.034529123455286026,0.014729474671185017,36.84128952026367,-11.647865295410156,-8.05061149597168,0.17551612854003906,0.06838798522949219,0.08959126472473145,-3.1090049743652344,9.15087890625,-2.1045103073120117
6_20251106_151919,1762413522100,6,0.572382390499115,0.5599557757377625,0.5388794541358948,0.2616044878959656,-0.14075858891010284,1.7882437705993652,-1.6281629800796509,-3.0292530059814453,9.064847946166992,-1.9239435195922852,0.019700389355421066,-0.08767435699701309,-0.0017638728022575378,36.81580352783203,-11.674163818359375,-8.092668533325195,0.06380176544189453,-0.06882476806640625,0.1444535255432129,-3.09305477142334,9.133672714233398,-2.068397045135498
6_20251106_151919,1762413522119,6,0.5724790692329407,0.5602740049362183,0.5383761525154114,0.2617478370666504,-0.13926446437835693,1.788686752319336,-1.6313360929489136,-3.1477608680725098,9.044498443603516,-1.831770658493042,0.019700389355421066,-0.08767435699701309,-0.0017638728022575378,36.777130126953125,-11.714218139648438,-8.094932556152344,-0.04376482963562012,-0.07133960723876953,0.1893012523651123,-3.1039960384368896,9.115838050842285,-2.0210719108581543
6_20251106_151919,1762413522139,6,0.5727850198745728,0.5607975721359253,0.5376958250999451,0.261355459690094,-0.1380380243062973,1.7889710664749146,-1.6339956521987915,-3.192051410675049,9.063650131225586,-1.8521203994750977,0.04474584385752678,-0.12127191573381424,0.012896880507469177,36.85093688964844,-11.708511352539062,-8.186603546142578,-0.07044410705566406,-0.04175090789794922,0.1351611614227295,-3.1216073036193848,9.105401039123535,-1.9872815608978271
6_20251106_151919,1762413522157,6,0.573225736618042,0.5614608526229858,0.5368432998657227,0.2607167661190033,-0.13721592724323273,1.7888165712356567,-1.6357245445251465,-3.2135982513427734,8.94394588470459,-1.7659327983856201,0.10399971902370453,-0.18846704065799713,0.06115519255399704,36.912261962890625,-11.704002380371094,-8.238216400146484,-0.0735926628112793,-0.1291637420654297,0.1770789623260498,-3.140005588531494,9.07310962677002,-1.94301176071167
6_20251106_151919,1762413522177,6,0.5737031102180481,0.5624351501464844,0.535742998123169,0.2598285675048828,-0.1369103193283081,1.7884937524795532,-1.6373786926269531,-3.3249239921569824,9.020557403564453,-1.8868348598480225,0.1369864046573639,-0.19763001799583435,0.04466184601187706,36.87449645996094,-11.731231689453125,-8.267248153686523,-0.1479346752166748,-0.042041778564453125,0.04494142532348633,-3.1769893169403076,9.062599182128906,-1.9317762851715088
6_20251106_151919,1762413522198,6,0.574181318283081,0.563653290271759,0.5345742106437683,0.2585366368293762,-0.13749688863754272,1.7884286642074585,-1.6392573118209839,-3.491313934326172,9.145050048828125,-2.0723774433135986,0.11316268146038055,-0.15303689241409302,0.008009962737560272,36.81566619873047,-11.709144592285156,-8.363786697387695,-0.25145983695983887,0.06596088409423828,-0.1124809980392456,-3.239854097366333,9.079089164733887,-1.959896445274353
6_20251106_151919,1762413522215,6,0.5746254920959473,0.5646488070487976,0.5337663292884827,0.25704240798950195,-0.13896407186985016,1.7887874841690063,-1.6416921615600586,-3.5715160369873047,9.23243522644043,-2.1968705654144287,0.042913250625133514,-0.08523089438676834,-0.012148573994636536,36.81566619873047,-11.709144592285156,-8.363786697387695,-0.26532936096191406,0.12267684936523438,-0.18957924842834473,-3.3061866760253906,9.109758377075195,-2.007291316986084
6_20251106_151919,1762413522235,6,0.5750441551208496,0.5651991367340088,0.5333724021911621,0.2557108998298645,-0.13896407186985016,1.7887874841690063,-1.6416921615600586,-3.5715160369873047,9.23243522644043,-2.1968705654144287,-0.03039051964879036,-0.05224420130252838,-0.022533275187015533,36.801761627197266,-11.7470703125,-8.419134140014648,-0.26532936096191406,0.12267684936523438,-0.18957924842834473,-3.3061866760253906,9.109758377075195,-2.007291316986084
6_20251106_151919,1762413522254,6,0.575545072555542,0.5652889013290405,0.5332356095314026,0.2546686828136444,-0.14404423534870148,1.7907568216323853,-1.6459804773330688,-3.585880756378174,9.261163711547852,-1.8233911991119385,-0.04627300426363945,-0.044302962720394135,-0.009705115109682083,36.84626388549805,-11.830848693847656,-8.513633728027344,-0.17804622650146484,0.09498405456542969,0.15006422996520996,-3.407834529876709,9.166179656982422,-1.9734554290771484
6_20251106_151919,1762413522274,6,0.5762414336204529,0.5649750232696533,0.5330935716629028,0.2540871500968933,-0.14404423534870148,1.7907568216323853,-1.6459804773330688,-3.585880756378174,9.261163711547852,-1.8233911991119385,0.0032070400193333626,-0.057741984724998474,0.01534033939242363,36.85812759399414,-11.853683471679688,-8.662349700927734,-0.17804622650146484,0.09498405456542969,0.15006422996520996,-3.407834529876709,9.166179656982422,-1.9734554290771484
6_20251106_151919,1762413522292,6,0.576992928981781,0.5646014213562012,0.5328513383865356,0.2537199556827545,-0.15010255575180054,1.7945992946624756,-1.6482902765274048,-3.4362497329711914,9.475436210632324,-1.8604998588562012,0.04230238497257233,-0.08156570792198181,0.033055417239665985,36.869300842285156,-11.877464294433594,-8.716451644897461,0.002882242202758789,0.21477890014648438,0.06980156898498535,-3.43913197517395,9.26065731048584,-1.9303014278411865
6_20251106_151919,1762413522311,6,0.5776107311248779,0.5646936297416687,0.5323550701141357,0.2531503140926361,-0.15281032025814056,1.7975677251815796,-1.648935317993164,-3.409914493560791,9.570002555847168,-1.8186030387878418,0.05146535485982895,-0.08523089438676834,0.011064286343753338,36.86708450317383,-11.915267944335938,-8.703727722167969,0.023374080657958984,0.24747657775878906,0.08935880661010742,-3.43328857421875,9.322525978088379,-1.9079618453979492
6_20251106_151919,1762413522330,6,0.5780441164970398,0.5649785399436951,0.5318441390991211,0.25259867310523987,-0.15281032025814056,1.7975677251815796,-1.648935317993164,-3.409914493560791,9.570002555847168,-1.8186030387878418,0.04413497447967529,-0.06323976814746857,-0.012759437784552574,36.84149932861328,-11.941703796386719,-8.732269287109375,0.023374080657958984,0.24747657775878906,0.08935880661010742,-3.43328857421875,9.322525978088379,-1.9079618453979492
6_20251106_151919,1762413522350,6,0.5784144401550293,0.5650601387023926,0.5315243601799011,0.25224119424819946,-0.15798546373844147,1.8051244020462036,-1.64968740940094,-3.4362497329711914,9.475435256958008,-1.8413469791412354,0.05451967194676399,-0.08095484226942062,-0.009094249457120895,36.78166961669922,-11.932579040527344,-8.788522720336914,-0.0018951892852783203,0.07679367065429688,0.0443572998046875,-3.434354543685913,9.398641586303711,-1.8857042789459229
6_20251106_151919,1762413522368,6,0.5788064002990723,0.5650246143341064,0.5312916040420532,0.25191187858581543,-0.16041195392608643,1.8084903955459595,-1.6498686075210571,-3.521240234375,9.404809951782227,-1.8581056594848633,0.10949750244617462,-0.1750280261039734,0.026335904374718666,36.800498962402344,-12.03131103515625,-8.803169250488281,-0.06950855255126953,0.0049343109130859375,0.022078871726989746,-3.4517316818237305,9.39987564086914,-1.880184531211853
6_20251106_151919,1762413522388,6,0.5792700052261353,0.5655037760734558,0.5306710004806519,0.25107765197753906,-0.16325734555721283,1.8128044605255127,-1.6498326063156128,-3.5451812744140625,9.650205612182617,-1.8054354190826416,0.17058397829532623,-0.2623816728591919,0.0684855729341507,36.788299560546875,-12.043716430664062,-8.898538589477539,-0.07475948333740234,0.20026397705078125,0.05979931354522705,-3.47042179107666,9.449941635131836,-1.8652347326278687
6_20251106_151919,1762413522406,6,0.5798332691192627,0.5668061375617981,0.5294225215911865,0.24947141110897064,-0.16573570668697357,1.8177258968353271,-1.6499847173690796,-3.488919734954834,9.950664520263672,-1.9395051002502441,0.1834121197462082,-0.2666577398777008,0.08009200543165207,36.73954391479492,-12.058509826660156,-8.995377540588379,-0.014798402786254883,0.40057849884033203,-0.05941629409790039,-3.474121332168579,9.55008602142334,-1.8800888061523438
6_20251106_151919,1762413522426,6,0.5803900957107544,0.5684875845909119,0.5278863310813904,0.2475988268852234,-0.1683748960494995,1.8252630233764648,-1.6506425142288208,-3.4817373752593994,10.320552825927734,-2.0436482429504395,0.1412624567747116,-0.2367253452539444,0.03427714481949806,36.70167541503906,-12.085868835449219,-9.010892868041992,-0.00609278678894043,0.6163730621337891,-0.13084745407104492,-3.475644588470459,9.704179763793945,-1.9128007888793945
6_20251106_151919,1762413522444,6,0.5809271931648254,0.5699976086616516,0.5264254212379456,0.24597269296646118,-0.17074957489967346,1.8342183828353882,-1.6512529850006104,-3.523634195327759,10.723958015441895,-1.9323227405548096,0.03558287024497986,-0.15181516110897064,-0.029252786189317703,36.603965759277344,-12.11572265625,-9.177539825439453,-0.038391828536987305,0.8158226013183594,-0.015617609024047852,-3.4852423667907715,9.908135414123535,-1.9167051315307617
6_20251106_151919,1762413522465,6,0.5815650820732117,0.5708650946617126,0.5253234505653381,0.24480679631233215,-0.17074957489967346,1.8342183828353882,-1.6512529850006104,-3.523634195327759,10.723958015441895,-1.9323227405548096,0.03558287024497986,-0.15181516110897064,-0.029252786189317703,36.46808624267578,-12.17333984375,-9.31915283203125,-0.038391828536987305,0.8158226013183594,-0.015617609024047852,-3.4852423667907715,9.908135414123535,-1.9167051315307617
6_20251106_151919,1762413522484,6,0.5824074149131775,0.5705146789550781,0.5248035192489624,0.2447364330291748,-0.1753661334514618,1.8618919849395752,-1.6502069234848022,-3.3991410732269287,11.036388397216797,-1.4738528728485107,-0.09208784997463226,0.05771144852042198,-0.09522617608308792,36.41529846191406,-12.263198852539062,-9.444608688354492,0.06697964668273926,0.7328081130981445,0.32211410999298096,-3.466120719909668,10.303580284118652,-1.7959669828414917
6_20251106_151919,1762413522502,6,0.5832560658454895,0.5690678954124451,0.5248867869377136,0.24590232968330383,-0.17659050226211548,1.8765560388565063,-1.6478301286697388,-3.2291600704193115,11.099832534790039,-1.2224724292755127,-0.002901606261730194,0.06382009387016296,-0.061017751693725586,36.390010833740234,-12.289230346679688,-9.513699531555176,0.18956851959228516,0.6370010375976562,0.4587956666946411,-3.4187285900115967,10.462831497192383,-1.6812680959701538
6_20251106_151919,1762413522522,6,0.5835129022598267,0.5681391358375549,0.5254414081573486,0.24625590443611145,-0.1761712282896042,1.893789291381836,-1.6432024240493774,-2.8556807041168213,11.039979934692383,-0.9842596054077148,-0.002901606261730194,0.06382009387016296,-0.061017751693725586,36.37892532348633,-12.276931762695312,-9.567991256713867,0.4504382610321045,0.4617195129394531,0.5576066970825195,-3.306118965148926,10.57826042175293,-1.5418663024902344
6_20251106_151919,1762413522540,6,0.5830902457237244,0.5680130124092102,0.5260607004165649,0.24622578918933868,-0.17433324456214905,1.9083327054977417,-1.6376781463623047,-2.623453140258789,10.864013671875,-0.7280910015106201,0.314748078584671,-0.04918988049030304,-0.1483713984489441,36.389801025390625,-12.301116943359375,-9.581544876098633,0.5461328029632568,0.22860240936279297,0.6510202884674072,-3.169585943222046,10.635411262512207,-1.3791112899780273
6_20251106_151919,1762413522560,6,0.5822228789329529,0.5687862634658813,0.5268265008926392,0.24485211074352264,-0.1714484840631485,1.9240083694458008,-1.6292955875396729,-2.8963804244995117,10.445045471191406,-0.6526769399642944,0.47296199202537537,-0.06812668591737747,-0.34201550483703613,36.40208435058594,-12.300186157226562,-9.59457015991211,0.21856451034545898,-0.15229320526123047,0.5811474323272705,-3.1149449348449707,10.597338676452637,-1.233824372291565
6_20251106_151919,1762413522578,6,0.5810998678207397,0.5698160529136658,0.5284639000892639,0.24157510697841644,-0.1714484840631485,1.9240083694458008,-1.6292955875396729,-2.8963804244995117,10.445045471191406,-0.6526769399642944,0.5456548929214478,0.015561780892312527,-0.48984476923942566,36.3940315246582,-12.225776672363281,-9.579960823059082,0.21856451034545898,-0.15229320526123047,0.5811474323272705,-3.1149449348449707,10.597338676452637,-1.233824372291565
6_20251106_151919,1762413522598,6,0.5795304179191589,0.5704002976417542,0.5316684246063232,0.23688943684101105,-0.17009292542934418,1.9454725980758667,-1.6152691841125488,-3.9198575019836426,9.462268829345703,-1.6079223155975342,0.5145007371902466,0.0467158779501915,-0.5387139320373535,36.49395751953125,-12.158119201660156,-9.42603874206543,-0.5896482467651367,-0.8034381866455078,-0.30473363399505615,-3.330209255218506,10.265707015991211,-1.303188681602478
6_20251106_151919,1762413522617,6,0.5777438282966614,0.5704377889633179,0.5357972979545593,0.2318061739206314,-0.17338679730892181,1.9514763355255127,-1.6097886562347412,-4.290943145751953,9.268346786499023,-1.5696167945861816,0.4607447385787964,0.05954404175281525,-0.5484877824783325,36.64543151855469,-12.048667907714844,-9.36397647857666,-0.7685871124267578,-0.7978878021240234,-0.2131425142288208,-3.5223560333251953,10.066234588623047,-1.3564742803573608
6_20251106_151919,1762413522636,6,0.5762002468109131,0.570135772228241,0.5399566888809204,0.226683109998703,-0.179331973195076,1.9544789791107178,-1.6053484678268433,-4.605766773223877,9.185750007629395,-1.5408875942230225,0.4192059338092804,0.1542280614376068,-0.5869722366333008,36.64543151855469,-12.048667907714844,-9.36397647857666,-0.8667285442352295,-0.7043876647949219,-0.1475306749343872,-3.7390382289886475,9.890137672424316,-1.3933569192886353
6_20251106_151919,1762413522655,6,0.5746840834617615,0.5692739486694336,0.5444548726081848,0.22188784182071686,-0.18854016065597534,1.9545351266860962,-1.6016401052474976,-5.0367045402526855,8.870925903320312,-1.579193115234375,0.3892735540866852,0.2580750584602356,-0.6291218996047974,36.75018310546875,-11.904861450195312,-9.289567947387695,-1.038133144378662,-0.8153696060180664,-0.14866900444030762,-3.9985713958740234,9.686295509338379,-1.4305241107940674
6_20251106_151919,1762413522675,6,0.5729056596755981,0.567683756351471,0.5497126579284668,0.2175549864768982,-0.20225071907043457,1.950675129890442,-1.5981618165969849,-5.479613304138184,8.398091316223145,-1.5061731338500977,0.36972591280937195,0.3362657427787781,-0.5863614082336426,36.821205139160156,-11.701591491699219,-9.120697021484375,-1.1848335266113281,-1.0305633544921875,-0.06051921844482422,-4.2947797775268555,9.428654670715332,-1.4456539154052734
6_20251106_151919,1762413522695,6,0.5708545446395874,0.5657050609588623,0.5553840398788452,0.21366195380687714,-0.21849264204502106,1.9440586566925049,-1.5955203771591187,-5.704658508300781,8.286766052246094,-1.6270751953125,0.388051837682724,0.4168998599052429,-0.42448222637176514,36.90985107421875,-11.397346496582031,-8.922191619873047,-1.1279029846191406,-0.9135112762451172,-0.14513707160949707,-4.576755523681641,9.200277328491211,-1.481938123703003
6_20251106_151919,1762413522713,6,0.5681859254837036,0.5639764070510864,0.5609762668609619,0.21071559190750122,-0.23616307973861694,1.935335636138916,-1.5939379930496216,-5.393424987792969,8.311903953552246,-1.8198001384735107,0.42592546343803406,0.454773485660553,-0.2247294783592224,37.070701599121094,-11.112770080566406,-8.78885269165039,-0.6533355712890625,-0.710698127746582,-0.2702895402908325,-4.740089416503906,9.022602081298828,-1.5495105981826782
6_20251106_151919,1762413522732,6,0.5645723938941956,0.5632320642471313,0.5659872889518738,0.20901209115982056,-0.23616307973861694,1.935335636138916,-1.5939379930496216,-5.393424987792969,8.311903953552246,-1.8198001384735107,0.48212501406669617,0.41567814350128174,-0.1166064515709877,37.20509338378906,-10.844230651855469,-8.467531204223633,-0.6533355712890625,-0.710698127746582,-0.2702895402908325,-4.740089416503906,9.022602081298828,-1.5495105981826782
6_20251106_151919,1762413522751,6,0.560413658618927,0.5637261867523193,0.5700575709342957,0.2078067511320114,-0.2545241713523865,1.9244266748428345,-1.5930498838424683,-4.967275619506836,8.303524017333984,-1.7779033184051514,0.5584830045700073,0.4315606355667114,-0.1263802945613861,37.31279754638672,-10.615219116210938,-8.120949745178223,-0.1817488670349121,-0.5752630233764648,-0.18271422386169434,-4.785526752471924,8.87878704071045,-1.595189094543457
6_20251106_151919,1762413522770,6,0.5558984279632568,0.5648040175437927,0.5738798379898071,0.20648299157619476,-0.2721412479877472,1.9122306108474731,-1.592652440071106,-4.842782974243164,8.275992393493652,-1.7419917583465576,0.6134608387947083,0.5610639452934265,-0.16730821132659912,37.471458435058594,-10.345222473144531,-7.785130977630615,-0.04580497741699219,-0.4822359085083008,-0.11744213104248047,-4.796977996826172,8.758228302001953,-1.6245496273040771
6_20251106_151919,1762413522788,6,0.5505843758583069,0.5658981800079346,0.5784216523170471,0.2050476223230362,-0.30024123191833496,1.8874510526657104,-1.5966646671295166,-4.634495735168457,7.726546287536621,-2.6996312141418457,0.6104065179824829,0.6447524428367615,-0.19601884484291077,37.50373840332031,-10.158920288085938,-7.415251731872559,0.12543964385986328,-0.7221403121948242,-0.7732820510864258,-4.75993537902832,8.448686599731445,-1.92634916305542
6_20251106_151919,1762413522808,6,0.5444434881210327,0.5666178464889526,0.5838742852210999,0.20400084555149078,-0.31447651982307434,1.870040774345398,-1.603074550628662,-4.623722553253174,7.414116859436035,-2.9258735179901123,0.5713111758232117,0.6569697260856628,-0.2204534411430359,37.585079193115234,-9.945808410644531,-6.8942036628723145,0.10897016525268555,-0.8276557922363281,-0.7996194362640381,-4.732692718505859,8.241772651672363,-2.126254081726074
6_20251106_151919,1762413522826,6,0.538217306137085,0.5671672821044922,0.5894541144371033,0.20294645428657532,-0.326506108045578,1.8525627851486206,-1.6105741262435913,-4.675195693969727,7.1890716552734375,-2.946223258972168,0.5163333415985107,0.7088932394981384,-0.25282928347587585,37.742576599121094,-9.878761291503906,-6.278275489807129,0.04599761962890625,-0.8421611785888672,-0.655975341796875,-4.721193313598633,8.031232833862305,-2.290247917175293
6_20251106_151919,1762413522847,6,0.5320557355880737,0.5672128796577454,0.5952414274215698,0.20217299461364746,-0.3393443822860718,1.8307385444641113,-1.621172308921814,-4.767368793487549,6.920932292938232,-3.1724658012390137,0.4595229923725128,0.8353422284126282,-0.2815399169921875,37.898658752441406,-9.836830139160156,-5.662876129150391,-0.036940574645996094,-0.8882403373718262,-0.7057743072509766,-4.730428218841553,7.809172630310059,-2.466691493988037
6_20251106_151919,1762413522866,6,0.5256935358047485,0.5664437413215637,0.6016435623168945,0.20202194154262543,-0.3518240749835968,1.8065592050552368,-1.6347180604934692,-4.823629379272461,6.675537109375,-3.6105856895446777,0.39110615849494934,0.9098677039146423,-0.24183368682861328,37.97086715698242,-9.76373291015625,-4.955503463745117,-0.07456111907958984,-0.9069085121154785,-0.9151153564453125,-4.749068260192871,7.5824456214904785,-2.6954703330993652
6_20251106_151919,1762413522885,6,0.518917977809906,0.5650620460510254,0.6084963083267212,0.20288226008415222,-0.36317333579063416,1.781618595123291,-1.64937162399292,-4.780535697937012,6.445703506469727,-3.5806596279144287,0.3404043912887573,0.8579441905021667,-0.14409536123275757,38.068546295166016,-9.675949096679688,-4.30095100402832,-0.02517414093017578,-0.9093937873840332,-0.7081513404846191,-4.755361557006836,7.35509729385376,-2.8725082874298096
6_20251106_151919,1762413522904,6,0.5122658610343933,0.5638353228569031,0.6147581934928894,0.20431789755821228,-0.3737877309322357,1.755186915397644,-1.6645457744598389,-4.6943488121032715,6.35712194442749,-3.3292791843414307,0.3404043912887573,0.8579441905021667,-0.14409536123275757,38.17209243774414,-9.677162170410156,-3.458528518676758,0.048810482025146484,-0.7983803749084473,-0.3654165267944336,-4.743159294128418,7.1555023193359375,-2.963862657546997
6_20251106_151919,1762413522923,6,0.5058891773223877,0.5631639957427979,0.6200487613677979,0.20606312155723572,-0.38354700803756714,1.7277582883834839,-1.679842233657837,-4.624919891357422,6.310437202453613,-3.2849884033203125,0.36483898758888245,0.8164054155349731,-0.018257219344377518,38.14189147949219,-9.68670654296875,-2.6620492935180664,0.09459161758422852,-0.6760520935058594,-0.2569005489349365,-4.71951150894165,6.986489295959473,-3.028087854385376
6_20251106_151919,1762413522941,6,0.4994161128997803,0.56281578540802,0.6249610185623169,0.2079559713602066,-0.3917967677116394,1.7010482549667358,-1.6942976713180542,-4.50282096862793,6.164397239685059,-3.307732582092285,0.39477136731147766,0.8451160788536072,-0.0139811672270298,38.297508239746094,-9.622222900390625,-1.7893123626708984,0.17335224151611328,-0.6576738357543945,-0.22371578216552734,-4.676173210144043,6.822071075439453,-3.084016799926758
6_20251106_151919,1762413522961,6,0.4925881326198578,0.5626843571662903,0.6298528909683228,0.20982994139194489,-0.39991235733032227,1.6702508926391602,-1.7105928659439087,-4.481273651123047,5.965686798095703,-3.4250431060791016,0.41615161299705505,0.9092568755149841,-0.031696245074272156,38.35432434082031,-9.589073181152344,-0.9345436096191406,0.15591955184936523,-0.6851072311401367,-0.27282118797302246,-4.637193202972412,6.65079402923584,-3.152221918106079
6_20251106_151919,1762413522979,6,0.4853920042514801,0.5625152587890625,0.6349484324455261,0.21168766915798187,-0.4066028594970703,1.6419609785079956,-1.7267711162567139,-4.536337852478027,5.855558395385742,-4.064267635345459,0.4234819710254669,0.9379674792289734,-0.0011530080810189247,38.35062026977539,-9.547744750976562,-0.04141426086425781,0.08068418502807617,-0.6361885070800781,-0.7296366691589355,-4.6170220375061035,6.49174690246582,-3.3346309661865234
6_20251106_151919,1762413522998,6,0.47767046093940735,0.5622318387031555,0.6403489112854004,0.21372781693935394,-0.41272273659706116,1.6114791631698608,-1.745905876159668,-4.402268409729004,5.7214884757995605,-4.39585018157959,0.38072147965431213,0.8481703400611877,0.1356806755065918,38.33210754394531,-9.557167053222656,0.8231372833251953,0.17180299758911133,-0.6162066459655762,-0.848975419998169,-4.574071407318115,6.337695121765137,-3.546874761581421
6_20251106_151919,1762413523017,6,0.46998074650764465,0.5624144673347473,0.6450993418693542,0.21599753201007843,-0.41722777485847473,1.5803086757659912,-1.7658284902572632,-4.097021102905273,5.531157970428467,-4.182775497436523,0.32391104102134705,0.7406582236289978,0.2945055365562439,38.237266540527344,-9.622123718261719,1.7377548217773438,0.3816404342651367,-0.6452298164367676,-0.5087206363677979,-4.47866153717041,6.176387786865234,-3.6740548610687256
6_20251106_151919,1762413523039,6,0.4628629982471466,0.56353360414505,0.6483613848686218,0.2186669558286667,-0.4197538495063782,1.547860860824585,-1.786744475364685,-3.8276848793029785,5.756202697753906,-4.000823974609375,0.28725913166999817,0.7528755068778992,0.4166784882545471,38.09326934814453,-9.702407836914062,2.609598159790039,0.5207815170288086,-0.3361477851867676,-0.2614152431488037,-4.348466396331787,6.092350482940674,-3.7394087314605713
6_20251106_151919,1762413523057,6,0.4560055434703827,0.5654492974281311,0.6504366993904114,0.2219417691230774,-0.4197538495063782,1.547860860824585,-1.786744475364685,-3.8276848793029785,5.756202697753906,-4.000823974609375,0.2292269915342331,0.8658854365348816,0.46127161383628845,37.93174743652344,-9.883537292480469,3.4382896423339844,0.5207815170288086,-0.3361477851867676,-0.2614152431488037,-4.348466396331787,6.092350482940674,-3.7394087314605713
6_20251106_151919,1762413523076,6,0.4487636983394623,0.5674689412117004,0.6522292494773865,0.22624586522579193,-0.41938072443008423,1.514158844947815,-1.8083399534225464,-3.4853286743164062,5.69395637512207,-3.9577300548553467,0.2292269915342331,0.8658854365348816,0.46127161383628845,37.93174743652344,-9.883537292480469,3.4382896423339844,0.6905102729797363,-0.31871509552001953,-0.17465710639953613,-4.175838947296143,6.01267147064209,-3.7830729484558105
6_20251106_151919,1762413523095,6,0.44079938530921936,0.56902015209198,0.6542327404022217,0.23214538395404816,-0.4102955758571625,1.4547951221466064,-1.846146821975708,-2.735975742340088,5.395891189575195,-4.327618598937988,0.050243623554706573,1.1591005325317383,0.6518614292144775,37.74354934692383,-10.092582702636719,4.387119293212891,0.9837591648101807,-0.4018259048461914,-0.3946676254272461,-3.7197349071502686,5.797717094421387,-3.932950973510742
6_20251106_151919,1762413523114,6,0.4320414960384369,0.5703957676887512,0.6560721397399902,0.23991283774375916,-0.4000879228115082,1.424921989440918,-1.8656812906265259,-2.148224353790283,5.409058570861816,-4.284524917602539,-0.023060142993927002,1.1908655166625977,0.7905277013778687,37.41838836669922,-10.360733032226562,5.343013763427734,1.2572083473205566,-0.3109264373779297,-0.28125905990600586,-3.40543270111084,5.719985008239746,-4.003265857696533
6_20251106_151919,1762413523133,6,0.4229055345058441,0.5720510482788086,0.6571827530860901,0.24903684854507446,-0.38499054312705994,1.3962050676345825,-1.884892463684082,-1.437177300453186,5.5969953536987305,-4.24143123626709,-0.06032289192080498,1.1810917854309082,0.8791030645370483,37.06371307373047,-10.730255126953125,6.228235244750977,1.5746043920516968,-0.09839200973510742,-0.19053220748901367,-3.011781692504883,5.695387363433838,-4.050899028778076
6_20251106_151919,1762413523152,6,0.4135549068450928,0.574173092842102,0.6573988795280457,0.2590835988521576,-0.36469897627830505,1.36948823928833,-1.9031174182891846,-0.8434407711029053,5.901046276092529,-4.0415239334106445,-0.05665770173072815,1.1364985704421997,0.8723835945129395,36.59372329711914,-11.207382202148438,7.106931686401367,1.7346727848052979,0.16452693939208984,0.007500171661376953,-2.578113555908203,5.7365193367004395,-4.0490241050720215
6_20251106_151919,1762413523171,6,0.4043194055557251,0.5765409469604492,0.6570032835006714,0.2692081034183502,-0.33961835503578186,1.3451530933380127,-1.920627236366272,-0.46277904510498047,6.117712020874023,-4.1205291748046875,-0.005955930799245834,1.1523810625076294,0.8039667010307312,36.02091598510742,-11.779296875,8.03392219543457,1.692267656326294,0.30495405197143555,-0.05720376968383789,-2.1550467014312744,5.812757968902588,-4.06332540512085
6_20251106_151919,1762413523190,6,0.3950174152851105,0.5786128640174866,0.6567543745040894,0.2790018320083618,-0.31037378311157227,1.3230717182159424,-1.9384530782699585,-0.18027536571025848,6.190732002258301,-4.4975996017456055,0.049632761627435684,1.1670417785644531,0.7416585087776184,35.50762939453125,-12.372352600097656,8.962837219238281,1.5798171758651733,0.30237913131713867,-0.34741926193237305,-1.7600924968719482,5.888352870941162,-4.150180339813232
6_20251106_151919,1762413523209,6,0.3852890729904175,0.5802552700042725,0.6570403575897217,0.28836458921432495,-0.2769729197025299,1.3034034967422485,-1.956777572631836,0.28777092695236206,6.365501403808594,-4.6568074226379395,0.07223474979400635,1.174983024597168,0.6842372417449951,34.993438720703125,-12.978240966796875,9.918519973754883,1.6382908821105957,0.38171863555908203,-0.405301570892334,-1.3505198955535889,5.983782768249512,-4.2515058517456055
6_20251106_151919,1762413523229,6,0.37536367774009705,0.581678569316864,0.6575794816017151,0.297222763299942,-0.23694680631160736,1.2860019207000732,-1.976356029510498,0.8288372755050659,6.729404449462891,-4.663989543914795,0.06673696637153625,1.1951415538787842,0.5412948727607727,34.33694839477539,-13.518722534179688,10.910449981689453,1.7434858083724976,0.5964970588684082,-0.3299870491027832,-0.9146485328674316,6.132907390594482,-4.334002494812012
6_20251106_151919,1762413523247,6,0.3654243052005768,0.5824461579322815,0.6585828065872192,0.3057616949081421,-0.19611449539661407,1.2740691900253296,-1.9922692775726318,1.769718050956726,7.329126358032227,-3.998430013656616,0.09911279380321503,1.1737613677978516,0.24502548575401306,33.66857147216797,-14.059593200683594,11.861339569091797,2.147493362426758,0.9569754600524902,0.26845765113830566,-0.37777525186538696,6.372150897979736,-4.266887664794922
6_20251106_151919,1762413523266,6,0.3559150993824005,0.581709623336792,0.6607062220573425,0.3136967420578003,-0.14653128385543823,1.2660326957702637,-2.0061798095703125,2.770451068878174,7.804354667663574,-3.5208072662353516,0.3318522870540619,1.121837854385376,-0.2882594168186188,32.95606994628906,-14.527755737304688,12.757787704467773,2.5185811519622803,1.1457633972167969,0.5968642234802246,0.2518700063228607,6.658591270446777,-4.117671489715576
6_20251106_151919,1762413523285,6,0.3472146689891815,0.5787995457649231,0.6651406288146973,0.31940725445747375,-0.09449435770511627,1.2595643997192383,-2.0217015743255615,2.0498275756835938,7.083730697631836,-4.958463668823242,0.7447967529296875,1.057697057723999,-0.9241695404052734,32.31205749511719,-14.854087829589844,13.686622619628906,1.4383660554885864,0.34011125564575195,-0.6726336479187012,0.6114615201950073,6.743619441986084,-4.285830020904541
6_20251106_151919,1762413523305,6,0.33857202529907227,0.5730050802230835,0.6737894415855408,0.3210015296936035,-0.04311394318938255,1.2499852180480957,-2.0426998138427734,0.3955053687095642,5.720291614532471,-6.087281227111816,0.9378300309181213,0.8396182656288147,-1.2137194871902466,31.79906463623047,-14.796295166015625,14.600757598876953,-0.17276489734649658,-0.818662166595459,-1.4411611557006836,0.5682702660560608,6.53895378112793,-4.646120071411133
6_20251106_151919,1762413523325,6,0.33054348826408386,0.5656657218933105,0.6855406165122986,0.3174859583377838,0.0006744042038917542,1.235969066619873,-2.069201707839966,-1.084047555923462,4.9218597412109375,-6.801919937133789,0.7576249241828918,0.7913599610328674,-1.0341252088546753,31.337020874023438,-14.484573364257812,15.481094360351562,-1.3218542337417603,-1.293675422668457,-1.724639892578125,0.23780672252178192,6.2155351638793945,-5.077280044555664
6_20251106_151919,1762413523344,6,0.3235873579978943,0.5584778785705566,0.6969358921051025,0.312528520822525,0.03441229462623596,1.2185450792312622,-2.0996742248535156,-1.8693119287490845,4.47536039352417,-7.466281890869141,0.7576249241828918,0.7913599610328674,-1.0341252088546753,30.881025314331055,-14.06024169921875,16.404356002807617,-1.685694932937622,-1.3921399116516113,-1.9112014770507812,-0.1836169809103012,5.867500305175781,-5.555080413818359
6_20251106_151919,1762413523361,6,0.31716418266296387,0.5524404644966125,0.7058171033859253,0.30990102887153625,0.03441229462623596,1.2185450792312622,-2.0996742248535156,-1.8693119287490845,4.47536039352417,-7.466281890869141,0.01847865805029869,0.7736448645591736,-0.10805433988571167,30.39299774169922,-13.562545776367188,17.287181854248047,-1.685694932937622,-1.3921399116516113,-1.9112014770507812,-0.1836169809103012,5.867500305175781,-5.555080413818359
6_20251106_151919,1762413523382,6,0.3113546073436737,0.5485134720802307,0.7110776901245117,0.31074070930480957,0.08498170971870422,1.1815828084945679,-2.1637842655181885,-0.7189475893974304,5.563478469848633,-6.472731113433838,-0.43661555647850037,0.7999120354652405,0.29755985736846924,29.965065002441406,-12.88385009765625,17.972919464111328,-0.1677466630935669,-0.04748058319091797,-0.4394369125366211,-0.5512009263038635,5.610959053039551,-6.033294200897217
6_20251106_151919,1762413523400,6,0.3067980110645294,0.5468443036079407,0.7121419310569763,0.31573745608329773,0.11324386298656464,1.1642605066299438,-2.1969144344329834,0.29495322704315186,6.1823530197143555,-5.862236022949219,-0.6785180568695068,0.8958178162574768,0.38980042934417725,29.54871368408203,-12.216781616210938,18.645366668701172,0.6769233345985413,0.45711517333984375,0.13684654235839844,-0.3819701075553894,5.725237846374512,-5.999082565307617
6_20251106_151919,1762413523419,6,0.3027030825614929,0.5453153252601624,0.7110243439674377,0.3247251808643341,0.1420133113861084,1.150531530380249,-2.225184440612793,0.8072903156280518,6.419368267059326,-5.404963493347168,-0.8049670457839966,1.0173799991607666,0.24563634395599365,29.197834014892578,-11.67132568359375,19.399215698242188,0.951408326625824,0.5553045272827148,0.4752955436706543,-0.1441180258989334,5.864063739776611,-5.880259037017822
6_20251106_151919,1762413523438,6,0.2987724542617798,0.5424709916114807,0.7098652720451355,0.33548703789711,0.17255887389183044,1.1392292976379395,-2.2504053115844727,1.0275474786758423,6.498373985290527,-5.284060955047607,-0.9546288847923279,1.1578788757324219,0.09169843047857285,28.757116317749023,-11.218795776367188,20.093719482421875,0.9373323917388916,0.5074481964111328,0.4769587516784668,0.09021506458520889,5.9909257888793945,-5.761019706726074
6_20251106_151919,1762413523457,6,0.294968843460083,0.5374869704246521,0.7094196081161499,0.3475988209247589,0.17255887389183044,1.1392292976379395,-2.2504053115844727,1.0275474786758423,6.498373985290527,-5.284060955047607,-1.0877974033355713,1.2024719715118408,0.03183368593454361,28.254135131835938,-11.031387329101562,20.60500717163086,0.9373323917388916,0.5074481964111328,0.4769587516784668,0.09021506458520889,5.9909257888793945,-5.761019706726074
6_20251106_151919,1762413523477,6,0.2915895879268646,0.5308868288993835,0.709141731262207,0.3609052896499634,0.23795975744724274,1.1217886209487915,-2.293351650238037,0.9269952774047852,6.655187129974365,-5.047045707702637,-1.1494947671890259,1.1841460466384888,0.04405098408460617,27.71237564086914,-11.108726501464844,21.055706024169922,0.5219408869743347,0.4611339569091797,0.4755215644836426,0.40505439043045044,6.1940531730651855,-5.522567272186279
6_20251106_151919,1762413523496,6,0.288469523191452,0.5234758853912354,0.7086913585662842,0.37485310435295105,0.26972752809524536,1.1170955896377563,-2.311302423477173,0.9317834973335266,7.058592796325684,-5.315184593200684,-1.1971421241760254,1.1096205711364746,0.09719621390104294,27.71237564086914,-11.108726501464844,21.055706024169922,0.4213833212852478,0.6916317939758301,0.16590642929077148,0.5104001760482788,6.3669610023498535,-5.481091022491455
6_20251106_151919,1762413523516,6,0.2856435477733612,0.516131579875946,0.7076407670974731,0.3889222741127014,0.3009842038154602,1.115382194519043,-2.3275063037872314,0.9030543565750122,7.367431640625,-5.171538352966309,-1.1971421241760254,1.1096205711364746,0.09719621390104294,27.107065200805664,-11.239990234375,21.47586441040039,0.31412333250045776,0.8003768920898438,0.24764204025268555,0.5889310240745544,6.567054748535156,-5.419180393218994
6_20251106_151919,1762413523535,6,0.28378885984420776,0.509760856628418,0.7053945660591125,0.40252479910850525,0.3339381814002991,1.1169207096099854,-2.340799570083618,1.1472524404525757,7.636767864227295,-4.461688041687012,-1.2185224294662476,0.8555007576942444,0.20593014359474182,26.570022583007812,-11.465873718261719,21.78872299194336,0.44665712118148804,0.8557705879211426,0.7659940719604492,0.7005953192710876,6.780997276306152,-5.227682113647461
6_20251106_151919,1762413523555,6,0.28319570422172546,0.505217432975769,0.7016519904136658,0.41501814126968384,0.3641687035560608,1.120915174484253,-2.3495421409606934,1.5350964069366455,7.868995666503906,-4.162425994873047,-1.1195623874664307,0.49203625321388245,0.5107516646385193,26.117172241210938,-11.923851013183594,22.08697509765625,0.6676008701324463,0.8703985214233398,0.8522047996520996,0.8674955368041992,6.998597145080566,-5.0146307945251465
6_20251106_151919,1762413523572,6,0.282749742269516,0.5024729371070862,0.6966656446456909,0.42688462138175964,0.3966728150844574,1.1278835535049438,-2.354522466659546,1.6655746698379517,8.078479766845703,-3.6345269680023193,-1.0377064943313599,0.3802480101585388,0.5321319103240967,25.640953063964844,-12.370452880859375,22.34395980834961,0.6384633779525757,0.8639059066772461,1.1040832996368408,1.027111291885376,7.214573860168457,-4.73861026763916
6_20251106_151919,1762413523591,6,0.282397598028183,0.5010203123092651,0.6911214590072632,0.4377000331878662,0.3966728150844574,1.1278835535049438,-2.354522466659546,1.6655746698379517,8.078479766845703,-3.6345269680023193,-1.0377063751220703,0.4785972237586975,0.51686030626297,25.16613006591797,-12.803558349609375,22.506595611572266,0.6384633779525757,0.8639059066772461,1.1040832996368408,1.027111291885376,7.214573860168457,-4.73861026763916
6_20251106_151919,1762413523610,6,0.28185078501701355,0.4994574785232544,0.6857371926307678,0.44818174839019775,0.4630897045135498,1.150234341621399,-2.354844570159912,2.0498275756835938,8.641093254089355,-3.938577175140381,-1.0792453289031982,0.5922181010246277,0.563896894454956,24.751123428344727,-13.257400512695312,22.63060760498047,0.7075916528701782,0.9583644866943359,0.43100500106811523,1.3422359228134155,7.6827287673950195,-4.369582176208496
6_20251106_151919,1762413523629,6,0.2803577184677124,0.49709033966064453,0.6804734468460083,0.4596266746520996,0.4981999397277832,1.1657809019088745,-2.353031635284424,2.5406179428100586,9.013374328613281,-3.9134395122528076,-1.1366665363311768,0.4840949773788452,0.6145986318588257,24.30619239807129,-13.82476806640625,22.643131256103516,0.9587056636810303,1.064516544342041,0.3649141788482666,1.5819122791290283,7.94885778427124,-4.278353691101074
6_20251106_151919,1762413523649,6,0.27867963910102844,0.49496859312057495,0.6746141910552979,0.47142282128334045,0.5370979905128479,1.185713529586792,-2.3479950428009033,2.8279097080230713,9.391642570495605,-3.217953681945801,-1.206916093826294,0.36925244331359863,0.5486252307891846,23.912118911743164,-14.351287841796875,22.658409118652344,0.9967979192733765,1.1542272567749023,0.8483200073242188,1.8311117887496948,8.237415313720703,-4.0662736892700195
6_20251106_151919,1762413523667,6,0.2782614529132843,0.4935449957847595,0.6677946448326111,0.482736200094223,0.5370979905128479,1.185713529586792,-2.3479950428009033,2.8279097080230713,9.391642570495605,-3.217953681945801,-1.257617712020874,0.38880008459091187,0.34154212474823,23.575525283813477,-14.959709167480469,22.471546173095703,0.9967979192733765,1.1542272567749023,0.8483200073242188,1.8311117887496948,8.237415313720703,-4.0662736892700195
6_20251106_151919,1762413523687,6,0.2788795530796051,0.4910736382007599,0.661138653755188,0.49393174052238464,0.6114346385002136,1.2294578552246094,-2.3293099403381348,2.35866641998291,9.347352027893066,-2.5488028526306152,-1.3559670448303223,0.4676016569137573,0.11613301932811737,23.197959899902344,-15.634513854980469,22.403541564941406,0.28247499465942383,0.7049961090087891,1.0251922607421875,2.0761914253234863,8.642355918884277,-3.5739951133728027
6_20251106_151919,1762413523707,6,0.28065142035484314,0.486676424741745,0.6552082300186157,0.5050574541091919,0.646272599697113,1.2534996271133423,-2.3156068325042725,2.079753875732422,9.608308792114258,-2.348895788192749,-1.4970767498016357,0.6184852719306946,0.007399098016321659,22.846162796020508,-16.294227600097656,22.242164611816406,0.002850055694580078,0.7727622985839844,0.9800794124603271,2.076903820037842,8.835546493530273,-3.328975200653076
6_20251106_151919,1762413523726,6,0.2830379903316498,0.480000764131546,0.6497634053230286,0.517007052898407,0.6812538504600525,1.2801307439804077,-2.2992844581604004,2.12404465675354,9.6873140335083,-2.4674038887023926,-1.525787353515625,0.6655218005180359,0.056268274784088135,22.55367660522461,-16.986968994140625,22.014869689941406,0.03771257400512695,0.6814146041870117,0.6892569065093994,2.086332082748413,9.005899429321289,-3.156660795211792
6_20251106_151919,1762413523745,6,0.2852810323238373,0.472136527299881,0.6440997123718262,0.5299409031867981,0.7139919996261597,1.3057950735092163,-2.2833685874938965,2.5118889808654785,9.599929809570312,-2.724769115447998,-1.417053461074829,0.4578278064727783,0.21631482243537903,22.260074615478516,-17.704421997070312,21.746498107910156,0.34044551849365234,0.47522449493408203,0.34551334381103516,2.171443462371826,9.12470531463623,-3.070282459259033
6_20251106_151919,1762413523764,6,0.2870773375034332,0.46542349457740784,0.6378511786460876,0.5423222780227661,0.7466644048690796,1.3322025537490845,-2.2664401531219482,2.7441163063049316,9.863279342651367,-2.411142349243164,-1.417053461074829,0.4578278064727783,0.21631482243537903,21.991439819335938,-18.419479370117188,21.398006439208984,0.45813822746276855,0.5908594131469727,0.5273122787475586,2.285978078842163,9.272419929504395,-2.9384546279907227
6_20251106_151919,1762413523782,6,0.28941139578819275,0.4616440236568451,0.6305176019668579,0.5527869462966919,0.7769913673400879,1.3574272394180298,-2.2469260692596436,2.660322666168213,9.864477157592773,-1.200925588607788,-1.2838850021362305,-0.06934841722249985,0.1509523093700409,21.818376541137695,-19.16558074951172,21.025615692138672,0.29947566986083984,0.4736461639404297,1.3900232315063477,2.360846996307373,9.390830993652344,-2.5909488201141357
6_20251106_151919,1762413523801,6,0.29346752166748047,0.45956021547317505,0.6226478815078735,0.5612404346466064,0.8069203495979309,1.3836864233016968,-2.222506284713745,2.1850943565368652,9.742378234863281,-0.8226579427719116,-1.2612829208374023,0.1438433676958084,-0.061628617346286774,21.668670654296875,-19.934669494628906,20.599613189697266,-0.14060211181640625,0.2812376022338867,1.4146326780319214,2.3256964683532715,9.461140632629395,-2.237290620803833
6_20251106_151919,1762413523820,6,0.2986465096473694,0.45638522505760193,0.6154652833938599,0.5689685940742493,0.8339096307754517,1.409052848815918,-2.197373867034912,1.7996442317962646,9.614294052124023,-1.5325082540512085,-1.2551743984222412,0.3515373468399048,-0.0958370491862297,21.52269744873047,-20.62908935546875,20.242774963378906,-0.42084169387817383,0.12252235412597656,0.5638257265090942,2.2204859256744385,9.491771697998047,-2.0963339805603027
6_20251106_151919,1762413523840,6,0.3024933338165283,0.4501470923423767,0.6100946664810181,0.5776243805885315,0.8339096307754517,1.409052848815918,-2.197373867034912,1.7996442317962646,9.614294052124023,-1.5325082540512085,-1.3113739490509033,0.2012646347284317,0.10208312422037125,21.438955307006836,-21.306167602539062,19.80755615234375,-0.42084169387817383,0.12252235412597656,0.5638257265090942,2.2204859256744385,9.491771697998047,-2.0963339805603027
6_20251106_151919,1762413523859,6,0.30571800470352173,0.44420576095581055,0.6042134165763855,0.5866377949714661,0.8611989617347717,1.4372938871383667,-2.1700057983398438,1.9073787927627563,9.971014022827148,-1.8042384386062622,-1.3321433067321777,-0.08462002873420715,0.3036684989929199,21.358821868896484,-21.93194580078125,19.265262603759766,-0.25048577785491943,0.3833932876586914,0.23367631435394287,2.157864570617676,9.587620735168457,-2.037914752960205
6_20251106_151919,1762413523877,6,0.3093680143356323,0.4410000741481781,0.5962720513343811,0.5952058434486389,0.9065865278244019,1.488335132598877,-2.1164095401763916,2.7177813053131104,10.638967514038086,-0.055349282920360565,-1.2185224294662476,-0.2006843388080597,0.34215298295021057,21.275758743286133,-22.61969757080078,18.640552520751953,0.421550989151001,0.7090606689453125,1.3885470628738403,2.2962303161621094,9.929906845092773,-1.4438962936401367
6_20251106_151919,1762413523897,6,0.31321460008621216,0.43975192308425903,0.5872845649719238,0.6030022501945496,0.9318379759788513,1.5178661346435547,-2.082075357437134,2.705810785293579,10.635376930236816,0.03921762481331825,-1.0352630615234375,-0.21473422646522522,0.27129265666007996,21.218687057495117,-23.26885986328125,18.085193634033203,0.3276643753051758,0.5643758773803711,1.1864911317825317,2.3781464099884033,10.071001052856445,-1.1472735404968262
6_20251106_151919,1762413523917,6,0.31687140464782715,0.4390633702278137,0.5789395570755005,0.609626829624176,0.9560733437538147,1.547498106956482,-2.046724319458008,2.4592185020446777,10.589889526367188,-0.2480742335319519,-0.918587863445282,-0.1951865553855896,0.21936914324760437,21.209049224853516,-23.93982696533203,17.51775360107422,0.06485772132873535,0.41511058807373047,0.7193594574928284,2.3943607807159424,10.174778938293457,-0.9674336910247803
6_20251106_151919,1762413523936,6,0.32017067074775696,0.4383772611618042,0.5718207359313965,0.6150911450386047,0.9560733437538147,1.547498106956482,-2.046724319458008,2.4592185020446777,10.589889526367188,-0.2480742335319519,-0.9772309064865112,-0.2214537411928177,0.23402991890907288,21.209049224853516,-23.93982696533203,17.51775360107422,0.06485772132873535,0.41511058807373047,0.7193594574928284,2.3943607807159424,10.174778938293457,-0.9674336910247803
6_20251106_151919,1762413523954,6,0.3232835531234741,0.4375592768192291,0.5650264024734497,0.620302140712738,0.9990044832229614,1.6020681858062744,-1.9792546033859253,2.783618927001953,10.826904296875,0.4498055577278137,-1.0737475156784058,-0.3124725818634033,0.23891681432724,21.168886184692383,-24.512184143066406,16.896888732910156,0.2968156337738037,0.4503040313720703,1.0181193351745605,2.4868032932281494,10.37660026550293,-0.568313717842102
6_20251106_151919,1762413523975,6,0.32711857557296753,0.4370121359825134,0.5572640895843506,0.6256760954856873,1.024043083190918,1.6334110498428345,-1.935124158859253,3.084078311920166,10.952594757080078,1.5032089948654175,-1.0737475156784058,-0.3124725818634033,0.23891681432724,21.17645263671875,-25.105934143066406,16.223392486572266,0.47781991958618164,0.4607963562011719,1.6572182178497314,2.6062583923339844,10.491798400878906,-0.15400919318199158
6_20251106_151919,1762413523993,6,0.33188703656196594,0.4367845952510834,0.5489141345024109,0.6306849718093872,1.0439698696136475,1.658306360244751,-1.8967885971069336,2.911703109741211,10.852043151855469,1.847959280014038,-1.0358738899230957,-0.41265439987182617,0.16988912224769592,21.18280792236328,-25.724533081054688,15.522336959838867,0.2443556785583496,0.2881956100463867,1.6015747785568237,2.6673474311828613,10.563847541809082,0.24638447165489197
6_20251106_151919,1762413524012,6,0.3370165228843689,0.4367971420288086,0.5412988066673279,0.6345263123512268,1.0640407800674438,1.6842721700668335,-1.8535336256027222,2.2712817192077637,10.393572807312012,1.1764144897460938,-0.5581777095794678,-0.43342381715774536,0.06543124467134476,21.108980178833008,-26.272132873535156,14.697784423828125,-0.3168525695800781,-0.13621997833251953,0.7440240383148193,2.588134288787842,10.529792785644531,0.4323904514312744
6_20251106_151919,1762413524031,6,0.34139013290405273,0.43720683455467224,0.5354966521263123,0.6368251442909241,1.082071304321289,1.7090888023376465,-1.8108116388320923,1.9169551134109497,10.151768684387207,0.257080614566803,-0.5581777095794678,-0.43342381715774536,0.06543124467134476,21.072032928466797,-26.793716430664062,14.023910522460938,-0.5369433164596558,-0.30241966247558594,-0.1402478814125061,2.4538984298706055,10.454188346862793,0.3973284959793091
6_20251106_151919,1762413524050,6,0.3445510268211365,0.4384431838989258,0.5306635499000549,0.638316810131073,1.0981777906417847,1.73128342628479,-1.772534728050232,2.393380641937256,10.38040542602539,0.2953861951828003,-0.48914989829063416,-0.43831074237823486,0.20043236017227173,21.060163497924805,-27.30115509033203,13.351282119750977,-0.04841423034667969,-0.05902671813964844,-0.08155384659767151,2.4417948722839355,10.439432144165039,0.3769400417804718
6_20251106_151919,1762413524069,6,0.3471064567565918,0.44070109724998474,0.5247726440429688,0.640244722366333,1.1150439977645874,1.7531883716583252,-1.73529851436615,3.0122551918029785,10.738323211669922,0.6952006816864014,-0.7945823669433594,-0.46518877148628235,0.38369178771972656,21.054214477539062,-27.719345092773438,12.545337677001953,0.45636820793151855,0.23911285400390625,0.25460851192474365,2.55588698387146,10.499210357666016,0.4405921697616577
6_20251106_151919,1762413524088,6,0.34987854957580566,0.4431624710559845,0.5173203945159912,0.6430953145027161,1.1150439977645874,1.7531883716583252,-1.73529851436615,3.0122551918029785,10.738323211669922,0.6952006816864014,-0.9259182214736938,-0.4712974429130554,0.2798447608947754,21.0019474029541,-28.091026306152344,11.792552947998047,0.45636820793151855,0.23911285400390625,0.25460851192474365,2.55588698387146,10.499210357666016,0.4405921697616577
6_20251106_151919,1762413524108,6,0.3535226583480835,0.4447923004627228,0.5090668797492981,0.6465542912483215,1.15224289894104,1.799208402633667,-1.6581696271896362,3.3605966567993164,11.341636657714844,1.8048653602600098,-0.9692896604537964,-0.46457791328430176,0.13934588432312012,20.92298126220703,-28.51384735107422,10.970149993896484,0.524207353591919,0.572479248046875,0.946681559085846,2.8363893032073975,10.769157409667969,0.8581838011741638
6_20251106_151919,1762413524126,6,0.3582589626312256,0.44541653990745544,0.5006887912750244,0.6500502824783325,1.1715999841690063,1.8226094245910645,-1.618424654006958,3.318700075149536,11.21235466003418,1.800077199935913,-0.9692896604537964,-0.46457791328430176,0.13934588432312012,20.790950775146484,-28.79076385498047,10.229560852050781,0.3858487606048584,0.35455799102783203,0.7535147666931152,2.9328513145446777,10.857796669006348,1.0465624332427979
6_20251106_151919,1762413524148,6,0.363839328289032,0.4453390836715698,0.4928319752216339,0.6530013084411621,1.1932201385498047,1.8485318422317505,-1.573302984237671,3.021831750869751,10.907106399536133,1.4277948141098022,-0.8006910085678101,-0.5281078219413757,-0.0500221848487854,20.71883773803711,-29.088287353515625,9.436830520629883,0.07118439674377441,0.039447784423828125,0.3049858808517456,2.9506473541259766,10.867658615112305,1.1228089332580566
6_20251106_151919,1762413524166,6,0.3696703016757965,0.4451613426208496,0.48590895533561707,0.6550326347351074,1.2094780206680298,1.8683415651321411,-1.5379576683044434,2.7285547256469727,10.729944229125977,1.233872890472412,-0.7658716440200806,-0.6185157895088196,-0.020089812576770782,20.703733444213867,-29.445159912109375,8.699296951293945,-0.1776742935180664,-0.11017131805419922,0.08885109424591064,2.906229019165039,10.840115547180176,1.1450217962265015
6_20251106_151919,1762413524185,6,0.37565651535987854,0.44583916664123535,0.47924691438674927,0.6560732126235962,1.224899411201477,1.8876478672027588,-1.5014394521713257,2.5849084854125977,10.636573791503906,1.5367262363433838,-0.7658716440200806,-0.6185157895088196,-0.020089812576770782,20.634326934814453,-29.704200744628906,7.826259613037109,-0.25705647468566895,-0.16283321380615234,0.31336355209350586,2.8419649600982666,10.799407005310059,1.223362684249878
6_20251106_151919,1762413524202,6,0.38168013095855713,0.4470725357532501,0.4719339609146118,0.6570576429367065,1.238189697265625,1.9036269187927246,-1.4690769910812378,2.924870491027832,10.603055953979492,1.8252153396606445,-0.8807142376899719,-0.5922486186027527,0.10574831813573837,20.605199813842773,-29.897804260253906,6.928981781005859,0.06632447242736816,-0.15708065032958984,0.4814821481704712,2.858546018600464,10.760136604309082,1.3437331914901733
6_20251106_151919,1762413524223,6,0.38747045397758484,0.4480804204940796,0.4638519287109375,0.6587351560592651,1.254975438117981,1.9211703538894653,-1.4292362928390503,3.2133595943450928,10.399559020996094,1.8994323015213013,-0.7970257997512817,-0.6557785868644714,0.08070286363363266,20.563886642456055,-30.092201232910156,6.031213760375977,0.28385090827941895,-0.28846168518066406,0.4445592164993286,2.929508686065674,10.688020706176758,1.4548730850219727
6_20251106_151919,1762413524240,6,0.3931559920310974,0.44930246472358704,0.45580998063087463,0.6601461172103882,1.268363356590271,1.9338865280151367,-1.3974522352218628,3.14752197265625,10.334917068481445,1.976043462753296,-0.723721981048584,-0.7278606295585632,0.01534033939242363,20.49749755859375,-30.300743103027344,5.132200241088867,0.17441058158874512,-0.2824831008911133,0.41693639755249023,2.973111391067505,10.617400169372559,1.5591070652008057
6_20251106_151919,1762413524260,6,0.39905720949172974,0.45125117897987366,0.448146253824234,0.660522997379303,1.2831250429153442,1.9467487335205078,-1.3607158660888672,2.9069149494171143,10.173315048217773,1.9580878019332886,-0.7359393239021301,-0.732747495174408,-0.032307107001543045,20.48489761352539,-30.406463623046875,4.318357467651367,-0.05295729637145996,-0.3552684783935547,0.3191845417022705,2.959872245788574,10.528583526611328,1.638903260231018
6_20251106_151919,1762413524278,6,0.4052421748638153,0.45311346650123596,0.4408273696899414,0.6604076027870178,1.2953741550445557,1.9567502737045288,-1.3286293745040894,2.8087568283081055,10.124237060546875,1.9137969017028809,-0.752432644367218,-0.7296932339668274,-0.011537708342075348,20.480749130249023,-30.5860595703125,3.435840606689453,-0.12089228630065918,-0.32347679138183594,0.21991491317749023,2.9296491146087646,10.447713851928711,1.6938819885253906
6_20251106_151919,1762413524299,6,0.4115075469017029,0.4546862244606018,0.43346861004829407,0.6603233218193054,1.307887315750122,1.9665127992630005,-1.295577883720398,3.0134525299072266,10.350479125976562,2.0131521224975586,-0.7591521739959717,-0.7370235919952393,0.030611958354711533,20.419689178466797,-30.706161499023438,2.484609603881836,0.06704282760620117,-0.0777883529663086,0.2554161548614502,2.9464097023010254,10.428267478942871,1.7577359676361084
6_20251106_151919,1762413524317,6,0.41762447357177734,0.4564431309700012,0.4258076846599579,0.6602554321289062,1.32163405418396,1.976919412612915,-1.2615315914154053,3.352217435836792,10.640165328979492,2.084975242614746,-0.7896953821182251,-0.7480191588401794,0.01350774522870779,20.325904846191406,-30.75384521484375,1.5875568389892578,0.32464599609375,0.16951847076416016,0.2617913484573364,3.027571439743042,10.470646858215332,1.8231838941574097
6_20251106_151919,1762413524338,6,0.4236622750759125,0.45820674300193787,0.41791102290153503,0.6602327227592468,1.3363463878631592,1.9873356819152832,-1.227620244026184,3.571277379989624,10.644952774047852,2.338749647140503,-0.8122974038124084,-0.8194903135299683,-0.06773725897073746,20.325904846191406,-30.75384521484375,1.5875568389892578,0.4349648952484131,0.13944530487060547,0.41245269775390625,3.136312484741211,10.505507469177246,1.9262969493865967
6_20251106_151919,1762413524355,6,0.43039608001708984,0.4599137604236603,0.409741073846817,0.6598111391067505,1.3499345779418945,1.9966291189193726,-1.1973068714141846,3.5461392402648926,10.662908554077148,2.462045669555664,-0.7988584041595459,-0.8879071474075317,-0.18013638257980347,20.281457901000977,-30.79754638671875,0.6113681793212891,0.32786130905151367,0.12592029571533203,0.42859888076782227,3.218277931213379,10.536988258361816,2.033446788787842
6_20251106_151919,1762413524376,6,0.43788522481918335,0.4616731107234955,0.40165475010871887,0.6586257815361023,1.3656082153320312,2.0068538188934326,-1.1617474555969238,3.401296377182007,10.514474868774414,2.61885929107666,-0.7982475161552429,-0.9410523772239685,-0.29864412546157837,20.177095413208008,-30.820640563964844,-0.3126802444458008,0.14641475677490234,-0.018011093139648438,0.46832990646362305,3.2548816204071045,10.532485961914062,2.150529384613037
6_20251106_151919,1762413524395,6,0.4464399814605713,0.4634312689304352,0.39371299743652344,0.6564395427703857,1.3791106939315796,2.0151166915893555,-1.1295305490493774,3.2660298347473145,10.340902328491211,2.7529287338256836,-0.8226821422576904,-0.9709847569465637,-0.3902738094329834,20.157032012939453,-30.85113525390625,-1.1930103302001953,0.008918523788452148,-0.15326690673828125,0.481919527053833,3.2571113109588623,10.494169235229492,2.2710092067718506
6_20251106_151919,1762413524413,6,0.4557691216468811,0.4648738205432892,0.38598620891571045,0.6535912156105042,1.3912053108215332,2.0219428539276123,-1.0986971855163574,3.2337093353271484,10.246335983276367,3.0174765586853027,-0.8666644096374512,-1.0082474946975708,-0.44891685247421265,20.14229965209961,-30.793197631835938,-2.1255578994750977,-0.018721580505371094,-0.19826602935791016,0.5971739292144775,3.2524309158325195,10.444602012634277,2.420302629470825
6_20251106_151919,1762413524432,6,0.46572691202163696,0.46594518423080444,0.3782041072845459,0.650350034236908,1.403255820274353,2.0286874771118164,-1.065197229385376,3.224133014678955,10.407938003540039,3.361029624938965,-0.9057596921920776,-1.056505799293518,-0.5026729106903076,20.156959533691406,-30.657249450683594,-3.1636714935302734,-0.022638320922851562,-0.029331207275390625,0.7525815963745117,3.2467713356018066,10.43726921081543,2.608448028564453
6_20251106_151919,1762413524452,6,0.4762493073940277,0.4667701721191406,0.3701271712779999,0.6467751264572144,1.4142731428146362,2.0355539321899414,-1.0285979509353638,2.9069149494171143,10.477365493774414,3.627971649169922,-0.9045379757881165,-1.0839946269989014,-0.5741441249847412,20.185314178466797,-30.495254516601562,-4.214282989501953,-0.2718851566314697,0.03207683563232422,0.8156189918518066,3.178800106048584,10.44528865814209,2.8123526573181152
6_20251106_151919,1762413524470,6,0.4874817132949829,0.46750137209892273,0.36179202795028687,0.6425811648368835,1.421760082244873,2.040985107421875,-0.9972289204597473,2.537026882171631,10.393572807312012,3.6387453079223633,-0.8684969544410706,-1.0681121349334717,-0.6236241459846497,20.25325584411621,-30.268768310546875,-5.194521903991699,-0.513418436050415,-0.04137229919433594,0.6611142158508301,3.050445318222046,10.434945106506348,2.977631092071533
6_20251106_151919,1762413524490,6,0.4989093542098999,0.4679671823978424,0.35385212302207947,0.6378752589225769,1.4282076358795166,2.0467827320098877,-0.958381175994873,2.3526811599731445,10.263094902038574,3.5848779678344727,-0.8562796711921692,-1.0558948516845703,-0.6230132579803467,20.399038314819336,-29.96149444580078,-6.237815856933594,-0.5582113265991211,-0.1374807357788086,0.4857974052429199,2.9108924865722656,10.400575637817383,3.0990805625915527
6_20251106_151919,1762413524508,6,0.5102033615112305,0.46819812059402466,0.3462851941585541,0.6329056620597839,1.4322394132614136,2.051607370376587,-0.9248532056808472,2.4161248207092285,10.442651748657227,3.8685784339904785,-0.844673216342926,-1.1188139915466309,-0.6260676383972168,20.534761428833008,-29.605735778808594,-7.185930252075195,-0.3958141803741455,0.033660888671875,0.615598201751709,2.811939001083374,10.408990859985352,3.2529802322387695
6_20251106_151919,1762413524527,6,0.5214162468910217,0.46855124831199646,0.3385588228702545,0.6276645064353943,1.4347366094589233,2.057171583175659,-0.8881112337112427,2.24853777885437,10.673683166503906,4.390491962432861,-0.8306233286857605,-1.158520221710205,-0.6877649426460266,20.724756240844727,-29.15808868408203,-8.211333274841309,-0.45072102546691895,0.21175384521484375,0.9100093841552734,2.699258804321289,10.461929321289062,3.480482578277588
6_20251106_151919,1762413524547,6,0.5329187512397766,0.46918362379074097,0.3306066691875458,0.6217423677444458,1.4346227645874023,2.0632083415985107,-0.8479514122009277,1.8403440713882446,10.61742115020752,4.604763984680176,-0.7560978531837463,-1.1334747076034546,-0.7439644932746887,20.878700256347656,-28.700538635253906,-9.21091079711914,-0.6871317625045776,0.12439250946044922,0.8994250297546387,2.5274758338928223,10.49302864074707,3.705338954925537
6_20251106_151919,1762413524566,6,0.5446398854255676,0.4696502983570099,0.32303449511528015,0.615178644657135,1.4317710399627686,2.068942070007324,-0.8095417022705078,1.5255199670791626,10.597070693969727,4.494635581970215,-0.7560978531837463,-1.1334747076034546,-0.7439644932746887,21.047042846679688,-28.204391479492188,-10.222722053527832,-0.8015648126602173,0.08323287963867188,0.6314373016357422,2.32708477973938,10.513837814331055,3.8631982803344727
6_20251106_151919,1762413524585,6,0.5556851029396057,0.4701937437057495,0.31647494435310364,0.6082561016082764,1.4270097017288208,2.074151039123535,-0.7732264995574951,1.4357413053512573,10.533628463745117,4.572443008422852,-0.631481409072876,-1.1090400218963623,-0.7360232472419739,21.1972599029541,-27.596946716308594,-11.219622611999512,-0.713074803352356,0.015831947326660156,0.5673956871032715,2.1488161087036133,10.517796516418457,4.00504732131958
6_20251106_151919,1762413524605,6,0.565998911857605,0.47110840678215027,0.3103746175765991,0.6011403203010559,1.4270097017288208,2.074151039123535,-0.7732264995574951,1.4357413053512573,10.533628463745117,4.572443008422852,-0.5196931958198547,-1.057727575302124,-0.681045413017273,21.361988067626953,-26.93915557861328,-12.147396087646484,-0.713074803352356,0.015831947326660156,0.5673956871032715,2.1488161087036133,10.517796516418457,4.00504732131958
6_20251106_151919,1762413524623,6,0.5759137272834778,0.4722280204296112,0.3043888211250305,0.5938615202903748,1.4111617803573608,2.0848746299743652,-0.6947879195213318,1.2944895029067993,10.565948486328125,4.75319766998291,-0.4720456898212433,-1.015577793121338,-0.7158647179603577,21.500524520874023,-26.320220947265625,-13.1174898147583,-0.5653471946716309,0.03503131866455078,0.49950122833251953,1.8598366975784302,10.530917167663574,4.253696441650391
6_20251106_151919,1762413524642,6,0.5854305624961853,0.4733174443244934,0.2989031672477722,0.5864286422729492,1.4016523361206055,2.08956241607666,-0.6593794822692871,1.104158639907837,10.557568550109863,4.746015548706055,-0.4036288559436798,-0.9893107414245605,-0.7268602848052979,21.56454849243164,-25.71955108642578,-13.996177673339844,-0.6045424938201904,0.02132129669189453,0.39385509490966797,1.7087011337280273,10.536247253417969,4.352160453796387
6_20251106_151919,1762413524662,6,0.5947180986404419,0.47425323724746704,0.29402652382850647,0.578742265701294,1.3896421194076538,2.0955615043640137,-0.6209266781806946,1.0598677396774292,10.881969451904297,4.706512928009033,-0.3071122169494629,-0.9734281897544861,-0.681045413017273,21.689306259155273,-25.11518096923828,-14.845379829406738,-0.5190666913986206,0.2765779495239258,0.28348207473754883,1.5789344310760498,10.605391502380371,4.423030853271484
6_20251106_151919,1762413524681,6,0.6031035780906677,0.4754948616027832,0.2897815704345703,0.5711369514465332,1.3773422241210938,2.102647304534912,-0.583756685256958,1.2861100435256958,11.06152629852295,4.633492946624756,-0.3071122169494629,-0.9734281897544861,-0.681045413017273,21.742158889770508,-24.49073028564453,-15.669964790344238,-0.2342594861984253,0.36490821838378906,0.16836977005004883,1.520369529724121,10.69661808013916,4.465123176574707
6_20251106_151919,1762413524698,6,0.6107310056686401,0.4772111177444458,0.2859128713607788,0.563498854637146,1.3675581216812134,2.1091389656066895,-0.5536429286003113,1.5877665281295776,11.047161102294922,4.510196685791016,-0.13790272176265717,-0.945328414440155,-0.6205698251724243,21.793701171875,-23.891258239746094,-16.508594512939453,0.053917646408081055,0.28043365478515625,0.036058902740478516,1.5338488817214966,10.766727447509766,4.474137783050537
6_20251106_151919,1762413524718,6,0.6177005171775818,0.47946515679359436,0.2823963463306427,0.5557081699371338,1.3675581216812134,2.1091389656066895,-0.5536429286003113,1.5877665281295776,11.047161102294922,4.510196685791016,-0.13545925915241241,-0.9636543393135071,-0.6645520925521851,21.880489349365234,-23.31438446044922,-17.35979461669922,0.053917646408081055,0.28043365478515625,0.036058902740478516,1.5338488817214966,10.766727447509766,4.474137783050537
6_20251106_151919,1762413524738,6,0.6245931386947632,0.48217785358428955,0.2787737548351288,0.5474240779876709,1.3481734991073608,2.126342296600342,-0.48569414019584656,1.7098655700683594,11.047162055969238,4.804671287536621,-0.1207984983921051,-0.8976809978485107,-0.7512948513031006,21.961566925048828,-22.81487274169922,-18.009836196899414,0.0990523099899292,0.16051578521728516,0.22705507278442383,1.6108132600784302,10.886646270751953,4.577616214752197
6_20251106_151919,1762413524757,6,0.6316784620285034,0.4844326376914978,0.2755186855792999,0.5388847589492798,1.3392298221588135,2.133422613143921,-0.4550362825393677,1.3902534246444702,10.611435890197754,4.7316508293151855,-0.03955348953604698,-0.8567530512809753,-0.8044401407241821,22.018173217773438,-22.31708526611328,-18.647342681884766,-0.17644786834716797,-0.2201681137084961,0.12322759628295898,1.5667012929916382,10.83160400390625,4.608423233032227
6_20251106_151919,1762413524776,6,0.638689398765564,0.48637405037879944,0.2732781767845154,0.5299388766288757,1.3392298221588135,2.133422613143921,-0.4550362825393677,1.3902534246444702,10.611435890197754,4.7316508293151855,0.062460917979478836,-0.8500335812568665,-0.7476296424865723,22.018173217773438,-22.31708526611328,-18.647342681884766,-0.17644786834716797,-0.2201681137084961,0.12322759628295898,1.5667012929916382,10.83160400390625,4.608423233032227
6_20251106_151919,1762413524795,6,0.6451698541641235,0.48871293663978577,0.2714931070804596,0.5207754373550415,1.319210171699524,2.1417839527130127,-0.3964100480079651,1.0730353593826294,10.029669761657715,4.732848167419434,0.22800526022911072,-0.8475900888442993,-0.6688281297683716,22.087078094482422,-21.80675506591797,-19.2029972076416,-0.3272463083267212,-0.5532674789428711,0.058564186096191406,1.4002816677093506,10.582937240600586,4.674283981323242
6_20251106_151919,1762413524814,6,0.6505248546600342,0.4918886721134186,0.2700643837451935,0.5117892026901245,1.3081680536270142,2.1426849365234375,-0.36970335245132446,0.9401628375053406,9.836944580078125,4.510196685791016,0.36911502480506897,-0.8860745429992676,-0.6120177507400513,22.207645416259766,-21.242889404296875,-19.769149780273438,-0.3680949807167053,-0.5967941284179688,-0.1312699317932129,1.308257818222046,10.433738708496094,4.6414666175842285
6_20251106_151919,1762413524834,6,0.654742419719696,0.49629145860671997,0.26896464824676514,0.5026580691337585,1.2953118085861206,2.1418263912200928,-0.3435158133506775,0.7115263938903809,9.854900360107422,4.470694541931152,0.3923278748989105,-0.8836311101913452,-0.5741441249847412,22.276548385620117,-20.732559204101562,-20.32480239868164,-0.47738516330718994,-0.4630708694458008,-0.13661766052246094,1.1889115571975708,10.317971229553223,4.607312202453613
6_20251106_151919,1762413524852,6,0.658342719078064,0.5014576315879822,0.26781198382377625,0.49335774779319763,1.283111810684204,2.1401524543762207,-0.32111111283302307,0.6983588933944702,9.936300277709961,4.613142967224121,0.38621923327445984,-0.8091055750846863,-0.552763819694519,22.411334991455078,-20.331695556640625,-20.758243560791016,-0.39244210720062256,-0.30533695220947266,0.004664421081542969,1.0908010005950928,10.241637229919434,4.608478546142578
6_20251106_151919,1762413524872,6,0.6617296934127808,0.5063834190368652,0.26668134331703186,0.48432499170303345,1.269033670425415,2.137770175933838,-0.2967779338359833,0.6959647536277771,10.03924560546875,4.833400249481201,0.4094320833683014,-0.7309148907661438,-0.5423791408538818,22.473909378051758,-19.922767639160156,-21.22139549255371,-0.31586891412734985,-0.1619129180908203,0.17993736267089844,1.011833667755127,10.20115852355957,4.653462886810303
6_20251106_151919,1762413524891,6,0.6646917462348938,0.5109353065490723,0.2660481035709381,0.47576087713241577,1.2559921741485596,2.135355234146118,-0.2752764821052551,0.6037919521331787,10.047624588012695,4.936346530914307,0.470518559217453,-0.6655524373054504,-0.5393248200416565,22.485044479370117,-19.54388427734375,-21.51132583618164,-0.3264334201812744,-0.12282752990722656,0.22630691528320312,0.9302253723144531,10.170452117919922,4.7100396156311035
6_20251106_151919,1762413524910,6,0.6672247052192688,0.5153202414512634,0.26593244075775146,0.46747851371765137,1.2559921741485596,2.135355234146118,-0.2752764821052551,0.6037919521331787,10.047624588012695,4.936346530914307,0.5633699893951416,-0.6252353191375732,-0.5307726860046387,22.566364288330078,-19.222213745117188,-21.88072967529297,-0.3264334201812744,-0.12282752990722656,0.22630691528320312,0.9302253723144531,10.170452117919922,4.7100396156311035
6_20251106_151919,1762413524929,6,0.6690750122070312,0.519888699054718,0.26658397912979126,0.4593336582183838,1.2252228260040283,2.129009485244751,-0.23358294367790222,0.2578446865081787,9.97939395904541,4.273180961608887,0.5798633098602295,-0.6136289238929749,-0.5063381195068359,22.5946102142334,-18.97919464111328,-22.240163803100586,-0.4561799168586731,-0.1241922378540039,-0.3322596549987793,0.7140246033668518,10.103586196899414,4.605440616607666
6_20251106_151919,1762413524947,6,0.6704854965209961,0.5248208045959473,0.2674503028392792,0.4510904848575592,1.2103387117385864,2.1259925365448,-0.21764205396175385,0.28537681698799133,10.056004524230957,4.084047317504883,0.5059486627578735,-0.5690357685089111,-0.4983968734741211,22.611377716064453,-18.724411010742188,-22.599822998046875,-0.3429182469844818,-0.03806591033935547,-0.4171147346496582,0.6282950639724731,10.094070434570312,4.501162052154541
6_20251106_151919,1762413524967,6,0.6718399524688721,0.5294749736785889,0.2682056128978729,0.4431174099445343,1.19367253780365,2.1228487491607666,-0.20191983878612518,0.3141059875488281,10.107478141784668,4.137914657592773,0.43631014227867126,-0.513447105884552,-0.5472660064697266,22.609710693359375,-18.58330535888672,-22.975866317749023,-0.2513512969017029,0.010725975036621094,-0.29059791564941406,0.565457284450531,10.096752166748047,4.4285125732421875
6_20251106_151919,1762413524986,6,0.6735675930976868,0.5333278179168701,0.2689630687236786,0.43534690141677856,1.1775015592575073,2.1204380989074707,-0.18801549077033997,0.15370139479637146,10.252321243286133,4.324654579162598,0.41554075479507446,-0.4639670252799988,-0.6010221242904663,22.653785705566406,-18.4779052734375,-23.22909164428711,-0.32940474152565,0.12445449829101562,-0.08308649063110352,0.4831061363220215,10.127866744995117,4.407741069793701
6_20251106_151919,1762413525005,6,0.6755678653717041,0.5365181565284729,0.2701035737991333,0.42755162715911865,1.1607887744903564,2.118263006210327,-0.17507700622081757,-0.009097322821617126,10.169723510742188,4.3090925216674805,0.44608399271965027,-0.3766133785247803,-0.6297328472137451,22.662416458129883,-18.350173950195312,-23.44271469116211,-0.3937627673149109,0.03348541259765625,-0.0789189338684082,0.38466545939445496,10.136238098144531,4.388011455535889
6_20251106_151919,1762413525024,6,0.6774718761444092,0.5392381548881531,0.27194520831108093,0.419880747795105,1.1433714628219604,2.1155428886413574,-0.16350772976875305,-0.17668423056602478,9.897994041442871,4.124747276306152,0.44608399271965027,-0.3766133785247803,-0.6297328472137451,22.729862213134766,-18.256149291992188,-23.654674530029297,-0.4490797519683838,-0.1905956268310547,-0.21061134338378906,0.272395521402359,10.088589668273926,4.335358619689941
6_20251106_151919,1762413525043,6,0.6788544654846191,0.5418800711631775,0.2745509147644043,0.41248562932014465,1.1255929470062256,2.112403154373169,-0.15354469418525696,-0.17668424546718597,9.886024475097656,3.960751533508301,0.5792524218559265,-0.2923140525817871,-0.5515421032905579,22.837675094604492,-18.10816192626953,-23.999271392822266,-0.3592638075351715,-0.16205215454101562,-0.2996854782104492,0.18257956206798553,10.048076629638672,4.26043701171875
6_20251106_151919,1762413525062,6,0.6795350313186646,0.5449806451797485,0.2773812413215637,0.40532445907592773,1.107914686203003,2.109461784362793,-0.14478379487991333,-0.10486125946044922,10.063186645507812,4.00384521484375,0.5792524218559265,-0.2923140525817871,-0.5515421032905579,22.941776275634766,-18.011611938476562,-24.223276138305664,-0.22995266318321228,0.012087821960449219,-0.20527362823486328,0.12509140372276306,10.051098823547363,4.209118843078613
6_20251106_151919,1762413525081,6,0.6798211932182312,0.548275351524353,0.28026238083839417,0.3983595371246338,1.0905157327651978,2.106874704360962,-0.13746421039104462,-0.09528486430644989,10.126630783081055,3.843440532684326,0.6207911968231201,-0.14509564638137817,-0.563148558139801,23.13290023803711,-17.87237548828125,-24.388992309570312,-0.1763010174036026,0.060425758361816406,-0.2925424575805664,0.08101615309715271,10.066205024719238,4.135982990264893
6_20251106_151919,1762413525100,6,0.6797810196876526,0.5512768030166626,0.2837297022342682,0.39177682995796204,1.07318115234375,2.1047961711883545,-0.1323937475681305,-0.21259571611881256,10.204439163208008,3.449611186981201,0.6207911968231201,-0.14509564638137817,-0.563148558139801,23.281333923339844,-17.836654663085938,-24.490707397460938,-0.23488949239253998,0.11058712005615234,-0.5490975379943848,0.022293779999017715,10.093852043151855,3.998708724975586
6_20251106_151919,1762413525119,6,0.6789810657501221,0.5539254546165466,0.2885032892227173,0.38589778542518616,1.0558127164840698,2.1027309894561768,-0.1289650797843933,-0.3059655427932739,10.060792922973633,3.4927053451538086,0.6916515827178955,-0.054076798260211945,-0.5869722366333008,23.469144821166992,-17.748321533203125,-24.58989715576172,-0.2626074552536011,-0.026447296142578125,-0.4048027992248535,-0.043358080089092255,10.087240219116211,3.897508144378662
6_20251106_151919,1762413525138,6,0.6782525777816772,0.5568839311599731,0.29315197467803955,0.37936219573020935,1.0384050607681274,2.100118398666382,-0.12747858464717865,-0.374197393655777,9.850112915039062,3.2520980834960938,0.741131603717804,0.005787943489849567,-0.5686463117599487,23.665939331054688,-17.698348999023438,-24.54071044921875,-0.2646714448928833,-0.18970203399658203,-0.5163278579711914,-0.10952593386173248,10.039814949035645,3.768425941467285
6_20251106_151919,1762413525157,6,0.6770830750465393,0.5598745942115784,0.29821139574050903,0.3730534613132477,1.0207868814468384,2.096416473388672,-0.12860621511936188,-0.5034787058830261,9.595141410827637,2.842707395553589,0.7820595502853394,0.03510945290327072,-0.5356596112251282,23.94580841064453,-17.692230224609375,-24.57024383544922,-0.31516221165657043,-0.35573863983154297,-0.740574836730957,-0.1883164942264557,9.95088005065918,3.583282232284546
6_20251106_151919,1762413525176,6,0.6754010319709778,0.5630998015403748,0.3035132586956024,0.36692196130752563,1.0026792287826538,2.0911519527435303,-0.13275368511676788,-0.6878243684768677,9.313835144042969,2.462045669555664,0.7918333411216736,0.09008727222681046,-0.4916774034500122,24.27684783935547,-17.63324737548828,-24.542694091796875,-0.39960628747940063,-0.5096359252929688,-0.8969893455505371,-0.28821808099746704,9.823471069335938,3.359035015106201
6_20251106_151919,1762413525196,6,0.673204779624939,0.5664000511169434,0.3089994192123413,0.36125558614730835,0.9830546975135803,2.083784818649292,-0.14083616435527802,-0.7871794104576111,9.131882667541504,2.0646252632141113,0.7863355875015259,0.1707214117050171,-0.44402992725372314,24.56439208984375,-17.690475463867188,-24.43789291381836,-0.39916905760765076,-0.5532712936401367,-1.0355277061462402,-0.3880103528499603,9.68515396118164,3.1001529693603516
6_20251106_151919,1762413525215,6,0.6705548167228699,0.5696201920509338,0.3146750032901764,0.3561863899230957,0.9830546975135803,2.083784818649292,-0.14083616435527802,-0.7871794104576111,9.131882667541504,2.0646252632141113,0.7441859245300293,0.23913827538490295,-0.39149555563926697,24.56439208984375,-17.690475463867188,-24.43789291381836,-0.39916905760765076,-0.5532712936401367,-1.0355277061462402,-0.3880103528499603,9.68515396118164,3.1001529693603516
6_20251106_151919,1762413525234,6,0.6675722599029541,0.5726179480552673,0.3204655647277832,0.35179221630096436,0.946195125579834,2.0657765865325928,-0.16419106721878052,-0.6052279472351074,8.970280647277832,1.9090087413787842,0.6873754858970642,0.3191615343093872,-0.35056760907173157,24.839466094970703,-17.737281799316406,-24.19815444946289,-0.1162274181842804,-0.46920299530029297,-0.7575442790985107,-0.489000529050827,9.439483642578125,2.666553020477295
6_20251106_151919,1762413525254,6,0.6645183563232422,0.5751944780349731,0.3261147141456604,0.34816059470176697,0.946195125579834,2.0657765865325928,-0.16419106721878052,-0.6052279472351074,8.970280647277832,1.9090087413787842,0.7160861492156982,0.339930921792984,-0.28398334980010986,25.12823486328125,-17.75804901123047,-23.970916748046875,-0.1162274181842804,-0.46920299530029297,-0.7575442790985107,-0.489000529050827,9.439483642578125,2.666553020477295
6_20251106_151919,1762413525273,6,0.6610832810401917,0.5774407386779785,0.33198556303977966,0.3454224467277527,0.9101685881614685,2.0425407886505127,-0.19732725620269775,-0.6423364877700806,8.921201705932617,1.4373712539672852,0.7350229024887085,0.2220340371131897,-0.1581452488899231,25.51288414001465,-17.79784393310547,-23.71324920654297,-0.09047389030456543,-0.30603599548339844,-0.8127241134643555,-0.5518625974655151,9.227237701416016,2.2500953674316406
6_20251106_151919,1762413525292,6,0.6571877002716064,0.580498218536377,0.3370300233364105,0.34283655881881714,0.8946743607521057,2.032496452331543,-0.21407198905944824,-0.5381931066513062,9.378475189208984,1.7306482791900635,0.6177369356155396,0.17255401611328125,-0.10377828031778336,25.91900062561035,-17.874801635742188,-23.34726333618164,0.010935604572296143,0.12098979949951172,-0.4155576229095459,-0.5491287112236023,9.257485389709473,2.1462059020996094
6_20251106_151919,1762413525310,6,0.6535230278968811,0.5840117335319519,0.34054988622665405,0.3403876721858978,0.8791835308074951,2.023399829864502,-0.23204933106899261,-0.5322079062461853,9.613096237182617,1.7138895988464355,0.46257731318473816,0.33748745918273926,-0.16608649492263794,26.297826766967773,-18.003707885742188,-22.96979522705078,0.013536632061004639,0.2844886779785156,-0.3458530902862549,-0.5457445383071899,9.328607559204102,2.0597426891326904
6_20251106_151919,1762413525331,6,0.650478184223175,0.5861876606941223,0.3441058397293091,0.3389001190662384,0.8629314303398132,2.0151991844177246,-0.25320807099342346,-0.5417842864990234,9.731603622436523,1.3787158727645874,0.3770562708377838,0.4480539858341217,-0.22900554537773132,26.63043212890625,-18.085968017578125,-22.55268669128418,0.0031682252883911133,0.32239627838134766,-0.5448213815689087,-0.5449525117874146,9.409207344055176,1.923537254333496
6_20251106_151919,1762413525348,6,0.6477267146110535,0.5866499543190002,0.34888920187950134,0.3384793996810913,0.8629314303398132,2.0151991844177246,-0.25320807099342346,-0.5417842864990234,9.731603622436523,1.3787158727645874,0.31413719058036804,0.41567814350128174,-0.23572507500648499,26.850555419921875,-18.2139892578125,-22.04616928100586,0.0031682252883911133,0.32239627838134766,-0.5448213815689087,-0.5449525117874146,9.409207344055176,1.923537254333496
6_20251106_151919,1762413525368,6,0.645361065864563,0.5865593552589417,0.3537144064903259,0.33814695477485657,0.8373720049858093,2.0044267177581787,-0.2913263142108917,-0.3634239137172699,9.807018280029297,1.4517358541488647,0.26710060238838196,0.3973522186279297,-0.2558835744857788,27.14350128173828,-18.33765411376953,-21.49616241455078,0.12709537148475647,0.26264286041259766,-0.2960156202316284,-0.49051928520202637,9.5443754196167,1.7477514743804932
6_20251106_151919,1762413525388,6,0.6433972716331482,0.5862525701522827,0.35812124609947205,0.33778250217437744,0.8373720049858093,2.0044267177581787,-0.2913263142108917,-0.3634239137172699,9.807018280029297,1.4517358541488647,0.26710060238838196,0.3973522186279297,-0.2558835744857788,27.487895965576172,-18.419662475585938,-21.024497985839844,0.12709537148475647,0.26264286041259766,-0.2960156202316284,-0.49051928520202637,9.5443754196167,1.7477514743804932
6_20251106_151919,1762413525407,6,0.6417717337608337,0.5854806900024414,0.3627130389213562,0.33731386065483093,0.8124161958694458,1.9974600076675415,-0.3326289653778076,-0.7847853302955627,9.838142395019531,1.266193151473999,0.1369864046573639,0.41018038988113403,-0.49595344066619873,27.817100524902344,-18.541351318359375,-20.43246841430664,-0.22682738304138184,0.18590450286865234,-0.30379223823547363,-0.5579579472541809,9.652237892150879,1.5699853897094727
6_20251106_151919,1762413525425,6,0.6408700942993164,0.5838180780410767,0.3677971363067627,0.33640339970588684,0.7997225522994995,1.9946751594543457,-0.35147422552108765,-1.2432552576065063,9.605915069580078,1.267390251159668,0.09422588348388672,0.46699076890945435,-0.681045413017273,28.104894638061523,-18.551849365234375,-19.975189208984375,-0.5482378602027893,-0.03705787658691406,-0.24207615852355957,-0.695017397403717,9.642972946166992,1.5094664096832275
6_20251106_151919,1762413525444,6,0.640758216381073,0.5809555649757385,0.3739049732685089,0.3348352015018463,0.7838703393936157,1.9907430410385132,-0.37122976779937744,-1.8334006071090698,9.227646827697754,1.196764349937439,0.09422588348388672,0.5598422288894653,-0.7879467606544495,28.382814407348633,-18.52519989013672,-19.544639587402344,-0.9107065796852112,-0.3322610855102539,-0.25016164779663086,-0.9226940274238586,9.559907913208008,1.4469259977340698
6_20251106_151919,1762413525465,6,0.6410456895828247,0.5771583318710327,0.3811984360218048,0.3326205015182495,0.7838703393936157,1.9907430410385132,-0.37122976779937744,-1.8334006071090698,9.227646827697754,1.196764349937439,0.10338886082172394,0.6245939135551453,-0.7488514184951782,28.767681121826172,-18.32855224609375,-19.14728546142578,-0.9107065796852112,-0.3322610855102539,-0.25016164779663086,-0.9226940274238586,9.559907913208008,1.4469259977340698
6_20251106_151919,1762413525484,6,0.6410417556762695,0.5729437470436096,0.3892955482006073,0.33052968978881836,0.7602078914642334,1.9835714101791382,-0.3959121108055115,-2.2739145755767822,8.90085220336914,0.9585515856742859,0.1058323085308075,0.6007701754570007,-0.6095742583274841,29.105918884277344,-18.097412109375,-18.751100540161133,-1.0809764862060547,-0.5272445678710938,-0.390699565410614,-1.1929380893707275,9.428096771240234,1.3492511510849
6_20251106_151919,1762413525501,6,0.6405463814735413,0.5689139366149902,0.3971206843852997,0.32913896441459656,0.720198929309845,1.9688694477081299,-0.4321002662181854,-2.326584815979004,8.63630485534668,1.312878131866455,0.1369864046573639,0.5433488488197327,-0.4678536355495453,29.545169830322266,-17.797134399414062,-18.349672317504883,-0.7069557905197144,-0.5078964233398438,0.05084264278411865,-1.6196290254592896,9.144201278686523,1.2620354890823364
6_20251106_151919,1762413525523,6,0.6397302746772766,0.565775990486145,0.40369731187820435,0.32813289761543274,0.695338785648346,1.9590789079666138,-0.4508861303329468,-2.293067455291748,8.80748176574707,1.518770694732666,0.22006402909755707,0.566561758518219,-0.400658518075943,29.94121742248535,-17.39971160888672,-17.93457794189453,-0.5387506484985352,-0.2693758010864258,0.20538818836212158,-1.754316806793213,9.076857566833496,1.3133825063705444
6_20251106_151919,1762413525539,6,0.6381809115409851,0.5632356405258179,0.40997451543807983,0.32773715257644653,0.6723293662071228,1.949814796447754,-0.4671821594238281,-2.466639518737793,8.714113235473633,1.2183113098144531,0.2835939824581146,0.5995483994483948,-0.3438481092453003,30.370410919189453,-17.050941467285156,-17.437971115112305,-0.569858193397522,-0.2901954650878906,-0.07605695724487305,-1.896781325340271,9.004308700561523,1.2943682670593262
6_20251106_151919,1762413525559,6,0.6360234618186951,0.5613099336624146,0.4162106513977051,0.3273744285106659,0.6473345756530762,1.9393872022628784,-0.4843856692314148,-2.5971179008483887,8.589619636535645,0.9800984263420105,0.3196350038051605,0.6245939135551453,-0.24366629123687744,30.778038024902344,-16.665145874023438,-17.03616714477539,-0.5602693557739258,-0.33175086975097656,-0.2514159083366394,-2.036848545074463,8.921370506286621,1.23151433467865
6_20251106_151919,1762413525578,6,0.6332281827926636,0.5599052906036377,0.42229026556015015,0.3274127244949341,0.6204437017440796,1.927667260169983,-0.5032341480255127,-2.6605615615844727,8.49625015258789,0.6904124617576599,0.3196350038051605,0.6245939135551453,-0.24366629123687744,31.14136505126953,-16.408248901367188,-16.543859481811523,-0.49897050857543945,-0.34009647369384766,-0.43288153409957886,-2.161591053009033,8.836346626281738,1.1232939958572388
6_20251106_151919,1762413525598,6,0.6296648979187012,0.5589478015899658,0.42817777395248413,0.32827305793762207,0.5943593978881836,1.916179895401001,-0.5227400064468384,-2.338555335998535,8.720097541809082,0.5970426201820374,0.32268932461738586,0.7394364476203918,0.04160752147436142,31.480024337768555,-16.153343200683594,-16.01198387145996,-0.1415715217590332,-0.09299945831298828,-0.421001136302948,-2.196983814239502,8.81309700012207,1.0180437564849854
6_20251106_151919,1762413525622,6,0.6253317594528198,0.5584113001823425,0.43364179134368896,0.33029040694236755,0.5672229528427124,1.9043148756027222,-0.5455887317657471,-1.8585385084152222,8.983448028564453,0.6353482007980347,0.32268932461738586,0.7394364476203918,0.04160752147436142,31.480024337768555,-16.153343200683594,-16.01198387145996,0.2707563638687134,0.13628101348876953,-0.3061564564704895,-2.1292948722839355,8.847167015075684,0.9415046572685242
6_20251106_151919,1762413525638,6,0.6205047369003296,0.5582407116889954,0.438517689704895,0.3332318067550659,0.5672229528427124,1.9043148756027222,-0.5455887317657471,-1.8585385084152222,8.983448028564453,0.6353482007980347,0.37949973344802856,0.7687579989433289,0.12101993709802628,31.725034713745117,-16.042930603027344,-15.40534782409668,0.2707563638687134,0.13628101348876953,-0.3061564564704895,-2.1292948722839355,8.847167015075684,0.9415046572685242
6_20251106_151919,1762413525655,6,0.6152677536010742,0.5583093166351318,0.44336363673210144,0.33640003204345703,0.5331043601036072,1.8888952732086182,-0.58054518699646,-1.5999759435653687,8.983448028564453,0.10026714205741882,0.42287111282348633,0.7547081112861633,0.1197982057929039,32.01517868041992,-15.98065185546875,-14.689675331115723,0.3439352512359619,0.08645439147949219,-0.5964250564575195,-1.9439111948013306,8.896993637084961,0.696692168712616
6_20251106_151919,1762413525675,6,0.6096138954162598,0.5585906505584717,0.4484260380268097,0.3395017683506012,0.5157060027122498,1.8804807662963867,-0.6034033894538879,-1.742424726486206,8.84219741821289,-0.26363587379455566,0.41676247119903564,0.7241648435592651,0.12407425791025162,32.26514434814453,-15.983673095703125,-13.963277816772461,0.16118907928466797,-0.043837547302246094,-0.7682624459266663,-1.903613805770874,8.886034965515137,0.5046265721321106
6_20251106_151919,1762413525694,6,0.603827178478241,0.5590961575508118,0.4534400403499603,0.34233954548835754,0.5002557039260864,1.8726022243499756,-0.6260421872138977,-1.8118536472320557,8.782344818115234,-0.22772438824176788,0.41676247119903564,0.7241648435592651,0.12407425791025162,32.50784683227539,-16.1241455078125,-13.307365417480469,0.07340812683105469,-0.08295249938964844,-0.5858808159828186,-1.8852617740631104,8.865297317504883,0.3581564128398895
6_20251106_151919,1762413525713,6,0.5983589887619019,0.5593873262405396,0.4580293893814087,0.3453425467014313,0.5002557039260864,1.8726022243499756,-0.6260421872138977,-1.8118536472320557,8.782344818115234,-0.22772438824176788,0.16875137388706207,0.8072424530982971,0.1454545259475708,32.64270782470703,-16.22289276123047,-12.519647598266602,0.07340812683105469,-0.08295249938964844,-0.5858808159828186,-1.8852617740631104,8.865297317504883,0.3581564128398895
6_20251106_151919,1762413525731,6,0.593414843082428,0.5588587522506714,0.462234765291214,0.3491056263446808,0.4738291800022125,1.8593707084655762,-0.6696904301643372,-1.6634196043014526,9.09956169128418,-0.13076338171958923,0.12537996470928192,0.8982612490653992,0.09658534824848175,32.761451721191406,-16.397369384765625,-11.774553298950195,0.14542651176452637,0.17176342010498047,-0.3387649357318878,-1.808846116065979,8.9277982711792,0.20800155401229858
6_20251106_151919,1762413525752,6,0.588485062122345,0.5571072697639465,0.46698909997940063,0.3538897633552551,0.46129360795021057,1.8536226749420166,-0.6920379400253296,-1.8944499492645264,9.019360542297363,-0.1918129026889801,0.10827577114105225,0.906202495098114,0.06176605820655823,32.894405364990234,-16.52190399169922,-10.919782638549805,-0.06848311424255371,0.07324981689453125,-0.3198515772819519,-1.8259668350219727,8.946110725402832,0.1280386745929718
6_20251106_151919,1762413525769,6,0.5835871696472168,0.5548350214958191,0.4721471071243286,0.3586937189102173,0.448316752910614,1.8483926057815552,-0.713505208492279,-2.215259075164795,9.030134201049805,0.041611719876527786,0.06307178735733032,0.9196415543556213,0.08986584097146988,33.060691833496094,-16.706436157226562,-10.105408668518066,-0.3114337921142578,0.06721878051757812,-0.06914156675338745,-1.903825283050537,8.962915420532227,0.11075328290462494
6_20251106_151919,1762413525790,6,0.5788392424583435,0.5524019002914429,0.4771585464477539,0.3634791076183319,0.43474674224853516,1.843483567237854,-0.7338917851448059,-2.356511116027832,8.98464584350586,0.11343468725681305,-0.004734201356768608,1.0534210205078125,0.15828266739845276,33.108238220214844,-16.84827423095703,-9.335432052612305,-0.3621487617492676,0.01738452911376953,0.002145126461982727,-1.9943623542785645,8.96726131439209,0.11128956079483032
6_20251106_151919,1762413525808,6,0.5739147663116455,0.5495061874389648,0.4820813536643982,0.36913734674453735,0.42124590277671814,1.838371753692627,-0.7535290122032166,-2.216456413269043,8.8038911819458,0.012882530689239502,-0.004734201356768608,1.0534210205078125,0.15828266739845276,33.15497589111328,-17.0028076171875,-8.552204132080078,-0.1776752471923828,-0.13069629669189453,-0.07872562855482101,-2.03878116607666,8.934587478637695,0.09160815924406052
6_20251106_151919,1762413525827,6,0.5682849884033203,0.545924186706543,0.48721176385879517,0.3763558268547058,0.4080018997192383,1.8323750495910645,-0.7738931775093079,-1.954302430152893,8.643486976623535,-0.14752209186553955,-0.07192932069301605,1.2397346496582031,0.350705087184906,33.177146911621094,-17.159194946289062,-7.742923736572266,0.06758296489715576,-0.2328805923461914,-0.19130420684814453,-2.021885395050049,8.876367568969727,0.043782107532024384
6_20251106_151919,1762413525846,6,0.5618858337402344,0.5421562194824219,0.49224892258644104,0.384762167930603,0.39672723412513733,1.825976014137268,-0.7928295731544495,-1.7747451066970825,8.516599655151367,-0.1594925820827484,-0.05604683607816696,1.1707069873809814,0.4539412260055542,33.18986129760742,-17.254669189453125,-6.824684143066406,0.19771218299865723,-0.2878141403198242,-0.16261975467205048,-1.9724572896957397,8.804413795471191,0.003127172589302063
6_20251106_151919,1762413525866,6,0.5550786256790161,0.5388247966766357,0.4966171979904175,0.393607497215271,0.3866758942604065,1.8191131353378296,-0.8118418455123901,-1.57004976272583,8.65186595916748,-0.021831892430782318,-0.05604683607816696,1.1707069873809814,0.4539412260055542,33.17345428466797,-17.45098114013672,-6.031183242797852,0.3219259977340698,-0.12203788757324219,-0.019967252388596535,-1.8919757604599,8.773903846740723,-0.001864640275016427
6_20251106_151919,1762413525885,6,0.5480704307556152,0.5364980697631836,0.49998438358306885,0.40224897861480713,0.3791741728782654,1.812962293624878,-0.8290256261825562,-1.3198662996292114,8.789525985717773,-0.011058449745178223,-0.03711003065109253,1.15848970413208,0.5950509905815125,33.092315673828125,-17.702835083007812,-5.106027603149414,0.4576876163482666,0.012497901916503906,-0.007355047855526209,-1.777553915977478,8.77702808380127,-0.0037034018896520138
6_20251106_151919,1762413525904,6,0.5406495928764343,0.5344641804695129,0.502961277961731,0.411188542842865,0.3744398355484009,1.8071743249893188,-0.8451870679855347,-0.958357572555542,8.674610137939453,-0.2863798141479492,-0.06276634335517883,1.2763866186141968,0.6200964450836182,33.0257682800293,-17.91582489013672,-4.2201385498046875,0.6553571224212646,-0.08193397521972656,-0.22614112496376038,-1.6137146949768066,8.75654411315918,-0.060238681733608246
6_20251106_151919,1762413525922,6,0.5325597524642944,0.5318470597267151,0.5061769485473633,0.42107436060905457,0.37263986468315125,1.8009648323059082,-0.862572193145752,-0.5393902063369751,8.608772277832031,-0.48987817764282227,-0.08292488753795624,1.2611149549484253,0.6304811239242554,32.848854064941406,-18.13690185546875,-3.2440500259399414,0.859459638595581,-0.11821746826171875,-0.34371161460876465,-1.3988498449325562,8.72698974609375,-0.1461665779352188
6_20251106_151919,1762413525941,6,0.524064838886261,0.528943657875061,0.5094406008720398,0.43132930994033813,0.37393489480018616,1.7951881885528564,-0.8801230192184448,-0.3035714328289032,8.771571159362793,-0.5233955979347229,-0.10125082731246948,1.169485330581665,0.6133769154548645,32.630157470703125,-18.44866943359375,-2.2307310104370117,0.8762227296829224,0.03566551208496094,-0.3017832040786743,-1.179794192314148,8.735905647277832,-0.2216123789548874
6_20251106_151919,1762413525960,6,0.5160439610481262,0.5263897180557251,0.5119352340698242,0.44106101989746094,0.3778023421764374,1.7899919748306274,-0.8975684642791748,-0.2185809463262558,8.84219741821289,-0.5030457377433777,-0.10858120024204254,1.1493268013000488,0.5773358941078186,32.373374938964844,-18.7996826171875,-1.3007736206054688,0.7689706087112427,0.08503341674804688,-0.22514671087265015,-0.9875515699386597,8.757164001464844,-0.27789902687072754
6_20251106_151919,1762413525980,6,0.5083043575286865,0.5237511992454529,0.5142468214035034,0.45040163397789,0.3846552073955536,1.784584879875183,-0.9164698123931885,-0.005506172776222229,8.687776565551758,-0.7568202018737793,-0.10980293154716492,1.1853678226470947,0.5712272524833679,32.10722732543945,-19.10125732421875,-0.3702507019042969,0.7856363654136658,-0.05550956726074219,-0.38313692808151245,-0.7911425232887268,8.7432861328125,-0.37368327379226685
6_20251106_151919,1762413525998,6,0.5004268288612366,0.5206764936447144,0.5167667865753174,0.4598054587841034,0.3926317095756531,1.7795244455337524,-0.9342960715293884,0.06871089339256287,8.565677642822266,-1.0500973463058472,-0.12812887132167816,1.1267247200012207,0.6036030650138855,31.82335662841797,-19.503952026367188,0.544154167175293,0.6878827810287476,-0.14208698272705078,-0.5411312580108643,-0.6191718578338623,8.707764625549316,-0.5089660882949829
6_20251106_151919,1762413526019,6,0.4924292266368866,0.5176506638526917,0.5191026926040649,0.4691307544708252,0.4040346145629883,1.7734034061431885,-0.9557909369468689,0.1453220546245575,8.55490493774414,-1.0273534059524536,-0.18127411603927612,1.0564754009246826,0.6402549743652344,31.502010345458984,-19.9334716796875,1.3889789581298828,0.6115951538085938,-0.12228775024414062,-0.4147098660469055,-0.46627306938171387,8.677192687988281,-0.6126435399055481
6_20251106_151919,1762413526037,6,0.484758198261261,0.5150219798088074,0.5205718874931335,0.4782956540584564,0.4152149260044098,1.768486499786377,-0.9741765260696411,0.3033325672149658,8.704536437988281,-0.9710919857025146,-0.2612973749637604,1.08274245262146,0.6469744443893433,31.185794830322266,-20.274818420410156,2.2086181640625,0.6156845092773438,0.021875381469726562,-0.28675878047943115,-0.3123519718647003,8.682661056518555,-0.6843332052230835
6_20251106_151919,1762413526057,6,0.47731998562812805,0.5122683644294739,0.5214840173721313,0.487648606300354,0.4297322928905487,1.7637923955917358,-0.9942478537559509,0.5810480117797852,8.84578800201416,-0.9028602838516235,-0.2612973749637604,1.08274245262146,0.6469744443893433,31.185794830322266,-20.274818420410156,2.2086181640625,0.7147200107574463,0.13050174713134766,-0.174821674823761,-0.13367198407649994,8.715286254882812,-0.7280386090278625
6_20251106_151919,1762413526075,6,0.47000426054000854,0.5085960030555725,0.5222305655479431,0.49769601225852966,0.4446355700492859,1.7602121829986572,-1.0114266872406006,0.8779162764549255,8.891275405883789,-0.7352733612060547,-0.47815433144569397,1.2611149549484253,0.590164065361023,30.744604110717773,-20.67474365234375,3.062847137451172,0.8092706203460693,0.1407909393310547,-0.005787789821624756,0.0686456561088562,8.750484466552734,-0.7294855713844299
6_20251106_151919,1762413526095,6,0.4627327024936676,0.5036448836326599,0.5230230093002319,0.5085933208465576,0.463660329580307,1.756697416305542,-1.02931547164917,1.1520404815673828,8.837408065795898,-0.6490857601165771,-0.5050324201583862,1.2433998584747314,0.590164065361023,30.290607452392578,-21.09949493408203,3.8079261779785156,0.8667159080505371,0.06953907012939453,0.06431984901428223,0.2853246033191681,8.767868995666504,-0.7134056091308594
6_20251106_151919,1762413526115,6,0.45558997988700867,0.4979647397994995,0.5235406756401062,0.5199750065803528,0.48489996790885925,1.7531731128692627,-1.046234369277954,1.3268097639083862,8.706930160522461,-0.6885884404182434,-0.44822195172309875,1.1212270259857178,0.6475853323936462,29.944061279296875,-21.56652069091797,4.4752655029296875,0.8331881761550903,-0.048750877380371094,0.019853711128234863,0.4936216175556183,8.755681037902832,-0.7084421515464783
6_20251106_151919,1762413526132,6,0.44851797819137573,0.4928489625453949,0.5235731601715088,0.530850887298584,0.5046592354774475,1.7502464056015015,-1.0604522228240967,1.6811363697052002,8.718900680541992,-0.9615156650543213,-0.3791942596435547,0.98011714220047,0.7667039632797241,29.540205001831055,-21.974594116210938,5.127956390380859,0.9500117897987366,-0.02942371368408203,-0.20245879888534546,0.7311245799064636,8.748324394226074,-0.7590568661689758
6_20251106_151919,1762413526151,6,0.4411686956882477,0.4891037344932556,0.5228880047798157,0.5410506725311279,0.5300878286361694,1.7477216720581055,-1.0760117769241333,2.3526811599731445,8.960704803466797,-0.9279983043670654,-0.38530290126800537,0.8017446398735046,0.8674966096878052,29.04811668395996,-22.45020294189453,5.694797515869141,1.2972452640533447,0.1699047088623047,-0.1351531744003296,1.0554358959197998,8.790800094604492,-0.7928451299667358
6_20251106_151919,1762413526171,6,0.43372300267219543,0.48695629835128784,0.5209985375404358,0.5507435202598572,0.5606755018234253,1.7464667558670044,-1.0908758640289307,2.752495765686035,9.208494186401367,-0.5640951991081238,-0.38102683424949646,0.6123765707015991,0.8253469467163086,28.507877349853516,-22.928184509277344,6.178579330444336,1.3576478958129883,0.3341550827026367,0.18299990892410278,1.3948478698730469,8.87433910369873,-0.7470951080322266
6_20251106_151919,1762413526190,6,0.4270099699497223,0.4860282838344574,0.5179832577705383,0.5595822930335999,0.5923439860343933,1.7467862367630005,-1.1032861471176147,2.875791549682617,9.403614044189453,-0.38094666600227356,-0.3987419307231903,0.547014057636261,0.701952338218689,27.967735290527344,-23.406028747558594,6.648843765258789,1.1847548484802246,0.4234199523925781,0.29291877150535583,1.6910367012023926,8.980194091796875,-0.6738654375076294
6_20251106_151919,1762413526209,6,0.4214099645614624,0.4853707253932953,0.5146792531013489,0.5673924088478088,0.6254168152809143,1.7484419345855713,-1.1137828826904297,2.7800278663635254,9.473042488098145,-0.2025863528251648,-0.47326740622520447,0.5800007581710815,0.5724489688873291,27.37762451171875,-23.923507690429688,6.994709014892578,0.8711929321289062,0.39427852630615234,0.37702327966690063,1.9088349342346191,9.078763961791992,-0.5796096324920654
6_20251106_151919,1762413526228,6,0.4167080521583557,0.48378482460975647,0.5117130875587463,0.5748533606529236,0.659774661064148,1.7515465021133423,-1.1226776838302612,2.9799349308013916,9.63703727722168,-0.18702472746372223,-0.549014687538147,0.6343677043914795,0.5095299482345581,26.910686492919922,-24.408065795898438,7.359521865844727,0.8568799495697021,0.44661808013916016,0.3140679597854614,2.1230549812316895,9.19041919708252,-0.5010926723480225
6_20251106_151919,1762413526247,6,0.41263723373413086,0.48096826672554016,0.5089133381843567,0.5825867056846619,0.659774661064148,1.7515465021133423,-1.1226776838302612,2.9799349308013916,9.63703727722168,-0.18702472746372223,-0.6009382009506226,0.5604531168937683,0.4948691725730896,26.431337356567383,-24.916915893554688,7.561122894287109,0.8568799495697021,0.44661808013916016,0.3140679597854614,2.1230549812316895,9.19041919708252,-0.5010926723480225
6_20251106_151919,1762413526267,6,0.4089103937149048,0.47763311862945557,0.505995512008667,0.5904467701911926,0.6978073120117188,1.756911277770996,-1.1305304765701294,3.3318676948547363,9.933905601501465,-0.15829551219940186,-0.6021599769592285,0.3973522186279297,0.4789866805076599,25.894371032714844,-25.378829956054688,7.693744659423828,0.9670500755310059,0.5947895050048828,0.274237722158432,2.3648176193237305,9.339116096496582,-0.43253323435783386
6_20251106_151919,1762413526285,6,0.4061201512813568,0.4749903380870819,0.5021939873695374,0.5977054834365845,0.7726827263832092,1.772874116897583,-1.1398446559906006,3.6730265617370605,10.452228546142578,0.21159273386001587,-0.5300778746604919,0.20004291832447052,0.433782696723938,25.393360137939453,-25.850784301757812,7.814058303833008,0.8407013416290283,0.7547197341918945,0.4281374514102936,2.8323252201080322,9.697508811950684,-0.2165447175502777
6_20251106_151919,1762413526305,6,0.404061883687973,0.47335904836654663,0.49807611107826233,0.6038090586662292,0.813508152961731,1.7849417924880981,-1.1421061754226685,3.5174102783203125,10.63298225402832,0.3312976658344269,-0.47998693585395813,0.07420479506254196,0.3867461085319519,24.91549301147461,-26.35761260986328,7.81291389465332,0.5480680465698242,0.7483787536621094,0.43827390670776367,2.9693422317504883,9.884603500366211,-0.10697624832391739
6_20251106_151919,1762413526325,6,0.40279242396354675,0.4727790653705597,0.49385783076286316,0.6085578799247742,0.8536636829376221,1.7997219562530518,-1.14237642288208,3.4204492568969727,10.97533893585205,0.5108550786972046,-0.5086976289749146,0.09497419744729996,0.32871395349502563,24.49311065673828,-26.747711181640625,7.762042999267578,0.3608856201171875,0.8725881576538086,0.494265079498291,3.059563636779785,10.102750778198242,0.016590014100074768
6_20251106_151919,1762413526342,6,0.4020515978336334,0.4723190665245056,0.4897008240222931,0.6127498149871826,0.8536636829376221,1.7997219562530518,-1.14237642288208,3.4204492568969727,10.97533893585205,0.5108550786972046,-0.5514581203460693,0.18904735147953033,0.2224234640598297,24.075450897216797,-27.061790466308594,7.645174026489258,0.3608856201171875,0.8725881576538086,0.494265079498291,3.059563636779785,10.102750778198242,0.016590014100074768
6_20251106_151919,1762413526362,6,0.4016771912574768,0.47082528471946716,0.4858959913253784,0.617158055305481,0.9248142838478088,1.8347368240356445,-1.1390360593795776,3.2947590351104736,11.680400848388672,0.6413334608078003,-0.5716167092323303,0.2324187457561493,0.07520508021116257,23.766958236694336,-27.381011962890625,7.505422592163086,0.13003158569335938,1.0660057067871094,0.4230107069015503,3.1647274494171143,10.614395141601562,0.21832275390625
6_20251106_151919,1762413526381,6,0.401845782995224,0.4681317210197449,0.4828184247016907,0.621497392654419,0.9582691192626953,1.8560384511947632,-1.1345901489257812,2.9631762504577637,11.685189247131348,1.0100245475769043,-0.5312995910644531,0.2311970293521881,-0.0652938038110733,23.421993255615234,-27.714096069335938,7.255805969238281,-0.161240816116333,0.8566350936889648,0.6333614587783813,3.1244170665740967,10.828554153442383,0.37666308879852295
6_20251106_151919,1762413526400,6,0.403160959482193,0.46487027406692505,0.48024776577949524,0.6250751614570618,0.9885348677635193,1.87819504737854,-1.1278339624404907,2.5717411041259766,11.528375625610352,1.2997105121612549,-0.5312995910644531,0.2311970293521881,-0.0652938038110733,23.1415958404541,-27.968673706054688,7.09132194519043,-0.4421408176422119,0.5598564147949219,0.7384379506111145,3.0138819217681885,10.96851921081543,0.5612725615501404
6_20251106_151919,1762413526419,6,0.40451759099960327,0.46115168929100037,0.47885575890541077,0.6280141472816467,1.0138806104660034,1.8989132642745972,-1.119469404220581,2.2449467182159424,11.284177780151367,1.488844394683838,-0.33582285046577454,0.18354958295822144,-0.10438914597034454,22.961591720581055,-28.178146362304688,6.823423385620117,-0.6151483058929443,0.25252723693847656,0.7420574426651001,2.8600950241088867,11.03165054321289,0.7467869520187378
6_20251106_151919,1762413526438,6,0.40560564398765564,0.4576174318790436,0.47807034850120544,0.6304911375045776,1.0382986068725586,1.9205384254455566,-1.1079185009002686,2.091724395751953,10.951397895812988,1.6420667171478271,-0.33582285046577454,0.18354958295822144,-0.10438914597034454,22.79509735107422,-28.350234985351562,6.664937973022461,-0.6146965026855469,-0.06420230865478516,0.7162238359451294,2.7064208984375,11.015600204467773,0.9258428812026978
6_20251106_151919,1762413526458,6,0.40615466237068176,0.4551808834075928,0.47755780816078186,0.632287323474884,1.0586000680923462,1.9391926527023315,-1.0962250232696533,2.0737686157226562,10.701214790344238,1.3882923126220703,-0.05971202626824379,0.060154907405376434,0.042829252779483795,22.753591537475586,-28.452133178710938,6.566741943359375,-0.5061218738555908,-0.2515077590942383,0.36995959281921387,2.579890489578247,10.952722549438477,1.0183327198028564
6_20251106_151919,1762413526477,6,0.40594279766082764,0.4540465176105499,0.47727450728416443,0.6334518790245056,1.0769845247268677,1.9565181732177734,-1.084101915359497,1.9492754936218262,10.515671730041504,1.1596558094024658,0.00015271641314029694,0.03144426271319389,0.06787470728158951,22.71148109436035,-28.566452026367188,6.454765319824219,-0.5044920444488525,-0.3496408462524414,0.11305844783782959,2.4537675380706787,10.865312576293945,1.0465973615646362
6_20251106_151919,1762413526495,6,0.4050486385822296,0.453646719455719,0.477369487285614,0.634238600730896,1.091186761856079,1.970211148262024,-1.0731163024902344,1.8379498720169067,10.410331726074219,1.2985135316848755,-0.007177660241723061,0.04610501602292061,0.09292016178369522,22.71148109436035,-28.566452026367188,6.454765319824219,-0.4926542043685913,-0.3639850616455078,0.20153295993804932,2.330604076385498,10.774316787719727,1.0969805717468262
6_20251106_151919,1762413526515,6,0.4040745198726654,0.4535890817642212,0.4774281978607178,0.6348567008972168,1.1051061153411865,1.983518362045288,-1.0604346990585327,1.9780045747756958,10.397163391113281,1.454129934310913,0.00015271641314029694,0.09069814532995224,0.11246783286333084,22.69293785095215,-28.691871643066406,6.357021331787109,-0.2820795774459839,-0.30172252655029297,0.28571951389312744,2.2600841522216797,10.698885917663574,1.1684104204177856
6_20251106_151919,1762413526535,6,0.4029032588005066,0.45340394973754883,0.4774271249771118,0.6357335448265076,1.1177012920379639,1.9948972463607788,-1.0481735467910767,2.0534186363220215,10.28344440460205,1.2386610507965088,0.00015271641314029694,0.09069814532995224,0.11246783286333084,22.705110549926758,-28.70269012451172,6.26263427734375,-0.16533231735229492,-0.3323526382446289,0.056200504302978516,2.2187509536743164,10.61579704284668,1.1824605464935303
6_20251106_151919,1762413526553,6,0.40138116478919983,0.45317542552948,0.47768527269363403,0.6366647481918335,1.1177012920379639,1.9948972463607788,-1.0481735467910767,2.0534186363220215,10.28344440460205,1.2386610507965088,0.04108065366744995,0.017394373193383217,0.1252959966659546,22.716690063476562,-28.714317321777344,6.2493438720703125,-0.16533231735229492,-0.3323526382446289,0.056200504302978516,2.2187509536743164,10.61579704284668,1.1824605464935303
6_20251106_151919,1762413526571,6,0.40000423789024353,0.45343247056007385,0.4777704179286957,0.6372841000556946,1.137278437614441,2.010911226272583,-1.0267431735992432,2.000748634338379,10.12902545928955,1.480465054512024,0.04108065366744995,0.017394373193383217,0.1252959966659546,22.699472427368164,-28.803146362304688,6.260522842407227,-0.1402876377105713,-0.32283496856689453,0.2271132469177246,2.14103627204895,10.451860427856445,1.2533518075942993
6_20251106_151919,1762413526591,6,0.39872491359710693,0.45392027497291565,0.47777000069618225,0.6377387046813965,1.1469517946243286,2.017404317855835,-1.0150002241134644,2.09651255607605,10.060792922973633,1.3787158727645874,0.06612610816955566,0.044272422790527344,0.09475275129079819,22.676212310791016,-28.78002166748047,6.300619125366211,-0.03561902046203613,-0.3128538131713867,0.10029125213623047,2.132131576538086,10.37364673614502,1.278424620628357
6_20251106_151919,1762413526610,6,0.3973691463470459,0.45415353775024414,0.47797560691833496,0.638264536857605,1.1555875539779663,2.021965980529785,-1.0046755075454712,2.0977096557617188,9.900388717651367,1.178808569908142,0.09361502528190613,0.041218098253011703,0.052603088319301605,22.62474822998047,-28.833290100097656,6.284084320068359,-0.02753758430480957,-0.37860679626464844,-0.07969295978546143,2.1252472400665283,10.278995513916016,1.2585015296936035
6_20251106_151919,1762413526630,6,0.39609789848327637,0.4543352723121643,0.4785119593143463,0.6385234594345093,1.1638338565826416,2.025191068649292,-0.9945893883705139,1.997157335281372,9.839339256286621,1.180005669593811,0.06551523506641388,0.053435392677783966,0.006788233295083046,22.51497459411621,-28.840576171875,6.293186187744141,-0.10247182846069336,-0.35172557830810547,-0.0627967119216919,2.0996291637420654,10.191064834594727,1.242802381515503
6_20251106_151919,1762413526649,6,0.39500582218170166,0.4542868435382843,0.479310542345047,0.6386354565620422,1.1638338565826416,2.025191068649292,-0.9945893883705139,1.997157335281372,9.839339256286621,1.180005669593811,0.04535670578479767,0.09741765260696411,-0.04330267384648323,22.475299835205078,-28.893592834472656,6.331207275390625,-0.10247182846069336,-0.35172557830810547,-0.0627967119216919,2.0996291637420654,10.191064834594727,1.242802381515503
6_20251106_151919,1762413526668,6,0.39426422119140625,0.4537636339664459,0.48017698526382446,0.6388148069381714,1.1710506677627563,2.0270073413848877,-0.984579861164093,1.8966052532196045,9.780683517456055,1.383504033088684,0.029474224895238876,0.16216930747032166,-0.08484147489070892,22.39060401916504,-28.886734008789062,6.341554641723633,-0.16241908073425293,-0.3283052444458008,0.11256134510040283,2.0590243339538574,10.108988761901855,1.2709426879882812
6_20251106_151919,1762413526688,6,0.3936339318752289,0.45260387659072876,0.4814160168170929,0.6390936374664307,1.1810511350631714,2.0267412662506104,-0.9680251479148865,1.7134567499160767,9.517333030700684,1.2326757907867432,-0.015118901617825031,0.18965822458267212,-0.09950222820043564,22.301494598388672,-28.943870544433594,6.47222900390625,-0.2315058708190918,-0.4039421081542969,-0.027172207832336426,1.9449626207351685,9.92127513885498,1.2598479986190796
6_20251106_151919,1762413526706,6,0.3931461274623871,0.45086923241615295,0.48272818326950073,0.6396300196647644,1.1810511350631714,2.0267412662506104,-0.9680251479148865,1.7134567499160767,9.517333030700684,1.2326757907867432,-0.026114467531442642,0.18416044116020203,-0.08056541532278061,22.24026870727539,-28.9482421875,6.510326385498047,-0.2315058708190918,-0.4039421081542969,-0.027172207832336426,1.9449626207351685,9.92127513885498,1.2598479986190796
6_20251106_151919,1762413526725,6,0.3926321566104889,0.44890275597572327,0.4839553236961365,0.6404010653495789,1.187700867652893,2.02190899848938,-0.9520629048347473,1.6224809885025024,9.510150909423828,1.2003555297851562,-0.005955930799245834,0.1493411362171173,-0.03413970023393631,22.24077606201172,-28.935958862304688,6.537622451782227,-0.2121340036392212,-0.2631196975708008,-0.048226118087768555,1.8346149921417236,9.773270606994629,1.2485816478729248
