session_id,timestamp,label,quaternion_w,quaternion_x,quaternion_y,quaternion_z,position_x,position_y,position_z,accelerometer_x,accelerometer_y,accelerometer_z,gyroscope_x,gyroscope_y,gyroscope_z,magnetometer_x,magnetometer_y,magnetometer_z,linear_acceleration_x,linear_acceleration_y,linear_acceleration_z,gravity_x,gravity_y,gravity_z
1_20251106_212847,1762435690442,1,0.2163083702325821,0.44891929626464844,0.683091938495636,0.5339171886444092,0.6868047714233398,3.2159223556518555,0.3692692518234253,0.7725759148597717,8.823043823242188,-3.7278966903686523,-0.09148462116718292,0.0750981867313385,-0.1857219636440277,20.629899978637695,-22.30685043334961,25.73670768737793,-0.7355019450187683,-0.10790061950683594,-0.20422053337097168,1.50807785987854,8.930944442749023,-3.5236761569976807
1_20251106_212847,1762435690461,1,0.21766871213912964,0.44668272137641907,0.6844980120658875,0.5334391593933105,0.6868047714233398,3.2159223556518555,0.3692692518234253,0.7725759148597717,8.823043823242188,-3.7278966903686523,-0.10675624012947083,-0.008590285666286945,-0.030562326312065125,20.586288452148438,-22.221858978271484,25.709562301635742,-0.7355019450187683,-0.10790061950683594,-0.20422053337097168,1.50807785987854,8.930944442749023,-3.5236761569976807
1_20251106_212847,1762435690480,1,0.21904423832893372,0.4456830620765686,0.6851246356964111,0.5329075455665588,0.6693077087402344,3.2132961750030518,0.35705292224884033,0.9832566380500793,9.09238052368164,-3.3316733837127686,-0.13974294066429138,-0.023251038044691086,0.09833013266324997,20.65394401550293,-22.115947723388672,25.565446853637695,-0.30275124311447144,0.1230459213256836,0.16808223724365234,1.2860078811645508,8.969334602355957,-3.499755620956421
1_20251106_212847,1762435690499,1,0.2192925363779068,0.4458957612514496,0.6841842532157898,0.5338348150253296,0.661292552947998,3.213070869445801,0.353218674659729,1.4165884256362915,9.242011070251465,-2.9988937377929688,-0.13974294066429138,-0.023251038044691086,0.09833013266324997,20.717483520507812,-22.07363510131836,25.501108169555664,0.10446441173553467,0.2181406021118164,0.40068936347961426,1.3121240139007568,9.023870468139648,-3.399583101272583
1_20251106_212847,1762435690520,1,0.2190425843000412,0.4465973973274231,0.6828100681304932,0.5351089239120483,0.6548686027526855,3.2139053344726562,0.3511411249637604,1.8355557918548584,9.372489929199219,-2.821730136871338,-0.14646245539188385,-0.008590285666286945,0.1844620555639267,20.717483520507812,-22.07363510131836,25.501108169555664,0.4187455177307129,0.27889537811279297,0.4622824192047119,1.4168102741241455,9.093594551086426,-3.28401255607605
1_20251106_212847,1762435690538,1,0.21841008961200714,0.44766736030578613,0.6815147399902344,0.5361236929893494,0.6509883999824524,3.215745449066162,0.3505311608314514,2.1156654357910156,9.489799499511719,-2.822927474975586,-0.035895936191082,-0.026916226372122765,0.18690550327301025,20.790996551513672,-22.06833267211914,25.449987411499023,0.5590841770172119,0.31696414947509766,0.3688681125640869,1.5565812587738037,9.172835350036621,-3.191795587539673
1_20251106_212847,1762435690556,1,0.2176932692527771,0.4487355351448059,0.680529773235321,0.5367730259895325,0.6493622064590454,3.21807599067688,0.35045719146728516,2.314375400543213,9.446706771850586,-2.9988937377929688,-0.012072214856743813,0.005459603387862444,0.12581904232501984,20.790996551513672,-22.06833267211914,25.449987411499023,0.6062353849411011,0.21909713745117188,0.15432143211364746,1.7081400156021118,9.227609634399414,-3.153215169906616
1_20251106_212847,1762435690576,1,0.21693438291549683,0.4493098556995392,0.6799726486206055,0.5373055934906006,0.6498343348503113,3.2211692333221436,0.3504225015640259,2.4280951023101807,9.435933113098145,-3.138948440551758,-0.030398158356547356,0.03050505556166172,0.048239223659038544,20.76510238647461,-22.10678482055664,25.367116928100586,0.575964093208313,0.16665935516357422,0.01141357421875,1.8521310091018677,9.26927375793457,-3.150362014770508
1_20251106_212847,1762435690596,1,0.21651087701320648,0.44934141635894775,0.6796520948410034,0.537855327129364,0.65211021900177,3.224705457687378,0.35060617327690125,2.453233242034912,9.465859413146973,-3.0790958404541016,-0.030398158356547356,0.03050505556166172,0.048239223659038544,20.71131134033203,-22.209606170654297,25.281946182250977,0.48088181018829346,0.15726852416992188,0.05701303482055664,1.9723514318466187,9.30859088897705,-3.136108875274658
1_20251106_212847,1762435690614,1,0.21646668016910553,0.44830042123794556,0.6795754432678223,0.538837730884552,0.65211021900177,3.224705457687378,0.35060617327690125,2.453233242034912,9.465859413146973,-3.0790958404541016,-0.13180169463157654,0.183221235871315,-0.17472639679908752,20.64776039123535,-22.263538360595703,25.251405715942383,0.48088181018829346,0.15726852416992188,0.05701303482055664,1.9723514318466187,9.30859088897705,-3.136108875274658
1_20251106_212847,1762435690633,1,0.21654629707336426,0.44585537910461426,0.680041491985321,0.5402446389198303,0.6578332781791687,3.2309091091156006,0.35153594613075256,2.0390541553497314,9.23243522644043,-3.183239459991455,-0.11897353827953339,0.2345338761806488,-0.23398028314113617,20.653194427490234,-22.38791275024414,25.208707809448242,0.0005533695220947266,-0.07038211822509766,-0.0604250431060791,2.0385007858276367,9.302817344665527,-3.122814416885376
1_20251106_212847,1762435690652,1,0.21667778491973877,0.4429168105125427,0.6808364987373352,0.5416060090065002,0.6599657535552979,3.233410596847534,0.35119813680648804,1.8259793519973755,9.183355331420898,-3.371175765991211,-0.09637154638767242,0.1984928548336029,-0.2009935826063156,20.552181243896484,-22.457050323486328,25.203466415405273,-0.17001712322235107,-0.09556961059570312,-0.19868898391723633,1.9959964752197266,9.278924942016602,-3.1724867820739746
1_20251106_212847,1762435690672,1,0.21675525605678558,0.44036754965782166,0.681609034538269,0.5426810383796692,0.6616828441619873,3.235435962677002,0.3498000502586365,1.8834377527236938,9.15103530883789,-3.5650980472564697,-0.09637154638767242,0.1984928548336029,-0.2009935826063156,20.46507453918457,-22.488262176513672,25.253568649291992,-0.09004700183868408,-0.10231208801269531,-0.3140890598297119,1.973484754562378,9.253347396850586,-3.251008987426758
1_20251106_212847,1762435690690,1,0.2167489379644394,0.4388878643512726,0.6818842887878418,0.5435357689857483,0.6639110445976257,3.2373387813568115,0.3476199805736542,2.191079616546631,9.245601654052734,-3.561506748199463,-0.11408662050962448,0.014622574672102928,0.03235674276947975,20.343017578125,-22.496471405029297,25.275697708129883,0.17407584190368652,-0.0061969757080078125,-0.2483983039855957,2.0170037746429443,9.251798629760742,-3.313108444213867
1_20251106_212847,1762435690711,1,0.21680684387683868,0.43870359659194946,0.6813197135925293,0.5443688035011292,0.6687678694725037,3.239989995956421,0.3448393940925598,2.768057346343994,9.446706771850586,-3.4597578048706055,-0.14829504489898682,-0.04463130235671997,0.11421261727809906,20.304950714111328,-22.524105072021484,25.287214279174805,0.6008429527282715,0.15592670440673828,-0.11731958389282227,2.1672143936157227,9.290780067443848,-3.342438220977783
1_20251106_212847,1762435690729,1,0.21694262325763702,0.4393492341041565,0.6800664067268372,0.5453603267669678,0.6762950420379639,3.243013381958008,0.3422745168209076,3.61796236038208,9.641826629638672,-3.464545726776123,-0.18739038705825806,0.040889762341976166,0.11543434858322144,20.265472412109375,-22.576854705810547,25.29820442199707,1.1605982780456543,0.2808370590209961,-0.0976858139038086,2.457364082336426,9.360989570617676,-3.3668599128723145
1_20251106_212847,1762435690750,1,0.21664990484714508,0.43959057331085205,0.6786762475967407,0.5470114350318909,0.6893821358680725,3.2471835613250732,0.33875468373298645,4.4762468338012695,9.775896072387695,-3.7123351097106934,-0.2997894883155823,0.20521236956119537,-0.012236381880939007,20.252582550048828,-22.590206146240234,25.297449111938477,1.6151063442230225,0.3319253921508789,-0.2763803005218506,2.861140489578247,9.443970680236816,-3.4359548091888428
1_20251106_212847,1762435690766,1,0.21637725830078125,0.4381173551082611,0.6774280071258545,0.5498412251472473,0.7059392929077148,3.2517096996307373,0.3349740505218506,4.801844596862793,9.757940292358398,-3.684803009033203,-0.41035598516464233,0.21009929478168488,-0.19793924689292908,20.192047119140625,-22.593639373779297,25.240930557250977,1.552563190460205,0.2511758804321289,-0.19907855987548828,3.249281406402588,9.50676441192627,-3.485724449157715
1_20251106_212847,1762435690785,1,0.21736912429332733,0.43534794449806213,0.6763095855712891,0.5530173182487488,0.7260762453079224,3.256415367126465,0.33141839504241943,4.537296295166016,9.567608833312988,-3.399905204772949,-0.42562761902809143,0.07143299281597137,-0.345157653093338,20.129100799560547,-22.635143280029297,25.22416877746582,1.030411958694458,0.048675537109375,0.06865549087524414,3.5068843364715576,9.518933296203613,-3.4685606956481934
1_20251106_212847,1762435690805,1,0.22002872824668884,0.4323809742927551,0.6753894090652466,0.5554126501083374,0.7480720281600952,3.26090145111084,0.32802778482437134,4.118329048156738,9.446706771850586,-3.4142696857452393,-0.3706498146057129,-0.09227874875068665,-0.3726465404033661,20.113378524780273,-22.710338592529297,25.12748146057129,0.48915576934814453,-0.057781219482421875,0.04343295097351074,3.6291732788085938,9.504487991333008,-3.45770263671875
1_20251106_212847,1762435690825,1,0.22370195388793945,0.4301833212375641,0.6745094060897827,0.5567197203636169,0.7683259844779968,3.2647948265075684,0.3252675533294678,3.775972843170166,9.447903633117676,-3.3484320640563965,-0.33766311407089233,-0.32257476449012756,-0.29628846049308777,20.10862922668457,-22.809581756591797,25.003725051879883,0.11743974685668945,-0.04526710510253906,0.08741641044616699,3.6585330963134766,9.493170738220215,-3.4358484745025635
1_20251106_212847,1762435690844,1,0.2283603549003601,0.4297274351119995,0.6730280518531799,0.5569732189178467,0.7683259844779968,3.2647948265075684,0.3252675533294678,3.775972843170166,9.447903633117676,-3.3484320640563965,-0.3303327262401581,-0.5589794516563416,-0.15395699441432953,20.153018951416016,-22.905109405517578,24.827863693237305,0.11743974685668945,-0.04526710510253906,0.08741641044616699,3.6585330963134766,9.493170738220215,-3.4358484745025635
1_20251106_212847,1762435690863,1,0.23371531069278717,0.4313097894191742,0.6705511808395386,0.5565160512924194,0.7894044518470764,3.2696821689605713,0.3239782452583313,3.602400779724121,9.73160457611084,-2.9557998180389404,-0.27535492181777954,-0.7355193495750427,-0.01406897883862257,20.213119506835938,-22.937053680419922,24.6538143157959,-0.044905662536621094,0.19074726104736328,0.38403916358947754,3.647306442260742,9.540857315063477,-3.339838981628418
1_20251106_212847,1762435690881,1,0.23925307393074036,0.43473100662231445,0.6673536896705627,0.5553431510925293,0.8247190713882446,3.2821877002716064,0.32681283354759216,4.166211128234863,10.474971771240234,-2.4697978496551514,-0.21243584156036377,-0.8998419046401978,0.08305851370096207,20.361427307128906,-22.924694061279297,24.3758602142334,0.39243030548095703,0.6547164916992188,0.5934078693389893,3.7737808227539062,9.820255279541016,-3.0632057189941406
1_20251106_212847,1762435690901,1,0.24499152600765228,0.43967926502227783,0.6636566519737244,0.5533725023269653,0.8448045253753662,3.292311906814575,0.33164551854133606,4.589966773986816,10.910697937011719,-2.146594524383545,-0.13729947805404663,-1.084933876991272,0.12581904232501984,20.54336166381836,-22.971927642822266,24.016958236694336,0.6529488563537598,0.8723545074462891,0.7332890033721924,3.9370179176330566,10.03834342956543,-2.8798835277557373
1_20251106_212847,1762435690920,1,0.2513797879219055,0.4461144804954529,0.6595534086227417,0.5502539277076721,0.8672097325325012,3.3066673278808594,0.3394097089767456,4.700095176696777,11.430217742919922,-1.9155640602111816,-0.01879172772169113,-1.197943925857544,0.040908847004175186,20.865890502929688,-23.11008071899414,23.661828994750977,0.6104617118835449,1.113499641418457,0.7714557647705078,4.089633464813232,10.316718101501465,-2.6870198249816895
1_20251106_212847,1762435690940,1,0.2583155333995819,0.4527941048145294,0.6560309529304504,0.5457782745361328,0.8891095519065857,3.324472427368164,0.3489235043525696,4.291901111602783,11.687582969665527,-1.9837956428527832,0.06428587436676025,-1.1930569410324097,-0.1509026736021042,20.865890502929688,-23.11008071899414,23.661828994750977,0.16181421279907227,1.0966911315917969,0.5625793933868408,4.130086898803711,10.59089183807373,-2.546375036239624
1_20251106_212847,1762435690960,1,0.2658102512359619,0.45833051204681396,0.6536718010902405,0.5403621196746826,0.9078772068023682,3.344510078430176,0.3594644367694855,3.459951877593994,11.618154525756836,-2.052027463912964,0.07833576947450638,-1.1460204124450684,-0.34454676508903503,21.6556396484375,-23.212390899658203,22.757654190063477,-0.5361080169677734,0.8218097686767578,0.3954780101776123,3.9960598945617676,10.796344757080078,-2.447505474090576
1_20251106_212847,1762435690978,1,0.27394726872444153,0.46231576800346375,0.6523236632347107,0.5345005989074707,0.9195277094841003,3.361961841583252,0.36890271306037903,2.4005632400512695,11.375153541564941,-2.0256924629211426,0.05512291193008423,-1.0812687873840332,-0.4587784707546234,21.6556396484375,-23.212390899658203,22.757654190063477,-1.2763972282409668,0.4630460739135742,0.3374502658843994,3.6769604682922363,10.912107467651367,-2.363142728805542
1_20251106_212847,1762435690996,1,0.2824966311454773,0.4651322364807129,0.6514762043952942,0.528607964515686,0.9241658449172974,3.38091778755188,0.38044747710227966,0.8587634563446045,11.067511558532715,-1.8078296184539795,0.0007559452205896378,-0.9835304021835327,-0.4483937919139862,22.219036102294922,-23.195171356201172,22.198488235473633,-2.2545576095581055,0.12432384490966797,0.44425058364868164,3.11332106590271,10.943187713623047,-2.252080202102661
1_20251106_212847,1762435691016,1,0.29069384932518005,0.4671575129032135,0.6506299376487732,0.5233943462371826,0.9241658449172974,3.38091778755188,0.38044747710227966,0.8587634563446045,11.067511558532715,-1.8078296184539795,0.0007559452205896378,-0.9835304021835327,-0.4483937919139862,22.739429473876953,-23.08053970336914,21.62595558166504,-2.2545576095581055,0.12432384490966797,0.44425058364868164,3.11332106590271,10.943187713623047,-2.252080202102661
1_20251106_212847,1762435691035,1,0.29789504408836365,0.4698456823825836,0.6485781669616699,0.5194708704948425,0.8958039879798889,3.411809206008911,0.40781882405281067,-2.3996047973632812,9.762727737426758,-1.279930830001831,-0.0823216512799263,-1.0953186750411987,0.34634122252464294,23.35157012939453,-23.06014633178711,21.068750381469727,-3.7341649532318115,-0.8723258972167969,0.6911256313323975,1.3345601558685303,10.635053634643555,-1.9710564613342285
1_20251106_212847,1762435691054,1,0.3035745918750763,0.4764655530452728,0.6437326669692993,0.5161697864532471,0.8958039879798889,3.411809206008911,0.40781882405281067,-2.3996047973632812,9.762727737426758,-1.279930830001831,-0.0823216512799263,-1.0953186750411987,0.34634122252464294,23.941158294677734,-23.004070281982422,20.551904678344727,-3.7341649532318115,-0.8723258972167969,0.6911256313323975,1.3345601558685303,10.635053634643555,-1.9710564613342285
1_20251106_212847,1762435691072,1,0.3062528669834137,0.48832643032073975,0.6358858942985535,0.5132207870483398,0.8404242992401123,3.4303886890411377,0.44266176223754883,-0.01867370307445526,10.22598648071289,-0.9902448654174805,0.3294011950492859,-1.282243251800537,1.559518575668335,24.488338470458984,-23.06271743774414,19.9636287689209,-0.5695845484733582,-0.19591808319091797,0.5608761310577393,0.5509108304977417,10.421904563903809,-1.5511209964752197
1_20251106_212847,1762435691091,1,0.3052619695663452,0.5039868950843811,0.626702606678009,0.5099570751190186,0.8176447749137878,3.4400429725646973,0.45895272493362427,2.157562017440796,10.843664169311523,-1.9670370817184448,0.45096325874328613,-1.244369626045227,1.6786372661590576,24.94980812072754,-23.139080047607422,19.33111000061035,1.2853209972381592,0.33740806579589844,-0.33273279666900635,0.8722410202026367,10.506256103515625,-1.6343042850494385
1_20251106_212847,1762435691111,1,0.302537739276886,0.5205916166305542,0.6172516345977783,0.5064145922660828,0.8047733902931213,3.4519057273864746,0.4722670912742615,4.131496429443359,11.232704162597656,-2.613443613052368,0.4527958631515503,-1.2437587976455688,1.442232608795166,25.34109878540039,-23.371173858642578,18.80109977722168,2.6074042320251465,0.5811576843261719,-0.7833113670349121,1.5240920782089233,10.651546478271484,-1.830132246017456
1_20251106_212847,1762435691130,1,0.30058175325393677,0.5360168218612671,0.608532190322876,0.502021074295044,0.8034223318099976,3.4647409915924072,0.48056069016456604,5.444660186767578,11.745041847229004,-3.085081100463867,0.38865506649017334,-1.2003873586654663,0.9242191910743713,25.473865509033203,-23.882854461669922,18.255739212036133,3.1364545822143555,0.8747959136962891,-1.0039591789245605,2.3082056045532227,10.870245933532715,-2.0811219215393066
1_20251106_212847,1762435691150,1,0.3008200228214264,0.5481575727462769,0.6019268035888672,0.4967038035392761,0.8140459060668945,3.4833550453186035,0.48519229888916016,5.924676418304443,12.179570198059082,-3.4418017864227295,0.24815616011619568,-1.084933876991272,0.23943988978862762,25.48064422607422,-24.47768783569336,17.69037437438965,2.893176555633545,1.047459602355957,-1.0885438919067383,3.0314998626708984,11.132110595703125,-2.353257894515991
1_20251106_212847,1762435691169,1,0.30423179268836975,0.5556012392044067,0.5982335805892944,0.49078190326690674,0.8293216228485107,3.5023200511932373,0.4862951338291168,5.271087646484375,12.21308708190918,-3.402299165725708,0.1235397458076477,-1.0733275413513184,-0.4648871123790741,25.545433044433594,-25.118907928466797,17.139921188354492,1.791670322418213,0.864781379699707,-0.8392329216003418,3.479417324066162,11.348305702209473,-2.563066244125366
1_20251106_212847,1762435691187,1,0.31137967109680176,0.5585845112800598,0.5976367592811584,0.4835869371891022,0.8293216228485107,3.5023200511932373,0.4862951338291168,5.271087646484375,12.21308708190918,-3.402299165725708,0.10643553733825684,-1.2492564916610718,-0.9560223817825317,25.605478286743164,-25.634815216064453,16.537553787231445,1.791670322418213,0.864781379699707,-0.8392329216003418,3.479417324066162,11.348305702209473,-2.563066244125366
1_20251106_212847,1762435691206,1,0.32189399003982544,0.5593684315681458,0.5990094542503357,0.47400304675102234,0.8567269444465637,3.5380687713623047,0.4905882775783539,2.311981439590454,11.299739837646484,-1.4882173538208008,0.20967167615890503,-1.3634883165359497,-1.2449612617492676,25.788894653320312,-26.11752700805664,15.927099227905273,-1.0085947513580322,-0.08873176574707031,0.8618104457855225,3.3205761909484863,11.388471603393555,-2.3500277996063232
1_20251106_212847,1762435691226,1,0.33388739824295044,0.558960497379303,0.6019929647445679,0.46226271986961365,0.8598098158836365,3.5533909797668457,0.49762633442878723,0.3967024087905884,10.606647491455078,-1.2212753295898438,0.3196273446083069,-1.2101612091064453,-1.3976774215698242,26.04523468017578,-26.37118911743164,15.418462753295898,-2.3390989303588867,-0.6254596710205078,0.9030020236968994,2.7358014583587646,11.232107162475586,-2.124277353286743
1_20251106_212847,1762435691244,1,0.3452279269695282,0.5568737387657166,0.606698215007782,0.45014068484306335,0.8514037728309631,3.5627052783966064,0.5062270164489746,-1.7484101057052612,9.694496154785156,-1.075235366821289,0.37277257442474365,-1.1130337715148926,-1.3616365194320679,26.469356536865234,-26.451007843017578,14.892602920532227,-3.587369441986084,-1.2300891876220703,0.8392336368560791,1.8389593362808228,10.924585342407227,-1.9144690036773682
1_20251106_212847,1762435691263,1,0.3556917905807495,0.554380476474762,0.6117582321166992,0.43806105852127075,0.8282385468482971,3.5650250911712646,0.5178996324539185,-3.532013416290283,8.365771293640137,-0.8035051226615906,0.37277257442474365,-1.1130337715148926,-1.3616365194320679,27.158824920654297,-26.149173736572266,14.222009658813477,-4.296778202056885,-2.047051429748535,0.888771116733551,0.7647647857666016,10.412822723388672,-1.6922762393951416
1_20251106_212847,1762435691283,1,0.36468425393104553,0.5534452199935913,0.6157700419425964,0.4260645806789398,0.79080730676651,3.5590410232543945,0.5308555960655212,-4.857147216796875,7.428481101989746,-1.0117918252944946,0.5291538834571838,-0.9432133436203003,-0.7031244039535522,28.004915237426758,-25.638103485107422,13.683172225952148,-4.49752950668335,-2.3874731063842773,0.5443875789642334,-0.35961759090423584,9.815954208374023,-1.556179404258728
1_20251106_212847,1762435691302,1,0.3710561990737915,0.5542200207710266,0.6185100078582764,0.41545501351356506,0.7414336204528809,3.5447893142700195,0.5434553623199463,-5.394622325897217,6.693492889404297,-1.4499118328094482,0.44485461711883545,-0.6793197989463806,-0.28651463985443115,28.904979705810547,-25.03555679321289,13.107595443725586,-4.028003692626953,-2.497969627380371,0.0850139856338501,-1.3666185140609741,9.191462516784668,-1.5349258184432983
1_20251106_212847,1762435691321,1,0.3747720718383789,0.5560063123703003,0.6196964383125305,0.40789610147476196,0.6798038482666016,3.5215137004852295,0.5556221008300781,-5.3982133865356445,6.223052501678467,-1.6773512363433838,0.26587122678756714,-0.3732765316963196,0.07878246158361435,29.74342155456543,-24.437923431396484,12.62417984008789,-3.225275993347168,-2.374727725982666,-0.11394035816192627,-2.1729373931884766,8.597780227661133,-1.5634108781814575
1_20251106_212847,1762435691340,1,0.37625783681869507,0.558228075504303,0.6193103194236755,0.40406209230422974,0.6160271167755127,3.493006944656372,0.5664279460906982,-5.145636558532715,5.8639373779296875,-1.6270751953125,0.09849429875612259,-0.03974438086152077,0.3188523054122925,30.442487716674805,-23.93746566772461,12.187585830688477,-2.378159523010254,-2.187074661254883,-0.050931453704833984,-2.767477035522461,8.05101203918457,-1.576143741607666
1_20251106_212847,1762435691360,1,0.37562036514282227,0.5599093437194824,0.6183159351348877,0.40385180711746216,0.5501296520233154,3.458775520324707,0.5764880776405334,-4.702727794647217,5.44497013092041,-1.6510162353515625,0.005031997337937355,0.2870682179927826,0.5057768821716309,30.978635787963867,-23.49985122680664,11.973337173461914,-1.5482006072998047,-2.0848336219787598,-0.05989789962768555,-3.154527187347412,7.52980375289917,-1.591118335723877
1_20251106_212847,1762435691379,1,0.3728053867816925,0.5611494779586792,0.6170908212661743,0.4066034257411957,0.48159992694854736,3.417227268218994,0.5855545997619629,-4.02040958404541,5.122963905334473,-1.9179580211639404,0.06428587436676025,0.39824560284614563,0.7043079137802124,31.3836612701416,-23.233562469482422,11.76426887512207,-0.6927058696746826,-1.9254722595214844,-0.2614717483520508,-3.3277037143707275,7.048436164855957,-1.6564862728118896
1_20251106_212847,1762435691400,1,0.3681369721889496,0.5633528828620911,0.6154157519340515,0.4103317856788635,0.41990068554878235,3.374112367630005,0.5916863679885864,-3.2734508514404297,5.0008649826049805,-2.4039599895477295,0.2163912057876587,0.35609593987464905,0.8845129609107971,31.3836612701416,-23.233562469482422,11.76426887512207,0.04340219497680664,-1.6380572319030762,-0.5979790687561035,-3.3168530464172363,6.638922214508057,-1.805980920791626
1_20251106_212847,1762435691417,1,0.36208200454711914,0.5674566030502319,0.6130940914154053,0.41352781653404236,0.36632639169692993,3.3308773040771484,0.5942233204841614,-2.5229010581970215,4.839262962341309,-3.0168492794036865,0.2163912057876587,0.35609593987464905,0.8845129609107971,31.611553192138672,-23.080059051513672,11.667869567871094,0.6351616382598877,-1.4397273063659668,-0.9686946868896484,-3.158062696456909,6.278990268707275,-2.048154592514038
1_20251106_212847,1762435691436,1,0.3549050986766815,0.5732467770576477,0.6103410124778748,0.4158296585083008,0.31419211626052856,3.2805397510528564,0.5917147397994995,-1.7053163051605225,4.732726097106934,-3.7542316913604736,0.49128031730651855,0.3127245604991913,1.0830440521240234,31.503406524658203,-23.263294219970703,11.768381118774414,1.1621971130371094,-1.237011432647705,-1.3648617267608643,-2.867513418197632,5.969737529754639,-2.3893699645996094
1_20251106_212847,1762435691454,1,0.3465655744075775,0.5799633264541626,0.6075219511985779,0.4176744222640991,0.31419211626052856,3.2805397510528564,0.5917147397994995,-1.7053163051605225,4.732726097106934,-3.7542316913604736,0.49128031730651855,0.3127245604991913,1.0830440521240234,31.279958724975586,-23.542522430419922,11.957244873046875,1.1621971130371094,-1.237011432647705,-1.3648617267608643,-2.867513418197632,5.969737529754639,-2.3893699645996094
1_20251106_212847,1762435691474,1,0.3376309275627136,0.5867065191268921,0.6047627329826355,0.4195745587348938,0.23940299451351166,3.183499813079834,0.5686904191970825,-0.13239338994026184,4.9386186599731445,-5.3127899169921875,0.37827035784721375,0.4550560414791107,0.9718666672706604,30.91714859008789,-23.907306671142578,12.287809371948242,1.8663513660430908,-0.6447854042053223,-1.9841816425323486,-1.9987447261810303,5.583404064178467,-3.328608274459839
1_20251106_212847,1762435691492,1,0.3291775584220886,0.5921187996864319,0.6022433042526245,0.4223037660121918,0.2154926359653473,3.1386759281158447,0.5491655468940735,0.3955053687095642,5.0487470626831055,-5.893359184265137,0.09482911229133606,0.5662333965301514,0.784331202507019,30.487472534179688,-24.37692642211914,12.65435791015625,1.9154000282287598,-0.42772579193115234,-2.0518007278442383,-1.5198947191238403,5.476472854614258,-3.8415584564208984
1_20251106_212847,1762435691512,1,0.3222188651561737,0.5951235890388489,0.5999600887298584,0.42667412757873535,0.19699376821517944,3.0900251865386963,0.5216197967529297,0.6971617937088013,5.036776542663574,-6.12319278717041,-0.21365755796432495,0.6438131928443909,0.5955739617347717,29.96817970275879,-24.915966033935547,13.124284744262695,1.773645281791687,-0.3517570495605469,-1.825307846069336,-1.0764834880828857,5.388533592224121,-4.297884941101074
1_20251106_212847,1762435691531,1,0.3173474669456482,0.5960342288017273,0.5974763035774231,0.43249958753585815,0.18567705154418945,3.044985294342041,0.4924086928367615,0.8839015364646912,4.975727081298828,-5.883782863616943,-0.49709880352020264,0.6829085350036621,0.4624055325984955,29.311203002929688,-25.538280487060547,13.506135940551758,1.5683081150054932,-0.3302450180053711,-1.2687182426452637,-0.6844065189361572,5.305972099304199,-4.61506462097168
1_20251106_212847,1762435691551,1,0.31435272097587585,0.5951851606369019,0.5946390628814697,0.439706027507782,0.18567705154418945,3.044985294342041,0.4924086928367615,0.8839015364646912,4.975727081298828,-5.883782863616943,-0.6773039102554321,0.6853519678115845,0.34695208072662354,28.695114135742188,-26.08272933959961,13.877523422241211,1.5683081150054932,-0.3302450180053711,-1.2687182426452637,-0.6844065189361572,5.305972099304199,-4.61506462097168
1_20251106_212847,1762435691570,1,0.31283608078956604,0.5930786728858948,0.591642439365387,0.44760531187057495,0.17677335441112518,2.9598207473754883,0.4329410493373871,0.7713788747787476,5.520384788513184,-4.5251312255859375,-0.733503520488739,0.7397189736366272,0.24860285222530365,28.079729080200195,-26.614627838134766,14.249177932739258,0.9091024398803711,0.16403818130493164,0.17821979522705078,-0.13772355020046234,5.356346607208252,-4.703351020812988
1_20251106_212847,1762435691589,1,0.3117787539958954,0.5898236036300659,0.5890954732894897,0.4559261202812195,0.17677335441112518,2.9598207473754883,0.4329410493373871,0.7713788747787476,5.520384788513184,-4.5251312255859375,-0.6125522255897522,0.7678186893463135,0.2357746958732605,27.51771354675293,-27.067462921142578,14.570310592651367,0.9091024398803711,0.16403818130493164,0.17821979522705078,-0.13772355020046234,5.356346607208252,-4.703351020812988
1_20251106_212847,1762435691609,1,0.30995601415634155,0.5864822268486023,0.5872507691383362,0.4637913107872009,0.1778518706560135,2.8871872425079346,0.3868168890476227,0.6720237731933594,5.7250800132751465,-4.047508716583252,-0.4225732982158661,0.7268908023834229,0.33473479747772217,26.944202423095703,-27.520153045654297,14.79633903503418,0.5260909795761108,0.274294376373291,0.404416561126709,0.14593282341957092,5.4507856369018555,-4.451925277709961
1_20251106_212847,1762435691627,1,0.30686113238334656,0.5842410326004028,0.5855939984321594,0.4707210659980774,0.18119129538536072,2.8563032150268555,0.3669886291027069,0.8623546361923218,6.263751983642578,-4.154046535491943,-0.4225732982158661,0.7268908023834229,0.33473479747772217,26.455684661865234,-27.979297637939453,14.971471786499023,0.5731374621391296,0.6503729820251465,0.23830318450927734,0.28921717405319214,5.613379001617432,-4.392349720001221
1_20251106_212847,1762435691646,1,0.3037509620189667,0.5839398503303528,0.5829352140426636,0.4763781726360321,0.1871119737625122,2.8282649517059326,0.3493770360946655,1.290898323059082,6.087785720825195,-3.9457595348358154,-0.3297218680381775,0.5320249199867249,0.47340109944343567,25.972200393676758,-28.350406646728516,15.13493537902832,0.8013449311256409,0.37952566146850586,0.3572719097137451,0.48955339193344116,5.7082600593566895,-4.3030314445495605
1_20251106_212847,1762435691666,1,0.30126166343688965,0.5854432582855225,0.578691303730011,0.4812629222869873,0.1964840292930603,2.801391363143921,0.33411431312561035,1.6248750686645508,6.091377258300781,-3.530383586883545,-0.38347795605659485,0.1477910876274109,0.7110274434089661,25.501989364624023,-28.719242095947266,15.150209426879883,0.9082573652267456,0.30649375915527344,0.6181182861328125,0.7166177034378052,5.784883499145508,-4.148501873016357
1_20251106_212847,1762435691684,1,0.29936501383781433,0.587928295135498,0.5733168721199036,0.485827773809433,0.1964840292930603,2.801391363143921,0.33411431312561035,1.6248750686645508,6.091377258300781,-3.530383586883545,-0.44151008129119873,0.1679496169090271,0.6878145337104797,25.095417022705078,-29.04562759399414,15.087629318237305,0.9082573652267456,0.30649375915527344,0.6181182861328125,0.7166177034378052,5.784883499145508,-4.148501873016357
1_20251106_212847,1762435691702,1,0.2978043556213379,0.5900038480758667,0.5677313208580017,0.4908045828342438,0.20835235714912415,2.7783687114715576,0.32195594906806946,1.691909909248352,6.609699249267578,-3.3783581256866455,-0.5142030119895935,0.337770015001297,0.6322259306907654,24.670509338378906,-29.485546112060547,14.995153427124023,0.7802337408065796,0.6598525047302246,0.6161150932312012,0.9116761684417725,5.9498467445373535,-3.9944732189178467
1_20251106_212847,1762435691723,1,0.2960357367992401,0.5906888246536255,0.5625573992729187,0.4969695806503296,0.23473432660102844,2.7430899143218994,0.30919742584228516,2.0342659950256348,6.306845664978027,-2.5128915309906006,-0.5142030119895935,0.337770015001297,0.6322259306907654,24.221641540527344,-29.914905548095703,14.942510604858398,0.7893228530883789,0.17006301879882812,1.039379596710205,1.2449431419372559,6.136782646179199,-3.5522711277008057
1_20251106_212847,1762435691742,1,0.29363080859184265,0.5905461311340332,0.5571199655532837,0.5046321153640747,0.25320249795913696,2.7269604206085205,0.30856120586395264,2.9344472885131836,6.27332878112793,-2.188491106033325,-0.5948371887207031,0.5082012414932251,0.6835384964942932,23.719982147216797,-30.434123992919922,14.764410018920898,1.3516032695770264,0.1092367172241211,1.0910239219665527,1.5828440189361572,6.164092063903809,-3.279515027999878
1_20251106_212847,1762435691762,1,0.29025402665138245,0.5910666584968567,0.5512058734893799,0.5124108195304871,0.25320249795913696,2.7269604206085205,0.30856120586395264,2.9344472885131836,6.27332878112793,-2.188491106033325,-0.5264202952384949,0.24858376383781433,0.794105052947998,23.211170196533203,-30.866107940673828,14.574151992797852,1.3516032695770264,0.1092367172241211,1.0910239219665527,1.5828440189361572,6.164092063903809,-3.279515027999878
1_20251106_212847,1762435691780,1,0.2880677282810211,0.5928534865379333,0.544488787651062,0.51872318983078,0.2815362513065338,2.7131028175354004,0.3109234869480133,3.762805223464966,7.2201948165893555,-2.447053909301758,-0.6094979643821716,0.03294851630926132,0.5644199252128601,22.650684356689453,-31.36324691772461,14.29951286315918,1.7439689636230469,0.8448820114135742,0.6659688949584961,2.018836259841919,6.375312805175781,-3.113022804260254
1_20251106_212847,1762435691799,1,0.2885136008262634,0.5942661166191101,0.537987232208252,0.523619532585144,0.3062503933906555,2.7070653438568115,0.3151404857635498,3.8011109828948975,8.258037567138672,-1.9825986623764038,-0.631489098072052,0.1777234673500061,0.2657070755958557,22.650684356689453,-31.36324691772461,14.29951286315918,1.4258198738098145,1.5061798095703125,0.9043391942977905,2.375291109085083,6.751857757568359,-2.8869378566741943
1_20251106_212847,1762435691819,1,0.28991368412971497,0.5931751728057861,0.5334573984146118,0.5286931991577148,0.3667834997177124,2.7036564350128174,0.3366084396839142,3.5676863193511963,7.693028926849365,-1.2081079483032227,-0.6094979643821716,0.5167533159255981,0.10077358782291412,21.71680450439453,-32.29335403442383,13.555904388427734,0.7562379837036133,0.5418267250061035,1.0759832859039307,2.811448335647583,7.151202201843262,-2.2840912342071533
1_20251106_212847,1762435691837,1,0.29030224680900574,0.5894176959991455,0.5309122204780579,0.5352042317390442,0.39695650339126587,2.70442271232605,0.3489128649234772,3.8166725635528564,7.721757888793945,-1.7934650182724,-0.6156066060066223,0.635261058807373,0.10993656516075134,21.71680450439453,-32.29335403442383,13.555904388427734,0.8041794300079346,0.45644426345825195,0.39250099658966064,3.012493133544922,7.265313625335693,-2.1859660148620605
1_20251106_212847,1762435691856,1,0.2900615632534027,0.585107684135437,0.5285557508468628,0.5423486828804016,0.39695650339126587,2.70442271232605,0.3489128649234772,3.8166725635528564,7.721757888793945,-1.7934650182724,-0.7347251772880554,0.4153498113155365,0.18201859295368195,21.373136520385742,-32.61307144165039,13.225454330444336,0.8041794300079346,0.45644426345825195,0.39250099658966064,3.012493133544922,7.265313625335693,-2.1859660148620605
1_20251106_212847,1762435691876,1,0.2911895215511322,0.5821104049682617,0.5244917869567871,0.5488756895065308,0.434409499168396,2.7076685428619385,0.36419475078582764,4.2093048095703125,7.980320930480957,-1.6953070163726807,-0.8685045838356018,0.15145626664161682,0.25410062074661255,20.956663131713867,-32.925533294677734,12.946390151977539,0.9574494361877441,0.5720057487487793,0.39252734184265137,3.2518553733825684,7.408315181732178,-2.087834358215332
1_20251106_212847,1762435691893,1,0.2939309775829315,0.5804430246353149,0.5185408592224121,0.5548024773597717,0.5004151463508606,2.7188661098480225,0.39389511942863464,4.481035232543945,8.83022689819336,-0.7209087014198303,-0.9411974549293518,-0.004925096873193979,0.20767492055892944,20.665054321289062,-33.1911735534668,12.551374435424805,0.7901225090026855,1.0145978927612305,0.9723201394081116,3.6909127235412598,7.815629005432129,-1.693228840827942
1_20251106_212847,1762435691914,1,0.29804494976997375,0.5790704488754272,0.5119711756706238,0.5601179599761963,0.5004151463508606,2.7188661098480225,0.39389511942863464,4.481035232543945,8.83022689819336,-0.7209087014198303,-1.0083926916122437,0.1679496169090271,-0.0317840538918972,20.49993133544922,-33.372982025146484,12.108781814575195,0.7901225090026855,1.0145978927612305,0.9723201394081116,3.6909127235412598,7.815629005432129,-1.693228840827942
1_20251106_212847,1762435691933,1,0.3030271530151367,0.5752598643302917,0.5067859888076782,0.5660552978515625,0.5740973353385925,2.7390546798706055,0.4422939717769623,3.9076483249664307,7.932438850402832,0.18046945333480835,-1.2228060960769653,0.48559924960136414,-0.2578040063381195,20.387470245361328,-33.4882926940918,11.615406036376953,0.10672569274902344,-0.03747701644897461,1.2332589626312256,3.8009226322174072,7.969915866851807,-1.052789568901062
1_20251106_212847,1762435691951,1,0.308606892824173,0.5675936341285706,0.5028291940689087,0.5742491483688354,0.6046355366706848,2.7472434043884277,0.46915051341056824,3.7161202430725098,7.918074607849121,0.8855315446853638,-1.5581709146499634,0.6065504550933838,-0.4447285830974579,20.363948822021484,-33.52350997924805,11.208145141601562,-0.06784200668334961,-0.0414729118347168,1.5506569147109985,3.7839622497558594,7.959547519683838,-0.6651253700256348
1_20251106_212847,1762435691970,1,0.316529780626297,0.5574544668197632,0.4980999231338501,0.5839091539382935,0.6344057321548462,2.7576169967651367,0.5024937391281128,3.4731192588806152,8.74763011932373,1.6719930171966553,-1.837946891784668,0.8032488822937012,-0.655476987361908,20.4145450592041,-33.54099655151367,10.763542175292969,-0.2486743927001953,0.6304664611816406,1.869694709777832,3.7217936515808105,8.11716365814209,-0.19770172238349915
1_20251106_212847,1762435691990,1,0.3259752690792084,0.5440003871917725,0.4934556782245636,0.5952354073524475,0.6628231406211853,2.7708606719970703,0.5415281653404236,3.276803493499756,9.061257362365723,1.674386978149414,-1.837946891784668,0.8032488822937012,-0.655476987361908,20.56863784790039,-33.474361419677734,10.081153869628906,-0.35599207878112793,0.755274772644043,1.4976710081100464,3.632795572280884,8.30598258972168,0.17671598494052887
1_20251106_212847,1762435692010,1,0.33572274446487427,0.5279372334480286,0.49005618691444397,0.6069740056991577,0.6868706345558167,2.7848684787750244,0.583236575126648,2.662716865539551,8.775162696838379,1.6983280181884766,-1.8807073831558228,0.9975038766860962,-0.8558406233787537,20.770771026611328,-33.417110443115234,9.400463104248047,-0.7760629653930664,0.37534427642822266,1.217289686203003,3.438779830932617,8.399818420410156,0.4810383915901184
1_20251106_212847,1762435692028,1,0.3457012176513672,0.5125745534896851,0.486395925283432,0.6173953413963318,0.7048629522323608,2.7983736991882324,0.6222395896911621,2.3957748413085938,9.020557403564453,1.8383827209472656,-1.8006840944290161,0.5925005674362183,-0.527195394039154,21.16302490234375,-33.233577728271484,8.594341278076172,-0.8344039916992188,0.49659156799316406,1.0858755111694336,3.2301788330078125,8.523965835571289,0.752507209777832
1_20251106_212847,1762435692048,1,0.3549226224422455,0.5004133582115173,0.4800455570220947,0.6270347833633423,0.7215322852134705,2.8148651123046875,0.6654927730560303,2.7297515869140625,9.598731994628906,2.2621383666992188,-1.7200499773025513,0.24186424911022186,-0.08798360824584961,21.46625518798828,-33.1186637878418,7.81049919128418,-0.4003419876098633,0.8598127365112305,1.2077049016952515,3.130093574523926,8.738919258117676,1.0544334650039673
1_20251106_212847,1762435692067,1,0.3626953959465027,0.4924943447113037,0.47076505422592163,0.6358314752578735,0.7391061186790466,2.835029363632202,0.7145716547966003,3.427631378173828,9.947072982788086,2.9707915782928467,-1.7200499773025513,0.24186424911022186,-0.08798360824584961,21.84601402282715,-32.94794845581055,6.949558258056641,0.23803043365478516,0.9665231704711914,1.5330865383148193,3.189600944519043,8.980549812316895,1.4377050399780273
1_20251106_212847,1762435692085,1,0.36890411376953125,0.4881356954574585,0.46002092957496643,0.6434392333030701,0.7391061186790466,2.835029363632202,0.7145716547966003,3.427631378173828,9.947072982788086,2.9707915782928467,-1.5453428030014038,-0.05073995143175125,0.21805961430072784,22.21045684814453,-32.840267181396484,6.032741546630859,0.23803043365478516,0.9665231704711914,1.5330865383148193,3.189600944519043,8.980549812316895,1.4377050399780273
1_20251106_212847,1762435692104,1,0.37459102272987366,0.48423001170158386,0.449582040309906,0.6504451036453247,0.7732962369918823,2.882413625717163,0.8128093481063843,3.5449423789978027,10.945411682128906,3.188654661178589,-1.3633049726486206,0.12457822263240814,0.01464166585355997,22.604293823242188,-32.65458297729492,5.010358810424805,0.17647218704223633,1.3017549514770508,1.0696613788604736,3.3684701919555664,9.643656730651855,2.1189932823181152
1_20251106_212847,1762435692124,1,0.3802317678928375,0.4783609211444855,0.4412027895450592,0.6572174429893494,0.7732962369918823,2.882413625717163,0.8128093481063843,3.5449423789978027,10.945411682128906,3.188654661178589,-1.3235987424850464,0.2608010470867157,-0.005516871809959412,22.9554386138916,-32.57240676879883,4.051975250244141,0.17647218704223633,1.3017549514770508,1.0696613788604736,3.3684701919555664,9.643656730651855,2.1189932823181152
1_20251106_212847,1762435692143,1,0.38539814949035645,0.47180190682411194,0.4335642457008362,0.6639979481697083,0.8067190647125244,2.94077730178833,0.9122183322906494,3.6909823417663574,10.790993690490723,2.2824883460998535,-1.3235987424850464,0.2608010470867157,-0.005516871809959412,23.162677764892578,-32.4502067565918,3.156343460083008,0.2726762294769287,0.7413825988769531,0.07494997978210449,3.4183061122894287,10.04961109161377,2.207538366317749
1_20251106_212847,1762435692162,1,0.3897685408592224,0.4671335816383362,0.42386510968208313,0.6709732413291931,0.824568510055542,2.9687976837158203,0.9573972821235657,4.701292037963867,10.837677955627441,3.2927980422973633,-1.3822418451309204,0.10747401416301727,0.25410065054893494,23.305644989013672,-32.40610885620117,2.135028839111328,1.0263888835906982,0.6304531097412109,0.8682079315185547,3.674903154373169,10.20722484588623,2.4245901107788086
1_20251106_212847,1762435692181,1,0.3939588665962219,0.4654911756515503,0.41136500239372253,0.6774165630340576,0.8485931754112244,3.0028750896453857,1.010775089263916,5.380019187927246,11.687582969665527,4.295925140380859,-1.3571964502334595,-0.3836612403392792,0.4874509871006012,23.298362731933594,-32.435001373291016,1.1740913391113281,1.3640928268432617,1.184286117553711,1.497067928314209,4.015926361083984,10.503296852111816,2.7988572120666504
1_20251106_212847,1762435692199,1,0.3985947370529175,0.4650461673736572,0.398487389087677,0.6826874017715454,0.871903657913208,3.0372323989868164,1.061195969581604,5.140609264373779,12.623676300048828,4.741227149963379,-1.3571964502334595,-0.3836612403392792,0.4874509871006012,23.343730926513672,-32.40900802612305,0.06749153137207031,0.8997464179992676,1.696303367614746,1.5538959503173828,4.240862846374512,10.927372932434082,3.187331199645996
1_20251106_212847,1762435692219,1,0.4044908285140991,0.4623059630393982,0.3887197971343994,0.6867002844810486,0.8969117999076843,3.078800916671753,1.1176753044128418,4.373300552368164,12.671558380126953,4.258816719055176,-1.202036738395691,0.15451060235500336,-0.34454676508903503,23.332408905029297,-32.30002975463867,-0.945098876953125,0.10594987869262695,1.3953485488891602,0.8571884632110596,4.267350673675537,11.276209831237793,3.401628255844116
1_20251106_212847,1762435692240,1,0.41177716851234436,0.4555434584617615,0.3824990689754486,0.6903724670410156,0.8969117999076843,3.078800916671753,1.1176753044128418,4.373300552368164,12.671558380126953,4.258816719055176,-1.202036738395691,0.15451060235500336,-0.34454676508903503,23.37265396118164,-32.13764572143555,-1.954671859741211,0.10594987869262695,1.3953485488891602,0.8571884632110596,4.267350673675537,11.276209831237793,3.401628255844116
1_20251106_212847,1762435692259,1,0.4188162088394165,0.44786402583122253,0.37704983353614807,0.6941499710083008,0.9384497404098511,3.1632442474365234,1.2218151092529297,3.682602882385254,12.361522674560547,3.407714605331421,-1.1989823579788208,-0.06845502555370331,-0.01406897883862257,22.359397888183594,-31.512638092041016,-2.2434282302856445,-0.37577104568481445,0.7493762969970703,0.027452945709228516,4.058373928070068,11.612146377563477,3.3802616596221924
1_20251106_212847,1762435692277,1,0.4248063862323761,0.4438745975494385,0.368701308965683,0.6975487470626831,0.9556863307952881,3.2031307220458984,1.2680338621139526,4.306265830993652,13.086933135986328,4.583216667175293,-1.1989823579788208,-0.06845502555370331,-0.01406897883862257,22.359397888183594,-31.512638092041016,-2.2434282302856445,0.19831371307373047,1.1798286437988281,0.9623641967773438,4.107952117919922,11.9071044921875,3.620852470397949
1_20251106_212847,1762435692296,1,0.4299422800540924,0.4426027238368988,0.3584206998348236,0.7005619406700134,0.9734543561935425,3.2443466186523438,1.3163954019546509,4.673759937286377,13.256914138793945,5.429530620574951,-1.1727153062820435,-0.34456589818000793,0.230887770652771,22.265087127685547,-31.371280670166016,-3.285691261291504,0.45264625549316406,1.079848289489746,1.4469425678253174,4.221113681793213,12.1770658493042,3.982588052749634
1_20251106_212847,1762435692315,1,0.43513062596321106,0.4413602650165558,0.3491341471672058,0.7028284072875977,0.9734543561935425,3.2443466186523438,1.3163954019546509,4.673759937286377,13.256914138793945,5.429530620574951,-0.9228715300559998,-0.229112446308136,-0.06965766847133636,22.207942962646484,-31.21511459350586,-4.3127031326293945,0.45264625549316406,1.079848289489746,1.4469425678253174,4.221113681793213,12.1770658493042,3.982588052749634
1_20251106_212847,1762435692334,1,0.4407409131526947,0.43909528851509094,0.3420143723487854,0.7042506337165833,0.9947813153266907,3.2951271533966064,1.378328800201416,4.410408973693848,12.972017288208008,5.554023742675781,-0.8825544714927673,-0.0482964888215065,-0.2119891494512558,22.161880493164062,-31.07125473022461,-5.285423278808594,0.15143632888793945,0.6359615325927734,1.2571487426757812,4.258972644805908,12.336055755615234,4.296875
1_20251106_212847,1762435692352,1,0.4465613067150116,0.4352650046348572,0.3365052342414856,0.7056143283843994,1.010540246963501,3.336204767227173,1.4294928312301636,3.9268009662628174,12.988776206970215,5.525294780731201,-0.8642285466194153,0.07082213461399078,-0.2645235061645508,22.279682159423828,-30.816883087158203,-6.222623825073242,-0.26573729515075684,0.5221757888793945,0.9827361106872559,4.192538261413574,12.46660041809082,4.542558670043945
1_20251106_212847,1762435692372,1,0.4518021047115326,0.4302569627761841,0.33221346139907837,0.7073811292648315,1.0350909233093262,3.4097306728363037,1.5315214395523071,3.4192519187927246,11.643291473388672,5.726398944854736,-0.7188426852226257,-0.00492509501054883,-0.18816542625427246,22.302627563476562,-30.50728988647461,-7.040781021118164,-0.5155882835388184,-0.6286191940307617,0.7913665771484375,3.934840202331543,12.271910667419434,4.935032367706299
1_20251106_212847,1762435692392,1,0.45654067397117615,0.42674291133880615,0.3280112147331238,0.7084276676177979,1.0453814268112183,3.4454593658447266,1.5905125141143799,3.323488235473633,11.430217742919922,5.710837364196777,-0.4885467290878296,-0.06601156294345856,-0.12646809220314026,22.397689819335938,-30.205890655517578,-7.81571102142334,-0.48908162117004395,-0.6733541488647461,0.6206440925598145,3.8125698566436768,12.103571891784668,5.090193271636963
1_20251106_212847,1762435692411,1,0.4600833058357239,0.4247613549232483,0.32479628920555115,0.7088078260421753,1.0521488189697266,3.4737730026245117,1.6411067247390747,3.055349349975586,11.230310440063477,5.050065994262695,-0.4885467290878296,-0.06601156294345856,-0.12646809220314026,22.39980697631836,-30.036434173583984,-8.515616416931152,-0.6057765483856201,-0.6986093521118164,-0.03210163116455078,3.661125898361206,11.928919792175293,5.082167625427246
1_20251106_212847,1762435692430,1,0.4627196192741394,0.4233047366142273,0.32329174876213074,0.7086508870124817,1.0521488189697266,3.4737730026245117,1.6411067247390747,3.055349349975586,11.230310440063477,5.050065994262695,-0.2735223174095154,-0.004925097804516554,-0.13746365904808044,22.438692092895508,-29.852710723876953,-9.146204948425293,-0.6057765483856201,-0.6986093521118164,-0.03210163116455078,3.661125898361206,11.928919792175293,5.082167625427246
1_20251106_212847,1762435692449,1,0.4647199213504791,0.42193007469177246,0.3223779797554016,0.7085780501365662,1.0598410367965698,3.5179030895233154,1.7305169105529785,3.190615653991699,10.67487907409668,4.566458225250244,-0.20449459552764893,0.015233438462018967,-0.021399352699518204,22.565811157226562,-29.601451873779297,-9.690942764282227,-0.26435303688049316,-0.8368692398071289,-0.31243371963500977,3.4549686908721924,11.511748313903809,4.878891944885254
1_20251106_212847,1762435692468,1,0.46624109148979187,0.4211678206920624,0.32106271386146545,0.7086294293403625,1.0627825260162354,3.534029245376587,1.7713372707366943,3.3917200565338135,10.467790603637695,4.902829170227051,-0.12996910512447357,-0.020807581022381783,-0.011625518091022968,22.653059005737305,-29.40347671508789,-10.17062759399414,-0.050598859786987305,-0.8351669311523438,0.0191497802734375,3.442318916320801,11.302957534790039,4.883679389953613
1_20251106_212847,1762435692487,1,0.46750274300575256,0.4210323989391327,0.31997501850128174,0.708370566368103,1.0653789043426514,3.545837879180908,1.8080195188522339,3.4216463565826416,10.204439163208008,4.860932350158691,-0.018791725859045982,-0.02202931046485901,-0.06660334020853043,22.739627838134766,-29.194835662841797,-10.460819244384766,-0.016538143157958984,-0.878814697265625,-0.01819753646850586,3.4381844997406006,11.083253860473633,4.879129886627197
1_20251106_212847,1762435692506,1,0.4687332212924957,0.4212268590927124,0.3197363317012787,0.7075491547584534,1.0677926540374756,3.5546884536743164,1.8462258577346802,3.3306705951690674,9.894403457641602,4.710103988647461,-0.018791725859045982,-0.02202931046485901,-0.06660334020853043,22.813613891601562,-28.98752212524414,-10.697437286376953,-0.08601117134094238,-0.951080322265625,-0.13522052764892578,3.4166817665100098,10.845483779907227,4.845324516296387
1_20251106_212847,1762435692525,1,0.46982166171073914,0.42199525237083435,0.3200962245464325,0.7062053680419922,1.0695117712020874,3.5597448348999023,1.8799452781677246,3.2492709159851074,9.777092933654785,4.567655563354492,0.07589231431484222,-0.06478983163833618,-0.09836830198764801,22.905532836914062,-28.891773223876953,-10.921932220458984,-0.13392877578735352,-0.8547124862670898,-0.22213506698608398,3.383199691772461,10.631805419921875,4.789790630340576
1_20251106_212847,1762435692544,1,0.4709276556968689,0.4230874478816986,0.3207317292690277,0.7045248746871948,1.0703177452087402,3.562298536300659,1.9113298654556274,3.081684112548828,9.811807632446289,4.553290843963623,0.10154862701892853,-0.08861355483531952,-0.1857219636440277,22.896957397460938,-28.841259002685547,-11.029497146606445,-0.2412126064300537,-0.6559982299804688,-0.18919992446899414,3.322896718978882,10.467805862426758,4.742490768432617
1_20251106_212847,1762435692563,1,0.47261106967926025,0.4238887131214142,0.3214723765850067,0.70257568359375,1.0695940256118774,3.562438726425171,1.9412829875946045,2.7800278663635254,9.6346435546875,4.79270076751709,0.10154862701892853,-0.08861355483531952,-0.1857219636440277,22.928363800048828,-28.725711822509766,-11.120755195617676,-0.4342949390411377,-0.666529655456543,0.040167808532714844,3.214322805404663,10.301173210144043,4.752532958984375
1_20251106_212847,1762435692582,1,0.4750017821788788,0.42398351430892944,0.32248491048812866,0.7004389762878418,1.0695940256118774,3.562438726425171,1.9412829875946045,2.7800278663635254,9.6346435546875,4.79270076751709,0.059398964047431946,-0.06173551455140114,-0.2828494608402252,23.07136344909668,-28.565616607666016,-11.179774284362793,-0.4342949390411377,-0.666529655456543,0.040167808532714844,3.214322805404663,10.301173210144043,4.752532958984375
1_20251106_212847,1762435692600,1,0.4777897894382477,0.423494428396225,0.3238779306411743,0.698192298412323,1.065934181213379,3.5600390434265137,1.973333716392517,2.349090099334717,9.541274070739746,4.931558132171631,0.08016836643218994,-0.05807032808661461,-0.38486385345458984,23.116069793701172,-28.424571990966797,-11.229464530944824,-0.6921863555908203,-0.6079196929931641,0.1432199478149414,3.041276454925537,10.14919376373291,4.7883381843566895
1_20251106_212847,1762435692620,1,0.4807651937007904,0.4231437146663666,0.3255034387111664,0.6956017017364502,1.0494033098220825,3.5529942512512207,2.027034282684326,0.9676949977874756,9.809412956237793,5.399604797363281,0.12598320841789246,-0.09288961440324783,-0.38913992047309875,23.232398986816406,-28.29239273071289,-11.168346405029297,-1.4504361152648926,-0.18279361724853516,0.4406251907348633,2.418131113052368,9.992206573486328,4.958979606628418
1_20251106_212847,1762435692640,1,0.4837189316749573,0.4230943024158478,0.3273654878139496,0.6927041411399841,1.0314890146255493,3.549140691757202,2.057865858078003,0.11659285426139832,10.016502380371094,5.775478363037109,0.1296483874320984,-0.059292055666446686,-0.35798579454421997,23.337034225463867,-28.160335540771484,-11.175298690795898,-1.8412305116653442,0.01943683624267578,0.6531991958618164,1.957823395729065,9.997065544128418,5.122279167175293
1_20251106_212847,1762435692659,1,0.4863814413547516,0.4227595031261444,0.32939136028289795,0.690078854560852,1.0085948705673218,3.5458147525787354,2.088672399520874,-0.493902325630188,10.052413940429688,6.208809852600098,0.11804196238517761,0.04760926961898804,-0.25597140192985535,23.453857421875,-28.027477264404297,-11.181761741638184,-1.9613806009292603,0.04427909851074219,0.8692245483398438,1.4674782752990723,10.008134841918945,5.339585304260254
1_20251106_212847,1762435692679,1,0.4881225824356079,0.42178523540496826,0.331546813249588,0.6884114146232605,0.9785190224647522,3.542445182800293,2.1230709552764893,-0.8949138522148132,9.993758201599121,6.521239757537842,0.13087013363838196,0.11419352889060974,-0.13624191284179688,23.453857421875,-28.027477264404297,-11.181761741638184,-1.88991379737854,-0.011501312255859375,0.9453234672546387,0.994999885559082,10.00525951385498,5.575916290283203
1_20251106_212847,1762435692696,1,0.48885607719421387,0.4206409156322479,0.333668977022171,0.687565267086029,0.9494113326072693,3.5390968322753906,2.154099464416504,-1.2001614570617676,9.719633102416992,7.056321144104004,0.13087013363838196,0.11419352889060974,-0.13624191284179688,23.572200775146484,-27.85776138305664,-11.106334686279297,-1.7561291456222534,-0.2285013198852539,1.1843242645263672,0.5559676885604858,9.948134422302246,5.871996879577637
1_20251106_212847,1762435692717,1,0.4884742498397827,0.41931432485580444,0.33580243587493896,0.6876082420349121,0.911598801612854,3.533517360687256,2.193204879760742,-1.1810086965560913,9.343759536743164,7.3280510902404785,0.14553087949752808,0.18994075059890747,-0.014679842628538609,23.71230697631836,-27.724803924560547,-10.963138580322266,-1.3895810842514038,-0.48349952697753906,1.1648435592651367,0.20857243239879608,9.827259063720703,6.163207530975342
1_20251106_212847,1762435692735,1,0.4860866069793701,0.41759195923805237,0.3388444781303406,0.688854992389679,0.8741499185562134,3.5256576538085938,2.2305734157562256,-1.0026483535766602,8.797906875610352,6.919857025146484,0.24510183930397034,0.356706827878952,0.12948423624038696,23.899648666381836,-27.61391830444336,-10.804990768432617,-0.968976616859436,-0.823481559753418,0.6053194999694824,-0.03367172181606293,9.62138843536377,6.314537525177002
1_20251106_212847,1762435692754,1,0.4814034104347229,0.41547131538391113,0.34341320395469666,0.6911596655845642,0.8370907306671143,3.5146706104278564,2.2664501667022705,-0.5741046667098999,8.338239669799805,6.451810836791992,0.40942445397377014,0.5900571346282959,0.26448532938957214,23.93511962890625,-27.613018035888672,-10.654840469360352,-0.4323463439941406,-1.0265188217163086,0.1098184585571289,-0.14175830781459808,9.364758491516113,6.341992378234863
1_20251106_212847,1762435692774,1,0.4743128716945648,0.4143429398536682,0.348982036113739,0.6939443349838257,0.8370907306671143,3.5146706104278564,2.2664501667022705,-0.5741046667098999,8.338239669799805,6.451810836791992,0.6177293062210083,0.681075930595398,0.447744756937027,23.967487335205078,-27.651134490966797,-10.370319366455078,-0.4323463439941406,-1.0265188217163086,0.1098184585571289,-0.14175830781459808,9.364758491516113,6.341992378234863
1_20251106_212847,1762435692793,1,0.4653930962085724,0.41426974534988403,0.354900062084198,0.6970192193984985,0.7969281077384949,3.497976541519165,2.303901195526123,0.02202596515417099,8.111997604370117,5.794631004333496,0.7600607872009277,0.7061213850975037,0.6053478121757507,23.872791290283203,-27.762271881103516,-9.862245559692383,0.1310274302959442,-1.0022087097167969,-0.43788909912109375,-0.10900145769119263,9.114206314086914,6.23252010345459
1_20251106_212847,1762435692811,1,0.4552711248397827,0.41443178057670593,0.36093077063560486,0.700502336025238,0.7444435954093933,3.4674298763275146,2.3514578342437744,1.4369382858276367,8.272401809692383,4.601172924041748,0.7618933320045471,0.7977510690689087,0.7269099354743958,23.68636131286621,-27.98050308227539,-9.2515869140625,1.1102555990219116,-0.5192193984985352,-1.1505522727966309,0.3266827166080475,8.791621208190918,5.751725196838379
1_20251106_212847,1762435692830,1,0.4449852406978607,0.41442161798477173,0.36656492948532104,0.704182505607605,0.7249011397361755,3.4497642517089844,2.3692991733551025,2.187488317489624,8.234095573425293,4.195373058319092,0.6580463647842407,0.7806469202041626,0.7256881594657898,23.385238647460938,-28.282306671142578,-8.538795471191406,1.4886444807052612,-0.44602012634277344,-1.245081901550293,0.6988438367843628,8.680115699768066,5.440454959869385
1_20251106_212847,1762435692850,1,0.4350459575653076,0.4142429530620575,0.3713419735431671,0.7079851031303406,0.711856484413147,3.430851936340332,2.38399600982666,2.8362889289855957,8.270007133483887,4.40605354309082,0.4692891836166382,0.7513253688812256,0.6401671171188354,23.045059204101562,-28.613094329833984,-7.679324150085449,1.709956169128418,-0.32808685302734375,-0.8275213241577148,1.1263327598571777,8.59809398651123,5.233574867248535
1_20251106_212847,1762435692870,1,0.42641645669937134,0.413303941488266,0.37493956089019775,0.7118772268295288,0.7059081792831421,3.412522315979004,2.3957645893096924,3.2492709159851074,8.138331413269043,4.6885576248168945,0.34222933650016785,0.8582267165184021,0.4367491900920868,22.638507843017578,-29.048038482666016,-6.851449012756348,1.6983505487442017,-0.3678102493286133,-0.43601417541503906,1.5509203672409058,8.506141662597656,5.124571800231934
1_20251106_212847,1762435692889,1,0.4190615117549896,0.41034939885139465,0.3788359761238098,0.7158799767494202,0.7050027847290039,3.393198251724243,2.406386137008667,3.209768533706665,8.179031372070312,4.7472124099731445,0.32695770263671875,1.024992823600769,0.1325385570526123,22.121803283691406,-29.479190826416016,-5.8655290603637695,1.3270785808563232,-0.261688232421875,-0.30188751220703125,1.8826899528503418,8.440719604492188,5.049099922180176
1_20251106_212847,1762435692907,1,0.41309598088264465,0.40504249930381775,0.38437822461128235,0.7194064855575562,0.7061936259269714,3.3759050369262695,2.4144234657287598,2.6806726455688477,8.127557754516602,4.625113487243652,0.32695770263671875,1.024992823600769,0.1325385570526123,21.642261505126953,-29.89553451538086,-4.864356994628906,0.6383862495422363,-0.25052928924560547,-0.3391890525817871,2.0422863960266113,8.378087043762207,4.9643025398254395
1_20251106_212847,1762435692927,1,0.40857836604118347,0.39700406789779663,0.39162570238113403,0.7225515842437744,0.7065414190292358,3.3568944931030273,2.4214375019073486,1.7338064908981323,7.76963996887207,4.583216667175293,0.27075815200805664,1.4348829984664917,-0.35920754075050354,21.216609954833984,-30.208919525146484,-3.7915306091308594,-0.24678385257720947,-0.4867572784423828,-0.3048686981201172,1.9805903434753418,8.256397247314453,4.88808536529541
1_20251106_212847,1762435692946,1,0.4044988751411438,0.3866255581378937,0.4002595543861389,0.7257366180419922,0.7043260335922241,3.3363888263702393,2.425366163253784,1.0526854991912842,7.36503791809082,3.891322612762451,0.3336772322654724,1.5619429349899292,-0.21504345536231995,20.836566925048828,-30.368427276611328,-2.795163154602051,-0.7423238754272461,-0.7130870819091797,-0.7974100112915039,1.7950093746185303,8.078125,4.688732624053955
1_20251106_212847,1762435692964,1,0.39856016635894775,0.3758668005466461,0.40934666991233826,0.7295952439308167,0.7002602815628052,3.314610481262207,2.4253110885620117,1.0802175998687744,7.240544319152832,3.3083596229553223,0.42836126685142517,1.3841811418533325,0.22905518114566803,20.567607879638672,-30.495670318603516,-1.793853759765625,-0.5718333721160889,-0.6700644493103027,-1.1042981147766113,1.6520509719848633,7.910608768463135,4.412657737731934
1_20251106_212847,1762435692983,1,0.38979706168174744,0.3683220446109772,0.41687917709350586,0.7338997721672058,0.7002602815628052,3.314610481262207,2.4253110885620117,1.0802175998687744,7.240544319152832,3.3083596229553223,0.4888368248939514,1.0860792398452759,0.6908689141273499,20.300453186035156,-30.59726333618164,-0.8460807800292969,-0.5718333721160889,-0.6700644493103027,-1.1042981147766113,1.6520509719848633,7.910608768463135,4.412657737731934
1_20251106_212847,1762435693002,1,0.3787137567996979,0.36495622992515564,0.42206263542175293,0.7384077310562134,0.6964520812034607,3.274540662765503,2.418185234069824,2.894944667816162,8.437594413757324,3.735706329345703,0.522434413433075,0.9608520269393921,0.9291061758995056,19.997039794921875,-30.70083236694336,0.05967140197753906,0.9647625684738159,0.44414329528808594,-0.38019561767578125,1.9301820993423462,7.993451118469238,4.115901947021484
1_20251106_212847,1762435693022,1,0.36628589034080505,0.363640159368515,0.42602071166038513,0.7430388927459717,0.7022685408592224,3.258091449737549,2.4130096435546875,3.901663064956665,8.733264923095703,3.769223690032959,0.6238378882408142,0.9596302509307861,0.951097309589386,19.52424430847168,-30.779064178466797,1.0809955596923828,1.5771849155426025,0.5918512344360352,-0.2773423194885254,2.3244781494140625,8.141413688659668,4.046566009521484
1_20251106_212847,1762435693042,1,0.3532623052597046,0.3628624975681305,0.43038713932037354,0.7471970319747925,0.713218092918396,3.2459092140197754,2.4070351123809814,4.75156831741333,8.9056396484375,3.4172911643981934,0.6867570281028748,1.0396535396575928,0.8570241332054138,19.075511932373047,-30.867725372314453,2.048971176147461,1.9416720867156982,0.6113805770874023,-0.5034198760986328,2.809896230697632,8.294259071350098,3.920711040496826
1_20251106_212847,1762435693059,1,0.3401409685611725,0.36138251423835754,0.43563270568847656,0.7509533762931824,0.7313610911369324,3.2352325916290283,2.3982045650482178,5.420719146728516,8.855364799499512,2.885801076889038,0.6843135356903076,1.0744727849960327,0.7482901811599731,18.514101028442383,-31.002422332763672,3.1333885192871094,2.088658332824707,0.4488840103149414,-0.827927827835083,3.3320608139038086,8.40648078918457,3.713728904724121
1_20251106_212847,1762435693079,1,0.3274070918560028,0.35924074053764343,0.44126272201538086,0.7543460130691528,0.757811427116394,3.2250218391418457,2.3852121829986572,6.064731597900391,8.559693336486816,2.3447346687316895,0.6635441184043884,1.0365992784500122,0.6658234596252441,17.891746520996094,-31.152706146240234,4.120475769042969,2.1861367225646973,0.12257003784179688,-1.0951955318450928,3.8785948753356934,8.43712329864502,3.4399302005767822
1_20251106_212847,1762435693100,1,0.31529879570007324,0.3570261001586914,0.4468352496623993,0.7572696208953857,0.757811427116394,3.2250218391418457,2.3852121829986572,6.064731597900391,8.559693336486816,2.3447346687316895,0.6837026476860046,0.8857156038284302,0.635280191898346,17.210582733154297,-31.482234954833984,5.128936767578125,2.1861367225646973,0.12257003784179688,-1.0951955318450928,3.8785948753356934,8.43712329864502,3.4399302005767822
1_20251106_212847,1762435693120,1,0.30397069454193115,0.3560062646865845,0.45204225182533264,0.7592886090278625,0.8325814604759216,3.204188823699951,2.344914436340332,7.3395891189575195,8.170652389526367,1.055512547492981,0.7026395201683044,0.6780216693878174,0.6181759834289551,16.43816375732422,-31.716854095458984,6.0544891357421875,2.3155884742736816,-0.1810750961303711,-1.6350067853927612,5.024000644683838,8.351727485656738,2.690519332885742
1_20251106_212847,1762435693137,1,0.2934137284755707,0.35655733942985535,0.4567815065383911,0.7603459358215332,0.8743754625320435,3.194453477859497,2.320255994796753,7.833970069885254,8.034188270568848,0.568313479423523,0.6714853644371033,0.43795183300971985,0.5442613959312439,16.43816375732422,-31.716854095458984,6.0544891357421875,2.2479753494262695,-0.2540311813354492,-1.6977647542953491,5.585994720458984,8.288219451904297,2.266078233718872
1_20251106_212847,1762435693155,1,0.2845880091190338,0.3586660623550415,0.4607607424259186,0.7603077292442322,0.9201899170875549,3.1843111515045166,2.2919602394104004,8.067394256591797,7.925256729125977,0.2882038950920105,0.5517559051513672,0.27424007654190063,0.3854365646839142,15.653656005859375,-31.952129364013672,6.966035842895508,1.9851198196411133,-0.29036998748779297,-1.5822994709014893,6.082274436950684,8.21562671661377,1.8705034255981445
1_20251106_212847,1762435693175,1,0.27804794907569885,0.36109229922294617,0.46388331055641174,0.7596801519393921,0.9745807647705078,3.172318696975708,2.256507158279419,8.066197395324707,7.792384147644043,0.033232372254133224,0.36849650740623474,0.18566469848155975,0.1997336745262146,14.941349983215332,-32.20708084106445,7.812416076660156,1.5871386528015137,-0.3385944366455078,-1.4698169231414795,6.479058742523193,8.13097858428955,1.5030492544174194
1_20251106_212847,1762435693194,1,0.27384957671165466,0.3629074990749359,0.4660506248474121,0.7590134143829346,1.02788507938385,3.160740613937378,2.220146417617798,8.015921592712402,7.855827331542969,-0.08766961842775345,0.12537235021591187,0.11358266323804855,0.05251527577638626,14.332962036132812,-32.3541374206543,8.556699752807617,1.2294902801513672,-0.2201213836669922,-1.2725751399993896,6.786431312561035,8.075948715209961,1.1849055290222168
1_20251106_212847,1762435693213,1,0.27176734805107117,0.36391136050224304,0.4668395221233368,0.7587963342666626,1.0822652578353882,3.1495413780212402,2.182624578475952,8.149991035461426,8.00306510925293,0.09907008707523346,0.12537235021591187,0.11358266323804855,0.05251527577638626,13.761724472045898,-32.49800491333008,9.221357345581055,1.0908474922180176,-0.05830669403076172,-0.8686683773994446,7.059143543243408,8.061371803283691,0.9677384495735168
1_20251106_212847,1762435693232,1,0.2728167176246643,0.36446458101272583,0.46544694900512695,0.7590097188949585,1.0822652578353882,3.1495413780212402,2.182624578475952,8.149991035461426,8.00306510925293,0.09907008707523346,-0.4066908061504364,-0.08739183098077774,-0.26635611057281494,13.294391632080078,-32.545597076416016,9.689043045043945,1.0908474922180176,-0.05830669403076172,-0.8686683773994446,7.059143543243408,8.061371803283691,0.9677384495735168
1_20251106_212847,1762435693252,1,0.27578890323638916,0.3641311228275299,0.4629608988761902,0.7596158385276794,1.1945350170135498,3.1271166801452637,2.1097207069396973,8.017118453979492,7.83787202835083,1.108182668685913,-0.46166864037513733,-0.2792033553123474,-0.4435068666934967,12.971163749694824,-32.6329460144043,10.066944122314453,0.5855240821838379,-0.16334199905395508,0.1630479097366333,7.431594371795654,8.001214027404785,0.9451347589492798
1_20251106_212847,1762435693271,1,0.280992329120636,0.3641430139541626,0.46013420820236206,0.75942063331604,1.246687650680542,3.1159169673919678,2.077617645263672,7.660398006439209,7.699014186859131,1.1021974086761475,-0.4781619906425476,-0.4893408417701721,-0.6505900025367737,12.802081108093262,-32.60720443725586,10.1419677734375,0.1830430030822754,-0.2417597770690918,0.12565016746520996,7.477355003356934,7.940773963928223,0.9765472412109375
1_20251106_212847,1762435693289,1,0.28864333033561707,0.3646062910556793,0.45728200674057007,0.7580504417419434,1.2929143905639648,3.1053245067596436,2.0493907928466797,7.188760757446289,7.732532024383545,1.2470403909683228,-0.4781619906425476,-0.4893408417701721,-0.6505900025367737,12.816381454467773,-32.5687370300293,10.14324951171875,-0.23087501525878906,-0.1665935516357422,0.2163945436477661,7.419635772705078,7.899125576019287,1.0306458473205566
1_20251106_212847,1762435693308,1,0.2995997965335846,0.3644857704639435,0.4536219835281372,0.7560536861419678,1.3365505933761597,3.095197916030884,2.023597240447998,6.428634166717529,8.079675674438477,1.9461172819137573,-0.8746132254600525,-0.7294106483459473,-1.2504591941833496,12.939935684204102,-32.5468864440918,10.013256072998047,-0.7928013801574707,0.144439697265625,0.7323771715164185,7.221435546875,7.935235977172852,1.2137401103973389
1_20251106_212847,1762435693328,1,0.3140258193016052,0.36277011036872864,0.44923585653305054,0.7536396980285645,1.3365505933761597,3.095197916030884,2.023597240447998,6.428634166717529,8.079675674438477,1.9461172819137573,-0.961355984210968,-0.7813342213630676,-1.5210721492767334,13.229944229125977,-32.38779830932617,9.75711441040039,-0.7928013801574707,0.144439697265625,0.7323771715164185,7.221435546875,7.935235977172852,1.2137401103973389
1_20251106_212847,1762435693346,1,0.3307841718196869,0.35964077711105347,0.4449644386768341,0.7504978179931641,1.4026670455932617,3.0780704021453857,1.9877890348434448,4.618695259094238,8.358589172363281,3.091693639755249,-0.9277584552764893,-0.8778508305549622,-1.5687196254730225,13.866960525512695,-32.14058303833008,9.205150604248047,-1.808250904083252,0.314422607421875,1.2687336206436157,6.42694616317749,8.044166564941406,1.8229600191116333
1_20251106_212847,1762435693365,1,0.3483782708644867,0.3568973243236542,0.440540611743927,0.7464454770088196,1.4026670455932617,3.0780704021453857,1.9877890348434448,4.618695259094238,8.358589172363281,3.091693639755249,-0.8226897120475769,-1.090431809425354,-1.360414743423462,14.679699897766113,-31.80569076538086,8.539989471435547,-1.808250904083252,0.314422607421875,1.2687336206436157,6.42694616317749,8.044166564941406,1.8229600191116333
1_20251106_212847,1762435693385,1,0.36479678750038147,0.356477290391922,0.43546262383461,0.7417678236961365,1.440874457359314,3.0713682174682617,1.975538969039917,4.560040473937988,9.560426712036133,4.35218620300293,-0.8226897120475769,-1.090431809425354,-1.360414743423462,15.59414291381836,-31.400714874267578,7.785457611083984,-1.131998062133789,1.0929841995239258,1.7255771160125732,5.692038536071777,8.467442512512207,2.6266090869903564
1_20251106_212847,1762435693403,1,0.37899935245513916,0.3596285879611969,0.42944809794425964,0.7366145849227905,1.440874457359314,3.0713682174682617,1.975538969039917,4.560040473937988,9.560426712036133,4.35218620300293,-0.6467607021331787,-1.3311125040054321,-0.9993937611579895,16.507362365722656,-31.03219223022461,6.908489227294922,-1.131998062133789,1.0929841995239258,1.7255771160125732,5.692038536071777,8.467442512512207,2.6266090869903564
1_20251106_212847,1762435693423,1,0.39128589630126953,0.366984099149704,0.4228210151195526,0.730370044708252,1.4571235179901123,3.0758252143859863,1.9799073934555054,5.746315956115723,10.331326484680176,4.951908111572266,-0.2203770875930786,-1.940144658088684,-0.6505900621414185,17.497913360595703,-30.59518051147461,5.941167831420898,0.04342174530029297,1.4911069869995117,1.8602392673492432,5.70289421081543,8.840219497680664,3.0916688442230225
1_20251106_212847,1762435693442,1,0.40388941764831543,0.3773934245109558,0.4157548248767853,0.7222156524658203,1.4940184354782104,3.098865032196045,2.004713773727417,7.508372783660889,11.291358947753906,5.860468864440918,-0.16539925336837769,-1.9804617166519165,-0.9749591946601868,18.465896606445312,-30.134105682373047,4.919328689575195,1.2439923286437988,1.6120147705078125,1.8243193626403809,6.26438045501709,9.679344177246094,4.036149501800537
1_20251106_212847,1762435693461,1,0.41848957538604736,0.38701194524765015,0.4096970856189728,0.7122054100036621,1.4940184354782104,3.098865032196045,2.004713773727417,7.508372783660889,11.291358947753906,5.860468864440918,-0.20388373732566833,-1.8637864589691162,-1.5009136199951172,19.512313842773438,-29.591434478759766,3.753337860107422,1.2439923286437988,1.6120147705078125,1.8243193626403809,6.26438045501709,9.679344177246094,4.036149501800537
1_20251106_212847,1762435693480,1,0.43605878949165344,0.39348217844963074,0.40549829602241516,0.7004253268241882,1.5376639366149902,3.1342320442199707,2.0460150241851807,5.782227516174316,9.968620300292969,5.091963291168213,-0.2924591302871704,-1.7855957746505737,-2.006098747253418,20.57282257080078,-29.02218246459961,2.520782470703125,-0.5129384994506836,0.03880882263183594,0.601982593536377,6.295166015625,9.929811477661133,4.489980697631836
1_20251106_212847,1762435693499,1,0.45681339502334595,0.3968874514102936,0.4027146100997925,0.6867480278015137,1.5496060848236084,3.1472723484039307,2.0667827129364014,3.8118844032287598,8.864940643310547,4.924375534057617,-0.4280710816383362,-1.7312289476394653,-2.419654130935669,21.704917907714844,-28.272083282470703,1.1862449645996094,-1.9866251945495605,-0.8518962860107422,0.3475160598754883,5.79850959777832,9.716836929321289,4.576859474182129
1_20251106_212847,1762435693520,1,0.48034384846687317,0.3973674476146698,0.4006727337837219,0.6714389324188232,1.547302484512329,3.15413761138916,2.088963270187378,1.369903564453125,7.679862022399902,4.688557147979736,-0.6608105301856995,-1.5620193481445312,-2.682936906814575,22.843257904052734,-27.409099578857422,-0.1324005126953125,-3.5428848266601562,-1.6295795440673828,0.08935832977294922,4.912788391113281,9.309441566467285,4.599198818206787
1_20251106_212847,1762435693539,1,0.5056515336036682,0.39415326714515686,0.3987044394016266,0.6557396650314331,1.5286625623703003,3.152808666229248,2.1084601879119873,-1.1594617366790771,6.674339771270752,4.756789207458496,-0.9546365141868591,-1.4123574495315552,-2.750131845474243,23.97533416748047,-26.45766830444336,-1.5848503112792969,-4.857800483703613,-2.108081340789795,0.12607240676879883,3.698338508605957,8.782421112060547,4.630716800689697
1_20251106_212847,1762435693557,1,0.5316065549850464,0.3876098394393921,0.39580368995666504,0.6406968832015991,1.4950553178787231,3.1443111896514893,2.130314826965332,-3.1369872093200684,5.8172526359558105,6.379988193511963,-1.1739369630813599,-1.3928097486495972,-2.5809226036071777,23.97533416748047,-26.45766830444336,-1.5848503112792969,-5.468260765075684,-2.3721346855163574,1.3994174003601074,2.3312735557556152,8.189387321472168,4.9805707931518555
1_20251106_212847,1762435693575,1,0.5570123195648193,0.3797284662723541,0.3909275233745575,0.62667316198349,1.4470518827438354,3.128894329071045,2.1588351726531982,-4.197573184967041,5.206757545471191,8.131271362304688,-1.1739369630813599,-1.3928097486495972,-2.5809226036071777,25.245681762695312,-25.209209442138672,-3.0533580780029297,-5.223077297210693,-2.386103630065918,2.5205602645874023,1.025504231452942,7.592861175537109,5.610711097717285
1_20251106_212847,1762435693595,1,0.5792253017425537,0.37286829948425293,0.3853665292263031,0.6139706373214722,1.3793061971664429,3.1049704551696777,2.197657585144043,-4.591402053833008,5.076279163360596,8.478415489196777,-0.5520766377449036,-1.372651219367981,-1.6157562732696533,26.634441375732422,-23.601177215576172,-4.672746658325195,-4.49352502822876,-2.013265609741211,2.294163703918457,-0.09787696599960327,7.089544773101807,6.18425178527832
1_20251106_212847,1762435693613,1,0.5965334177017212,0.3705117404460907,0.37999415397644043,0.6020576357841492,1.3106931447982788,3.080866813659668,2.235241413116455,-4.439377307891846,5.607769012451172,7.967275619506836,-0.0768238753080368,-1.4948242902755737,-1.005502462387085,27.96920394897461,-21.883296966552734,-6.373310089111328,-3.4732003211975098,-1.1854209899902344,1.4264192581176758,-0.9661769866943359,6.793190002441406,6.54085636138916
1_20251106_212847,1762435693633,1,0.6086170077323914,0.37334150075912476,0.3745403289794922,0.5915412306785583,1.2290889024734497,3.0542876720428467,2.2769532203674316,-3.9856953620910645,6.419368743896484,7.211937427520752,0.20967167615890503,-1.5143718719482422,-0.5430778861045837,29.135086059570312,-20.139400482177734,-8.025882720947266,-2.415614604949951,-0.2990570068359375,0.5368647575378418,-1.5700806379318237,6.718425750732422,6.67507266998291
1_20251106_212847,1762435693652,1,0.6170137524604797,0.37970268726348877,0.36885151267051697,0.5822958946228027,1.1506954431533813,3.0309672355651855,2.314084053039551,-3.29978609085083,6.961631774902344,6.487722396850586,0.20967167615890503,-1.5143718719482422,-0.5430778861045837,30.160079956054688,-18.517932891845703,-9.618644714355469,-1.383764386177063,0.1945648193359375,-0.14988040924072266,-1.916021704673767,6.767066955566406,6.637602806091309
1_20251106_212847,1762435693672,1,0.6225085258483887,0.38658201694488525,0.3635352551937103,0.5752213597297668,1.0743333101272583,3.010463237762451,2.347548246383667,-2.6043004989624023,7.36862850189209,5.977779388427734,0.2261650264263153,-1.1594594717025757,-0.0885944664478302,30.82916259765625,-17.182270050048828,-11.244197845458984,-0.5506229400634766,0.4812488555908203,-0.5278587341308594,-2.053677558898926,6.8873796463012695,6.505638122558594
1_20251106_212847,1762435693690,1,0.626740038394928,0.39306727051734924,0.3582838773727417,0.5694977641105652,1.0015166997909546,2.993168592453003,2.377046823501587,-2.153012752532959,7.683452606201172,5.670137405395508,0.19989784061908722,-0.9853630065917969,-0.02262108400464058,31.296730041503906,-15.972599029541016,-12.852940559387207,-0.0794682502746582,0.6368579864501953,-0.668400764465332,-2.073544502258301,7.046594619750977,6.33853816986084
1_20251106_212847,1762435693709,1,0.6301108598709106,0.3989308178424835,0.3535069227218628,0.5646657347679138,0.9331475496292114,2.9786994457244873,2.40177845954895,-1.7795333862304688,7.761260986328125,5.13864803314209,0.24937787652015686,-0.8894572257995605,0.012809070758521557,31.7161865234375,-14.943401336669922,-14.23707389831543,0.23520898818969727,0.5717334747314453,-0.9599123001098633,-2.014742374420166,7.18952751159668,6.098560333251953
1_20251106_212847,1762435693729,1,0.6331170201301575,0.40506476163864136,0.3490607738494873,0.5596802234649658,0.9331475496292114,2.9786994457244873,2.40177845954895,-1.7795333862304688,7.761260986328125,5.13864803314209,0.24937787652015686,-0.8894572257995605,0.012809070758521557,31.839859008789062,-14.208728790283203,-15.638294219970703,0.23520898818969727,0.5717334747314453,-0.9599123001098633,-2.014742374420166,7.18952751159668,6.098560333251953
1_20251106_212847,1762435693749,1,0.6357400417327881,0.411415159702301,0.3445657193660736,0.5548393130302429,0.8633519411087036,2.9660849571228027,2.4231252670288086,-1.4204185009002686,7.958774566650391,4.7196807861328125,0.15102866291999817,-0.8815159797668457,0.034189336001873016,31.68056869506836,-13.945079803466797,-16.829540252685547,0.47545909881591797,0.6153974533081055,-1.1031036376953125,-1.8958775997161865,7.343377113342285,5.822784423828125
1_20251106_212847,1762435693766,1,0.638853907585144,0.4172033667564392,0.33942630887031555,0.5500879883766174,0.7583054304122925,2.95436954498291,2.4507408142089844,-0.8853374719619751,8.825437545776367,5.333766937255859,-0.06399571895599365,-0.7391844987869263,-0.07454457879066467,31.465003967285156,-13.799243927001953,-17.86292839050293,0.6752834320068359,1.0086584091186523,-0.2162494659423828,-1.560620903968811,7.816779136657715,5.550016403198242
1_20251106_212847,1762435693787,1,0.6429262161254883,0.4206697344779968,0.334337443113327,0.5458033680915833,0.7074837684631348,2.953458309173584,2.4656033515930176,-0.9236430525779724,8.948734283447266,5.897577285766602,-0.06399571895599365,-0.7391844987869263,-0.07454457879066467,31.256309509277344,-13.729434967041016,-18.748729705810547,0.5095823407173157,0.9055643081665039,0.2780485153198242,-1.433225393295288,8.043169975280762,5.619528770446777
1_20251106_212847,1762435693805,1,0.6476473808288574,0.4212978184223175,0.33061525225639343,0.5419912934303284,0.7074837684631348,2.953458309173584,2.4656033515930176,-0.9236430525779724,8.948734283447266,5.897577285766602,-0.2264857292175293,-0.2743164598941803,-0.4013572037220001,31.04971694946289,-13.63357162475586,-19.72861671447754,0.5095823407173157,0.9055643081665039,0.2780485153198242,-1.433225393295288,8.043169975280762,5.619528770446777
1_20251106_212847,1762435693825,1,0.6524562239646912,0.4200810194015503,0.32880261540412903,0.5382579565048218,0.6167041063308716,2.959538221359253,2.495069742202759,-1.538926362991333,8.953522682189941,5.8030104637146,-0.19716423749923706,-0.1570304036140442,-0.469163179397583,30.86996078491211,-13.451587677001953,-20.367769241333008,-0.12625610828399658,0.5684528350830078,0.08257007598876953,-1.4126702547073364,8.385069847106934,5.72044038772583
1_20251106_212847,1762435693842,1,0.6572125554084778,0.418247252702713,0.3280887007713318,0.5343208312988281,0.6167041063308716,2.959538221359253,2.495069742202759,-1.538926362991333,8.953522682189941,5.8030104637146,-0.1641775369644165,-0.11304815113544464,-0.4221266210079193,30.701683044433594,-13.281368255615234,-21.006696701049805,-0.12625610828399658,0.5684528350830078,0.08257007598876953,-1.4126702547073364,8.385069847106934,5.72044038772583
1_20251106_212847,1762435693863,1,0.6614606380462646,0.4165416955947876,0.32768216729164124,0.5306479334831238,0.5766676664352417,2.9641642570495605,2.507707357406616,-1.8489621877670288,8.835014343261719,5.689290523529053,-0.1641775369644165,-0.11304815113544464,-0.4221266210079193,30.522232055664062,-13.08736801147461,-21.59151840209961,-0.3490334749221802,0.3599557876586914,-0.024919986724853516,-1.4999287128448486,8.475058555603027,5.714210510253906
1_20251106_212847,1762435693882,1,0.6649667024612427,0.4154044985771179,0.32723015546798706,0.527426540851593,0.4948418438434601,2.9765465259552,2.531773328781128,-1.9590907096862793,8.917610168457031,5.520506858825684,-0.044448040425777435,-0.05562686547636986,-0.23581287264823914,30.453880310058594,-12.849491119384766,-22.076522827148438,-0.2957789897918701,0.2845735549926758,-0.14867734909057617,-1.6633117198944092,8.633036613464355,5.66918420791626
1_20251106_212847,1762435693901,1,0.6676073670387268,0.4147321283817291,0.3271063268184662,0.5246895551681519,0.45340344309806824,2.9838943481445312,2.541881799697876,-2.028519630432129,8.904443740844727,5.228426933288574,-0.0071852970868349075,0.02989419363439083,-0.18266764283180237,30.427444458007812,-12.497562408447266,-22.422517776489258,-0.2921663522720337,0.21712589263916016,-0.35260581970214844,-1.7363532781600952,8.687317848205566,5.581032752990723
1_20251106_212847,1762435693920,1,0.6695716977119446,0.414083868265152,0.3274921476840973,0.5224530100822449,0.4150657653808594,2.990750312805176,2.5490946769714355,-2.0787954330444336,8.769176483154297,4.884873390197754,-0.0071852970868349075,0.02989419363439083,-0.18266764283180237,30.397987365722656,-12.19613265991211,-22.742534637451172,-0.2739536762237549,0.06548690795898438,-0.5569272041320801,-1.8048417568206787,8.703689575195312,5.441800594329834
1_20251106_212847,1762435693942,1,0.6707428097724915,0.41362279653549194,0.3281613290309906,0.5208938717842102,0.3764520287513733,2.9975106716156006,2.554199695587158,-1.8956471681594849,8.672216415405273,4.748409748077393,0.06245328485965729,0.10686315596103668,0.07450640946626663,30.412555694580078,-11.967540740966797,-22.994592666625977,-0.07264435291290283,-0.025178909301757812,-0.5547127723693848,-1.823002815246582,8.697395324707031,5.303122520446777
1_20251106_212847,1762435693959,1,0.6709421873092651,0.4139721691608429,0.32837942242622375,0.5202216506004333,0.342352956533432,3.003056764602661,2.557150363922119,-1.5496999025344849,8.495052337646484,4.699330806732178,0.06245328485965729,0.10686315596103668,0.07450640946626663,30.412555694580078,-11.967540740966797,-22.994592666625977,0.21864235401153564,-0.16187477111816406,-0.4830331802368164,-1.7683422565460205,8.656927108764648,5.182363986968994
1_20251106_212847,1762435693978,1,0.6701235771179199,0.41540995240211487,0.32776886224746704,0.5205156207084656,0.3132515251636505,3.0077881813049316,2.55838942527771,-1.1235504150390625,8.551313400268555,4.6071577072143555,0.13758963346481323,0.0390571653842926,0.41414719820022583,30.37558364868164,-11.76913070678711,-23.059913635253906,0.5158334970474243,-0.08449077606201172,-0.46016502380371094,-1.6393839120864868,8.635804176330566,5.067322731018066
1_20251106_212847,1762435693996,1,0.6684290170669556,0.41764283180236816,0.3265601396560669,0.5216661691665649,0.28684088587760925,3.012977361679077,2.5578768253326416,-0.6291688680648804,8.797904968261719,4.427600383758545,0.11071158945560455,0.10380882024765015,0.5143289566040039,30.366313934326172,-11.719562530517578,-23.072864532470703,0.8081719875335693,0.12968063354492188,-0.5117778778076172,-1.4373408555984497,8.668224334716797,4.939378261566162
1_20251106_212847,1762435694015,1,0.6660376787185669,0.4197067618370056,0.3252179026603699,0.5239019989967346,0.26550182700157166,3.019136428833008,2.556025266647339,-0.0701468288898468,9.116321563720703,4.441965103149414,0.03374263644218445,0.17466913163661957,0.5375418663024902,30.351619720458984,-11.75857162475586,-23.02008056640625,1.0937552452087402,0.3584775924682617,-0.3979306221008301,-1.1639020442962646,8.757843971252441,4.839895725250244
1_20251106_212847,1762435694035,1,0.6635728478431702,0.4210984706878662,0.3237799108028412,0.5267956852912903,0.24868136644363403,3.025872230529785,2.55338978767395,0.3224853277206421,8.947537422180176,4.582019805908203,-0.0035201087594032288,0.23331215977668762,0.44835564494132996,30.345584869384766,-11.859569549560547,-22.968128204345703,1.1891099214553833,0.15175533294677734,-0.2063007354736328,-0.8666245937347412,8.795782089233398,4.788320541381836
1_20251106_212847,1762435694053,1,0.6614305377006531,0.4217348098754883,0.32283538579940796,0.5295532941818237,0.23747554421424866,3.0317485332489014,2.5503897666931152,0.42303749918937683,8.843393325805664,4.485058784484863,-0.0035201087594032288,0.25285980105400085,0.313965380191803,30.26321792602539,-12.016094207763672,-22.866107940673828,1.0317296981811523,0.03808879852294922,-0.24260950088500977,-0.6086922287940979,8.805304527282715,4.727668285369873
1_20251106_212847,1762435694072,1,0.6598779559135437,0.4218537509441376,0.32247617840766907,0.5316104292869568,0.23747554421424866,3.0317485332489014,2.5503897666931152,0.42303749918937683,8.843393325805664,4.485058784484863,-0.01573740318417549,0.26446622610092163,0.18201859295368195,30.210983276367188,-12.271770477294922,-22.656597137451172,1.0317296981811523,0.03808879852294922,-0.24260950088500977,-0.6086922287940979,8.805304527282715,4.727668285369873
1_20251106_212847,1762435694092,1,0.6581802368164062,0.42095258831977844,0.3232908844947815,0.5339294672012329,0.22280482947826385,3.0437960624694824,2.536850929260254,0.29136207699775696,8.911625862121582,3.3083596229553223,0.0031994031742215157,0.22353830933570862,0.048239223659038544,30.179298400878906,-12.589054107666016,-22.406877517700195,0.5561158657073975,0.08643245697021484,-1.0248064994812012,-0.2647537887096405,8.825193405151367,4.333166122436523
1_20251106_212847,1762435694111,1,0.65798419713974,0.4205210208892822,0.3238903880119324,0.5341477990150452,0.22280482947826385,3.0437960624694824,2.536850929260254,0.29136207699775696,8.911625862121582,3.3083596229553223,-0.02245691418647766,0.18505382537841797,-0.10325522720813751,30.15233612060547,-12.830318450927734,-22.223155975341797,0.5561158657073975,0.08643245697021484,-1.0248064994812012,-0.2647537887096405,8.825193405151367,4.333166122436523
1_20251106_212847,1762435694131,1,0.6587349772453308,0.41977420449256897,0.3248196244239807,0.5332448482513428,0.21273337304592133,3.05434250831604,2.505413293838501,-0.4053206741809845,8.524978637695312,2.1125073432922363,-0.10125845670700073,0.12274563312530518,-0.24619755148887634,30.136051177978516,-13.09604263305664,-22.02595329284668,-0.15891286730766296,-0.24308395385742188,-1.4840426445007324,-0.24640780687332153,8.768062591552734,3.5965499877929688
1_20251106_212847,1762435694150,1,0.6607527732849121,0.4185515344142914,0.3255866765975952,0.5312378406524658,0.20642027258872986,3.057345151901245,2.4849438667297363,-0.7967557907104492,8.283174514770508,2.213059425354004,-0.10125845670700073,0.12274563312530518,-0.24619755148887634,30.14120101928711,-13.20920181274414,-21.933225631713867,-0.44027838110923767,-0.3879108428955078,-1.1067924499511719,-0.35647740960121155,8.671085357666016,3.319851875305176
1_20251106_212847,1762435694168,1,0.6637125015258789,0.4165077209472656,0.3262326419353485,0.5287525653839111,0.198711097240448,3.059177875518799,2.46427059173584,-1.1798115968704224,8.317889213562012,2.4057841300964355,-0.30589812994003296,0.08670461177825928,-0.3836421072483063,30.194007873535156,-13.320667266845703,-21.689855575561523,-0.6586673259735107,-0.28255653381347656,-0.7312543392181396,-0.5211442708969116,8.600445747375488,3.137038469314575
1_20251106_212847,1762435694188,1,0.6673990488052368,0.41367870569229126,0.3263964056968689,0.5262260437011719,0.1879708468914032,3.0613815784454346,2.4432315826416016,-1.3773248195648193,8.688974380493164,3.3945469856262207,-0.5025966167449951,0.061659157276153564,-0.3207230567932129,30.26644515991211,-13.305233001708984,-21.497421264648438,-0.6849444508552551,0.07082271575927734,0.20600676536560059,-0.6923803687095642,8.618151664733887,3.18854022026062
1_20251106_212847,1762435694207,1,0.6714763641357422,0.409749835729599,0.3253367245197296,0.5247671604156494,0.17750810086727142,3.0648255348205566,2.429623603820801,-1.2121319770812988,9.251587867736816,4.967469692230225,-0.5025966167449951,0.061659157276153564,-0.3207230567932129,30.334434509277344,-13.164081573486328,-21.397451400756836,-0.4158012866973877,0.506749153137207,1.4231436252593994,-0.7963306903839111,8.74483871459961,3.544326066970825
1_20251106_212847,1762435694226,1,0.6756191849708557,0.4041483998298645,0.32289057970046997,0.5253041386604309,0.16689220070838928,3.071136713027954,2.42478609085083,-0.6555039882659912,9.625066757202148,6.678053379058838,-0.8379613757133484,0.2565250098705292,-0.050109997391700745,30.443313598632812,-12.945064544677734,-21.30794334411621,0.11266136169433594,0.7041826248168945,2.50698184967041,-0.7681653499603271,8.920884132385254,4.171071529388428
1_20251106_212847,1762435694244,1,0.6790716052055359,0.3975808620452881,0.32018107175827026,0.5275180339813232,0.16689220070838928,3.071136713027954,2.42478609085083,-0.6555039882659912,9.625066757202148,6.678053379058838,-0.8379613757133484,0.2565250098705292,-0.050109997391700745,30.573822021484375,-12.573223114013672,-21.349939346313477,0.11266136169433594,0.7041826248168945,2.50698184967041,-0.7681653499603271,8.920884132385254,4.171071529388428
1_20251106_212847,1762435694264,1,0.6810997724533081,0.3916836082935333,0.31848227977752686,0.5303357839584351,0.15915833413600922,3.0792548656463623,2.4310505390167236,0.005267277359962463,9.619081497192383,7.743427276611328,-0.6644757390022278,0.337159126996994,0.020750312134623528,30.651275634765625,-12.268421173095703,-21.28708839416504,0.6187461018562317,0.5585575103759766,2.857884407043457,-0.6134788393974304,9.060523986816406,4.885542869567871
1_20251106_212847,1762435694283,1,0.6818065643310547,0.38847076892852783,0.31783637404441833,0.5321751236915588,0.15461282432079315,3.0882320404052734,2.4459807872772217,0.3081207871437073,9.476633071899414,7.839191436767578,-0.30589812994003296,0.2754617929458618,0.0555696003139019,30.767288208007812,-11.935314178466797,-21.303333282470703,0.7372797131538391,0.3328876495361328,2.3629188537597656,-0.42915892601013184,9.143745422363281,5.4762725830078125
1_20251106_212847,1762435694301,1,0.6813094019889832,0.38778403401374817,0.31826433539390564,0.5330561995506287,0.1525086611509323,3.104055643081665,2.4813098907470703,0.3703673183917999,9.15103530883789,6.622989177703857,0.242047518491745,0.21987313032150269,0.07939332723617554,30.915245056152344,-11.66408920288086,-21.17074966430664,0.5086323618888855,-0.03727912902832031,0.6063408851623535,-0.13826504349708557,9.188314437866211,6.016648292541504
1_20251106_212847,1762435694320,1,0.6799439191818237,0.3885451853275299,0.3199344873428345,0.5332455635070801,0.15356528759002686,3.111370325088501,2.4981889724731445,0.34882044792175293,8.98344898223877,5.375663757324219,0.242047518491745,0.21987313032150269,0.07939332723617554,31.026325225830078,-11.418880462646484,-21.1888427734375,0.38966840505599976,-0.1638927459716797,-0.5127878189086914,-0.04084794968366623,9.14734172821045,5.88845157623291
1_20251106_212847,1762435694340,1,0.6778491735458374,0.38995373249053955,0.3227420151233673,0.5331924557685852,0.15356528759002686,3.111370325088501,2.4981889724731445,0.34882044792175293,8.98344898223877,5.375663757324219,0.376437783241272,0.27790525555610657,0.07756073772907257,31.13167953491211,-11.262645721435547,-21.10065460205078,0.38966840505599976,-0.1638927459716797,-0.5127878189086914,-0.04084794968366623,9.14734172821045,5.88845157623291
1_20251106_212847,1762435694359,1,0.6757285594940186,0.39155760407447815,0.32567572593688965,0.5329248905181885,0.15561933815479279,3.118272066116333,2.510951042175293,0.2015833705663681,8.836212158203125,4.31028938293457,0.2622060477733612,0.24675115942955017,0.11848866939544678,31.277740478515625,-11.230152130126953,-20.877981185913086,0.19394506514072418,-0.2489032745361328,-1.2625298500061035,0.007638309150934219,9.085115432739258,5.572819232940674
1_20251106_212847,1762435694380,1,0.6738960146903992,0.3928581178188324,0.3277028799057007,0.5330454707145691,0.15870214998722076,3.1255271434783936,2.5173370838165283,-0.024658963084220886,8.55729866027832,3.6231837272644043,0.06367500871419907,0.24919462203979492,0.20278799533843994,31.320167541503906,-11.316761016845703,-20.68863868713379,-0.02201095223426819,-0.3443155288696289,-1.27036714553833,-0.0026480115484446287,8.90161418914795,4.893550872802734
1_20251106_212847,1762435694400,1,0.6723661422729492,0.39316698908805847,0.3284878432750702,0.5342651009559631,0.16067548096179962,3.1269118785858154,2.51520037651062,0.20996271073818207,8.392107009887695,3.81112003326416,-0.07071522623300552,0.23697733879089355,0.2974720299243927,31.36975860595703,-11.479000091552734,-20.392261505126953,0.17008857429027557,-0.4076061248779297,-0.8659448623657227,0.039874132722616196,8.799713134765625,4.677064895629883
1_20251106_212847,1762435694416,1,0.6708683967590332,0.3929719030857086,0.32818272709846497,0.5364744067192078,0.16347572207450867,3.127204179763794,2.5116662979125977,0.5511217713356018,8.396894454956055,3.894913673400879,-0.08171078562736511,0.14595848321914673,0.3628345727920532,31.36975860595703,-11.479000091552734,-20.392261505126953,0.40899813175201416,-0.32225513458251953,-0.6257209777832031,0.14212365448474884,8.719149589538574,4.520634651184082
1_20251106_212847,1762435694436,1,0.669344425201416,0.3933439552783966,0.32694217562675476,0.5388575196266174,0.1679290235042572,3.126857042312622,2.506056070327759,0.6816002130508423,8.479491233825684,3.843440532684326,-0.04261545091867447,0.01767689920961857,0.365278035402298,31.455402374267578,-11.651142120361328,-20.121707916259766,0.4315812587738037,-0.1917266845703125,-0.541755199432373,0.2500189542770386,8.671217918395996,4.385195732116699
1_20251106_212847,1762435694456,1,0.6679674983024597,0.3946089744567871,0.32506486773490906,0.5407735109329224,0.17384353280067444,3.1259925365448,2.4987552165985107,0.7306792140007019,8.50103759765625,3.8290762901306152,-0.034063346683979034,-0.050129085779190063,0.3280152976512909,31.528057098388672,-11.836772918701172,-19.83839225769043,0.3845282196998596,-0.13614463806152344,-0.44489526748657227,0.3461509943008423,8.637182235717773,4.2739715576171875
1_20251106_212847,1762435694474,1,0.6669711470603943,0.39619603753089905,0.3229120373725891,0.5421310067176819,0.18045641481876373,3.125511884689331,2.491852045059204,0.810881495475769,8.74643325805664,4.159461498260498,-0.034063346683979034,-0.050129085779190063,0.3280152976512909,31.499176025390625,-12.11544418334961,-19.682493209838867,0.37178438901901245,0.0874013900756836,-0.09160804748535156,0.4390971064567566,8.659031867980957,4.25106954574585
1_20251106_212847,1762435694493,1,0.6665783524513245,0.3968495726585388,0.32054632902145386,0.5435381531715393,0.18798528611660004,3.1259849071502686,2.4868195056915283,0.8934779167175293,8.99781322479248,4.807065010070801,-0.31017419695854187,0.04638754203915596,0.21928134560585022,31.49488067626953,-12.38064193725586,-19.4577693939209,0.36350464820861816,0.2710247039794922,0.444796085357666,0.5299732685089111,8.726788520812988,4.362268924713135
1_20251106_212847,1762435694512,1,0.6668121218681335,0.39577174186706543,0.31802061200141907,0.5455173850059509,0.19616787135601044,3.1274209022521973,2.4854133129119873,0.9054484367370605,9.086395263671875,5.592329502105713,-0.4317362606525421,0.09281326830387115,0.1588057279586792,31.455520629882812,-12.634586334228516,-19.342382431030273,0.3003801107406616,0.2876853942871094,0.9840483665466309,0.6050683259963989,8.798709869384766,4.608281135559082
1_20251106_212847,1762435694531,1,0.6672487854957581,0.393168181180954,0.31565114855766296,0.5482355356216431,0.2045125663280487,3.129134178161621,2.488527774810791,0.8132755756378174,8.92599105834961,6.230356693267822,-0.38836485147476196,0.09953277558088303,0.10810396820306778,31.40961456298828,-12.788867950439453,-19.22537612915039,0.16656583547592163,0.10182476043701172,1.2976603507995605,0.6467097401618958,8.824166297912598,4.932696342468262
1_20251106_212847,1762435694550,1,0.6681801080703735,0.39076173305511475,0.31339898705482483,0.5501106381416321,0.21249961853027344,3.1308836936950684,2.4953324794769287,0.6684326529502869,8.868532180786133,6.334500312805176,-0.23259437084197998,0.11419352889060974,0.07694986462593079,31.427444458007812,-12.900562286376953,-19.199737548828125,0.01737833023071289,0.035492897033691406,1.121443271636963,0.651054322719574,8.833039283752441,5.213057041168213
1_20251106_212847,1762435694570,1,0.6686409115791321,0.38902294635772705,0.31215956807136536,0.551486074924469,0.22007735073566437,3.1323189735412598,2.5039525032043457,0.5164073705673218,8.729674339294434,5.810192584991455,-0.043837182223796844,0.09770017862319946,0.09283235669136047,31.407306671142578,-13.039752960205078,-19.17609977722168,-0.10771751403808594,-0.08269214630126953,0.4777083396911621,0.6241248846054077,8.812366485595703,5.332484245300293
1_20251106_212847,1762435694589,1,0.6684059500694275,0.388594388961792,0.31174802780151367,0.5523052215576172,0.22007735073566437,3.1323189735412598,2.5039525032043457,0.5164073705673218,8.729674339294434,5.810192584991455,0.041073016822338104,0.050663597881793976,0.13376028835773468,31.342952728271484,-13.106372833251953,-19.193387985229492,-0.10771751403808594,-0.08269214630126953,0.4777083396911621,0.6241248846054077,8.812366485595703,5.332484245300293
1_20251106_212847,1762435694609,1,0.6677831411361694,0.38913294672966003,0.31139302253723145,0.5528793334960938,0.23212146759033203,3.13399600982666,2.5174343585968018,0.4350079894065857,8.710521697998047,4.904026031494141,0.014805834740400314,-0.04890735447406769,0.19362503290176392,31.336212158203125,-13.219928741455078,-19.14169692993164,-0.11682122945785522,-0.06230735778808594,-0.31232738494873047,0.5518292188644409,8.772829055786133,5.216353416442871
1_20251106_212847,1762435694627,1,0.6672558784484863,0.3903142511844635,0.31009674072265625,0.553411602973938,0.2369183450937271,3.1342713832855225,2.522017478942871,0.6085801124572754,8.633910179138184,5.047672271728516,-0.021846050396561623,-0.0892244279384613,0.21195095777511597,31.331180572509766,-13.307964324951172,-19.130029678344727,0.04540073871612549,-0.11113548278808594,-0.13494491577148438,0.5631793737411499,8.74504566192627,5.1826171875
1_20251106_212847,1762435694647,1,0.6668156981468201,0.39153167605400085,0.308346688747406,0.554059624671936,0.24267958104610443,3.134321451187134,2.5267550945281982,0.6947677135467529,8.660244941711426,5.056051254272461,-0.05238928645849228,-0.04951821640133858,0.1581948697566986,31.281024932861328,-13.336254119873047,-19.132518768310547,0.10527068376541138,-0.067840576171875,-0.10125255584716797,0.5894970297813416,8.7280855178833,5.157303810119629
1_20251106_212847,1762435694667,1,0.6666851043701172,0.39219021797180176,0.30682364106178284,0.5545963048934937,0.24868294596672058,3.134047508239746,2.5309367179870605,0.6660385131835938,8.631515502929688,4.995001792907715,-0.09881500154733658,0.03050505556166172,0.08183678984642029,31.244468688964844,-13.338634490966797,-19.133989334106445,0.06123316287994385,-0.0772562026977539,-0.12984180450439453,0.6048053503036499,8.708771705627441,5.124843597412109
1_20251106_212847,1762435694684,1,0.6668581962585449,0.39189937710762024,0.3058629035949707,0.5551241636276245,0.24868294596672058,3.134047508239746,2.5309367179870605,0.6660385131835938,8.631515502929688,4.995001792907715,-0.12996910512447357,0.04699840769171715,0.034189336001873016,31.215259552001953,-13.427989959716797,-19.15033531188965,0.06123316287994385,-0.0772562026977539,-0.12984180450439453,0.6048053503036499,8.708771705627441,5.124843597412109
1_20251106_212847,1762435694703,1,0.6673803925514221,0.39120566844940186,0.3050121068954468,0.5554539561271667,0.2577205300331116,3.131635904312134,2.5362424850463867,0.4840870201587677,8.333451271057129,4.984228134155273,-0.1647883951663971,0.01401170901954174,0.024415500462055206,31.112937927246094,-13.522106170654297,-19.16962242126465,-0.08817681670188904,-0.26050758361816406,-0.07677841186523438,0.5722638368606567,8.593958854675293,5.061006546020508
1_20251106_212847,1762435694722,1,0.6681539416313171,0.3904050588607788,0.30384859442710876,0.5557249784469604,0.2614628076553345,3.1289565563201904,2.5387816429138184,0.37994372844696045,8.19579029083252,5.087174415588379,-0.180060014128685,-0.017753256484866142,0.01341993547976017,31.050090789794922,-13.563480377197266,-19.199899673461914,-0.153856098651886,-0.31853485107421875,0.020934104919433594,0.5337998270988464,8.514325141906738,5.066240310668945
1_20251106_212847,1762435694741,1,0.6691757440567017,0.3896285891532898,0.3024219572544098,0.5558186173439026,0.2642904222011566,3.1250839233398438,2.5406174659729004,0.2686181366443634,8.030596733093262,4.856143951416016,-0.15562543272972107,-0.003703367430716753,-0.0024625472724437714,31.010799407958984,-13.627567291259766,-19.310819625854492,-0.2121453583240509,-0.38698291778564453,-0.1680769920349121,0.4807634949684143,8.417579650878906,5.024220943450928
1_20251106_212847,1762435694760,1,0.6701565384864807,0.38884198665618896,0.30128324031829834,0.5558062195777893,0.2642904222011566,3.1250839233398438,2.5406174659729004,0.2686181366443634,8.030596733093262,4.856143951416016,-0.16784271597862244,-0.0018707733834162354,0.0012026410549879074,30.93948745727539,-13.606678009033203,-19.367300033569336,-0.2121453583240509,-0.38698291778564453,-0.1680769920349121,0.4807634949684143,8.417579650878906,5.024220943450928
1_20251106_212847,1762435694780,1,0.6712036728858948,0.38801389932632446,0.30007922649383545,0.5557727217674255,0.2664502263069153,3.113654375076294,2.5403807163238525,0.007661372423171997,7.910891532897949,4.611946105957031,-0.25519636273384094,-0.006757691036909819,0.03907625377178192,30.91944122314453,-13.532787322998047,-19.380212783813477,-0.3194482922554016,-0.3250465393066406,-0.251981258392334,0.3271096646785736,8.23593807220459,4.863927364349365
1_20251106_212847,1762435694799,1,0.6723217368125916,0.3867506980895996,0.29833775758743286,0.556239128112793,0.2662651240825653,3.107633590698242,2.5401952266693115,0.10342532396316528,8.117982864379883,4.991410255432129,-0.3718715310096741,0.021342085674405098,0.08977802842855453,30.983882904052734,-13.477642059326172,-19.4713191986084,-0.17894747853279114,-0.09436416625976562,0.10198640823364258,0.2823728024959564,8.212347030639648,4.889423847198486
1_20251106_212847,1762435694820,1,0.6735418438911438,0.3847194314002991,0.29597756266593933,0.5574312806129456,0.26627108454704285,3.101966381072998,2.5422048568725586,0.34522929787635803,8.328662872314453,5.611482620239258,-0.4628903865814209,0.0445549450814724,0.11482348293066025,30.983882904052734,-13.477642059326172,-19.4713191986084,0.05028519034385681,0.09305286407470703,0.5776472091674805,0.2949441075325012,8.235610008239746,5.033835411071777
1_20251106_212847,1762435694838,1,0.6748730540275574,0.38201603293418884,0.29317328333854675,0.5591596961021423,0.26659834384918213,3.097484827041626,2.546916961669922,0.41226404905319214,8.466323852539062,6.090302467346191,-0.47022074460983276,0.04699840396642685,0.10260619223117828,31.046520233154297,-13.44815444946289,-19.508888244628906,0.09385597705841064,0.1845712661743164,0.8451733589172363,0.3184080719947815,8.281752586364746,5.245129108428955
1_20251106_212847,1762435694856,1,0.6762121915817261,0.3791412115097046,0.2903599143028259,0.5609636306762695,0.26659834384918213,3.097484827041626,2.546916961669922,0.41226404905319214,8.466323852539062,6.090302467346191,-0.41524291038513184,0.02745073288679123,0.09344321489334106,31.05142593383789,-13.383480072021484,-19.696796417236328,0.09385597705841064,0.1845712661743164,0.8451733589172363,0.3184080719947815,8.281752586364746,5.245129108428955
1_20251106_212847,1762435694875,1,0.6775324940681458,0.37669050693511963,0.2876579761505127,0.5624116659164429,0.2681322395801544,3.090623140335083,2.5645053386688232,0.41824930906295776,8.3897123336792,6.510466575622559,-0.30101120471954346,0.034781113266944885,0.06351084262132645,31.10689926147461,-13.278362274169922,-19.841402053833008,0.05623728036880493,0.05377197265625,0.8100070953369141,0.36201202869415283,8.33594036102295,5.7004594802856445
1_20251106_212847,1762435694895,1,0.6785710453987122,0.3747948110103607,0.28569701313972473,0.5634247064590454,0.2688242495059967,3.087953567504883,2.576171875,0.30572664737701416,8.556102752685547,6.189657211303711,-0.21243584156036377,0.028061596676707268,0.060456518083810806,31.148082733154297,-13.20009994506836,-19.892412185668945,-0.04502832889556885,0.1761302947998047,0.3913583755493164,0.350754976272583,8.379972457885742,5.7982988357543945
1_20251106_212847,1762435694914,1,0.6792430281639099,0.3734450936317444,0.28424444794654846,0.564245343208313,0.2688242495059967,3.087953567504883,2.576171875,0.30572664737701416,8.556102752685547,6.189657211303711,-0.1696753203868866,-0.04035525023937225,0.09955186396837234,31.17578125,-13.135997772216797,-19.863079071044922,-0.04502832889556885,0.1761302947998047,0.3913583755493164,0.350754976272583,8.379972457885742,5.7982988357543945
1_20251106_212847,1762435694933,1,0.6797210574150085,0.37290045619010925,0.28250885009765625,0.5649011135101318,0.26980429887771606,3.084585666656494,2.5977933406829834,0.3775496482849121,8.5968017578125,5.931094169616699,-0.13180169463157654,-0.08372664451599121,0.1331494152545929,31.180294036865234,-13.07186508178711,-19.99692153930664,0.029214859008789062,0.1496877670288086,0.06755971908569336,0.34833478927612305,8.447113990783691,5.863534450531006
1_20251106_212847,1762435694952,1,0.6797067523002625,0.3728029727935791,0.2807850241661072,0.5658413767814636,0.27052533626556396,3.083979845046997,2.6085288524627686,0.40867292881011963,8.717703819274902,5.811389446258545,-0.13180169463157654,-0.08372664451599121,0.1331494152545929,31.16114044189453,-12.996761322021484,-20.131481170654297,0.04827052354812622,0.21647167205810547,-0.04171609878540039,0.3604024052619934,8.501232147216797,5.853105545043945
1_20251106_212847,1762435694971,1,0.6800557374954224,0.37276870012283325,0.2791578471660614,0.5662496089935303,0.27119356393814087,3.083879232406616,2.6177189350128174,0.36677616834640503,8.663837432861328,5.671334743499756,-0.12141700088977814,-0.05684859678149223,0.10810397565364838,31.093154907226562,-12.91335678100586,-20.159608840942383,0.005098998546600342,0.13008403778076172,-0.1454167366027832,0.3616771697998047,8.533753395080566,5.816751480102539
1_20251106_212847,1762435694990,1,0.680566132068634,0.3721342980861664,0.27815380692481995,0.566547691822052,0.27162182331085205,3.0841736793518066,2.62562894821167,0.29136207699775696,8.690171241760254,5.670137405395508,-0.13485601544380188,0.021952951326966286,0.05373700335621834,30.963932037353516,-12.845943450927734,-20.244518280029297,-0.056252092123031616,0.12513446807861328,-0.11729145050048828,0.3476141691207886,8.56503677368164,5.787428855895996
1_20251106_212847,1762435695010,1,0.681210458278656,0.37109312415122986,0.27739471197128296,0.5668283104896545,0.27162182331085205,3.0841736793518066,2.62562894821167,0.29136207699775696,8.690171241760254,5.670137405395508,-0.16112321615219116,0.05921570211648941,0.009143881499767303,30.92919158935547,-12.81106185913086,-20.204648971557617,-0.056252092123031616,0.12513446807861328,-0.11729145050048828,0.3476141691207886,8.56503677368164,5.787428855895996
1_20251106_212847,1762435695030,1,0.6819169521331787,0.36996233463287354,0.27671197056770325,0.5670517086982727,0.27138614654541016,3.0844807624816895,2.6351587772369385,0.1596866399049759,8.552511215209961,5.769493103027344,-0.13607774674892426,0.031726788729429245,0.043963171541690826,30.869373321533203,-12.790325164794922,-20.16602325439453,-0.15034203231334686,-0.010020256042480469,-0.014348983764648438,0.31002867221832275,8.562531471252441,5.783842086791992
1_20251106_212847,1762435695048,1,0.6824027299880981,0.3691747784614563,0.27589181065559387,0.5673801302909851,0.26936647295951843,3.083665370941162,2.649930477142334,0.05314924567937851,8.320283889770508,6.030449867248535,-0.12019526958465576,-0.027527092024683952,0.10382791608572006,30.810955047607422,-12.756084442138672,-20.22174835205078,-0.1670842170715332,-0.16863727569580078,0.183685302734375,0.2202334702014923,8.488921165466309,5.84676456451416
1_20251106_212847,1762435695066,1,0.6826860904693604,0.36892983317375183,0.27455729246139526,0.5678457617759705,0.2677987217903137,3.082674741744995,2.65785813331604,0.0639226958155632,8.34183120727539,6.1824750900268555,-0.11591921746730804,-0.006757690105587244,0.15208622813224792,30.753028869628906,-12.721172332763672,-20.345056533813477,-0.12504863739013672,-0.11767196655273438,0.2685685157775879,0.18897132575511932,8.459503173828125,5.913906574249268
1_20251106_212847,1762435695086,1,0.6826418042182922,0.36868536472320557,0.2732042670249939,0.5687097311019897,0.26613128185272217,3.0811221599578857,2.666886329650879,0.18482467532157898,8.29275131225586,6.131001949310303,-0.0823216587305069,0.051274459809064865,0.19057071208953857,30.71636962890625,-12.723690032958984,-20.333011627197266,-0.003317326307296753,-0.13340091705322266,0.1736760139465332,0.18814200162887573,8.426152229309082,5.9573259353637695
1_20251106_212847,1762435695105,1,0.6821451187133789,0.368432879447937,0.27225419878959656,0.5699235796928406,0.2648734748363495,3.079134941101074,2.6751527786254883,0.27819451689720154,8.212549209594727,6.000523567199707,-0.060330525040626526,0.07082213461399078,0.22966605424880981,30.69754409790039,-12.837902069091797,-20.29532814025879,0.07204201817512512,-0.1708822250366211,0.03455781936645508,0.20615249872207642,8.383431434631348,5.965965747833252
1_20251106_212847,1762435695123,1,0.6812372207641602,0.3683067858219147,0.2714376151561737,0.5714783668518066,0.2642725706100464,3.076822519302368,2.6827778816223145,0.42184045910835266,8.170652389526367,6.04122257232666,-0.06399571150541306,0.05188532546162605,0.2614310085773468,30.595714569091797,-12.931346893310547,-20.3821964263916,0.17255038022994995,-0.17022323608398438,0.06020545959472656,0.2492900788784027,8.340875625610352,5.981017112731934
1_20251106_212847,1762435695143,1,0.6801730990409851,0.36834731698036194,0.27038291096687317,0.5732171535491943,0.2647487223148346,3.0739805698394775,2.691526412963867,0.6145654320716858,8.20895767211914,6.2112040519714355,-0.07376954704523087,0.04088975861668587,0.262652724981308,30.627735137939453,-13.01632308959961,-20.43663787841797,0.2922202944755554,-0.10553455352783203,0.18414926528930664,0.32234513759613037,8.314492225646973,6.027054786682129
1_20251106_212847,1762435695162,1,0.67922043800354,0.3684218227863312,0.26913225650787354,0.5748850107192993,0.2647487223148346,3.0739805698394775,2.691526412963867,0.6145654320716858,8.20895767211914,6.2112040519714355,-0.026732968166470528,0.04760926961898804,0.23760728538036346,30.57516860961914,-13.082691192626953,-20.399372100830078,0.2922202944755554,-0.10553455352783203,0.18414926528930664,0.32234513759613037,8.314492225646973,6.027054786682129
1_20251106_212847,1762435695181,1,0.678188145160675,0.3686858117580414,0.26824724674224854,0.5763462781906128,0.26879191398620605,3.0680174827575684,2.7075934410095215,0.7749700546264648,8.218534469604492,5.895183086395264,0.024579668417572975,0.06654608249664307,0.21134009957313538,30.55936050415039,-13.146404266357422,-20.387664794921875,0.2977241277694702,-0.05528450012207031,-0.1322798728942871,0.47724592685699463,8.273818969726562,6.027462959289551
1_20251106_212847,1762435695200,1,0.6770045757293701,0.3690921664237976,0.267880380153656,0.5776468515396118,0.26879191398620605,3.0680174827575684,2.7075934410095215,0.7749700546264648,8.218534469604492,5.895183086395264,0.02641226164996624,0.05310705304145813,0.18873810768127441,30.476078033447266,-13.327373504638672,-20.3537540435791,0.2977241277694702,-0.05528450012207031,-0.1322798728942871,0.47724592685699463,8.273818969726562,6.027462959289551
1_20251106_212847,1762435695220,1,0.6760170459747314,0.3696078062057495,0.26750069856643677,0.5786487460136414,0.2763444483280182,3.062331199645996,2.7188501358032227,0.9090394973754883,8.273597717285156,5.655773162841797,-0.016959132626652718,0.02683986909687519,0.16002747416496277,30.404491424560547,-13.508220672607422,-20.251771926879883,0.28726494312286377,0.0034971237182617188,-0.2390303611755371,0.6217745542526245,8.270100593566895,5.894803524017334
1_20251106_212847,1762435695239,1,0.6753535270690918,0.36994218826293945,0.2668531835079193,0.5795081853866577,0.2763444483280182,3.062331199645996,2.7188501358032227,0.9090394973754883,8.273597717285156,5.655773162841797,-0.08537597954273224,0.04394408315420151,0.10993656516075134,30.404491424560547,-13.508220672607422,-20.251771926879883,0.28726494312286377,0.0034971237182617188,-0.2390303611755371,0.6217745542526245,8.270100593566895,5.894803524017334
1_20251106_212847,1762435695259,1,0.6751415133476257,0.36961737275123596,0.2661195397377014,0.5802993178367615,0.2871808409690857,3.057157039642334,2.7286312580108643,0.9054484367370605,8.24606704711914,5.996932029724121,-0.11530834436416626,0.08365029096603394,0.03724366053938866,30.218997955322266,-13.771556854248047,-20.155786514282227,0.17427325248718262,-0.026490211486816406,0.09102725982666016,0.7311751842498779,8.272557258605957,5.905904769897461
1_20251106_212847,1762435695277,1,0.6751739382743835,0.3690530061721802,0.2655964195728302,0.5808602571487427,0.291927307844162,3.054810047149658,2.7332074642181396,0.7139204740524292,8.210155487060547,6.053193092346191,-0.1079779714345932,0.10319796204566956,-0.009792922995984554,30.218997955322266,-13.771556854248047,-20.155786514282227,-0.013803720474243164,-0.04992103576660156,0.11783075332641602,0.7277241945266724,8.260076522827148,5.935362339019775
1_20251106_212847,1762435695296,1,0.6754597425460815,0.368071973323822,0.26533767580986023,0.5812684893608093,0.291927307844162,3.054810047149658,2.7332074642181396,0.7139204740524292,8.210155487060547,6.053193092346191,-0.10248018801212311,0.09708932042121887,0.003035235218703747,30.23925018310547,-13.833560943603516,-20.075027465820312,-0.013803720474243164,-0.04992103576660156,0.11783075332641602,0.7277241945266724,8.260076522827148,5.935362339019775
1_20251106_212847,1762435695314,1,0.6757896542549133,0.3669646978378296,0.2652002274990082,0.5816477537155151,0.2965519428253174,3.051788806915283,2.7391960620880127,0.5379542708396912,8.134740829467773,6.208809852600098,-0.06827177107334137,0.09831104427576065,0.05679132789373398,30.176219940185547,-13.863590240478516,-19.983394622802734,-0.15181595087051392,-0.10026836395263672,0.21875762939453125,0.6897702217102051,8.23500919342041,5.990052223205566
1_20251106_212847,1762435695334,1,0.6757977604866028,0.3658333122730255,0.2651785612106323,0.5823604464530945,0.30268368124961853,3.0453457832336426,2.750415563583374,0.5283778309822083,7.943212509155273,6.207612991333008,-0.06827177107334137,0.09831104427576065,0.05679132789373398,30.14722442626953,-13.941059112548828,-19.931894302368164,-0.09888601303100586,-0.1990070343017578,0.13042831420898438,0.6272638440132141,8.142219543457031,6.077184677124023
1_20251106_212847,1762435695354,1,0.6751757264137268,0.36535781621932983,0.2650251090526581,0.5834493041038513,0.30570462346076965,3.0416524410247803,2.7560174465179443,0.6935706734657288,8.05812931060791,6.046010971069336,0.040462151169776917,0.03661370277404785,0.22172480821609497,30.065662384033203,-14.084896087646484,-19.84312629699707,0.053045451641082764,-0.06727218627929688,-0.02493906021118164,0.640525221824646,8.125401496887207,6.070950031280518
1_20251106_212847,1762435695374,1,0.6739670634269714,0.36547785997390747,0.26466551423072815,0.5849328637123108,0.30976051092147827,3.0376853942871094,2.7617757320404053,0.9042513370513916,8.09882926940918,6.034040451049805,0.040462151169776917,0.03661370277404785,0.22172480821609497,30.025283813476562,-14.150470733642578,-19.805368423461914,0.21098089218139648,-0.021257400512695312,-0.029527664184570312,0.6932704448699951,8.120086669921875,6.063568115234375
1_20251106_212847,1762435695391,1,0.6724855303764343,0.36598649621009827,0.2640919089317322,0.5865769982337952,0.3135928511619568,3.034658670425415,2.766268253326416,1.0179710388183594,8.131149291992188,6.092696189880371,-0.0010766498744487762,0.061659157276153564,0.2156161516904831,30.03545379638672,-14.187213897705078,-19.81918716430664,0.25976043939590454,0.00885009765625,0.023302555084228516,0.7582105994224548,8.122299194335938,6.069393634796143
1_20251106_212847,1762435695423,1,0.6712483763694763,0.36632803082466125,0.2634412944316864,0.5880714654922485,0.3135928511619568,3.034658670425415,2.766268253326416,1.0179710388183594,8.131149291992188,6.092696189880371,-0.018180862069129944,0.11908043920993805,0.1740773469209671,30.03122329711914,-14.262554168701172,-19.820770263671875,0.25976043939590454,0.00885009765625,0.023302555084228516,0.7582105994224548,8.122299194335938,6.069393634796143
1_20251106_212847,1762435695429,1,0.6701322793960571,0.36619725823402405,0.2630769610404968,0.5895869731903076,0.3245374858379364,3.0281472206115723,2.7753214836120605,1.0826116800308228,8.011444091796875,5.943065166473389,-0.018180862069129944,0.11908043920993805,0.1740773469209671,29.977237701416016,-14.365650177001953,-19.878908157348633,0.21068108081817627,-0.08684349060058594,-0.09444904327392578,0.8719305992126465,8.098287582397461,6.0375142097473145
1_20251106_212847,1762435695449,1,0.6690792441368103,0.36590343713760376,0.2628268301486969,0.59107506275177,0.3302381634712219,3.0246546268463135,2.779081106185913,1.0682470798492432,7.93243932723999,5.937079429626465,-0.043837182223796844,0.10808487981557846,0.14658844470977783,29.896167755126953,-14.50881576538086,-19.857723236083984,0.1570531725883484,-0.13267850875854492,-0.08034801483154297,0.9111939072608948,8.065117835998535,6.017427444458008
