session_id,timestamp,label,quaternion_w,quaternion_x,quaternion_y,quaternion_z,position_x,position_y,position_z,accelerometer_x,accelerometer_y,accelerometer_z,gyroscope_x,gyroscope_y,gyroscope_z,magnetometer_x,magnetometer_y,magnetometer_z,linear_acceleration_x,linear_acceleration_y,linear_acceleration_z,gravity_x,gravity_y,gravity_z
0_20251106_211518,1762434881143,0,0.33859556913375854,0.3373979330062866,0.5682008266448975,0.6698234677314758,0.5238776206970215,3.4957940578460693,1.1996926069259644,0.6624473929405212,9.99734878540039,1.2961194515228271,0.12255091965198517,-0.08591048419475555,-0.05534816533327103,27.854232788085938,-29.718231201171875,15.90066146850586,-0.05179840326309204,-0.03775310516357422,-0.07282733917236328,0.7142457962036133,10.035101890563965,1.3689467906951904
0_20251106_211518,1762434881162,0,0.33891117572784424,0.3378770351409912,0.5688304305076599,0.6688873171806335,0.523061990737915,3.4965744018554688,1.1980702877044678,0.579850971698761,9.918344497680664,1.2434492111206055,0.10422497987747192,-0.049869466572999954,-0.07795015722513199,27.91960334777832,-29.627037048339844,15.972541809082031,-0.10751587152481079,-0.09340667724609375,-0.10039806365966797,0.6873668432235718,10.011751174926758,1.3438472747802734
0_20251106_211518,1762434881181,0,0.33929944038391113,0.3380199670791626,0.5695545673370361,0.6680014729499817,0.5217885375022888,3.4969050884246826,1.1960105895996094,0.5056338906288147,9.862083435058594,1.1548676490783691,0.10422497987747192,-0.049869466572999954,-0.07795015722513199,28.019615173339844,-29.57086181640625,16.018070220947266,-0.14538639783859253,-0.1197347640991211,-0.15118372440338135,0.6510202884674072,9.981818199157715,1.3060513734817505
0_20251106_211518,1762434881201,0,0.33965080976486206,0.33779993653297424,0.5703514218330383,0.6672539114952087,0.5200112462043762,3.4966280460357666,1.1933711767196655,0.48528406023979187,9.781881332397461,1.1153650283813477,0.07184915244579315,-0.008941532112658024,-0.07795015722513199,28.111358642578125,-29.45215606689453,16.010360717773438,-0.13258901238441467,-0.15994930267333984,-0.152549147605896,0.6178730726242065,9.9418306350708,1.2679141759872437
0_20251106_211518,1762434881219,0,0.34000110626220703,0.3375255763530731,0.5711666941642761,0.6665166020393372,0.5181717872619629,3.495866298675537,1.1909468173980713,0.4338109493255615,9.696889877319336,1.134517788887024,0.07307088375091553,-0.0217696912586689,-0.06451112776994705,28.184982299804688,-29.435104370117188,16.040599822998047,-0.14724969863891602,-0.1959524154663086,-0.10671710968017578,0.5810606479644775,9.892842292785645,1.2412348985671997
0_20251106_211518,1762434881239,0,0.34037166833877563,0.3374590575695038,0.5718953013420105,0.6657359004020691,0.5154795050621033,3.494351863861084,1.187840461730957,0.42184045910835266,9.707664489746094,1.163246989250183,0.06574049592018127,-0.03887390345335007,-0.03518962115049362,28.22103500366211,-29.44500732421875,16.014774322509766,-0.12737616896629333,-0.14814186096191406,-0.06239032745361328,0.549216628074646,9.855806350708008,1.2256373167037964
0_20251106_211518,1762434881260,0,0.3407280445098877,0.3375683128833771,0.5724045634269714,0.6650601625442505,0.5127637386322021,3.492729425430298,1.1849089860916138,0.5020427703857422,9.801033020019531,1.2314788103103638,0.06329704821109772,-0.049869466572999954,-0.01075503695756197,28.284685134887695,-29.390945434570312,16.03179931640625,-0.037739098072052,-0.04381847381591797,0.004673123359680176,0.5397818684577942,9.84485149383545,1.2268056869506836
0_20251106_211518,1762434881279,0,0.34096747636795044,0.33779171109199524,0.5727736949920654,0.6645060181617737,0.5104211568832397,3.49112606048584,1.182205080986023,0.5367571711540222,9.768712997436523,1.1596558094024658,0.09322941303253174,-0.05475638806819916,-0.015031089074909687,28.284685134887695,-29.390945434570312,16.03179931640625,-0.002419769763946533,-0.06091117858886719,-0.05371987819671631,0.5391769409179688,9.82962417602539,1.2133756875991821
0_20251106_211518,1762434881296,0,0.34103870391845703,0.3380888104438782,0.5732430219650269,0.663913369178772,0.5084794759750366,3.4897713661193848,1.179643988609314,0.5044368505477905,9.792654037475586,1.008827567100525,0.12194006145000458,-0.05109119787812233,-0.027859248220920563,28.328392028808594,-29.262855529785156,16.02239227294922,-0.02779209613800049,-0.02957630157470703,-0.16363847255706787,0.532228946685791,9.822230339050293,1.1724660396575928
0_20251106_211518,1762434881315,0,0.34106573462486267,0.3385079801082611,0.5739436745643616,0.6630800366401672,0.5059219002723694,3.487920045852661,1.1757230758666992,0.4493725895881653,9.742378234863281,0.8831374049186707,0.10239239037036896,-0.02787833847105503,-0.03213530033826828,28.340688705444336,-29.25031280517578,16.104244232177734,-0.06628507375717163,-0.06388187408447266,-0.23146289587020874,0.5156576633453369,9.806260108947754,1.1146003007888794
0_20251106_211518,1762434881335,0,0.3410434424877167,0.3387735188007355,0.5747548937797546,0.6622527241706848,0.5059219002723694,3.487920045852661,1.1757230758666992,0.4493725895881653,9.742378234863281,0.8831374049186707,0.05107974633574486,-0.005276344250887632,-0.02236146479845047,28.342098236083984,-29.225196838378906,16.10477066040039,-0.06628507375717163,-0.06388187408447266,-0.23146289587020874,0.5156576633453369,9.806260108947754,1.1146003007888794
0_20251106_211518,1762434881353,0,0.34111928939819336,0.33891040086746216,0.5753607749938965,0.6616172194480896,0.501271665096283,3.4844970703125,1.1668990850448608,0.5092250108718872,9.790260314941406,0.8687728643417358,0.024812564253807068,-0.01810450293123722,-0.021750599145889282,28.406553268432617,-29.15843963623047,16.108543395996094,0.0014374256134033203,-0.006983757019042969,-0.15043461322784424,0.5077875852584839,9.79724407196045,1.01920747756958
0_20251106_211518,1762434881372,0,0.3413642942905426,0.33917343616485596,0.5757526159286499,0.6610149145126343,0.4989702105522156,3.482621669769287,1.162044644355774,0.5116191506385803,9.744771957397461,0.9489750862121582,0.027866888791322708,-0.04559341445565224,-0.01869627833366394,28.4085693359375,-29.12090301513672,16.122852325439453,0.0030652880668640137,-0.041977882385253906,-0.05618584156036377,0.5085538625717163,9.786749839782715,1.005160927772522
0_20251106_211518,1762434881391,0,0.3416898548603058,0.33961766958236694,0.5759980082511902,0.6604045629501343,0.4968588650226593,3.4807844161987305,1.1575291156768799,0.49605751037597656,9.733999252319336,0.9561574459075928,0.04680369421839714,-0.07124973833560944,-0.018085412681102753,28.419767379760742,-29.1214599609375,16.258506774902344,-0.009997069835662842,-0.04220008850097656,-0.03920280933380127,0.5060545802116394,9.776199340820312,0.995360255241394
0_20251106_211518,1762434881412,0,0.34207114577293396,0.3401796817779541,0.5761976838111877,0.6597433686256409,0.49465659260749817,3.478400945663452,1.1526885032653809,0.5104221105575562,9.640628814697266,0.9657338261604309,0.06390790641307831,-0.08774308115243912,-0.018085412681102753,28.433982849121094,-29.071517944335938,16.368183135986328,0.0034940242767333984,-0.10845661163330078,-0.023701131343841553,0.5069280862808228,9.749085426330566,0.9894349575042725
0_20251106_211518,1762434881430,0,0.3424304127693176,0.34080207347869873,0.5764751434326172,0.6589930057525635,0.4928719103336334,3.476104497909546,1.1486265659332275,0.5104221105575562,9.604717254638672,0.940595805644989,0.05657752975821495,-0.08468875288963318,-0.021139737218618393,28.533485412597656,-29.027626037597656,16.38641357421875,0.0027952194213867188,-0.1154947280883789,-0.03907126188278198,0.5076268911361694,9.72021198272705,0.979667067527771
0_20251106_211518,1762434881449,0,0.34279531240463257,0.3413558900356293,0.5766843557357788,0.6583332419395447,0.4910570979118347,3.473304271697998,1.1442458629608154,0.4984515905380249,9.53887939453125,0.8675758242607117,0.04313850402832031,-0.07369319349527359,-0.02908097580075264,28.60550308227539,-29.03595733642578,16.443157196044922,-0.00734025239944458,-0.1450662612915039,-0.0896729826927185,0.5057918429374695,9.683945655822754,0.9572488069534302
0_20251106_211518,1762434881469,0,0.3432415723800659,0.34182024002075195,0.576847493648529,0.6577165722846985,0.48923078179359436,3.4701409339904785,1.1396148204803467,0.46852537989616394,9.500574111938477,0.7861764430999756,0.04252764210104942,-0.07186059653759003,-0.03885481134057045,28.67135238647461,-28.955703735351562,16.352577209472656,-0.02981320023536682,-0.1466970443725586,-0.13685786724090576,0.49833858013153076,9.647271156311035,0.9230343103408813
0_20251106_211518,1762434881487,0,0.34369957447052,0.3422375023365021,0.5771133303642273,0.6570268273353577,0.48741641640663147,3.4668030738830566,1.1347237825393677,0.42902272939682007,9.447903633117676,0.629362940788269,0.04130591079592705,-0.07552578300237656,-0.037022218108177185,28.694921493530273,-28.96680450439453,16.366809844970703,-0.055452704429626465,-0.15949344635009766,-0.23493707180023193,0.48447543382644653,9.607397079467773,0.864300012588501
0_20251106_211518,1762434881505,0,0.34426283836364746,0.34279438853263855,0.5773822665214539,0.656204879283905,0.48534634709358215,3.4628803730010986,1.1287837028503418,0.39311128854751587,9.397627830505371,0.48691409826278687,0.04130591079592705,-0.07552578300237656,-0.037022218108177185,28.7196044921875,-28.953201293945312,16.422119140625,-0.07309132814407349,-0.1678152084350586,-0.30190879106521606,0.46620261669158936,9.56544303894043,0.7888228893280029
0_20251106_211518,1762434881525,0,0.34494683146476746,0.34375664591789246,0.5776101350784302,0.6551408767700195,0.48534634709358215,3.4628803730010986,1.1287837028503418,0.39311128854751587,9.397627830505371,0.48691409826278687,0.03702985867857933,-0.18548142910003662,0.0063491761684417725,28.783958435058594,-28.886581420898438,16.439407348632812,-0.07309132814407349,-0.1678152084350586,-0.30190879106521606,0.46620261669158936,9.56544303894043,0.7888228893280029
0_20251106_211518,1762434881544,0,0.3458738327026367,0.3453895151615143,0.5776189565658569,0.6537841558456421,0.4806075692176819,3.4517199993133545,1.1157904863357544,0.33325880765914917,8.963098526000977,0.6281659603118896,0.03702985867857933,-0.18548142910003662,0.0063491761684417725,28.812053680419922,-28.821937561035156,16.414676666259766,-0.09293666481971741,-0.4184427261352539,-0.09324401617050171,0.4261954724788666,9.38154125213623,0.7214099764823914
0_20251106_211518,1762434881563,0,0.3468133807182312,0.3473777770996094,0.5773086547851562,0.6525058746337891,0.47786277532577515,3.4447109699249268,1.1093275547027588,0.2590417265892029,8.911625862121582,0.551554799079895,0.054744940251111984,-0.2581743597984314,0.07537689059972763,28.85232162475586,-28.768112182617188,16.29555892944336,-0.13372302055358887,-0.3759326934814453,-0.13588416576385498,0.39276474714279175,9.287558555603027,0.68743896484375
0_20251106_211518,1762434881582,0,0.347635418176651,0.3495261073112488,0.5768517851829529,0.6513241529464722,0.47457632422447205,3.4369356632232666,1.1028642654418945,0.1453220546245575,8.880502700805664,0.5695104598999023,0.06207531318068504,-0.2991022765636444,0.10164407640695572,28.80548095703125,-28.745498657226562,16.226543426513672,-0.1979541778564453,-0.32564449310302734,-0.09434282779693604,0.3432762324810028,9.206147193908691,0.6638532876968384
0_20251106_211518,1762434881601,0,0.34862759709358215,0.35210150480270386,0.5762858986854553,0.6499060392379761,0.47044801712036133,3.4283173084259033,1.0969414710998535,-0.023461923003196716,8.757205963134766,0.7430826425552368,0.06207531318068504,-0.2991022765636444,0.10164407640695572,28.806468963623047,-28.74414825439453,16.091381072998047,-0.29339051246643066,-0.35915279388427734,0.06338346004486084,0.26992860436439514,9.116358757019043,0.679699182510376
0_20251106_211518,1762434881621,0,0.34952259063720703,0.3546157479286194,0.5757726430892944,0.6485117673873901,0.47044801712036133,3.4283173084259033,1.0969414710998535,-0.023461923003196716,8.757205963134766,0.7430826425552368,0.07184915244579315,-0.3094870150089264,0.12485693395137787,28.793367385864258,-28.769378662109375,16.022781372070312,-0.29339051246643066,-0.35915279388427734,0.06338346004486084,0.26992860436439514,9.116358757019043,0.679699182510376
0_20251106_211518,1762434881640,0,0.34998026490211487,0.35666027665138245,0.575594425201416,0.6473008394241333,0.464704692363739,3.417659282684326,1.0914926528930664,-0.15034915506839752,8.63630485534668,0.9094725251197815,0.18180479109287262,-0.16654463112354279,0.18288907408714294,28.807754516601562,-28.742393493652344,15.915668487548828,-0.33622223138809204,-0.38404273986816406,0.18381869792938232,0.18587306141853333,9.020347595214844,0.7256538271903992
0_20251106_211518,1762434881660,0,0.34951046109199524,0.35800135135650635,0.5760149359703064,0.6464396715164185,0.4519389569759369,3.395826816558838,1.084546446800232,-0.25568950176239014,8.319086074829102,0.8723639845848083,0.265493243932724,-0.0071089365519583225,0.25374940037727356,28.74559783935547,-28.782821655273438,15.790779113769531,-0.27532199025154114,-0.46949195861816406,0.06344151496887207,0.019632484763860703,8.788578033447266,0.8089224696159363
0_20251106_211518,1762434881679,0,0.34751829504966736,0.3585329055786133,0.5772393941879272,0.6461268067359924,0.44458672404289246,3.3823931217193604,1.0803302526474,-0.1443639099597931,8.224519729614258,0.5288108587265015,0.367507666349411,0.08085557818412781,0.3337726593017578,28.705699920654297,-28.859336853027344,15.66607666015625,-0.13119712471961975,-0.4512462615966797,-0.22408932447433472,-0.013166792690753937,8.675765991210938,0.7529001832008362
0_20251106_211518,1762434881698,0,0.3441905081272125,0.3594902753829956,0.5791851878166199,0.6456347107887268,0.43842557072639465,3.3684728145599365,1.0753717422485352,0.15968665480613708,8.021020889282227,0.33249473571777344,0.4670785963535309,0.055199261754751205,0.43456536531448364,28.60527992248535,-28.92766571044922,15.579734802246094,0.13828276097774506,-0.5237960815429688,-0.3363243341445923,0.02140389382839203,8.544816970825195,0.6688190698623657
0_20251106_211518,1762434881718,0,0.3397310972213745,0.36297762393951416,0.5808066129684448,0.6445879936218262,0.43428856134414673,3.353555202484131,1.0682835578918457,0.6468857526779175,7.9276509284973145,-0.19779817759990692,0.5752016305923462,-0.0779692530632019,0.5359688997268677,28.60527992248535,-28.92766571044922,15.579734802246094,0.5003855228424072,-0.49373292922973633,-0.6932938098907471,0.14650025963783264,8.42138385772705,0.49549564719200134
0_20251106_211518,1762434881735,0,0.33492034673690796,0.36820220947265625,0.5822927355766296,0.6427990794181824,0.43428856134414673,3.353555202484131,1.0682835578918457,0.6468857526779175,7.9276509284973145,-0.19779817759990692,0.5739799737930298,-0.3302563726902008,0.583616316318512,28.406681060791016,-29.0032958984375,15.584083557128906,0.5003855228424072,-0.49373292922973633,-0.6932938098907471,0.14650025963783264,8.42138385772705,0.49549564719200134
0_20251106_211518,1762434881754,0,0.3311830461025238,0.3753952383995056,0.5827421545982361,0.6401622891426086,0.431274950504303,3.3291878700256348,1.0506083965301514,0.819260835647583,9.004995346069336,0.023655980825424194,0.5739799737930298,-0.3302563726902008,0.583616316318512,28.205076217651367,-29.11780548095703,15.70928955078125,0.4433991312980652,0.4288625717163086,-0.25141406059265137,0.3758617043495178,8.576132774353027,0.27507004141807556
0_20251106_211518,1762434881773,0,0.3276161253452301,0.3819524943828583,0.5827428698539734,0.6381149291992188,0.4314945638179779,3.3197362422943115,1.042661428451538,0.7151175737380981,9.095972061157227,0.5874662399291992,0.4768524467945099,-0.30765441060066223,0.5726207494735718,27.958648681640625,-29.17217254638672,15.77978515625,0.2714046835899353,0.41587162017822266,0.24991697072982788,0.44371289014816284,8.680100440979004,0.33754926919937134
0_20251106_211518,1762434881792,0,0.32397428154945374,0.3858768343925476,0.5825634598731995,0.6377770304679871,0.4314945638179779,3.3197362422943115,1.042661428451538,0.7151175737380981,9.095972061157227,0.5874662399291992,0.1158314198255539,0.3435274064540863,0.4229589104652405,27.674659729003906,-29.24188232421875,15.889095306396484,0.2714046835899353,0.41587162017822266,0.24991697072982788,0.44371289014816284,8.680100440979004,0.33754926919937134
0_20251106_211518,1762434881811,0,0.3190850615501404,0.38632845878601074,0.5827840566635132,0.6397638320922852,0.4353017210960388,3.304460287094116,1.0287333726882935,1.1245083808898926,8.809877395629883,0.2606717646121979,0.0077083520591259,0.6086426973342896,0.4211263358592987,27.412731170654297,-29.347946166992188,16.02562713623047,0.49106067419052124,0.043602943420410156,-0.09267845749855042,0.6334477066993713,8.766274452209473,0.3533502221107483
0_20251106_211518,1762434881831,0,0.31314679980278015,0.3848437964916229,0.5831264853477478,0.6432712078094482,0.4353017210960388,3.304460287094116,1.0287333726882935,1.1245083808898926,8.809877395629883,0.2606717646121979,-0.08392135798931122,0.5878733396530151,0.4681628942489624,27.04183578491211,-29.44860076904297,16.158008575439453,0.49106067419052124,0.043602943420410156,-0.09267845749855042,0.6334477066993713,8.766274452209473,0.3533502221107483
0_20251106_211518,1762434881851,0,0.307386577129364,0.3836258053779602,0.5825969576835632,0.6472445726394653,0.44947874546051025,3.290940284729004,1.0111013650894165,1.8786495923995972,8.99781322479248,-0.050561077892780304,-0.15600340068340302,0.24823251366615295,0.497484415769577,26.59562110900879,-29.580215454101562,16.395050048828125,0.8423213958740234,0.17940330505371094,-0.23935043811798096,1.0363281965255737,8.81840991973877,0.18878936767578125
0_20251106_211518,1762434881870,0,0.30352938175201416,0.3845890760421753,0.5805023908615112,0.6503676772117615,0.44947874546051025,3.290940284729004,1.0111013650894165,1.8786495923995972,8.99781322479248,-0.050561077892780304,-0.19448786973953247,-0.027267470955848694,0.5255841612815857,26.170440673828125,-29.78437042236328,16.509841918945312,0.8423213958740234,0.17940330505371094,-0.23935043811798096,1.0363281965255737,8.81840991973877,0.18878936767578125
0_20251106_211518,1762434881889,0,0.3010976314544678,0.38727471232414246,0.577243983745575,0.6528000831604004,0.47086113691329956,3.2833094596862793,0.9996241331100464,2.013916015625,9.389248847961426,1.1129708290100098,-0.20059652626514435,-0.013828448951244354,0.5610143542289734,25.745567321777344,-29.97650146484375,16.67896270751953,0.6603227853775024,0.3952150344848633,0.6678957343101501,1.3535932302474976,8.994033813476562,0.4450750946998596
0_20251106_211518,1762434881907,0,0.2984042763710022,0.38988184928894043,0.5737961530685425,0.6555188894271851,0.47086113691329956,3.2833094596862793,0.9996241331100464,2.013916015625,9.389248847961426,1.1129708290100098,-0.20059652626514435,-0.013828448951244354,0.5610143542289734,25.25973892211914,-30.195831298828125,16.65587615966797,0.6603227853775024,0.3952150344848633,0.6678957343101501,1.3535932302474976,8.994033813476562,0.4450750946998596
0_20251106_211518,1762434881927,0,0.2950606346130371,0.39178764820098877,0.5711297392845154,0.6582192182540894,0.48619693517684937,3.2818052768707275,0.9974513649940491,2.6040613651275635,9.493391990661621,1.1835968494415283,-0.03688477352261543,0.07230347394943237,0.418071985244751,24.78388214111328,-30.452178955078125,16.64600372314453,1.0003745555877686,0.3994865417480469,0.590817391872406,1.603686809539795,9.093905448913574,0.5927794575691223
0_20251106_211518,1762434881945,0,0.29202017188072205,0.3934774696826935,0.569375216960907,0.6600845456123352,0.5040531158447266,3.28127121925354,0.996379017829895,3.067319631576538,9.394036293029785,0.9166548252105713,0.06451877951622009,-0.09140826761722565,0.2739078998565674,24.296249389648438,-30.697166442871094,16.67645263671875,1.1709063053131104,0.24010467529296875,0.2591003179550171,1.8964133262634277,9.153931617736816,0.6575545072555542
0_20251106_211518,1762434881965,0,0.2904317080974579,0.3958926200866699,0.5682583451271057,0.6603036522865295,0.5246559381484985,3.280470371246338,0.9958084225654602,3.2229361534118652,9.046892166137695,0.8208908438682556,0.06451877951622009,-0.09140826761722565,0.2739078998565674,23.772552490234375,-30.943862915039062,16.63785171508789,1.06121826171875,-0.0856313705444336,0.13066905736923218,2.1617178916931152,9.132523536682129,0.6902217864990234
0_20251106_211518,1762434881984,0,0.28991642594337463,0.39920559525489807,0.5676232576370239,0.6590805649757385,0.5673863291740417,3.2760818004608154,0.9972043037414551,2.690248966217041,8.856561660766602,0.8879256248474121,0.2948147654533386,-0.27527856826782227,0.16761744022369385,23.339191436767578,-31.096961975097656,16.591014862060547,0.27907800674438477,-0.1440563201904297,0.09243851900100708,2.4111709594726562,9.000617980957031,0.795487105846405
0_20251106_211518,1762434882002,0,0.289057195186615,0.4027476906776428,0.5678226351737976,0.6571283936500549,0.5869948267936707,3.2746713161468506,0.9971205592155457,2.390986919403076,9.319819450378418,0.44860851764678955,0.33391010761260986,-0.19281181693077087,0.08881591260433197,22.95698356628418,-31.20880889892578,16.50638198852539,-0.016147375106811523,0.25536155700683594,-0.2775028347969055,2.4071342945098877,9.064457893371582,0.7261113524436951
0_20251106_211518,1762434882022,0,0.28810539841651917,0.4053605794906616,0.5688871741294861,0.6550156474113464,0.605821967124939,3.2734713554382324,0.9949516654014587,2.1024978160858154,9.142656326293945,-0.033802393823862076,0.15370501577854156,0.11017708480358124,-0.03824394941329956,22.59300994873047,-31.207252502441406,16.465164184570312,-0.24370908737182617,0.06255912780761719,-0.6079310178756714,2.3462069034576416,9.080097198486328,0.5741286277770996
0_20251106_211518,1762434882041,0,0.28705084323883057,0.40489381551742554,0.5702387094497681,0.654591977596283,0.6228092312812805,3.2711071968078613,0.9903956651687622,2.018704414367676,8.6339111328125,-0.33545881509780884,0.15370501577854156,0.11017708480358124,-0.03824394941329956,22.32632827758789,-31.199615478515625,16.45490264892578,-0.26200199127197266,-0.3569488525390625,-0.7276699542999268,2.2807064056396484,8.990859985351562,0.3922111392021179
0_20251106_211518,1762434882060,0,0.28600478172302246,0.40215039253234863,0.5704408884048462,0.6565619111061096,0.6391710638999939,3.2670176029205322,0.983278214931488,2.074965476989746,8.423229217529297,-0.4503755569458008,-0.4504401981830597,0.3911748230457306,0.08148553222417831,22.113731384277344,-31.0887451171875,16.489261627197266,-0.16459274291992188,-0.4541044235229492,-0.6740694046020508,2.239558219909668,8.877333641052246,0.2236938178539276
0_20251106_211518,1762434882080,0,0.28498661518096924,0.39899447560310364,0.5684473514556885,0.660646378993988,0.6545336842536926,3.2624552249908447,0.9752680659294128,2.456824541091919,8.559693336486816,-0.3546116352081299,-0.68012535572052,0.257395476102829,0.25436025857925415,21.8643798828125,-30.98052978515625,16.549182891845703,0.1738131046295166,-0.25411224365234375,-0.4626443684101105,2.2830114364624023,8.81380558013916,0.10803274065256119
0_20251106_211518,1762434882099,0,0.28444963693618774,0.39702045917510986,0.5639798045158386,0.6658753156661987,0.6718475818634033,3.2574331760406494,0.9675291180610657,2.924870729446411,8.662639617919922,0.19722814857959747,-0.8334523439407349,0.03931678086519241,0.36737024784088135,21.700105667114258,-30.89025115966797,16.449813842773438,0.5134873390197754,-0.12093257904052734,0.07135632634162903,2.4113833904266357,8.78357219696045,0.12587182223796844
0_20251106_211518,1762434882119,0,0.2849031090736389,0.3966687023639679,0.5574448704719543,0.6713712811470032,0.6908356547355652,3.2530698776245117,0.96291583776474,3.2468771934509277,8.917611122131348,1.0267833471298218,-0.982503354549408,-0.08163443207740784,0.3588181138038635,21.499372482299805,-30.802215576171875,16.33545684814453,0.6683950424194336,0.10723114013671875,0.7207292318344116,2.578482151031494,8.810379981994629,0.30605411529541016
0_20251106_211518,1762434882136,0,0.28661543130874634,0.3966635763645172,0.5494784712791443,0.6771875619888306,0.7078390121459961,3.2502763271331787,0.9621513485908508,3.339049816131592,9.142656326293945,1.6540372371673584,-1.1211696863174438,-0.006498072762042284,0.2476407289505005,21.499372482299805,-30.802215576171875,16.33545684814453,0.6084539890289307,0.2658214569091797,1.0783865451812744,2.730595827102661,8.876834869384766,0.575650691986084
0_20251106_211518,1762434882156,0,0.28908175230026245,0.3950648307800293,0.5411096811294556,0.6837805509567261,0.7286124229431152,3.2477874755859375,0.9654631614685059,3.3127148151397705,9.085197448730469,1.9461172819137573,-1.1602650880813599,0.16454404592514038,0.12424606829881668,21.304059982299805,-30.85016632080078,16.083526611328125,0.4656951427459717,0.16668987274169922,1.0963733196258545,2.847019672393799,8.91850757598877,0.8497439622879028
0_20251106_211518,1762434882175,0,0.2915938198566437,0.39149999618530273,0.5333020687103271,0.6908615827560425,0.7485264539718628,3.2453811168670654,0.9707539677619934,3.27201509475708,8.860152244567871,1.6887516975402832,-1.0985676050186157,0.27511054277420044,0.06743564456701279,21.0700626373291,-30.949790954589844,15.734455108642578,0.339996337890625,-0.04668426513671875,0.6712062358856201,2.932018756866455,8.90683650970459,1.017545461654663
0_20251106_211518,1762434882193,0,0.29364117980003357,0.3870125114917755,0.5263554453849792,0.6978152394294739,0.7673570513725281,3.242051124572754,0.9762959480285645,3.30074405670166,8.434002876281738,1.3344249725341797,-1.0448116064071655,0.15599194169044495,0.12180260568857193,20.869396209716797,-31.109413146972656,15.344985961914062,0.2949800491333008,-0.3782663345336914,0.25350356101989746,3.0057640075683594,8.81226921081543,1.0809214115142822
0_20251106_211518,1762434882213,0,0.29569578170776367,0.383771151304245,0.5192213654518127,0.704054594039917,0.7673570513725281,3.242051124572754,0.9762959480285645,3.30074405670166,8.434002876281738,1.3344249725341797,-1.0435898303985596,-0.08163443207740784,0.24580813944339752,20.596092224121094,-31.28473663330078,14.790115356445312,0.2949800491333008,-0.3782663345336914,0.25350356101989746,3.0057640075683594,8.81226921081543,1.0809214115142822
0_20251106_211518,1762434882233,0,0.29817482829093933,0.38288766145706177,0.5108931064605713,0.7095611691474915,0.7907688617706299,3.236436605453491,0.9838086366653442,3.4264345169067383,8.337041854858398,1.3739275932312012,-1.0985676050186157,-0.24901136755943298,0.3178901970386505,20.404146194458008,-31.541053771972656,14.101665496826172,0.3365364074707031,-0.38018226623535156,0.23440492153167725,3.089898109436035,8.71722412109375,1.139522671699524
0_20251106_211518,1762434882251,0,0.3009767532348633,0.3832024037837982,0.5014868378639221,0.7148985266685486,0.8132230043411255,3.231065034866333,0.9922940135002136,3.825051784515381,8.545328140258789,1.7964861392974854,-1.1920300722122192,-0.3553018271923065,0.25924718379974365,20.211397171020508,-31.81005859375,13.426467895507812,0.5881228446960449,-0.13751697540283203,0.5255707502365112,3.236928939819336,8.682845115661621,1.2709153890609741
0_20251106_211518,1762434882270,0,0.3050383925437927,0.3837161958217621,0.4911841154098511,0.7200358510017395,0.8576862812042236,3.224431037902832,1.014754295349121,4.595951557159424,9.089986801147461,2.915727376937866,-1.232347011566162,-0.41150137782096863,0.0020731231197714806,20.07987403869629,-32.07469177246094,12.713174819946289,0.8931410312652588,0.2822132110595703,1.125077247619629,3.702810525894165,8.80777359008789,1.7906501293182373
0_20251106_211518,1762434882289,0,0.3110886216163635,0.38320106267929077,0.4812513589859009,0.7244156002998352,0.8825199604034424,3.2216827869415283,1.0313034057617188,4.103964328765869,8.863743782043457,3.074934959411621,-1.2787727117538452,-0.3821798861026764,-0.32718294858932495,19.976333618164062,-32.28643035888672,11.893787384033203,0.3209228515625,0.044775962829589844,1.0274279117584229,3.783041477203369,8.818967819213867,2.0475070476531982
0_20251106_211518,1762434882309,0,0.31945350766181946,0.38080528378486633,0.4721379280090332,0.7280265092849731,0.9064187407493591,3.2190089225769043,1.050732135772705,3.475513458251953,8.84339427947998,2.994732618331909,-1.4308780431747437,-0.27161335945129395,-0.5232705473899841,19.972593307495117,-32.45387268066406,11.052083969116211,-0.24602246284484863,0.019540786743164062,0.7577805519104004,3.7215359210968018,8.823853492736816,2.236952066421509
0_20251106_211518,1762434882328,0,0.3292312026023865,0.3761597275733948,0.46297335624694824,0.7319605946540833,0.9064187407493591,3.2190089225769043,1.050732135772705,3.475513458251953,8.84339427947998,2.994732618331909,-1.5780965089797974,-0.2673373222351074,-0.5342661142349243,20.03360366821289,-32.55415344238281,10.173603057861328,-0.24602246284484863,0.019540786743164062,0.7577805519104004,3.7215359210968018,8.823853492736816,2.236952066421509
0_20251106_211518,1762434882347,0,0.33960795402526855,0.3708551526069641,0.4528261423110962,0.736261785030365,0.9441644549369812,3.211449384689331,1.0940130949020386,3.1391425132751465,8.277189254760742,3.8350613117218018,-1.6110831499099731,-0.3772929608821869,-0.4212561249732971,20.16571617126465,-32.68720245361328,9.283756256103516,-0.3746471405029297,-0.39066123962402344,1.1197030544281006,3.513789653778076,8.667850494384766,2.715358257293701
0_20251106_211518,1762434882366,0,0.3496878147125244,0.36654022336006165,0.4416046440601349,0.740507960319519,0.9600281119346619,3.2060234546661377,1.1202727556228638,3.164280652999878,8.200578689575195,4.316274642944336,-1.5927571058273315,-0.5275656580924988,-0.2880876064300537,20.397218704223633,-32.788108825683594,8.330780029296875,-0.27960729598999023,-0.37381744384765625,1.2807331085205078,3.443887948989868,8.574396133422852,3.035541534423828
0_20251106_211518,1762434882384,0,0.3591914176940918,0.3636929988861084,0.4294198155403137,0.7445183396339417,0.9600281119346619,3.2060234546661377,1.1202727556228638,3.164280652999878,8.200578689575195,4.316274642944336,-1.6251331567764282,-0.6283583641052246,-0.14148008823394775,20.584392547607422,-32.82819366455078,7.255516052246094,-0.27960729598999023,-0.37381744384765625,1.2807331085205078,3.443887948989868,8.574396133422852,3.035541534423828
0_20251106_211518,1762434882404,0,0.368078351020813,0.36191868782043457,0.4160042107105255,0.748647928237915,0.9885346293449402,3.196686267852783,1.1841928958892822,3.474316358566284,9.098365783691406,5.301446914672852,-1.6672827005386353,-0.640575647354126,-0.02236146479845047,20.88081932067871,-32.88489532470703,6.048974990844727,0.05528974533081055,0.4366588592529297,1.5133838653564453,3.4190266132354736,8.661706924438477,3.7880630493164062
0_20251106_211518,1762434882423,0,0.37629234790802,0.36046651005744934,0.4016622006893158,0.7530839443206787,1.0033005475997925,3.196084976196289,1.2217172384262085,3.96510648727417,9.750757217407227,5.779068946838379,-1.6245222091674805,-0.6619558930397034,0.013068687170743942,21.13132095336914,-32.89454650878906,4.841527938842773,0.43686389923095703,0.8712406158447266,1.5928049087524414,3.528242588043213,8.8795166015625,4.1862640380859375
0_20251106_211518,1762434882443,0,0.38411107659339905,0.3594047725200653,0.38733258843421936,0.7571395635604858,1.0203988552093506,3.1993114948272705,1.2649425268173218,4.295492172241211,10.138601303100586,6.061573028564453,-1.6245222091674805,-0.6619558930397034,0.013068687170743942,21.382230758666992,-32.89204406738281,3.6748924255371094,0.6137995719909668,1.007267951965332,1.5002474784851074,3.681692600250244,9.131333351135254,4.561325550079346
0_20251106_211518,1762434882461,0,0.39199474453926086,0.3592700660228729,0.37382927536964417,0.759945273399353,1.0365853309631348,3.204906940460205,1.3056120872497559,4.318236351013184,10.28344440460205,6.068755149841309,-1.4766929149627686,-0.7432008981704712,-0.03824394941329956,21.623550415039062,-32.863609313964844,2.346099853515625,0.5092349052429199,0.9216890335083008,1.2059435844421387,3.8090014457702637,9.36175537109375,4.86281156539917
0_20251106_211518,1762434882481,0,0.40023693442344666,0.35983410477638245,0.361570805311203,0.7613122463226318,1.0365853309631348,3.204906940460205,1.3056120872497559,4.318236351013184,10.28344440460205,6.068755149841309,-1.2799944877624512,-0.7664138078689575,-0.2722051441669464,21.863065719604492,-32.86082458496094,1.0708446502685547,0.5092349052429199,0.9216890335083008,1.2059435844421387,3.8090014457702637,9.36175537109375,4.86281156539917
0_20251106_211518,1762434882501,0,0.4092480540275574,0.35980939865112305,0.35002753138542175,0.7619277834892273,1.0757300853729248,3.227217674255371,1.3988499641418457,4.585178375244141,10.653332710266113,5.848498344421387,-1.2799944877624512,-0.7664138078689575,-0.2722051441669464,22.049898147583008,-32.72321319580078,-0.2715415954589844,0.5195450782775879,0.8325471878051758,0.6063237190246582,4.065633296966553,9.820785522460938,5.2421746253967285
0_20251106_211518,1762434882520,0,0.4192577004432678,0.35876142978668213,0.33895790576934814,0.7619847655296326,1.0949227809906006,3.24068284034729,1.4427454471588135,4.47504997253418,10.635376930236816,5.953838348388672,-1.316035509109497,-0.7193771600723267,-0.43041908740997314,22.049898147583008,-32.72321319580078,-0.2715415954589844,0.3275332450866699,0.6516733169555664,0.5693306922912598,4.14751672744751,9.98370361328125,5.384507656097412
0_20251106_211518,1762434882540,0,0.430878221988678,0.3578878343105316,0.32801830768585205,0.7606998085975647,1.114157795906067,3.2561874389648438,1.489969253540039,4.1614227294921875,10.654529571533203,6.479343414306641,-1.3270310163497925,-0.9405102133750916,-0.7737250924110413,22.481061935424805,-32.29371643066406,-2.991731643676758,0.011124610900878906,0.5366611480712891,0.8758687973022461,4.150298118591309,10.117868423461914,5.6034746170043945
0_20251106_211518,1762434882558,0,0.44401830434799194,0.35726121068000793,0.3169933557510376,0.7581077814102173,1.1296907663345337,3.269948720932007,1.5339171886444092,3.7795639038085938,10.322946548461914,7.053926467895508,-1.317257285118103,-0.9350124597549438,-0.9044501185417175,22.481061935424805,-32.29371643066406,-2.991731643676758,-0.2965874671936035,0.1640625,1.1603612899780273,4.076151371002197,10.158884048461914,5.8935651779174805
0_20251106_211518,1762434882576,0,0.45796462893486023,0.3560355305671692,0.3064330220222473,0.7547224164009094,1.1427971124649048,3.2824769020080566,1.5791115760803223,3.4060845375061035,9.937498092651367,7.292140007019043,-1.2561707496643066,-0.8922518491744995,-0.9465997815132141,22.71845054626465,-31.9027099609375,-4.313850402832031,-0.5360536575317383,-0.1771087646484375,1.1188597679138184,3.942138195037842,10.114606857299805,6.173280239105225
0_20251106_211518,1762434882595,0,0.471753865480423,0.3543888032436371,0.296543151140213,0.7509453892707825,1.1427971124649048,3.2824769020080566,1.5791115760803223,3.4060845375061035,9.937498092651367,7.292140007019043,-1.1101740598678589,-0.9447862505912781,-0.8537483811378479,22.993213653564453,-31.485015869140625,-5.552872657775879,-0.5360536575317383,-0.1771087646484375,1.1188597679138184,3.942138195037842,10.114606857299805,6.173280239105225
0_20251106_211518,1762434882615,0,0.48430463671684265,0.35379669070243835,0.28713124990463257,0.746881902217865,1.163285493850708,3.306835651397705,1.681282877922058,3.240891695022583,10.178104400634766,7.793703556060791,-0.9024801254272461,-1.0339725017547607,-0.6802627444267273,23.369075775146484,-31.009658813476562,-6.895045280456543,-0.4424774646759033,0.07913589477539062,1.0872511863708496,3.6833691596984863,10.098968505859375,6.706452369689941
0_20251106_211518,1762434882637,0,0.4951675832271576,0.355182021856308,0.2781217396259308,0.7424978613853455,1.1728914976119995,3.319908380508423,1.737947940826416,3.7568199634552,10.339705467224121,7.83919095993042,-0.6929534673690796,-1.0681809186935425,-0.5134966969490051,23.71483612060547,-30.41192626953125,-8.154952049255371,0.058760643005371094,0.19258975982666016,0.9061908721923828,3.698059320449829,10.147115707397461,6.933000087738037
0_20251106_211518,1762434882652,0,0.5042703747749329,0.3581966757774353,0.2697729468345642,0.7379899024963379,1.1812559366226196,3.3301596641540527,1.780034065246582,4.423576354980469,10.552781105041504,7.483667373657227,-0.47243133187294006,-1.0913938283920288,-0.5012794137001038,24.062414169311523,-29.77692413330078,-9.373517990112305,0.580413818359375,0.32453250885009766,0.4405336380004883,3.8431625366210938,10.228248596191406,7.043133735656738
0_20251106_211518,1762434882671,0,0.5122010707855225,0.3623952865600586,0.2628657817840576,0.7329538464546204,1.192987322807312,3.342700242996216,1.8267406225204468,4.679744720458984,10.583904266357422,6.761846542358398,-0.3472040593624115,-1.0681809186935425,-0.7095842957496643,24.392562866210938,-29.242637634277344,-10.648751258850098,0.6692657470703125,0.28452491760253906,-0.22502994537353516,4.010478973388672,10.299379348754883,6.986876487731934
0_20251106_211518,1762434882691,0,0.5210958123207092,0.36669114232063293,0.2575204074382782,0.7264158725738525,1.2055597305297852,3.3551998138427734,1.871598720550537,4.287113189697266,10.28583812713623,6.378790855407715,-0.3985166847705841,-1.0180901288986206,-1.010129690170288,24.724950790405273,-28.647315979003906,-11.746953010559082,0.22130727767944336,-0.010832786560058594,-0.4864687919616699,4.065805912017822,10.296670913696289,6.865259647369385
0_20251106_211518,1762434882710,0,0.5320748686790466,0.36976808309555054,0.2530532479286194,0.7184232473373413,1.215946912765503,3.3653407096862793,1.9113954305648804,3.7161202430725098,9.88123607635498,6.614609718322754,-0.5072506070137024,-0.9185190796852112,-1.229430079460144,25.04564666748047,-28.05211639404297,-12.913227081298828,-0.27974843978881836,-0.3323478698730469,-0.20052003860473633,3.995868682861328,10.213583946228027,6.81512975692749
0_20251106_211518,1762434882730,0,0.5445809960365295,0.37098294496536255,0.24911731481552124,0.7097491025924683,1.2240753173828125,3.373710870742798,1.9513758420944214,3.2528624534606934,9.631052017211914,6.875566482543945,-0.5060288906097412,-0.8867541551589966,-1.285018801689148,25.39073944091797,-27.432098388671875,-13.888764381408691,-0.5944051742553711,-0.46602535247802734,0.04834938049316406,3.8472676277160645,10.097077369689941,6.827217102050781
0_20251106_211518,1762434882749,0,0.5573834180831909,0.3716561794281006,0.24544808268547058,0.7006787061691284,1.2240753173828125,3.373710870742798,1.9513758420944214,3.2528624534606934,9.631052017211914,6.875566482543945,-0.4143991768360138,-0.9576144218444824,-1.2062172889709473,25.716989517211914,-26.724960327148438,-14.94453239440918,-0.5944051742553711,-0.46602535247802734,0.04834938049316406,3.8472676277160645,10.097077369689941,6.827217102050781
0_20251106_211518,1762434882768,0,0.5692768692970276,0.3732199966907501,0.24174831807613373,0.6915116906166077,1.2320747375488281,3.3874855041503906,2.0256710052490234,3.0589404106140137,10.28464126586914,7.569855213165283,-0.2806198000907898,-1.044357180595398,-1.113365888595581,25.989486694335938,-26.08580780029297,-15.800838470458984,-0.49437856674194336,0.19473648071289062,0.5315976142883301,3.553318977355957,10.08990478515625,7.038257598876953
0_20251106_211518,1762434882786,0,0.5802308917045593,0.3761557340621948,0.23806637525558472,0.6820288896560669,1.2336043119430542,3.3950934410095215,2.061086416244507,3.068516731262207,10.605451583862305,7.869117736816406,-0.11446459591388702,-1.1011675596237183,-1.1194744110107422,26.280120849609375,-25.333389282226562,-16.60021209716797,-0.38784170150756836,0.41243743896484375,0.6646881103515625,3.4563584327697754,10.193014144897461,7.204429626464844
0_20251106_211518,1762434882805,0,0.5905230641365051,0.3802356421947479,0.23517249524593353,0.6718610525131226,1.2332234382629395,3.404015064239502,2.098745822906494,2.758481025695801,10.664106369018555,7.986428260803223,-0.11446459591388702,-1.1011675596237183,-1.1194744110107422,26.54546356201172,-24.60699462890625,-17.468677520751953,-0.5583019256591797,0.3768739700317383,0.6255989074707031,3.3167829513549805,10.287232398986816,7.3608293533325195
0_20251106_211518,1762434882824,0,0.6009124517440796,0.38464662432670593,0.23358094692230225,0.6605990529060364,1.2300161123275757,3.4128973484039307,2.1369316577911377,2.279661178588867,10.435469627380371,8.239006042480469,0.0846773087978363,-0.9496731758117676,-1.3192272186279297,26.815250396728516,-23.793373107910156,-18.26771354675293,-0.8296973705291748,0.1185903549194336,0.7025413513183594,3.109358549118042,10.316879272460938,7.536464691162109
0_20251106_211518,1762434882844,0,0.6112751960754395,0.38822391629219055,0.23336255550384521,0.6489735841751099,1.2300161123275757,3.4128973484039307,2.1369316577911377,2.279661178588867,10.435469627380371,8.239006042480469,0.18669171631336212,-0.8183373212814331,-1.3265576362609863,27.147571563720703,-22.950401306152344,-19.090801239013672,-0.8296973705291748,0.1185903549194336,0.7025413513183594,3.109358549118042,10.316879272460938,7.536464691162109
0_20251106_211518,1762434882862,0,0.6208946704864502,0.39134201407432556,0.23451413214206696,0.6374514698982239,1.212958574295044,3.426879405975342,2.2139055728912354,1.4608793258666992,9.874053955078125,8.310829162597656,0.3687293827533722,-0.732816219329834,-1.2269866466522217,27.463603973388672,-22.160202026367188,-19.739723205566406,-1.100801706314087,-0.3092641830444336,0.49291181564331055,2.561681032180786,10.183318138122559,7.817917346954346
0_20251106_211518,1762434882882,0,0.6289584636688232,0.3950355648994446,0.23684273660182953,0.6263095140457153,1.2002084255218506,3.4314956665039062,2.250420331954956,1.4453177452087402,9.699283599853516,7.8810882568359375,0.6100209951400757,-0.7089924812316895,-1.0962616205215454,27.74175262451172,-21.408981323242188,-20.499040603637695,-0.8930904865264893,-0.38722801208496094,0.0505366325378418,2.3384082317352295,10.086511611938477,7.830551624298096
0_20251106_211518,1762434882900,0,0.6351690888404846,0.40018895268440247,0.24020300805568695,0.6153954267501831,1.1855568885803223,3.4352128505706787,2.283707618713379,1.4129973649978638,9.84292984008789,7.319671630859375,0.8183258771896362,-0.8549891710281372,-0.9863060116767883,28.014389038085938,-20.73485565185547,-21.084228515625,-0.7403286695480347,-0.19486522674560547,-0.4087038040161133,2.1533260345458984,10.037795066833496,7.728375434875488
0_20251106_211518,1762434882920,0,0.6401934623718262,0.4076862335205078,0.24335791170597076,0.6039214730262756,1.1682325601577759,3.4395930767059326,2.316225528717041,1.274139642715454,10.255911827087402,7.475287914276123,0.8305431604385376,-0.9679991006851196,-0.963703989982605,28.300819396972656,-20.03455352783203,-21.695430755615234,-0.7033491134643555,0.17449283599853516,-0.2024703025817871,1.9774887561798096,10.081418991088867,7.67775821685791
0_20251106_211518,1762434882940,0,0.645122230052948,0.4159385859966278,0.24577321112155914,0.5919526219367981,1.1682325601577759,3.4395930767059326,2.316225528717041,1.274139642715454,10.255911827087402,7.475287914276123,0.8006107807159424,-0.8739259243011475,-1.02540123462677,28.536605834960938,-19.57616424560547,-22.218505859375,-0.7033491134643555,0.17449283599853516,-0.2024703025817871,1.9774887561798096,10.081418991088867,7.67775821685791
0_20251106_211518,1762434882961,0,0.6501623392105103,0.42320168018341064,0.24878138303756714,0.5799112915992737,1.1265898942947388,3.4509546756744385,2.38022518157959,0.827640175819397,10.4653959274292,7.888270378112793,0.9014034271240234,-0.7315945029258728,-1.0589988231658936,28.834644317626953,-19.07720947265625,-22.630207061767578,-0.7749748229980469,0.25532054901123047,0.12476873397827148,1.6026149988174438,10.210075378417969,7.7635016441345215
0_20251106_211518,1762434882978,0,0.6545217633247375,0.4300049841403961,0.25327059626579285,0.5679357051849365,1.1265898942947388,3.4509546756744385,2.38022518157959,0.827640175819397,10.4653959274292,7.888270378112793,1.0602282285690308,-0.7010512351989746,-1.0388402938842773,29.14467430114746,-18.577728271484375,-23.01438331604004,-0.7749748229980469,0.25532054901123047,0.12476873397827148,1.6026149988174438,10.210075378417969,7.7635016441345215
0_20251106_211518,1762434882996,0,0.657886266708374,0.4375275671482086,0.2586759626865387,0.5557355880737305,1.104878306388855,3.457228660583496,2.4073805809020996,0.7043440937995911,10.553977966308594,7.579431533813477,1.1695730686187744,-0.703494668006897,-1.0107405185699463,29.14467430114746,-18.577728271484375,-23.01438331604004,-0.7186166644096375,0.27512168884277344,-0.14725637435913086,1.4229607582092285,10.27885627746582,7.726687908172607
0_20251106_211518,1762434883015,0,0.6605507731437683,0.44575637578964233,0.2643938958644867,0.5432032346725464,1.0621585845947266,3.4689247608184814,2.4506592750549316,0.46493422985076904,10.364843368530273,7.079064846038818,1.1695730686187744,-0.703494668006897,-1.0107405185699463,29.335174560546875,-18.24958038330078,-23.311792373657227,-0.6324813365936279,0.03875160217285156,-0.45508241653442383,1.097415566444397,10.326091766357422,7.534147262573242
0_20251106_211518,1762434883034,0,0.6626606583595276,0.4538339078426361,0.27045804262161255,0.5308182835578918,1.0378892421722412,3.4741721153259277,2.469092845916748,0.4242345690727234,10.07635498046875,6.587077617645264,1.2025597095489502,-0.6534038186073303,-0.9948580861091614,29.532516479492188,-18.02069091796875,-23.651371002197266,-0.5385448336601257,-0.19979000091552734,-0.7576556205749512,0.9627794027328491,10.276144981384277,7.344733238220215
0_20251106_211518,1762434883054,0,0.6641716361045837,0.46238553524017334,0.27665355801582336,0.5182069540023804,1.0117243528366089,3.4782297611236572,2.482977867126465,0.3392440378665924,9.88482666015625,5.848498344421387,1.3925386667251587,-0.7407574653625488,-0.9404911398887634,29.76542854309082,-17.79076385498047,-23.85431671142578,-0.49882832169532776,-0.31305408477783203,-1.1969881057739258,0.8380723595619202,10.197880744934082,7.0454864501953125
0_20251106_211518,1762434883073,0,0.6650491952896118,0.4720173478126526,0.2826404571533203,0.5049985647201538,0.9868471026420593,3.481226682662964,2.491187334060669,0.3775496184825897,9.955452919006348,5.4702301025390625,1.33206307888031,-0.7822962999343872,-0.9246086478233337,29.931364059448242,-17.67742156982422,-24.102638244628906,-0.3684181869029999,-0.19394302368164062,-1.2602052688598633,0.7459678053855896,10.149395942687988,6.730435371398926
0_20251106_211518,1762434883092,0,0.6656468510627747,0.48123788833618164,0.28826671838760376,0.4921652674674988,0.9623966813087463,3.4841952323913574,2.495995044708252,0.4481755495071411,10.19366455078125,5.64021110534668,1.1720165014266968,-0.7444226741790771,-0.972866952419281,30.03284454345703,-17.630836486816406,-24.354732513427734,-0.2382338047027588,0.035414695739746094,-0.8721795082092285,0.6864093542098999,10.158249855041504,6.512390613555908
0_20251106_211518,1762434883111,0,0.6672695279121399,0.48926395177841187,0.2931341528892517,0.4790036976337433,0.9384626150131226,3.487549304962158,2.498300790786743,0.42902272939682007,10.352872848510742,5.688093185424805,1.1072648763656616,-0.7120468020439148,-1.079768180847168,30.181968688964844,-17.59416961669922,-24.551063537597656,-0.20590931177139282,0.15569782257080078,-0.6594381332397461,0.6349320411682129,10.197175025939941,6.347531318664551
0_20251106_211518,1762434883130,0,0.6694240570068359,0.49627771973609924,0.298259437084198,0.4654257297515869,0.9384626150131226,3.487549304962158,2.498300790786743,0.42902272939682007,10.352872848510742,5.688093185424805,1.0974910259246826,-0.7212097644805908,-1.1573480367660522,30.353647232055664,-17.593177795410156,-24.78775405883789,-0.20590931177139282,0.15569782257080078,-0.6594381332397461,0.6349320411682129,10.197175025939941,6.347531318664551
0_20251106_211518,1762434883149,0,0.6717730760574341,0.5028673410415649,0.30356526374816895,0.4513241648674011,0.8916508555412292,3.497382879257202,2.4998867511749268,0.3141059875488281,10.8113431930542,6.312952995300293,1.0950475931167603,-0.7535856366157532,-1.1836152076721191,30.710851669311523,-17.75249481201172,-24.720020294189453,-0.20858466625213623,0.4256267547607422,0.04873514175415039,0.5226906538009644,10.385716438293457,6.264217853546143
0_20251106_211518,1762434883169,0,0.6741459965705872,0.5093000531196594,0.3086799383163452,0.4368722140789032,0.8675612807273865,3.5042765140533447,2.5030879974365234,0.19918927550315857,10.838874816894531,7.035971164703369,1.1555231809616089,-0.723042368888855,-1.2434799671173096,30.85846710205078,-17.741073608398438,-24.903364181518555,-0.258801132440567,0.36252593994140625,0.6174025535583496,0.4579904079437256,10.476348876953125,6.4185686111450195
0_20251106_211518,1762434883188,0,0.6761888265609741,0.5155525803565979,0.31441134214401245,0.4220423400402069,0.8437342643737793,3.5107898712158203,2.5081963539123535,-0.3023744225502014,10.582706451416016,7.227499008178711,1.1555231809616089,-0.723042368888855,-1.2434799671173096,31.054235458374023,-17.72728729248047,-25.003646850585938,-0.6082918643951416,0.08508586883544922,0.6471443176269531,0.3059174716472626,10.497620582580566,6.580354690551758
0_20251106_211518,1762434883207,0,0.6771001219749451,0.5218281745910645,0.3221950829029083,0.4067199230194092,0.8181028962135315,3.516235589981079,2.5138986110687256,-0.7859823703765869,10.227182388305664,6.889930725097656,1.5922914743423462,-0.2948262393474579,-1.4713325500488281,31.16217803955078,-17.768882751464844,-25.148967742919922,-0.8735198974609375,-0.21635055541992188,0.24766111373901367,0.08753751218318939,10.443532943725586,6.642269611358643
0_20251106_211518,1762434883226,0,0.6762201189994812,0.5278497934341431,0.33328038454055786,0.39118435978889465,0.7898851633071899,3.519810438156128,2.516415596008301,-1.3222606182098389,9.860885620117188,5.585146903991699,1.7059122323989868,0.009384410455822945,-1.5776230096817017,31.370229721069336,-17.754165649414062,-25.26227569580078,-1.1278384923934937,-0.46611785888671875,-0.8456978797912598,-0.19442209601402283,10.327003479003906,6.430844783782959
0_20251106_211518,1762434883245,0,0.6739864945411682,0.5329230427742004,0.34708869457244873,0.3758520185947418,0.7587293982505798,3.5207979679107666,2.5144402980804443,-1.7795332670211792,9.449101448059082,4.839385032653809,1.7059122323989868,0.009384410455822945,-1.5776230096817017,31.678306579589844,-17.671661376953125,-25.235179901123047,-1.268088936805725,-0.7023220062255859,-1.273167610168457,-0.5114443302154541,10.151423454284668,6.112552642822266
0_20251106_211518,1762434883264,0,0.6716751456260681,0.5367956757545471,0.36122241616249084,0.3608619272708893,0.7587293982505798,3.5207979679107666,2.5144402980804443,-1.7795332670211792,9.449101448059082,4.839385032653809,1.6008435487747192,0.12422697246074677,-1.6014466285705566,32.109466552734375,-17.544754028320312,-25.080739974975586,-1.268088936805725,-0.7023220062255859,-1.273167610168457,-0.5114443302154541,10.151423454284668,6.112552642822266
0_20251106_211518,1762434883282,0,0.6689895391464233,0.5399333238601685,0.3751451075077057,0.34668591618537903,0.6901088953018188,3.5137696266174316,2.50052547454834,-2.369678497314453,8.722492218017578,4.37732458114624,1.5195986032485962,0.20363938808441162,-1.5403602123260498,32.52696228027344,-17.42066192626953,-24.72404670715332,-1.2308313846588135,-0.9639301300048828,-1.1814112663269043,-1.1388471126556396,9.686422348022461,5.5587358474731445
0_20251106_211518,1762434883302,0,0.6649608612060547,0.5429645776748657,0.38965904712677,0.33344024419784546,0.6496419906616211,3.5045735836029053,2.4863717555999756,-2.516915798187256,8.345420837402344,3.8362584114074707,1.5819066762924194,0.3435274064540863,-1.4640021324157715,33.080726623535156,-17.23841094970703,-24.279804229736328,-1.1024550199508667,-1.0728015899658203,-1.3779816627502441,-1.4144607782363892,9.418222427368164,5.214240074157715
0_20251106_211518,1762434883321,0,0.6593993902206421,0.5461664795875549,0.404930979013443,0.320820152759552,0.6496419906616211,3.5045735836029053,2.4863717555999756,-2.516915798187256,8.345420837402344,3.8362584114074707,1.706523060798645,0.5787103176116943,-1.3021230697631836,33.62061309814453,-17.07086181640625,-23.701154708862305,-1.1024550199508667,-1.0728015899658203,-1.3779816627502441,-1.4144607782363892,9.418222427368164,5.214240074157715
0_20251106_211518,1762434883340,0,0.6527057886123657,0.549447238445282,0.42019668221473694,0.3090592622756958,0.6078615188598633,3.4918227195739746,2.4674556255340576,-2.51212739944458,8.097631454467773,3.4148969650268555,1.712020993232727,0.6214708685874939,-1.1891130208969116,34.25932693481445,-16.8487548828125,-22.914779663085938,-0.8781332969665527,-1.0564727783203125,-1.439474105834961,-1.6339941024780273,9.154104232788086,4.854371070861816
0_20251106_211518,1762434883359,0,0.6452028155326843,0.552937924861908,0.43491682410240173,0.298027366399765,0.567995011806488,3.477078437805176,2.4441683292388916,-2.421151638031006,7.974335670471191,2.588932991027832,1.7700530290603638,0.5970363020896912,-1.110311508178711,34.96846008300781,-16.64874267578125,-21.950281143188477,-0.6297260522842407,-0.9438152313232422,-1.8123507499694824,-1.7914255857467651,8.918150901794434,4.4012837409973145
0_20251106_211518,1762434883379,0,0.6368674635887146,0.5570016503334045,0.44915392994880676,0.2870710790157318,0.48832133412361145,3.4414122104644775,2.3790316581726074,-2.593526840209961,7.836674690246582,0.9010931849479675,1.7498944997787476,0.6251360774040222,-1.054722785949707,35.666534423828125,-16.4132080078125,-20.850317001342773,-0.5252196788787842,-0.6894636154174805,-2.386066436767578,-2.0683071613311768,8.526138305664062,3.2871596813201904
0_20251106_211518,1762434883398,0,0.6280378699302673,0.5609726905822754,0.4630540609359741,0.27651217579841614,0.4489581882953644,3.422039747238159,2.3370790481567383,-2.674926280975342,7.8917388916015625,0.4162881672382355,1.5568612813949585,0.7228744029998779,-1.029066562652588,35.666534423828125,-16.4132080078125,-20.850317001342773,-0.48529529571533203,-0.5075197219848633,-2.2966973781585693,-2.1896309852600098,8.399258613586426,2.7129855155944824
0_20251106_211518,1762434883418,0,0.6194068789482117,0.5635561347007751,0.4767412543296814,0.267315149307251,0.40854912996292114,3.401015281677246,2.2875185012817383,-2.5336742401123047,7.855827808380127,0.2103956788778305,1.5568612813949585,0.7228744029998779,-1.029066562652588,36.327457427978516,-16.180862426757812,-19.670726776123047,-0.2752346992492676,-0.43474435806274414,-2.0020720958709717,-2.258439540863037,8.290572166442871,2.212467670440674
0_20251106_211518,1762434883435,0,0.6110159158706665,0.5640929937362671,0.490608274936676,0.26031172275543213,0.37624767422676086,3.3835301399230957,2.2438554763793945,-2.1087217330932617,8.059326171875,0.5539488792419434,1.1573556661605835,1.0057047605514526,-1.0327316522598267,37.03654479980469,-15.934532165527344,-18.313199996948242,0.11977410316467285,-0.1849966049194336,-1.3268150091171265,-2.2284958362579346,8.244322776794434,1.8807638883590698
0_20251106_211518,1762434883456,0,0.6026983857154846,0.563137412071228,0.5048229098320007,0.2545284032821655,0.33903926610946655,3.3615400791168213,2.1884255409240723,-2.0201401710510254,7.805551528930664,0.6305599808692932,1.1573556661605835,1.0057047605514526,-1.0327316522598267,37.66203308105469,-15.668243408203125,-16.999126434326172,0.16668462753295898,-0.3510169982910156,-1.0001630783081055,-2.1868247985839844,8.15656852722168,1.6307231187820435
0_20251106_211518,1762434883476,0,0.5940342545509338,0.5616051554679871,0.5197169780731201,0.24822817742824554,0.30440014600753784,3.3389031887054443,2.132948875427246,-2.5073392391204834,7.254908561706543,-0.12118697911500931,1.3174022436141968,1.1162712574005127,-1.2214888334274292,38.29034423828125,-15.351730346679688,-15.683996200561523,-0.2564115524291992,-0.7213277816772461,-1.4015281200408936,-2.250927686691284,7.976236343383789,1.2803411483764648
0_20251106_211518,1762434883494,0,0.5844376683235168,0.5599096417427063,0.535478413105011,0.2412397563457489,0.27451974153518677,3.3176066875457764,2.0831379890441895,-3.1202285289764404,6.602517127990723,-1.0022153854370117,1.2489854097366333,1.177357792854309,-1.1640675067901611,38.98472595214844,-14.93145751953125,-14.296722412109375,-0.6954407691955566,-1.0989751815795898,-1.826045274734497,-2.424787759780884,7.7014923095703125,0.8238298892974854
0_20251106_211518,1762434883512,0,0.5744920372962952,0.5578089952468872,0.550993800163269,0.2349763661623001,0.23955237865447998,3.2900583744049072,2.0231881141662598,-3.6062307357788086,5.902243137359619,-1.7503713369369507,1.0987128019332886,1.2408877611160278,-1.0076861381530762,39.61366271972656,-14.366348266601562,-12.801093101501465,-0.9451544284820557,-1.439399242401123,-2.059360980987549,-2.661076307296753,7.341642379760742,0.3089897036552429
0_20251106_211518,1762434883532,0,0.5644195079803467,0.5554590225219727,0.5655472874641418,0.23033061623573303,0.23955237865447998,3.2900583744049072,2.0231881141662598,-3.6062307357788086,5.902243137359619,-1.7503713369369507,0.9569921493530273,1.277539610862732,-0.826259434223175,40.25891876220703,-13.725234985351562,-11.289873123168945,-0.9451544284820557,-1.439399242401123,-2.059360980987549,-2.661076307296753,7.341642379760742,0.3089897036552429
0_20251106_211518,1762434883551,0,0.5542812347412109,0.5531327128410339,0.5789175629615784,0.22731249034404755,0.16353479027748108,3.2215688228607178,1.886991262435913,-3.8779609203338623,5.102614402770996,-2.5906996726989746,0.9569921493530273,1.277539610862732,-0.826259434223175,40.879600524902344,-13.085983276367188,-9.752601623535156,-0.7945113182067871,-1.4942665100097656,-1.9029171466827393,-3.083449602127075,6.596880912780762,-0.6877825260162354
0_20251106_211518,1762434883570,0,0.5442535281181335,0.5505841970443726,0.5911003947257996,0.22637459635734558,0.16353479027748108,3.2215688228607178,1.886991262435913,-3.8779609203338623,5.102614402770996,-2.5906996726989746,0.5611517429351807,1.378332257270813,-0.4487450420856476,41.468955993652344,-12.360809326171875,-8.255502700805664,-0.7945113182067871,-1.4942665100097656,-1.9029171466827393,-3.083449602127075,6.596880912780762,-0.6877825260162354
0_20251106_211518,1762434883590,0,0.5344750881195068,0.5478671193122864,0.6019163131713867,0.2277604192495346,0.08162751793861389,3.1380257606506348,1.7398548126220703,-4.7685651779174805,4.210812568664551,-3.244288921356201,0.5611517429351807,1.378332257270813,-0.4487450420856476,41.892147064208984,-11.559524536132812,-6.695840835571289,-1.1591072082519531,-1.5935440063476562,-1.7053056955337524,-3.6094579696655273,5.804356575012207,-1.5389832258224487
0_20251106_211518,1762434883608,0,0.5245763063430786,0.5465699434280396,0.6105253100395203,0.23095420002937317,0.08162751793861389,3.1380257606506348,1.7398548126220703,-4.7685651779174805,4.210812568664551,-3.244288921356201,0.47379812598228455,1.1217690706253052,0.3508768677711487,42.69024658203125,-12.615966796875,-5.222005844116211,-1.1591072082519531,-1.5935440063476562,-1.7053056955337524,-3.6094579696655273,5.804356575012207,-1.5389832258224487
0_20251106_211518,1762434883627,0,0.5147982239723206,0.548300564289093,0.6156599521636963,0.23518534004688263,0.004305034875869751,3.051802158355713,1.5990428924560547,-3.3548502922058105,4.686040878295898,-2.5320444107055664,0.7682349681854248,0.7723544836044312,0.7546584606170654,42.97163391113281,-11.9615478515625,-3.670642852783203,0.326322078704834,-0.6749267578125,-0.575610876083374,-3.6811723709106445,5.360967636108398,-1.9564335346221924
0_20251106_211518,1762434883646,0,0.504580557346344,0.5544893741607666,0.6175081133842468,0.23795735836029053,-0.029173996299505234,3.008284091949463,1.5282970666885376,-2.7072465419769287,4.803351402282715,-3.058746099472046,1.2263834476470947,0.4571482241153717,0.9257006049156189,43.17890167236328,-11.549415588378906,-2.153779983520508,0.7791407108306885,-0.4460926055908203,-0.881850004196167,-3.486387252807617,5.249444007873535,-2.176896095275879
0_20251106_211518,1762434883665,0,0.49331000447273254,0.5645725131034851,0.6177136301994324,0.23734569549560547,-0.029173996299505234,3.008284091949463,1.5282970666885376,-2.7072465419769287,4.803351402282715,-3.058746099472046,1.386430025100708,0.33131009340286255,0.8945464491844177,43.2960090637207,-11.466781616210938,-0.8224334716796875,0.7791407108306885,-0.4460926055908203,-0.881850004196167,-3.486387252807617,5.249444007873535,-2.176896095275879
0_20251106_211518,1762434883684,0,0.48175013065338135,0.57546466588974,0.6176893711090088,0.23498299717903137,-0.08474703133106232,2.923435926437378,1.3822193145751953,-2.7874488830566406,4.737514495849609,-4.61610746383667,1.0883280038833618,0.5164021253585815,0.7906994819641113,43.298397064208984,-11.490943908691406,0.42128944396972656,0.41112184524536133,-0.3253364562988281,-1.6800341606140137,-3.198570728302002,5.0628509521484375,-2.9360733032226562
0_20251106_211518,1762434883703,0,0.47076210379600525,0.5839505195617676,0.618279218673706,0.2347670942544937,-0.08474703133106232,2.923435926437378,1.3822193145751953,-2.7874488830566406,4.737514495849609,-4.61610746383667,0.47929587960243225,0.9433965682983398,0.6807438731193542,43.23823547363281,-11.556076049804688,1.594186782836914,0.41112184524536133,-0.3253364562988281,-1.6800341606140137,-3.198570728302002,5.0628509521484375,-2.9360733032226562
0_20251106_211518,1762434883723,0,0.4607796370983124,0.588077187538147,0.6199412941932678,0.23983359336853027,-0.13265016674995422,2.8431315422058105,1.2260829210281372,-2.7252025604248047,5.211545467376709,-4.569422721862793,-0.28245240449905396,1.4766814708709717,0.6294311881065369,43.170616149902344,-11.758934020996094,2.7236328125,0.35390186309814453,0.15587854385375977,-0.9679665565490723,-3.079104423522949,5.055666923522949,-3.6014561653137207
0_20251106_211518,1762434883741,0,0.45188865065574646,0.5870787501335144,0.6225494146347046,0.2521258294582367,-0.14931878447532654,2.8107802867889404,1.158660650253296,-1.7759422063827515,5.738247394561768,-3.2730178833007812,-0.28245240449905396,1.4766814708709717,0.6294311881065369,42.93269348144531,-12.185455322265625,3.8286991119384766,1.0425297021865845,0.5460643768310547,0.26275062561035156,-2.818471908569336,5.192183017730713,-3.535768508911133
0_20251106_211518,1762434883761,0,0.4435783326625824,0.582586407661438,0.6256017684936523,0.269172340631485,-0.16137513518333435,2.7786264419555664,1.0895178318023682,-0.9966630935668945,5.848376274108887,-2.869612216949463,-0.6850122213363647,2.0771615505218506,0.46938464045524597,42.75278091430664,-12.658363342285156,4.948678970336914,1.4574472904205322,0.5249543190002441,0.5329251289367676,-2.4541103839874268,5.323421955108643,-3.4025373458862305
0_20251106_211518,1762434883780,0,0.43360093235969543,0.5768083333969116,0.6300998330116272,0.28680405020713806,-0.1678730845451355,2.750749111175537,1.0262336730957031,-0.8566082715988159,5.739444732666016,-3.7243056297302246,-0.37530383467674255,2.073496103286743,0.40768730640411377,42.53572082519531,-13.13446044921875,6.148284912109375,1.2780016660690308,0.33281803131103516,-0.2574145793914795,-2.1346099376678467,5.4066267013549805,-3.466891050338745
0_20251106_211518,1762434883798,0,0.42187562584877014,0.5716913342475891,0.635439932346344,0.30233433842658997,-0.1678730845451355,2.750749111175537,1.0262336730957031,-0.8566082715988159,5.739444732666016,-3.7243056297302246,-0.37530383467674255,2.073496103286743,0.40768730640411377,42.27363586425781,-13.550682067871094,7.320215225219727,1.2780016660690308,0.33281803131103516,-0.2574145793914795,-2.1346099376678467,5.4066267013549805,-3.466891050338745
0_20251106_211518,1762434883819,0,0.41029465198516846,0.5690043568611145,0.6391146183013916,0.3153170645236969,-0.17072243988513947,2.72249698638916,0.9601655006408691,-0.9344164729118347,5.2833685874938965,-4.382682800292969,-0.18532489240169525,1.7705074548721313,0.5457426905632019,41.86503601074219,-13.965225219726562,8.621686935424805,0.9601548314094543,-0.09860658645629883,-0.7326335906982422,-1.894571304321289,5.381975173950195,-3.6500492095947266
0_20251106_211518,1762434883839,0,0.3998303711414337,0.5693255662918091,0.6399654150009155,0.32626426219940186,-0.16466553509235382,2.675682783126831,0.8389084339141846,-0.14556095004081726,6.094967842102051,-4.029553413391113,-0.04421515017747879,1.0594608783721924,0.9489134550094604,41.86503601074219,-13.965225219726562,8.621686935424805,1.188699722290039,0.5325431823730469,-0.18255138397216797,-1.3342607021331787,5.562424659729004,-3.8470020294189453
0_20251106_211518,1762434883857,0,0.39020872116088867,0.5714335441589355,0.6390300989151001,0.33591872453689575,-0.15618383884429932,2.658266544342041,0.7854299545288086,0.2722092866897583,6.473235607147217,-3.8859071731567383,-0.074758380651474,1.1052757501602173,0.9342526793479919,41.479400634765625,-14.403297424316406,9.923612594604492,1.2851760387420654,0.7286486625671387,-0.031124114990234375,-1.0129667520523071,5.744586944580078,-3.854783058166504
0_20251106_211518,1762434883875,0,0.38057810068130493,0.5732292532920837,0.6378958821296692,0.3459153175354004,-0.15618383884429932,2.658266544342041,0.7854299545288086,0.2722092866897583,6.473235607147217,-3.8859071731567383,-0.16638809442520142,1.2922003269195557,0.8096362948417664,41.06526184082031,-14.918167114257812,11.209457397460938,1.2851760387420654,0.7286486625671387,-0.031124114990234375,-1.0129667520523071,5.744586944580078,-3.854783058166504
0_20251106_211518,1762434883895,0,0.37051695585250854,0.5729655623435974,0.6378445625305176,0.3571861982345581,-0.14086706936359406,2.6423885822296143,0.7255281209945679,0.7522261142730713,6.766512870788574,-4.042720794677734,-0.22564198076725006,1.4400296211242676,0.6666939854621887,40.625633239746094,-15.459335327148438,12.453245162963867,1.4121543169021606,0.8175406455993652,-0.15035009384155273,-0.6599282026290894,5.948972225189209,-3.8923707008361816
0_20251106_211518,1762434883913,0,0.36025384068489075,0.5710830688476562,0.6386678814888,0.3690320551395416,-0.10456952452659607,2.62127947807312,0.6254302263259888,1.1544346809387207,6.390639305114746,-5.013527870178223,-0.2751220166683197,1.5029486417770386,0.5750642418861389,40.1593132019043,-16.05164337158203,13.627412796020508,1.176897644996643,0.24397850036621094,-0.8146452903747559,-0.022462919354438782,6.146660804748535,-4.198882579803467
0_20251106_211518,1762434883933,0,0.3500072658061981,0.5681422352790833,0.6399208903312683,0.3810650408267975,-0.10456952452659607,2.62127947807312,0.6254302263259888,1.1544346809387207,6.390639305114746,-5.013527870178223,-0.2751220166683197,1.5029486417770386,0.5750642418861389,39.597110748291016,-16.624923706054688,14.771154403686523,1.176897644996643,0.24397850036621094,-0.8146452903747559,-0.022462919354438782,6.146660804748535,-4.198882579803467
0_20251106_211518,1762434883952,0,0.3408238887786865,0.5651482343673706,0.6400955319404602,0.39335012435913086,-0.07898407429456711,2.611248731613159,0.5660977959632874,1.1604199409484863,6.422959327697754,-5.37503719329834,-0.5946042537689209,1.4278122186660767,0.5872815251350403,38.99391174316406,-17.287811279296875,15.843996047973633,0.9463062882423401,0.221038818359375,-0.9409236907958984,0.21411363780498505,6.201920509338379,-4.434113502502441
0_20251106_211518,1762434883974,0,0.33255407214164734,0.5615231394767761,0.6394671201705933,0.4064250588417053,-0.02462376281619072,2.5966949462890625,0.4545794129371643,1.4213767051696777,6.6982808113098145,-5.135626792907715,-0.5946042537689209,1.4278122186660767,0.5872815251350403,38.37660598754883,-17.9888916015625,16.888521194458008,0.7988877296447754,0.3479323387145996,-0.4196648597717285,0.6224889755249023,6.350348472595215,-4.715961933135986
0_20251106_211518,1762434883991,0,0.3253988027572632,0.5582460165023804,0.6373658776283264,0.419811487197876,0.00048049911856651306,2.592381238937378,0.4099886119365692,1.7433829307556152,6.743768692016602,-4.742995262145996,-0.8084069490432739,1.1388732194900513,0.777871310710907,37.75635528564453,-18.763565063476562,17.75575065612793,0.8967151641845703,0.31473636627197266,-0.02162647247314453,0.8466677665710449,6.429032325744629,-4.721368789672852
0_20251106_211518,1762434884009,0,0.319144070148468,0.5559645295143127,0.633663535118103,0.4330369234085083,0.00048049911856651306,2.592381238937378,0.4099886119365692,1.7433829307556152,6.743768692016602,-4.742995262145996,-0.8212350606918335,0.9763832688331604,0.8976008296012878,37.108001708984375,-19.61449432373047,18.55283546447754,0.8967151641845703,0.31473636627197266,-0.02162647247314453,0.8466677665710449,6.429032325744629,-4.721368789672852
0_20251106_211518,1762434884030,0,0.3133801221847534,0.5549095869064331,0.6285938024520874,0.4458004832267761,0.06543102115392685,2.5897581577301025,0.31774792075157166,2.5262532234191895,7.56015682220459,-4.258190155029297,-0.8224568367004395,0.8230562210083008,0.942804753780365,36.43717956542969,-20.44122314453125,19.281885147094727,1.1308608055114746,0.7995729446411133,0.3307180404663086,1.3953924179077148,6.760583877563477,-4.5889081954956055
0_20251106_211518,1762434884048,0,0.3082942068576813,0.5546810030937195,0.6226155161857605,0.457857608795166,0.06543102115392685,2.5897581577301025,0.31774792075157166,2.5262532234191895,7.56015682220459,-4.258190155029297,-0.9049235582351685,0.788847804069519,0.8670575618743896,35.65033721923828,-21.38811492919922,20.0041446685791,1.1308608055114746,0.7995729446411133,0.3307180404663086,1.3953924179077148,6.760583877563477,-4.5889081954956055
0_20251106_211518,1762434884067,0,0.304105669260025,0.553758442401886,0.616439163684845,0.4699724614620209,0.13359779119491577,2.600137233734131,0.24509693682193756,2.6986284255981445,8.133543014526367,-3.5950241088867188,-0.9049235582351685,0.788847804069519,0.8670575618743896,34.85973358154297,-22.432907104492188,20.467485427856445,0.8549476861953735,0.8765869140625,0.6945018768310547,1.843680739402771,7.256956100463867,-4.289525985717773
0_20251106_211518,1762434884086,0,0.30035126209259033,0.5513990521430969,0.6104456782341003,0.4828087389469147,0.1682078242301941,2.6084554195404053,0.21546217799186707,2.928462028503418,8.19698715209961,-3.496866226196289,-1.0356485843658447,0.9427857398986816,0.7393868565559387,34.03134536743164,-23.51654052734375,20.806917190551758,0.8678250312805176,0.7520246505737305,0.6341276168823242,2.0606369972229004,7.444962501525879,-4.130993843078613
0_20251106_211518,1762434884105,0,0.2964898347854614,0.5483493804931641,0.6045025587081909,0.49596714973449707,0.1682078242301941,2.6084554195404053,0.21546217799186707,2.928462028503418,8.19698715209961,-3.496866226196289,-1.0533636808395386,0.935455322265625,0.7723734974861145,33.18994140625,-24.636886596679688,20.9693546295166,0.8678250312805176,0.7520246505737305,0.6341276168823242,2.0606369972229004,7.444962501525879,-4.130993843078613
0_20251106_211518,1762434884123,0,0.29252728819847107,0.5453799366950989,0.598129391670227,0.5091460943222046,0.24691124260425568,2.6317625045776367,0.1607581079006195,3.790337562561035,8.487871170043945,-3.6500885486602783,-1.1181153059005737,0.7998433709144592,0.7986407279968262,32.312774658203125,-25.758529663085938,21.022188186645508,1.17844820022583,0.697148323059082,0.31639814376831055,2.611889362335205,7.790722846984863,-3.966486692428589
0_20251106_211518,1762434884144,0,0.28950047492980957,0.5430948734283447,0.5906962156295776,0.5218384861946106,0.29130858182907104,2.6481947898864746,0.13688704371452332,3.96510648727417,9.073226928710938,-3.2562592029571533,-1.188364863395691,0.5793212056159973,0.7632105946540833,31.436792373657227,-26.878555297851562,20.91282844543457,1.082573652267456,1.0260028839111328,0.5681819915771484,2.882532835006714,8.047224044799805,-3.8244411945343018
0_20251106_211518,1762434884162,0,0.2881511151790619,0.5414448380470276,0.582331120967865,0.5335699319839478,0.29130858182907104,2.6481947898864746,0.13688704371452332,3.96510648727417,9.073226928710938,-3.2562592029571533,-1.188364863395691,0.5793212056159973,0.7632105946540833,30.5159854888916,-27.938438415527344,20.748762130737305,1.082573652267456,1.0260028839111328,0.5681819915771484,2.882532835006714,8.047224044799805,-3.8244411945343018
0_20251106_211518,1762434884181,0,0.2885587513446808,0.5398110747337341,0.5735073685646057,0.5444512367248535,0.3771013915538788,2.689444065093994,0.10847780853509903,3.7951254844665527,9.816595077514648,-1.3373891115188599,-1.2525056600570679,0.4119442403316498,0.6685265302658081,29.58086395263672,-29.04840087890625,20.488534927368164,0.5714185237884521,1.1716604232788086,1.749149203300476,3.2237069606781006,8.64493465423584,-3.086538314819336
0_20251106_211518,1762434884200,0,0.28945863246917725,0.5371523499488831,0.56538987159729,0.5549913048744202,0.3771013915538788,2.689444065093994,0.10847780853509903,3.7951254844665527,9.816595077514648,-1.3373891115188599,-1.1590431928634644,0.5426693558692932,0.42356979846954346,28.69709587097168,-30.116836547851562,20.163480758666992,0.5714185237884521,1.1716604232788086,1.749149203300476,3.2237069606781006,8.64493465423584,-3.086538314819336
0_20251106_211518,1762434884220,0,0.28992214798927307,0.533134400844574,0.5585328936576843,0.5654678344726562,0.42140448093414307,2.7147159576416016,0.104103222489357,3.759214162826538,9.696889877319336,-0.9830626249313354,-1.1291109323501587,0.6184165477752686,0.37164628505706787,27.87353515625,-30.992530822753906,19.722700119018555,0.42840576171875,0.8415641784667969,1.6827806234359741,3.330808401107788,8.855325698852539,-2.6658432483673096
0_20251106_211518,1762434884240,0,0.29005181789398193,0.5283885598182678,0.5522332787513733,0.5759460926055908,0.503875732421875,2.7648847103118896,0.10820658504962921,4.021368026733398,9.6717529296875,-1.093191146850586,-1.160875916481018,0.556719183921814,0.36187243461608887,27.08692741394043,-31.86530303955078,19.229326248168945,0.4685804843902588,0.5405178070068359,1.0112855434417725,3.5527875423431396,9.131235122680664,-2.1044766902923584
0_20251106_211518,1762434884260,0,0.2907101809978485,0.5239012837409973,0.545499861240387,0.5860416889190674,0.544755220413208,2.790126323699951,0.11623206734657288,4.275142669677734,9.552046775817871,-0.48389291763305664,-1.1798126697540283,0.4101116359233856,0.3704245686531067,26.364971160888672,-32.671043395996094,18.712690353393555,0.5778841972351074,0.33664894104003906,1.2964670658111572,3.697258472442627,9.215397834777832,-1.7803599834442139
0_20251106_211518,1762434884277,0,0.2921237051486969,0.5201945900917053,0.5381184220314026,0.5953905582427979,0.5859841108322144,2.8154335021972656,0.12875322997570038,4.569616794586182,9.699284553527832,0.004503190517425537,-1.1370521783828735,0.32703402638435364,0.3563746511936188,26.364971160888672,-32.671043395996094,18.712690353393555,0.6978867053985596,0.38710975646972656,1.4278905391693115,3.871730089187622,9.312174797058105,-1.4233874082565308
0_20251106_211518,1762434884297,0,0.29377374053001404,0.5169067978858948,0.5306735634803772,0.6040611863136292,0.6293928027153015,2.844403028488159,0.1448473334312439,4.588769435882568,10.516868591308594,-0.2480742335319519,-1.0338159799575806,0.29587993025779724,0.2513059377670288,25.68108367919922,-33.44915771484375,18.184537887573242,0.5736312866210938,0.9637546539306641,0.9402504563331604,4.015138149261475,9.55311393737793,-1.1883246898651123
0_20251106_211518,1762434884318,0,0.2955609858036041,0.5134176015853882,0.5241866707801819,0.6117797493934631,0.6715306639671326,2.87626576423645,0.16298054158687592,4.311054229736328,10.981324195861816,-0.25286242365837097,-0.9531818628311157,0.23968040943145752,0.05582921952009201,25.099998474121094,-34.14408874511719,17.513212203979492,0.23673295974731445,1.1425676345825195,0.7483698129653931,4.074321269989014,9.838756561279297,-1.0012322664260864
0_20251106_211518,1762434884336,0,0.2985345125198364,0.5096280574798584,0.5188469290733337,0.618024468421936,0.7089155912399292,2.908048391342163,0.18206897377967834,3.83941650390625,10.941822052001953,-0.008664354681968689,-0.9391319751739502,0.25434115529060364,-0.0981086865067482,24.599685668945312,-34.696258544921875,16.861249923706055,-0.18792390823364258,0.8824520111083984,0.7940543293952942,4.027340412139893,10.059370040893555,-0.8027186989784241
0_20251106_211518,1762434884354,0,0.30224406719207764,0.5049133896827698,0.5144541263580322,0.6237370371818542,0.7393703460693359,2.9369306564331055,0.2002459168434143,3.4252374172210693,10.909501075744629,0.08590255677700043,-0.9146974086761475,0.29526910185813904,-0.11032598465681076,24.164234161376953,-35.169525146484375,16.253873825073242,-0.48168230056762695,0.6801052093505859,0.7108970284461975,3.9069197177886963,10.229395866394043,-0.6249944567680359
0_20251106_211518,1762434884373,0,0.3056933581829071,0.4998215138912201,0.5104320049285889,0.6294355988502502,0.7718344926834106,2.972057342529297,0.22375229001045227,3.3893258571624756,11.165669441223145,0.4246675372123718,-0.9146974086761475,0.29526910185813904,-0.11032598465681076,23.782140731811523,-35.575347900390625,15.501100540161133,-0.4140751361846924,0.749018669128418,0.8397296071052551,3.803400993347168,10.416650772094727,-0.4150620698928833
0_20251106_211518,1762434884391,0,0.3085108995437622,0.4954952299594879,0.5057469606399536,0.6352365612983704,0.7996063232421875,3.005002021789551,0.24765413999557495,3.809490203857422,11.59900188446045,1.1297296285629272,-0.8969823122024536,0.21830013394355774,0.1798347383737564,23.510339736938477,-35.949981689453125,14.861398696899414,0.004871368408203125,0.9458808898925781,1.2358334064483643,3.8046188354492188,10.653120994567871,-0.10610376298427582
0_20251106_211518,1762434884410,0,0.31054556369781494,0.4921925663948059,0.5001906156539917,0.6411842703819275,0.7996063232421875,3.005002021789551,0.24765413999557495,3.809490203857422,11.59900188446045,1.1297296285629272,-0.7961896061897278,0.15660279989242554,0.2561928331851959,23.21628189086914,-36.288536071777344,14.221506118774414,0.004871368408203125,0.9458808898925781,1.2358334064483643,3.8046188354492188,10.653120994567871,-0.10610376298427582
0_20251106_211518,1762434884429,0,0.3118285536766052,0.4897916913032532,0.4946446418762207,0.6466790437698364,0.8585349321365356,3.078835964202881,0.309235155582428,4.671365737915039,12.010786056518555,1.9820287227630615,-0.7961896061897278,0.15660279989242554,0.2561928331851959,22.961599349975586,-36.57447814941406,13.584142684936523,0.6183052062988281,0.9001245498657227,1.370879888534546,4.053060531616211,11.110661506652832,0.6111488938331604
0_20251106_211518,1762434884450,0,0.3127886950969696,0.48824524879455566,0.4900219142436981,0.6508904099464417,0.8904514908790588,3.1193037033081055,0.3463246822357178,4.764735221862793,12.087397575378418,2.166374444961548,-0.4351685643196106,-0.05109119787812233,0.11263963580131531,22.74508285522461,-36.83264923095703,12.921745300292969,0.5693397521972656,0.7813882827758789,1.24418044090271,4.195395469665527,11.306009292602539,0.9221940040588379
0_20251106_211518,1762434884469,0,0.3141515254974365,0.4874914586544037,0.48657965660095215,0.6533766984939575,0.8904514908790588,3.1193037033081055,0.3463246822357178,4.764735221862793,12.087397575378418,2.166374444961548,-0.30749785900115967,-0.04376082122325897,-0.03946567699313164,22.532217025756836,-37.004676818847656,12.436906814575195,0.5693397521972656,0.7813882827758789,1.24418044090271,4.195395469665527,11.306009292602539,0.9221940040588379
0_20251106_211518,1762434884488,0,0.31582286953926086,0.4863553047180176,0.4846375286579132,0.6548594236373901,0.9493304491043091,3.1924822330474854,0.422891765832901,4.376891613006592,11.306921005249023,2.1591920852661133,-0.19998565316200256,0.08390989899635315,-0.17141246795654297,22.33959197998047,-37.25032043457031,11.937950134277344,0.08225727081298828,-0.05074596405029297,0.744754433631897,4.2946343421936035,11.357666969299316,1.4144376516342163
0_20251106_211518,1762434884505,0,0.31722235679626465,0.48408693075180054,0.4843382239341736,0.6560840606689453,0.9750130772590637,3.2230544090270996,0.4583880603313446,4.216486930847168,10.81014633178711,1.7605745792388916,-0.19998565316200256,0.08390989899635315,-0.17141246795654297,22.185935974121094,-37.45550537109375,11.400707244873047,-0.06251811981201172,-0.4380168914794922,0.2769094705581665,4.27900505065918,11.248163223266602,1.483665108680725
0_20251106_211518,1762434884525,0,0.31863170862197876,0.48143383860588074,0.4850735366344452,0.6568096876144409,1.0009171962738037,3.2523703575134277,0.4962833523750305,3.882510185241699,10.276262283325195,1.6241109371185303,-0.08392135798931122,0.12361611425876617,-0.3400111198425293,22.072797775268555,-37.560142517089844,11.096822738647461,-0.3171958923339844,-0.7775201797485352,0.11235666275024414,4.199706077575684,11.05378246307373,1.5117542743682861
0_20251106_211518,1762434884545,0,0.3204515278339386,0.478689968585968,0.48636406660079956,0.6569754481315613,1.0228406190872192,3.276583194732666,0.5319631099700928,3.3163058757781982,9.857295036315918,1.4062479734420776,-0.015504508279263973,0.14499637484550476,-0.42369958758354187,21.96388816833496,-37.589439392089844,10.794523239135742,-0.7067201137542725,-0.9571905136108398,-0.08440506458282471,4.023025989532471,10.814485549926758,1.4906530380249023
0_20251106_211518,1762434884564,0,0.3223339915275574,0.47559767961502075,0.4885800778865814,0.6566560864448547,1.0228406190872192,3.276583194732666,0.5319631099700928,3.3163058757781982,9.857295036315918,1.4062479734420776,0.041305914521217346,0.1737070083618164,-0.4432472586631775,22.01582145690918,-37.55872344970703,10.553720474243164,-0.7067201137542725,-0.9571905136108398,-0.08440506458282471,4.023025989532471,10.814485549926758,1.4906530380249023
0_20251106_211518,1762434884583,0,0.32399576902389526,0.4723941683769226,0.4913714528083801,0.6560674905776978,1.0512890815734863,3.3095757961273193,0.5876302719116211,2.5394208431243896,9.610702514648438,0.47374653816223145,0.0180930495262146,0.09490546584129333,-0.4017084538936615,22.06565284729004,-37.55406188964844,10.407003402709961,-0.9979636669158936,-0.775975227355957,-0.7034902572631836,3.537384510040283,10.386677742004395,1.177236795425415
0_20251106_211518,1762434884602,0,0.3259454369544983,0.46988826990127563,0.49363887310028076,0.6551986336708069,1.060060739517212,3.322129011154175,0.6114879846572876,2.4017601013183594,9.716043472290039,0.6700626611709595,0.0180930495262146,0.09490546584129333,-0.4017084538936615,22.18136215209961,-37.44591522216797,10.359464645385742,-0.9084994792938232,-0.5365076065063477,-0.40573930740356445,3.3102595806121826,10.252551078796387,1.075801968574524
0_20251106_211518,1762434884620,0,0.32802942395210266,0.46801894903182983,0.49495431780815125,0.6545037627220154,1.066094994544983,3.3327369689941406,0.6334698796272278,2.472386360168457,9.772303581237793,0.8268760442733765,-0.06070849671959877,0.0008323030779138207,-0.24593797326087952,22.408660888671875,-37.29322052001953,10.34416389465332,-0.6702985763549805,-0.3841981887817383,-0.1991407871246338,3.1426849365234375,10.156501770019531,1.0260168313980103
0_20251106_211518,1762434884641,0,0.3297884166240692,0.4665205776691437,0.49582168459892273,0.6540328860282898,1.066094994544983,3.3327369689941406,0.6334698796272278,2.472386360168457,9.772303581237793,0.8268760442733765,-0.02100229077041149,-0.007719803135842085,-0.22211423516273499,22.652376174926758,-37.06439208984375,10.330936431884766,-0.6702985763549805,-0.3841981887817383,-0.1991407871246338,3.1426849365234375,10.156501770019531,1.0260168313980103
0_20251106_211518,1762434884659,0,0.3312757909297943,0.46531912684440613,0.49675530195236206,0.6534283757209778,1.0721447467803955,3.3498165607452393,0.6733206510543823,2.4173216819763184,9.69090461730957,0.7406885623931885,-0.014282778836786747,-0.013828449882566929,-0.22883374989032745,22.856121063232422,-36.88897705078125,10.396280288696289,-0.476107120513916,-0.31502819061279297,-0.1891220211982727,2.8934288024902344,10.005932807922363,0.9298105835914612
0_20251106_211518,1762434884680,0,0.3328171372413635,0.46417751908302307,0.4977186322212219,0.6527236700057983,1.0726056098937988,3.3564395904541016,0.6926985383033752,2.3981690406799316,9.625067710876465,0.9094724655151367,-0.014282778836786747,-0.013828449882566929,-0.22883374989032745,23.071643829345703,-36.72492218017578,10.421300888061523,-0.3962078094482422,-0.30469226837158203,-0.01627051830291748,2.794376850128174,9.929759979248047,0.9257429838180542
0_20251106_211518,1762434884699,0,0.33438438177108765,0.4629024267196655,0.4985635578632355,0.6521831154823303,1.071977138519287,3.3610599040985107,0.7095723748207092,2.420912981033325,9.53887939453125,1.0052363872528076,-0.04971293359994888,0.07108174264431,-0.2105078101158142,23.346586227416992,-36.58214569091797,10.461763381958008,-0.2987711429595947,-0.31270408630371094,0.06359469890594482,2.71968412399292,9.851583480834961,0.9416416883468628
0_20251106_211518,1762434884717,0,0.33551090955734253,0.46115121245384216,0.4995056688785553,0.652124285697937,1.0708556175231934,3.364586591720581,0.7244261503219604,2.4939329624176025,9.595141410827637,0.8065263032913208,-0.06987147033214569,0.16943097114562988,-0.19157101213932037,23.346586227416992,-36.58214569091797,10.461763381958008,-0.18060088157653809,-0.2051534652709961,-0.1080923080444336,2.6745338439941406,9.800294876098633,0.9146186113357544
0_20251106_211518,1762434884735,0,0.33614179491996765,0.4588202238082886,0.5005207061767578,0.6526650786399841,1.0699409246444702,3.3673462867736816,0.7379586100578308,2.735736846923828,9.560426712036133,0.6796389818191528,-0.06987147033214569,0.16943097114562988,-0.19157101213932037,23.523632049560547,-36.45787811279297,10.457489013671875,0.04896235466003418,-0.19189453125,-0.1879836916923523,2.686774492263794,9.752321243286133,0.8676226735115051
0_20251106_211518,1762434884755,0,0.33681952953338623,0.45626798272132874,0.501289427280426,0.6535143852233887,1.0698884725570679,3.369312047958374,0.7514675855636597,2.987117290496826,9.44072151184082,0.6126042604446411,-0.14256437122821808,0.11872919648885727,-0.19706878066062927,23.753864288330078,-36.24320983886719,10.524604797363281,0.24027442932128906,-0.24927997589111328,-0.20401477813720703,2.746842861175537,9.690001487731934,0.8166190385818481
0_20251106_211518,1762434884773,0,0.33798903226852417,0.4541165232658386,0.5016841292381287,0.6541059613227844,1.0708154439926147,3.370579481124878,0.7625625729560852,3.1415367126464844,9.52212142944336,0.6317570805549622,-0.14500783383846283,-0.015050177462399006,-0.25510093569755554,23.938064575195312,-36.20618438720703,10.532489776611328,0.31575512886047363,-0.13430404663085938,-0.14788955450057983,2.8257815837860107,9.656425476074219,0.779646635055542
0_20251106_211518,1762434884793,0,0.34013986587524414,0.45258629322052,0.5018342137336731,0.653936505317688,1.0708154439926147,3.370579481124878,0.7625625729560852,3.1415367126464844,9.52212142944336,0.6317570805549622,-0.17494021356105804,-0.07002800703048706,-0.4078170955181122,24.091838836669922,-36.070404052734375,10.473432540893555,0.31575512886047363,-0.13430404663085938,-0.14788955450057983,2.8257815837860107,9.656425476074219,0.779646635055542
0_20251106_211518,1762434884812,0,0.3437066972255707,0.450675368309021,0.5021780133247375,0.6531268358230591,1.0719088315963745,3.3759515285491943,0.7845073342323303,2.298813819885254,10.061990737915039,0.9370046257972717,-0.26718077063560486,0.00938440952450037,-0.6313936114311218,24.243104934692383,-35.97283935546875,10.467649459838867,-0.4366626739501953,0.2722024917602539,0.14744192361831665,2.735476493835449,9.789788246154785,0.7895627021789551
0_20251106_211518,1762434884832,0,0.3486485481262207,0.4468213617801666,0.5032275915145874,0.652347207069397,1.0719088315963745,3.3759515285491943,0.7845073342323303,2.298813819885254,10.061990737915039,0.9370046257972717,-0.3533127009868622,0.19875246286392212,-0.7828879952430725,24.483184814453125,-35.81854248046875,10.371740341186523,-0.4366626739501953,0.2722024917602539,0.14744192361831665,2.735476493835449,9.789788246154785,0.7895627021789551
0_20251106_211518,1762434884850,0,0.3539577126502991,0.4405733346939087,0.5050880908966064,0.6522998809814453,1.0624048709869385,3.3819191455841064,0.808347225189209,1.2609721422195435,9.68970775604248,1.2482373714447021,-0.3258238136768341,0.36246421933174133,-0.8195399045944214,24.748748779296875,-35.63794708251953,10.317890167236328,-1.0112920999526978,-0.09622764587402344,0.2786126136779785,2.272264242172241,9.785935401916504,0.9696247577667236
0_20251106_211518,1762434884870,0,0.35865023732185364,0.4330860376358032,0.5077852010726929,0.6526566743850708,1.0518852472305298,3.3836276531219482,0.8197430372238159,0.9078425168991089,9.449101448059082,0.7490679025650024,-0.24580051004886627,0.38812050223350525,-0.735240638256073,24.955595016479492,-35.42351531982422,10.248863220214844,-1.091537356376648,-0.2694673538208008,-0.17644548416137695,1.9993798732757568,9.718568801879883,0.9255133867263794
0_20251106_211518,1762434884889,0,0.3623028099536896,0.42602604627609253,0.5107592344284058,0.6529651284217834,1.038690447807312,3.384502649307251,0.8291528224945068,0.6504769325256348,9.475435256958008,0.6066190600395203,-0.24580051004886627,0.38812050223350525,-0.735240638256073,25.23727798461914,-35.16718292236328,10.237634658813477,-1.0791223049163818,-0.19450664520263672,-0.2551155090332031,1.7295992374420166,9.669941902160645,0.8617345690727234
0_20251106_211518,1762434884907,0,0.36541250348091125,0.4209493100643158,0.5123361349105835,0.6532894372940063,1.024228572845459,3.3850057125091553,0.8383699655532837,0.6792060732841492,9.554441452026367,1.1656410694122314,-0.2543526291847229,0.04053850844502449,-0.2520465850830078,25.542713165283203,-34.93330383300781,10.118730545043945,-0.8403145670890808,-0.09240055084228516,0.24312520027160645,1.51952064037323,9.646842002868652,0.922515869140625
0_20251106_211518,1762434884927,0,0.36780455708503723,0.4184178411960602,0.5121690034866333,0.6537042260169983,1.0073002576828003,3.38611102104187,0.850071907043457,0.9724831581115723,9.835747718811035,1.5714408159255981,-0.1615011841058731,-0.05231292545795441,-0.019918005913496017,25.900924682617188,-34.62117004394531,10.030403137207031,-0.4376300573348999,0.1511249542236328,0.5191398859024048,1.4101132154464722,9.684622764587402,1.0523009300231934
0_20251106_211518,1762434884946,0,0.36884498596191406,0.41784951090812683,0.511258602142334,0.6541939973831177,0.9926244020462036,3.3879852294921875,0.8615116477012634,1.3280068635940552,10.061990737915039,1.6348843574523926,-0.1615011841058731,-0.05231292545795441,-0.019918005913496017,26.204456329345703,-34.41307830810547,9.978551864624023,-0.06568515300750732,0.3018941879272461,0.46606671810150146,1.3936920166015625,9.760096549987793,1.1688176393508911
0_20251106_211518,1762434884965,0,0.3687423765659332,0.4179719388484955,0.5102989077568054,0.6549225449562073,0.9926244020462036,3.3879852294921875,0.8615116477012634,1.3280068635940552,10.061990737915039,1.6348843574523926,-0.10407988727092743,0.012438733130693436,0.11447223275899887,26.432052612304688,-34.259979248046875,9.922700881958008,-0.06568515300750732,0.3018941879272461,0.46606671810150146,1.3936920166015625,9.760096549987793,1.1688176393508911
0_20251106_211518,1762434884984,0,0.36835309863090515,0.41789376735687256,0.5093205571174622,0.6559522151947021,0.9656509160995483,3.397461414337158,0.8890294432640076,1.824782371520996,10.442651748657227,1.833594560623169,-0.06315195560455322,0.051534075289964676,0.05338576063513756,26.625219345092773,-34.05998229980469,9.961050033569336,0.30098795890808105,0.4328136444091797,0.4503558874130249,1.523794412612915,10.009838104248047,1.383238673210144
0_20251106_211518,1762434885003,0,0.3679172694683075,0.41743195056915283,0.5089753866195679,0.6567583084106445,0.9656509160995483,3.397461414337158,0.8890294432640076,1.824782371520996,10.442651748657227,1.833594560623169,-0.06315195560455322,0.051534075289964676,0.05338576063513756,26.76671028137207,-33.925132751464844,9.915019989013672,0.30098795890808105,0.4328136444091797,0.4503558874130249,1.523794412612915,10.009838104248047,1.383238673210144
0_20251106_211518,1762434885022,0,0.36719852685928345,0.4168098270893097,0.5091875195503235,0.6573909521102905,0.9542527794837952,3.4036881923675537,0.9037200808525085,1.7972501516342163,10.33132553100586,1.6707959175109863,0.010762674733996391,0.05947531759738922,0.06193786486983299,26.867313385009766,-33.86814880371094,9.879449844360352,0.21876466274261475,0.2571897506713867,0.23004579544067383,1.5784854888916016,10.074135780334473,1.4407501220703125
0_20251106_211518,1762434885041,0,0.36639416217803955,0.4166504740715027,0.5092573761940002,0.6578864455223083,0.9371588230133057,3.4148149490356445,0.9297323822975159,2.000748634338379,10.061990737915039,1.5858054161071777,0.03092121332883835,-0.00283288536593318,0.10164407640695572,26.914339065551758,-33.902099609375,9.826555252075195,0.28997576236724854,-0.02596759796142578,0.10030496120452881,1.7107728719711304,10.087958335876465,1.485500454902649
0_20251106_211518,1762434885060,0,0.3655562400817871,0.4171832501888275,0.5090734958648682,0.658157229423523,0.9306835532188416,3.4205515384674072,0.942378580570221,2.13840913772583,10.26788330078125,1.531938076019287,0.0541340671479702,-0.062086764723062515,0.09797888249158859,26.889558792114258,-33.91584014892578,9.784761428833008,0.34210896492004395,0.14393997192382812,0.03715014457702637,1.7963001728057861,10.123943328857422,1.4947879314422607
0_20251106_211518,1762434885080,0,0.36492565274238586,0.41816163063049316,0.508817195892334,0.6580844521522522,0.9306835532188416,3.4205515384674072,0.942378580570221,2.13840913772583,10.26788330078125,1.531938076019287,0.06024272367358208,-0.08041270077228546,0.02650771290063858,26.77957534790039,-33.93500518798828,9.726018905639648,0.34210896492004395,0.14393997192382812,0.03715014457702637,1.7963001728057861,10.123943328857422,1.4947879314422607
0_20251106_211518,1762434885099,0,0.36482933163642883,0.41898056864738464,0.5087949633598328,0.6576340794563293,0.9208388924598694,3.432767629623413,0.9673303961753845,2.0222954750061035,10.26908016204834,1.5905935764312744,0.03397553786635399,-0.013217583298683167,-0.08039361238479614,26.77957534790039,-33.93500518798828,9.726018905639648,0.1266334056854248,0.09039878845214844,0.05997490882873535,1.8956620693206787,10.178681373596191,1.530618667602539
0_20251106_211518,1762434885119,0,0.3651629090309143,0.41873928904533386,0.5092738270759583,0.6572318077087402,0.9162988662719727,3.4386146068573,0.9790277481079102,1.8606936931610107,10.148178100585938,1.4601151943206787,-0.0020654844120144844,0.07902298867702484,-0.1860732138156891,26.77130889892578,-33.87248229980469,9.672782897949219,-0.027974724769592285,-0.024402618408203125,-0.05640280246734619,1.888668417930603,10.17258071899414,1.516517996788025
0_20251106_211518,1762434885137,0,0.3658912181854248,0.4172895550727844,0.5102621912956238,0.6569821238517761,0.9121138453483582,3.443143129348755,0.9878841042518616,1.6524072885513306,10.084733963012695,1.2482373714447021,-0.03993909806013107,0.1168965995311737,-0.2667073607444763,26.77130889892578,-33.87248229980469,9.672782897949219,-0.18900883197784424,-0.07027721405029297,-0.2146245241165161,1.8414161205291748,10.155011177062988,1.4628618955612183
0_20251106_211518,1762434885156,0,0.36710476875305176,0.415086030960083,0.5114837884902954,0.6567511558532715,0.9121138453483582,3.443143129348755,0.9878841042518616,1.6524072885513306,10.084733963012695,1.2482373714447021,-0.09858210384845734,0.10529017448425293,-0.32168519496917725,26.793651580810547,-33.9200439453125,9.564577102661133,-0.18900883197784424,-0.07027721405029297,-0.2146245241165161,1.8414161205291748,10.155011177062988,1.4628618955612183
0_20251106_211518,1762434885175,0,0.36901864409446716,0.41253772377967834,0.5125141739845276,0.6564808487892151,0.9007060527801514,3.4516801834106445,1.0064207315444946,1.4608793258666992,10.008123397827148,1.7581806182861328,-0.14317522943019867,0.10590103268623352,-0.365667462348938,26.819026947021484,-33.905494689941406,9.525272369384766,-0.2504386901855469,-0.10128593444824219,0.24856925010681152,1.711318016052246,10.10940933227539,1.5096113681793213
0_20251106_211518,1762434885194,0,0.37133505940437317,0.40953654050827026,0.5134629011154175,0.6563124060630798,0.8936360478401184,3.455261468887329,1.0167734622955322,1.3471596240997314,9.98178768157959,1.816835880279541,-0.1053016185760498,0.11811833083629608,-0.4120931625366211,26.969388961791992,-33.82075500488281,9.546257019042969,-0.29132676124572754,-0.1020975112915039,0.24577951431274414,1.638486385345459,10.083885192871094,1.5710563659667969
0_20251106_211518,1762434885214,0,0.37368589639663696,0.40627384185791016,0.514846920967102,0.6559215188026428,0.8860882520675659,3.458177328109741,1.0259339809417725,1.2130900621414185,9.968620300292969,1.5044059753417969,-0.03688477352261543,0.1175074651837349,-0.4542428255081177,27.08611297607422,-33.68803405761719,9.55331039428711,-0.3403170108795166,-0.09221172332763672,-0.05332028865814209,1.553407073020935,10.060832023620605,1.557726263999939
0_20251106_211518,1762434885232,0,0.376018762588501,0.4030192196369171,0.5168166756629944,0.6550465226173401,0.8780239224433899,3.4600586891174316,1.0333956480026245,1.0371237993240356,9.759136199951172,1.2398581504821777,-0.022224020212888718,0.11017708480358124,-0.4890621304512024,27.22720718383789,-33.55372619628906,9.561344146728516,-0.41302669048309326,-0.24135684967041016,-0.2542945146560669,1.450150489807129,10.000493049621582,1.4941526651382446
0_20251106_211518,1762434885252,0,0.37862512469291687,0.39979684352874756,0.5189602375030518,0.653823971748352,0.8669875264167786,3.4604482650756836,1.0410261154174805,0.8240490555763245,9.494588851928711,1.3033016920089722,-0.06681714206933975,0.14499637484550476,-0.48722952604293823,27.453407287597656,-33.41413116455078,9.599843978881836,-0.5008811354637146,-0.40472412109375,-0.15268075466156006,1.324930191040039,9.899312973022461,1.4559824466705322
0_20251106_211518,1762434885270,0,0.3811613917350769,0.3961881697177887,0.52099609375,0.6529272198677063,0.8567113876342773,3.4593679904937744,1.0467278957366943,0.8013051152229309,9.33178997039795,1.2482374906539917,-0.06681714206933975,0.14499637484550476,-0.48722952604293823,27.69410514831543,-33.23579406738281,9.612594604492188,-0.4189000725746155,-0.45401859283447266,-0.16619598865509033,1.2202051877975464,9.785808563232422,1.414433479309082
0_20251106_211518,1762434885290,0,0.38323718309402466,0.3922479450702667,0.5227634310722351,0.6526784896850586,0.8567113876342773,3.4593679904937744,1.0467278957366943,0.8013051152229309,9.33178997039795,1.2482374906539917,-0.11629718542098999,0.18775691092014313,-0.355893611907959,27.94588851928711,-33.06976318359375,9.679636001586914,-0.4189000725746155,-0.45401859283447266,-0.16619598865509033,1.2202051877975464,9.785808563232422,1.414433479309082
0_20251106_211518,1762434885310,0,0.38494497537612915,0.388843297958374,0.5241122245788574,0.652629017829895,0.8332123756408691,3.452805995941162,1.05656099319458,0.9449509978294373,9.24919319152832,1.1656410694122314,-0.06864973902702332,0.09368373453617096,-0.2691507935523987,28.204425811767578,-32.778564453125,9.789865493774414,-0.1608404517173767,-0.34285926818847656,-0.1693781614303589,1.105791449546814,9.592052459716797,1.3350192308425903
0_20251106_211518,1762434885328,0,0.3863438665866852,0.3866165578365326,0.5250979065895081,0.6523329615592957,0.8332123756408691,3.452805995941162,1.05656099319458,0.9449509978294373,9.24919319152832,1.1656410694122314,-0.02100229077041149,-0.023602282628417015,-0.18240803480148315,28.42035484313965,-32.60235595703125,9.85569953918457,-0.1608404517173767,-0.34285926818847656,-0.1693781614303589,1.105791449546814,9.592052459716797,1.3350192308425903
0_20251106_211518,1762434885347,0,0.38762167096138,0.38578304648399353,0.5256005525588989,0.6516631841659546,0.8108174800872803,3.4445245265960693,1.0624009370803833,0.8575664162635803,9.439525604248047,1.0184040069580078,-0.011228455230593681,-0.07430405914783478,-0.0877239927649498,28.599109649658203,-32.45256805419922,9.811403274536133,-0.16077929735183716,-0.08440113067626953,-0.2110610008239746,1.0183457136154175,9.523926734924316,1.2294650077819824
0_20251106_211518,1762434885366,0,0.3885098397731781,0.38576212525367737,0.5256623029708862,0.6510966420173645,0.7989765405654907,3.4407286643981934,1.0643285512924194,0.8850985765457153,9.680131912231445,1.0219950675964355,-0.046047743409872055,-0.0681954100728035,-0.011365902610123158,28.792163848876953,-32.264312744140625,9.768390655517578,-0.10659772157669067,0.12496376037597656,-0.1659759283065796,0.991696298122406,9.555168151855469,1.1879709959030151
0_20251106_211518,1762434885385,0,0.3890891969203949,0.3860200047492981,0.5252186059951782,0.6509559154510498,0.7989765405654907,3.4407286643981934,1.0643285512924194,0.8850985765457153,9.680131912231445,1.0219950675964355,-0.10346902906894684,-0.009552396833896637,0.030783765017986298,28.958236694335938,-32.115997314453125,9.79118537902832,-0.10659772157669067,0.12496376037597656,-0.1659759283065796,0.991696298122406,9.555168151855469,1.1879709959030151
0_20251106_211518,1762434885404,0,0.3893243074417114,0.38592007756233215,0.524485170841217,0.6514657139778137,0.7779366374015808,3.436338424682617,1.0692107677459717,1.0754293203353882,9.925525665283203,1.5020118951797485,-0.1211840957403183,0.04481456056237221,0.0564400851726532,29.114238739013672,-31.930801391601562,9.814281463623047,0.07657241821289062,0.2527341842651367,0.22818315029144287,0.9988569021224976,9.672791481018066,1.2738287448883057
0_20251106_211518,1762434885423,0,0.38913705945014954,0.38545817136764526,0.523749053478241,0.6524425745010376,0.7690768241882324,3.4354708194732666,1.072187066078186,1.0885969400405884,9.939891815185547,1.470888614654541,-0.06864973902702332,0.016103921458125114,0.08942677825689316,29.130146026611328,-31.86695098876953,9.789058685302734,0.07179200649261475,0.21368026733398438,0.15764784812927246,1.0168049335479736,9.726211547851562,1.3132407665252686
0_20251106_211518,1762434885442,0,0.3886641561985016,0.3855178952217102,0.5230913162231445,0.6532163023948669,0.7601504325866699,3.435408353805542,1.075731635093689,1.156828761100769,10.006926536560059,1.4457507133483887,-0.03138699010014534,-0.06575195491313934,0.1382959485054016,29.181289672851562,-31.837310791015625,9.65638542175293,0.11201906204223633,0.22457218170166016,0.10600793361663818,1.0448096990585327,9.782354354858398,1.3397427797317505
0_20251106_211518,1762434885462,0,0.3882004916667938,0.3865075409412384,0.5221630930900574,0.6536497473716736,0.7527268528938293,3.4363229274749756,1.079582691192627,1.275336742401123,10.136207580566406,1.5774259567260742,-0.03444131463766098,-0.13905572891235352,0.16761744022369385,29.203433990478516,-31.88513946533203,9.575212478637695,0.18442165851593018,0.2830829620361328,0.19014644622802734,1.0909150838851929,9.853124618530273,1.3872795104980469
0_20251106_211518,1762434885480,0,0.38799384236335754,0.3881535530090332,0.5207951068878174,0.6538884043693542,0.7464070320129395,3.438283681869507,1.0844755172729492,1.3579330444335938,10.251123428344727,1.8371858596801758,-0.03444131463766098,-0.13905572891235352,0.16761744022369385,29.19485855102539,-31.834625244140625,9.467647552490234,0.2136143445968628,0.31839942932128906,0.35992515087127686,1.144318699836731,9.932723999023438,1.477260708808899
0_20251106_211518,1762434885500,0,0.38810601830482483,0.3898182511329651,0.5192927122116089,0.6540263891220093,0.7407329678535461,3.4417872428894043,1.0909501314163208,1.3567360639572144,10.440258026123047,1.9975903034210205,-0.048491206020116806,-0.14149917662143707,0.06010527163743973,29.11226463317871,-31.80170440673828,9.383909225463867,0.16993391513824463,0.40602684020996094,0.4162636995315552,1.1868021488189697,10.034231185913086,1.5813266038894653
0_20251106_211518,1762434885521,0,0.38855892419815063,0.39080339670181274,0.5182084441184998,0.6540295481681824,0.7357795238494873,3.446148633956909,1.097965121269226,1.2478045225143433,10.471380233764648,2.008363723754883,-0.0539889857172966,-0.06941713392734528,-0.0828370749950409,29.0711669921875,-31.891448974609375,9.32652473449707,0.04880189895629883,0.3497200012207031,0.3416297435760498,1.1990026235580444,10.121660232543945,1.666733980178833
0_20251106_211518,1762434885540,0,0.38957610726356506,0.3905918598175049,0.5178750157356262,0.6538149118423462,0.7357795238494873,3.446148633956909,1.097965121269226,1.2478045225143433,10.471380233764648,2.008363723754883,-0.10224729776382446,0.008162680082023144,-0.24593797326087952,29.0711669921875,-31.891448974609375,9.32652473449707,0.04880189895629883,0.3497200012207031,0.3416297435760498,1.1990026235580444,10.121660232543945,1.666733980178833
0_20251106_211518,1762434885558,0,0.39138928055763245,0.388879656791687,0.5181601047515869,0.6535267233848572,0.7226862907409668,3.456494092941284,1.115016222000122,0.40149062871932983,10.266685485839844,2.3782522678375244,-0.16516636312007904,0.06619483232498169,-0.355282723903656,29.045978546142578,-31.917343139648438,9.243917465209961,-0.5870188474655151,0.0700235366821289,0.5124469995498657,0.988509476184845,10.196661949157715,1.8658052682876587
0_20251106_211518,1762434885576,0,0.3938361704349518,0.3859560787677765,0.5187222361564636,0.6533438563346863,0.713784396648407,3.460738182067871,1.1245611906051636,0.017237767577171326,10.085930824279785,2.462045669555664,-0.16516636312007904,0.06619483232498169,-0.355282723903656,29.029834747314453,-32.01630401611328,9.011539459228516,-0.77701735496521,-0.08858489990234375,0.4769923686981201,0.7942551374435425,10.174515724182129,1.985053300857544
0_20251106_211518,1762434885595,0,0.3960334062576294,0.38248977065086365,0.5198253393173218,0.6531773805618286,0.713784396648407,3.460738182067871,1.1245611906051636,0.017237767577171326,10.085930824279785,2.462045669555664,-0.0002328893169760704,0.17615047097206116,-0.30702441930770874,29.084712982177734,-31.91199493408203,8.948030471801758,-0.77701735496521,-0.08858489990234375,0.4769923686981201,0.7942551374435425,10.174515724182129,1.985053300857544
0_20251106_211518,1762434885615,0,0.397091805934906,0.3795243203639984,0.5216784477233887,0.6527870893478394,0.6875804662704468,3.4653820991516113,1.1438452005386353,-0.2712511420249939,9.58077621459961,1.6456577777862549,0.09322941303253174,0.13644427061080933,-0.1591951698064804,29.114723205566406,-31.809951782226562,8.951122283935547,-0.6897766590118408,-0.40546703338623047,-0.2980380058288574,0.4185255169868469,9.98624324798584,1.9436957836151123
0_20251106_211518,1762434885636,0,0.39710453152656555,0.3779069185256958,0.5234677791595459,0.652285099029541,0.6716508269309998,3.4655869007110596,1.1513168811798096,-0.058176346123218536,9.585563659667969,1.4780709743499756,0.09933806955814362,0.048479750752449036,0.016123011708259583,29.157018661499023,-31.70697784423828,8.94118881225586,-0.3813614845275879,-0.3205432891845703,-0.372499942779541,0.32318514585494995,9.906106948852539,1.8505709171295166
0_20251106_211518,1762434885653,0,0.39644455909729004,0.37781205773353577,0.5243796706199646,0.6520090103149414,0.6592540144920349,3.4652769565582275,1.1563972234725952,0.25664764642715454,9.69329833984375,1.5474998950958252,0.10239239037036896,-0.0010002910858020186,0.1444045901298523,29.307777404785156,-31.6217041015625,8.908109664916992,-0.05322998762130737,-0.17024707794189453,-0.24245679378509521,0.3098776340484619,9.863545417785645,1.7899566888809204
0_20251106_211518,1762434885672,0,0.3952587842941284,0.37878698110580444,0.5246168971061707,0.6519724130630493,0.6465563774108887,3.4646384716033936,1.161001443862915,0.47929883003234863,9.750757217407227,1.502012014389038,0.11705313622951508,0.013049597851932049,0.18411079049110413,29.443443298339844,-31.575973510742188,8.981878280639648,0.13553696870803833,-0.09022998809814453,-0.23035573959350586,0.3437618613243103,9.840987205505371,1.732367753982544
0_20251106_211518,1762434885691,0,0.393711656332016,0.3799978196620941,0.5247860550880432,0.6520677804946899,0.635869026184082,3.4639742374420166,1.164421796798706,0.6444916725158691,9.804624557495117,1.438568353652954,0.09567287564277649,0.06436223536729813,0.18105646967887878,29.561378479003906,-31.418411254882812,9.01649284362793,0.2405838668346405,-0.029089927673339844,-0.23503947257995605,0.40390780568122864,9.833714485168457,1.6736078262329102
0_20251106_211518,1762434885710,0,0.39191654324531555,0.38078010082244873,0.5250417590141296,0.6524868607521057,0.635869026184082,3.4639742374420166,1.164421796798706,0.6444916725158691,9.804624557495117,1.438568353652954,0.061464447528123856,0.11139881610870361,0.16700658202171326,29.659881591796875,-31.387481689453125,9.075010299682617,0.2405838668346405,-0.029089927673339844,-0.23503947257995605,0.40390780568122864,9.833714485168457,1.6736078262329102
0_20251106_211518,1762434885730,0,0.3901306390762329,0.3811444640159607,0.5252698659896851,0.6531603932380676,0.6188374757766724,3.463442087173462,1.169649362564087,1.0873998403549194,9.965028762817383,1.4146273136138916,0.06451877951622009,0.11384227871894836,0.1389068067073822,29.674209594726562,-31.325790405273438,9.266048431396484,0.4663556218147278,0.09112834930419922,-0.17781388759613037,0.6210442185401917,9.873900413513184,1.592441201210022
0_20251106_211518,1762434885750,0,0.3884447515010834,0.3813759982585907,0.5256074666976929,0.6537582278251648,0.6188374757766724,3.463442087173462,1.169649362564087,1.0873998403549194,9.965028762817383,1.4146273136138916,0.06879483163356781,0.05764272063970566,0.11508309841156006,29.658809661865234,-31.377349853515625,9.318567276000977,0.4663556218147278,0.09112834930419922,-0.17781388759613037,0.6210442185401917,9.873900413513184,1.592441201210022
0_20251106_211518,1762434885767,0,0.3871472179889679,0.38188761472702026,0.5258410573005676,0.6540413498878479,0.6092248558998108,3.4638798236846924,1.1724611520767212,1.1077497005462646,9.905177116394043,1.549893856048584,0.07734693586826324,0.00938440952450037,0.09797888249158859,29.58108139038086,-31.446380615234375,9.462984085083008,0.3099592924118042,0.010057449340820312,-0.003289341926574707,0.7977904081344604,9.895119667053223,1.5531831979751587
0_20251106_211518,1762434885787,0,0.38621750473976135,0.3826889395713806,0.5259794592857361,0.6540113091468811,0.6092248558998108,3.4638798236846924,1.1724611520767212,1.1077497005462646,9.905177116394043,1.549893856048584,0.09933806955814362,0.008162680082023144,0.07965294271707535,29.50465202331543,-31.502052307128906,9.526567459106445,0.3099592924118042,0.010057449340820312,-0.003289341926574707,0.7977904081344604,9.895119667053223,1.5531831979751587
0_20251106_211518,1762434885806,0,0.38522055745124817,0.3833635449409485,0.5263644456863403,0.6538944840431213,0.6059003472328186,3.4642927646636963,1.1740273237228394,1.1304937601089478,9.93869400024414,1.5726377964019775,0.11216622591018677,0.04053850844502449,0.04910970851778984,29.376571655273438,-31.599647521972656,9.695526123046875,0.2661626935005188,0.034859657287597656,0.015563726425170898,0.864331066608429,9.903834342956543,1.5570740699768066
0_20251106_211518,1762434885825,0,0.3842650055885315,0.38377392292022705,0.5270179510116577,0.6536895632743835,0.6023948788642883,3.4644124507904053,1.1751028299331665,1.08620285987854,9.756742477416992,1.2266905307769775,0.07673606276512146,0.08513163030147552,0.021620795130729675,29.275474548339844,-31.657302856445312,9.798677444458008,0.1408488154411316,-0.1123342514038086,-0.24630355834960938,0.9453540444374084,9.8690767288208,1.472994089126587
0_20251106_211518,1762434885844,0,0.3833498954772949,0.38361746072769165,0.5277523994445801,0.6537261605262756,0.6011866331100464,3.4634692668914795,1.1747004985809326,1.047897219657898,9.568805694580078,1.2769665718078613,0.024812564253807068,0.08329904079437256,0.005738310981541872,29.17206382751465,-31.752899169921875,9.928068161010742,0.08203458786010742,-0.24021625518798828,-0.15682196617126465,0.9658626317977905,9.809021949768066,1.433788537979126
0_20251106_211518,1762434885863,0,0.3827405571937561,0.3832438886165619,0.5282288789749146,0.6539174318313599,0.6011866331100464,3.4634692668914795,1.1747004985809326,1.047897219657898,9.568805694580078,1.2769665718078613,-0.0032872138544917107,0.07230347394943237,0.024675119668245316,29.098552703857422,-31.758201599121094,9.979190826416016,0.08203458786010742,-0.24021625518798828,-0.15682196617126465,0.9658626317977905,9.809021949768066,1.433788537979126
0_20251106_211518,1762434885882,0,0.3821781873703003,0.3829173743724823,0.5284119844436646,0.6542896032333374,0.5994518995285034,3.459550380706787,1.1734997034072876,1.0167739391326904,9.548456192016602,1.3260457515716553,0.02114737778902054,0.04176023602485657,0.054607488214969635,29.046396255493164,-31.812416076660156,10.057270050048828,0.029135704040527344,-0.1619739532470703,-0.07987236976623535,0.9876382350921631,9.710430145263672,1.4059181213378906
0_20251106_211518,1762434885900,0,0.3815421760082245,0.3830348253250122,0.5284871459007263,0.6545313000679016,0.5990404486656189,3.4573440551757812,1.1724704504013062,1.1101438999176025,9.613096237182617,1.251828670501709,0.02114737778902054,0.04176023602485657,0.054607488214969635,28.981460571289062,-31.86823272705078,10.215957641601562,0.09800457954406738,-0.07786750793457031,-0.12327158451080322,1.0121393203735352,9.690963745117188,1.3751002550125122
0_20251106_211518,1762434885920,0,0.38076797127723694,0.3833742141723633,0.5283889174461365,0.6548627018928528,0.5994172096252441,3.455065965652466,1.1711366176605225,1.2789278030395508,9.707662582397461,1.2937252521514893,0.016260460019111633,0.024656027555465698,0.08698331564664841,29.015804290771484,-31.903656005859375,10.230154037475586,0.2134307622909546,0.01335906982421875,-0.06510007381439209,1.0654970407485962,9.694303512573242,1.3588253259658813
0_20251106_211518,1762434885940,0,0.38012394309043884,0.38380783796310425,0.527991771697998,0.6553030014038086,0.6004544496536255,3.453223943710327,1.1702994108200073,1.3196275234222412,9.77230453491211,1.4924355745315552,-0.014282778836786747,0.0008323030779138207,0.097368024289608,28.98861312866211,-31.955474853515625,10.228116989135742,0.20330440998077393,0.06240081787109375,0.10688817501068115,1.1163231134414673,9.709903717041016,1.385547399520874
0_20251106_211518,1762434885959,0,0.3797290325164795,0.3842461407184601,0.5273780822753906,0.6557691097259521,0.6022480130195618,3.4517245292663574,1.1697763204574585,1.3651152849197388,9.822580337524414,1.488844394683838,-0.017947968095541,-0.006498073693364859,0.06010527163743973,28.964340209960938,-31.956932067871094,10.213619232177734,0.1990337371826172,0.09014129638671875,0.08263766765594482,1.1660815477371216,9.732439041137695,1.406206727027893
0_20251106_211518,1762434885979,0,0.37945079803466797,0.3845975697040558,0.5269657969474792,0.6560555100440979,0.6043568253517151,3.4504103660583496,1.1686171293258667,1.299277663230896,9.768712997436523,1.188385009765625,0.016871323809027672,-0.016882773488759995,0.024064254015684128,28.951251983642578,-31.970550537109375,10.239896774291992,0.10655689239501953,0.02901935577392578,-0.17425739765167236,1.1927207708358765,9.739693641662598,1.3626424074172974
0_20251106_211518,1762434885998,0,0.37928256392478943,0.38493695855140686,0.5268842577934265,0.6560192704200745,0.6061779856681824,3.449317216873169,1.1668236255645752,1.1628140211105347,9.773500442504883,1.0902268886566162,-0.006341537460684776,-0.039484769105911255,0.0014622583985328674,28.951251983642578,-31.970550537109375,10.239896774291992,-0.023925423622131348,0.027045249938964844,-0.21793246269226074,1.186739444732666,9.746455192565918,1.308159351348877
0_20251106_211518,1762434886016,0,0.37942683696746826,0.3852320909500122,0.5267177224159241,0.6558963060379028,0.6075665354728699,3.4482436180114746,1.1649705171585083,1.085005760192871,9.710057258605957,1.2111289501190186,-0.07048232853412628,-0.017493637278676033,0.004516582004725933,28.91379165649414,-31.985763549804688,10.265193939208984,-0.08138692378997803,-0.02911853790283203,-0.07762432098388672,1.1663926839828491,9.739175796508789,1.2887532711029053
0_20251106_211518,1762434886035,0,0.3796805739402771,0.3851565718650818,0.5262542963027954,0.6561657786369324,0.6087914705276489,3.447399139404297,1.1633163690567017,1.1053557395935059,9.82377815246582,1.3631541728973389,-0.11507545411586761,-0.013217585161328316,0.0203990638256073,28.88418960571289,-32.075653076171875,10.302913665771484,-0.04882955551147461,0.06768226623535156,0.059520721435546875,1.1541852951049805,9.756095886230469,1.303633451461792
0_20251106_211518,1762434886054,0,0.38000568747520447,0.3849549889564514,0.5254542231559753,0.6567367911338806,0.6097686290740967,3.4468746185302734,1.1624337434768677,1.08620285987854,9.857295036315918,1.5546820163726807,-0.09613864123821259,-0.03154352679848671,0.021009929478168488,28.834938049316406,-32.09111785888672,10.27365493774414,-0.05438590049743652,0.08095932006835938,0.20083880424499512,1.1405887603759766,9.776335716247559,1.3538432121276855
0_20251106_211518,1762434886073,0,0.3803447186946869,0.38491639494895935,0.5246931910514832,0.6571714282035828,0.6097686290740967,3.4468746185302734,1.1624337434768677,1.08620285987854,9.857295036315918,1.5546820163726807,-0.06864973902702332,-0.04803687706589699,0.02650771290063858,28.784770965576172,-32.131019592285156,10.176286697387695,-0.05438590049743652,0.08095932006835938,0.20083880424499512,1.1405887603759766,9.776335716247559,1.3538432121276855
0_20251106_211518,1762434886093,0,0.38063350319862366,0.38507798314094543,0.5239971876144409,0.657464861869812,0.6106982827186584,3.4479269981384277,1.1626795530319214,1.0083945989608765,10.035655975341797,1.628899097442627,-0.06864973902702332,-0.04803687706589699,0.02650771290063858,28.650821685791016,-32.139617919921875,10.15737533569336,-0.08843481540679932,0.16654014587402344,0.1842714548110962,1.0968294143676758,9.869115829467773,1.4446276426315308
0_20251106_211518,1762434886112,0,0.3809809386730194,0.38540545105934143,0.5235278010368347,0.6574456691741943,0.6107133030891418,3.4492056369781494,1.163591742515564,1.0048035383224487,10.058399200439453,1.6217167377471924,-0.03505218029022217,-0.04437168315052986,0.01734474115073681,28.600879669189453,-32.156028747558594,10.22273063659668,-0.07362067699432373,0.1514263153076172,0.1416712999343872,1.0784242153167725,9.906972885131836,1.4800454378128052
0_20251106_211518,1762434886131,0,0.3811872899532318,0.38539019227027893,0.5232013463973999,0.6575948596000671,0.6107133030891418,3.4492056369781494,1.163591742515564,1.0048035383224487,10.058399200439453,1.6217167377471924,-0.06315195560455322,-0.02482401393353939,-0.004035524092614651,28.52846908569336,-32.14823913574219,10.220052719116211,-0.07362067699432373,0.1514263153076172,0.1416712999343872,1.0784242153167725,9.906972885131836,1.4800454378128052
