session_id,timestamp,label,quaternion_w,quaternion_x,quaternion_y,quaternion_z,position_x,position_y,position_z,accelerometer_x,accelerometer_y,accelerometer_z,gyroscope_x,gyroscope_y,gyroscope_z,magnetometer_x,magnetometer_y,magnetometer_z,linear_acceleration_x,linear_acceleration_y,linear_acceleration_z,gravity_x,gravity_y,gravity_z
3_20251106_150758,1762412841571,3,0.18903721868991852,0.35332822799682617,0.7660818696022034,0.5025362372398376,0.8016813397407532,1.821260929107666,-2.24521541595459,1.0730352401733398,8.679398536682129,-4.264174938201904,0.09653954207897186,0.12608247995376587,0.2283565104007721,16.64928436279297,-11.035797119140625,22.549314498901367,0.47633349895477295,-0.05392265319824219,-0.10057687759399414,0.5967017412185669,8.733321189880371,-4.16359806060791
3_20251106_150758,1762412841590,3,0.18697680532932281,0.35432860255241394,0.7659879922866821,0.5027457475662231,0.8109948039054871,1.8132004737854004,-2.253512144088745,1.1245085000991821,8.699747085571289,-4.267765998840332,-0.012805252335965633,0.17739512026309967,0.07014253735542297,16.514955520629883,-11.0333251953125,22.679346084594727,0.4222453832626343,-0.026859283447265625,-0.08333444595336914,0.7022631168365479,8.726606369018555,-4.184431552886963
3_20251106_150758,1762412841610,3,0.18517616391181946,0.3544332981109619,0.7659828662872314,0.5033459067344666,0.8305374979972839,1.800508737564087,-2.2686123847961426,1.203513741493225,9.063650131225586,-4.172002792358398,-0.06839393824338913,0.15601485967636108,0.039599306881427765,16.415773391723633,-11.053581237792969,22.810319900512695,0.32348185777664185,0.2566947937011719,0.03783273696899414,0.8800318837165833,8.806955337524414,-4.209835529327393
3_20251106_150758,1762412841628,3,0.18375954031944275,0.35402506589889526,0.7658724784851074,0.504319429397583,0.8417186737060547,1.7955478429794312,-2.27516508102417,1.1676021814346313,9.116320610046387,-3.906256914138794,-0.059841834008693695,0.13158026337623596,0.012110394425690174,16.404417037963867,-11.018455505371094,22.9863338470459,0.2300562858581543,0.24749279022216797,0.24286293983459473,0.937545895576477,8.868827819824219,-4.149119853973389
3_20251106_150758,1762412841648,3,0.1828252375125885,0.35357603430747986,0.7656022906303406,0.5053830742835999,0.8528327345848083,1.791434645652771,-2.28092098236084,1.0993704795837402,9.066045761108398,-3.9948391914367676,0.007964150980114937,0.11386518180370331,-0.0019394941627979279,16.32931137084961,-11.037528991699219,23.158838272094727,0.1294596791267395,0.1577739715576172,0.12342453002929688,0.9699108004570007,8.908271789550781,-4.1182637214660645
3_20251106_150758,1762412841666,3,0.18196260929107666,0.3529876172542572,0.7656208872795105,0.5060771107673645,0.8528327345848083,1.791434645652771,-2.28092098236084,1.0993704795837402,9.066045761108398,-3.9948391914367676,0.051335543394088745,0.08576540648937225,0.02860374189913273,16.206363677978516,-11.046951293945312,23.302614212036133,0.1294596791267395,0.1577739715576172,0.12342453002929688,0.9699108004570007,8.908271789550781,-4.1182637214660645
3_20251106_150758,1762412841686,3,0.18097025156021118,0.35258588194847107,0.7659128308296204,0.5062711834907532,0.8727965950965881,1.785661220550537,-2.291776418685913,0.9976211786270142,9.130685806274414,-4.234249114990234,0.04889208823442459,0.058887358754873276,0.05731438472867012,16.11856460571289,-11.079109191894531,23.44733238220215,0.011222660541534424,0.1494312286376953,-0.07921075820922852,0.9863985180854797,8.981254577636719,-4.155038356781006
3_20251106_150758,1762412841706,3,0.1799716204404831,0.35264506936073303,0.7661380171775818,0.5062451958656311,0.8826346397399902,1.783856749534607,-2.2970011234283447,1.0167739391326904,9.226449966430664,-4.08820915222168,0.04889208823442459,0.058887358754873276,0.05731438472867012,16.02794647216797,-11.161491394042969,23.590993881225586,0.024300336837768555,0.19615650177001953,0.05346345901489258,0.9924736022949219,9.030293464660645,-4.141672611236572
3_20251106_150758,1762412841725,3,0.17906197905540466,0.352853924036026,0.7662162780761719,0.5063037872314453,0.8914750814437866,1.7826710939407349,-2.301192045211792,0.9784683585166931,9.19173526763916,-3.950547933578491,0.03362046927213669,0.10286962985992432,0.006612611934542656,15.939342498779297,-11.206336975097656,23.748964309692383,-0.011204183101654053,0.12915325164794922,0.15289950370788574,0.9896725416183472,9.062582015991211,-4.103447437286377
3_20251106_150758,1762412841743,3,0.17817074060440063,0.3527302145957947,0.7663540840148926,0.5064958333969116,0.8992712497711182,1.7817569971084595,-2.3050177097320557,0.9246011972427368,9.124700546264648,-4.125317573547363,0.04889208823442459,0.14685188233852386,-0.02698494866490364,15.878721237182617,-11.198287963867188,23.800840377807617,-0.05205702781677246,0.04969501495361328,-0.017496109008789062,0.9766582250595093,9.075005531311035,-4.107821464538574
3_20251106_150758,1762412841761,3,0.17698243260383606,0.35186657309532166,0.7666165828704834,0.5071155428886414,0.9065877199172974,1.7810581922531128,-2.308783531188965,0.9401628375053406,9.143853187561035,-4.161229133605957,0.01957057975232601,0.13096940517425537,-0.019043706357479095,15.744787216186523,-11.195274353027344,23.876806259155273,-0.029196321964263916,0.05507850646972656,-0.04272603988647461,0.9693591594696045,9.088774681091309,-4.118503093719482
3_20251106_150758,1762412841781,3,0.175823375582695,0.35078513622283936,0.7669866681098938,0.507707953453064,0.9141637086868286,1.7807426452636719,-2.3121426105499268,0.9210100173950195,9.227646827697754,-3.9158334732055664,0.0012446362525224686,0.10775654017925262,0.0005039647221565247,15.621938705444336,-11.204566955566406,24.00706672668457,-0.03867936134338379,0.11109733581542969,0.16213560104370117,0.9596893787384033,9.116549491882324,-4.077969074249268
3_20251106_150758,1762412841800,3,0.1749630868434906,0.350178062915802,0.767156183719635,0.5081679224967957,0.9204663634300232,1.7805489301681519,-2.3145534992218018,0.8886896967887878,9.147443771362305,-3.890695333480835,0.05805505812168121,0.10348048806190491,0.016386447474360466,15.562121391296387,-11.183830261230469,24.045690536499023,-0.05679970979690552,0.024715423583984375,0.14981913566589355,0.9454894065856934,9.12272834777832,-4.0405144691467285
3_20251106_150758,1762412841819,3,0.1740015149116516,0.34945768117904663,0.7673073410987854,0.5087653994560242,0.9268954992294312,1.7804160118103027,-2.3167920112609863,0.8719310164451599,9.146246910095215,-3.939774513244629,0.11364375054836273,0.09798270463943481,0.042653631418943405,15.511374473571777,-11.212928771972656,24.124300003051758,-0.05884671211242676,0.018815040588378906,0.08059215545654297,0.9307777285575867,9.127431869506836,-4.020366668701172
3_20251106_150758,1762412841838,3,0.17271634936332703,0.34875956177711487,0.7676891684532166,0.5091062784194946,0.9268954992294312,1.7804160118103027,-2.3167920112609863,0.8719310164451599,9.146246910095215,-3.939774513244629,0.13196969032287598,0.09920443594455719,0.05120573565363884,15.3701753616333,-11.134422302246094,24.10674476623535,-0.05884671211242676,0.018815040588378906,0.08059215545654297,0.9307777285575867,9.127431869506836,-4.020366668701172
3_20251106_150758,1762412841857,3,0.17134709656238556,0.34832391142845154,0.768186092376709,0.509117603302002,0.9376280307769775,1.779440999031067,-2.320145845413208,0.8587634563446045,8.977463722229004,-3.9613213539123535,0.1417435258626938,0.12119556218385696,0.0481514148414135,15.249428749084473,-11.117652893066406,24.142915725708008,-0.04455691576004028,-0.108428955078125,0.033383846282958984,0.9033203721046448,9.085892677307129,-3.9947052001953125
3_20251106_150758,1762412841878,3,0.1698814481496811,0.34787726402282715,0.7687844634056091,0.509010910987854,0.942863404750824,1.778091311454773,-2.322291612625122,0.8539752960205078,8.891275405883789,-4.142075538635254,0.14235438406467438,0.14807361364364624,0.04448622465133667,15.13080883026123,-11.051597595214844,24.27475929260254,-0.03947603702545166,-0.15569400787353516,-0.11789608001708984,0.8934513330459595,9.046969413757324,-4.024179458618164
3_20251106_150758,1762412841896,3,0.16818976402282715,0.3471946716308594,0.7695116400718689,0.5089399814605713,0.9469939470291138,1.776458501815796,-2.324638843536377,0.8396106958389282,8.83022689819336,-4.267765998840332,0.13930004835128784,0.15234966576099396,0.06159043684601784,15.02145767211914,-11.035118103027344,24.419553756713867,-0.043072521686553955,-0.17339420318603516,-0.1948690414428711,0.8826832175254822,9.003621101379395,-4.072896957397461
3_20251106_150758,1762412841915,3,0.16641439497470856,0.3466273546218872,0.7702863216400146,0.5087383389472961,0.9512476325035095,1.7744439840316772,-2.327845573425293,0.9234040975570679,8.866137504577637,-4.383879661560059,0.13930004835128784,0.15234966576099396,0.06159043684601784,15.02145767211914,-11.035118103027344,24.419553756713867,0.032576680183410645,-0.10998725891113281,-0.24878597259521484,0.8908274173736572,8.97612476348877,-4.135093688964844
3_20251106_150758,1762412841934,3,0.16443103551864624,0.34621456265449524,0.771102249622345,0.508428156375885,0.9558411240577698,1.7723007202148438,-2.331860303878784,1.0921881198883057,8.892473220825195,-4.488023281097412,0.12219583988189697,0.15906918048858643,0.11901171505451202,14.924080848693848,-11.02972412109375,24.496992111206055,0.16108858585357666,-0.06692123413085938,-0.28234386444091797,0.931099534034729,8.959394454956055,-4.205679416656494
3_20251106_150758,1762412841954,3,0.16238538920879364,0.346149206161499,0.7718169689178467,0.508045494556427,0.9613365530967712,1.7704652547836304,-2.3367018699645996,1.3435684442520142,9.032526969909668,-4.580195903778076,0.10386991500854492,0.1395215094089508,0.15260927379131317,14.86547565460205,-10.984138488769531,24.56317710876465,0.3299751281738281,0.058506011962890625,-0.29961299896240234,1.013593316078186,8.974020957946777,-4.280582904815674
3_20251106_150758,1762412841973,3,0.16017262637615204,0.3465406596660614,0.7722901105880737,0.5077620148658752,0.9687885642051697,1.7695790529251099,-2.341733694076538,1.6571954488754272,9.28630256652832,-4.343180179595947,0.09287434816360474,0.10592395067214966,0.15383100509643555,14.755814552307129,-10.97967529296875,24.653642654418945,0.5148817300796509,0.24982547760009766,-0.05007791519165039,1.1423137187957764,9.036477088928223,-4.293102264404297
3_20251106_150758,1762412841992,3,0.15801560878753662,0.3475717008113861,0.7724689245223999,0.5074610710144043,0.9775473475456238,1.7702168226242065,-2.346264600753784,1.8834376335144043,9.560426712036133,-4.289313316345215,0.10570251196622849,0.10714567452669144,0.08846849203109741,14.686742782592773,-10.897758483886719,24.774194717407227,0.5928992033004761,0.4191598892211914,0.0030312538146972656,1.2905384302139282,9.141266822814941,-4.292344570159912
3_20251106_150758,1762412842010,3,0.1559329479932785,0.34859997034072876,0.7724607586860657,0.5074123740196228,0.9872350692749023,1.772368311882019,-2.3502259254455566,2.0234923362731934,9.781881332397461,-4.245022773742676,0.11425460875034332,0.09553924202919006,-0.01721111126244068,14.612935066223145,-10.903465270996094,24.86586570739746,0.5863630771636963,0.5124912261962891,0.0378575325012207,1.437129259109497,9.269390106201172,-4.2828803062438965
3_20251106_150758,1762412842031,3,0.15402862429618835,0.34896671772003174,0.7725023627281189,0.5076785683631897,0.9872350692749023,1.772368311882019,-2.3502259254455566,2.0234923362731934,9.781881332397461,-4.245022773742676,0.1154763400554657,0.08698713779449463,-0.11433860659599304,14.529463768005371,-10.860145568847656,24.9986515045166,0.5863630771636963,0.5124912261962891,0.0378575325012207,1.437129259109497,9.269390106201172,-4.2828803062438965
3_20251106_150758,1762412842050,3,0.15265515446662903,0.3487175703048706,0.7727213501930237,0.5079312920570374,1.0119622945785522,1.7822943925857544,-2.3582401275634766,1.9001964330673218,9.986576080322266,-4.33719539642334,0.1466304361820221,0.05461130663752556,-0.1625969260931015,14.468744277954102,-10.85223388671875,25.064043045043945,0.2752948999404907,0.4752788543701172,-0.05123281478881836,1.624901533126831,9.511297225952148,-4.2859625816345215
3_20251106_150758,1762412842067,3,0.15162630379199982,0.34784725308418274,0.7731401920318604,0.5081987977027893,1.022471308708191,1.7880637645721436,-2.361579656600952,1.7972501516342163,10.028472900390625,-4.33839225769043,0.1466304361820221,0.05461130663752556,-0.1625969260931015,14.410337448120117,-10.806381225585938,25.10319709777832,0.1378788948059082,0.4137401580810547,-0.04194355010986328,1.659371256828308,9.61473274230957,-4.296448707580566
3_20251106_150758,1762412842087,3,0.15093816816806793,0.34698519110679626,0.7738773822784424,0.5078707337379456,1.0346394777297974,1.796122670173645,-2.3653266429901123,1.7984472513198853,10.144586563110352,-4.301283836364746,0.24742311239242554,-0.011972947977483273,-0.11678206920623779,14.341054916381836,-10.736343383789062,25.15590476989746,0.11126077175140381,0.42388343811035156,-0.00386810302734375,1.6871864795684814,9.720703125,-4.297415733337402
3_20251106_150758,1762412842107,3,0.15034618973731995,0.3463992476463318,0.7747873663902283,0.507058322429657,1.0468140840530396,1.8059769868850708,-2.368978261947632,1.8894230127334595,10.443848609924316,-4.327618598937988,0.2694142758846283,-0.006475165951997042,-0.07585412263870239,14.283550262451172,-10.677665710449219,25.16828727722168,0.16178929805755615,0.5785160064697266,-0.02416229248046875,1.7276337146759033,9.86533260345459,-4.3034563064575195
3_20251106_150758,1762412842126,3,0.14986902475357056,0.34600329399108887,0.7763136625289917,0.5051317811012268,1.0588301420211792,1.817331314086914,-2.3720083236694336,2.1024975776672363,10.762264251708984,-4.206716537475586,0.27307945489883423,-0.016859864816069603,-0.05264126881957054,14.267438888549805,-10.528839111328125,25.1975040435791,0.29989099502563477,0.7175455093383789,0.0773916244506836,1.8026065826416016,10.044718742370605,-4.2841081619262695
3_20251106_150758,1762412842145,3,0.14920656383037567,0.34586039185523987,0.7777460813522339,0.5032185912132263,1.0717250108718872,1.8308649063110352,-2.3740408420562744,2.3419077396392822,11.045965194702148,-3.9756855964660645,0.2962923049926758,-0.025411972776055336,-0.04103483632206917,14.21214771270752,-10.432357788085938,25.19716453552246,0.43144094944000244,0.8009967803955078,0.24673795700073242,1.9104667901992798,10.24496841430664,-4.222423553466797
3_20251106_150758,1762412842165,3,0.1485249102115631,0.34590932726860046,0.7791017889976501,0.5012859106063843,1.0866265296936035,1.8469027280807495,-2.374882936477661,2.5705442428588867,11.068708419799805,-3.830842971801758,0.2962923049926758,-0.025411972776055336,-0.04103483632206917,14.217094421386719,-10.332847595214844,25.29388999938965,0.5280618667602539,0.658991813659668,0.3132643699645996,2.042482376098633,10.409716606140137,-4.144107341766357
3_20251106_150758,1762412842183,3,0.14765696227550507,0.3459988832473755,0.7806668281555176,0.4990406036376953,1.0866265296936035,1.8469027280807495,-2.374882936477661,2.5705442428588867,11.068708419799805,-3.830842971801758,0.5430816411972046,-0.03090975247323513,-0.08868227899074554,14.287385940551758,-10.165367126464844,25.272741317749023,0.5280618667602539,0.658991813659668,0.3132643699645996,2.042482376098633,10.409716606140137,-4.144107341766357
3_20251106_150758,1762412842202,3,0.14643827080726624,0.34599176049232483,0.7829179167747498,0.4958679974079132,1.1164567470550537,1.876534104347229,-2.3764522075653076,2.6483523845672607,10.473775863647461,-4.428171157836914,0.6634219884872437,-0.07367028295993805,-0.02698494866490364,14.352032661437988,-9.885398864746094,25.2264461517334,0.392545223236084,-0.010522842407226562,-0.2430896759033203,2.2558071613311768,10.484298706054688,-4.185081481933594
3_20251106_150758,1762412842221,3,0.1449807733297348,0.3465383052825928,0.7857093811035156,0.49147993326187134,1.133134365081787,1.8907407522201538,-2.3786497116088867,2.9464175701141357,10.545598983764648,-4.571816921234131,0.7031281590461731,-0.14391973614692688,0.09274454414844513,14.400277137756348,-9.669952392578125,25.2729549407959,0.5524883270263672,0.049040794372558594,-0.3093886375427246,2.3939292430877686,10.49655818939209,-4.262428283691406
3_20251106_150758,1762412842240,3,0.1431291103363037,0.34829941391944885,0.7884513139724731,0.4863600432872772,1.151567816734314,1.9046573638916016,-2.3807716369628906,3.337852716445923,10.649742126464844,-4.274948596954346,0.6860239505767822,-0.21722349524497986,0.12145517766475677,14.512580871582031,-9.388282775878906,25.37729835510254,0.7551388740539551,0.12254714965820312,-0.010016441345214844,2.5827138423919678,10.52719497680664,-4.264932155609131
3_20251106_150758,1762412842258,3,0.1413991004228592,0.351067453622818,0.7907859086990356,0.48105674982070923,1.170453667640686,1.9167972803115845,-2.3820369243621826,3.5150160789489746,10.370828628540039,-4.003217697143555,0.7379474639892578,-0.3027445673942566,0.04692968353629112,14.561332702636719,-9.160545349121094,25.451101303100586,0.7458417415618896,-0.1250925064086914,0.20937156677246094,2.769174337387085,10.49592113494873,-4.212589263916016
3_20251106_150758,1762412842278,3,0.14031203091144562,0.3539630174636841,0.7930550575256348,0.4754854440689087,1.1911228895187378,1.927166223526001,-2.3828396797180176,3.400099277496338,9.838142395019531,-4.042720794677734,0.8436270356178284,-0.3784917891025543,-0.048365212976932526,14.660324096679688,-8.915992736816406,25.41900062561035,0.5047399997711182,-0.5262231826782227,0.135894775390625,2.8953592777252197,10.364365577697754,-4.178615570068359
3_20251106_150758,1762412842298,3,0.1399221271276474,0.35660460591316223,0.7958500981330872,0.4689110219478607,1.1911228895187378,1.927166223526001,-2.3828396797180176,3.400099277496338,9.838142395019531,-4.042720794677734,0.9297589659690857,-0.4053698480129242,-0.12044724822044373,14.847746849060059,-8.6036376953125,25.44571876525879,0.5047399997711182,-0.5262231826782227,0.135894775390625,2.8953592777252197,10.364365577697754,-4.178615570068359
3_20251106_150758,1762412842316,3,0.1399708092212677,0.3589814305305481,0.7992439866065979,0.46124783158302307,1.232675313949585,1.9356452226638794,-2.3862757682800293,3.019437789916992,8.465126037597656,-4.636457443237305,0.9584696292877197,-0.4218631684780121,-0.18153372406959534,15.102344512939453,-8.174430847167969,25.490781784057617,0.049340248107910156,-1.3273658752441406,-0.34205007553100586,2.970097541809082,9.792491912841797,-4.294407367706299
3_20251106_150758,1762412842336,3,0.14024220407009125,0.36118417978286743,0.8030019402503967,0.452842116355896,1.2512805461883545,1.9309767484664917,-2.3907876014709473,2.594485282897949,7.709787845611572,-5.044651031494141,0.8863875865936279,-0.4041481018066406,-0.26888737082481384,15.102344512939453,-8.174430847167969,25.490781784057617,-0.3004899024963379,-1.6661629676818848,-0.6001949310302734,2.894975185394287,9.375950813293457,-4.444456100463867
3_20251106_150758,1762412842355,3,0.14096659421920776,0.3628160059452057,0.8069065809249878,0.44429126381874084,1.2660157680511475,1.919755220413208,-2.397928237915039,2.1455917358398438,6.821577072143555,-5.562973976135254,0.7318388223648071,-0.3320660889148712,-0.28415897488594055,15.29651927947998,-7.736907958984375,25.560686111450195,-0.5995068550109863,-2.043498992919922,-0.8948144912719727,2.74509859085083,8.865076065063477,-4.668159484863281
3_20251106_150758,1762412842374,3,0.141958087682724,0.36354660987854004,0.8105780482292175,0.43662911653518677,1.277620553970337,1.9015899896621704,-2.408464193344116,1.8726643323898315,6.129682540893555,-6.035808086395264,0.5919507741928101,-0.34611597657203674,-0.20291399955749512,15.476788520812988,-7.337310791015625,25.57524299621582,-0.69794762134552,-2.188314437866211,-1.0941190719604492,2.5706119537353516,8.317996978759766,-4.9416890144348145
3_20251106_150758,1762412842392,3,0.14294862747192383,0.3641149401664734,0.8135810494422913,0.4301998019218445,1.2858127355575562,1.8784821033477783,-2.4213805198669434,1.6559983491897583,5.573054313659668,-6.336267471313477,0.5192579030990601,-0.547701358795166,-0.03065013512969017,15.781217575073242,-6.9034423828125,25.473588943481445,-0.7316910028457642,-2.195953845977783,-1.1156625747680664,2.3876893520355225,7.769008159637451,-5.22060489654541
3_20251106_150758,1762412842411,3,0.14465922117233276,0.36598289012908936,0.8155853152275085,0.4242061674594879,1.291481614112854,1.8480339050292969,-2.437255620956421,1.4596822261810303,5.116978645324707,-6.285991668701172,0.5192579030990601,-0.547701358795166,-0.03065013512969017,16.106395721435547,-6.530906677246094,25.38511085510254,-0.7424056529998779,-2.1216235160827637,-0.8523092269897461,2.202087879180908,7.238602161407471,-5.433682441711426
3_20251106_150758,1762412842432,3,0.14775565266609192,0.37075623869895935,0.8162670135498047,0.41763168573379517,1.294708013534546,1.81136155128479,-2.4543862342834473,1.3986327648162842,5.191195964813232,-5.84667444229126,0.5320860147476196,-0.9557589888572693,0.44032660126686096,16.516876220703125,-6.1528167724609375,25.300065994262695,-0.6427640914916992,-1.6379246711730957,-0.33039331436157227,2.0413968563079834,6.829120635986328,-5.5162811279296875
3_20251106_150758,1762412842449,3,0.15151959657669067,0.3784356117248535,0.8157475590705872,0.41034644842147827,1.2957098484039307,1.7755136489868164,-2.4703357219696045,1.3280068635940552,5.004456043243408,-6.045384407043457,0.5204795598983765,-0.951482892036438,0.5124085545539856,17.047807693481445,-5.791893005371094,25.219396591186523,-0.5707120895385742,-1.4597315788269043,-0.4232826232910156,1.8987189531326294,6.4641876220703125,-5.622101783752441
3_20251106_150758,1762412842469,3,0.15499542653560638,0.3873452842235565,0.8144845962524414,0.4031809866428375,1.2942136526107788,1.7315444946289062,-2.4893388748168945,1.0586707592010498,4.44782829284668,-6.335070610046387,0.4856603443622589,-0.9557589888572693,0.5020238757133484,17.53472328186035,-5.571075439453125,25.09380531311035,-0.6720385551452637,-1.6130871772766113,-0.5703749656677246,1.7307093143463135,6.060915470123291,-5.764695644378662
3_20251106_150758,1762412842488,3,0.1585068255662918,0.39642712473869324,0.8129016757011414,0.3961211144924164,1.2899456024169922,1.6866286993026733,-2.508556604385376,0.6672355532646179,4.153353691101074,-6.518218994140625,0.4856603443622589,-0.9557589888572693,0.5020238757133484,18.006000518798828,-5.436927795410156,24.763132095336914,-0.8507789969444275,-1.5260496139526367,-0.602818489074707,1.5180145502090454,5.679403305053711,-5.915400505065918
3_20251106_150758,1762412842508,3,0.16231456398963928,0.40520793199539185,0.8109694719314575,0.38960111141204834,1.2899456024169922,1.6866286993026733,-2.508556604385376,0.6672355532646179,4.153353691101074,-6.518218994140625,0.04033997654914856,-0.8836769461631775,0.4641503095626831,18.50931167602539,-5.376152038574219,24.4728946685791,-0.8507789969444275,-1.5260496139526367,-0.602818489074707,1.5180145502090454,5.679403305053711,-5.915400505065918
3_20251106_150758,1762412842527,3,0.1668219417333603,0.4133604168891907,0.8081763386726379,0.3849084973335266,1.27218759059906,1.5873870849609375,-2.548603057861328,0.22911551594734192,3.8708505630493164,-6.149527549743652,-0.16368883848190308,-0.8922290802001953,0.44154831767082214,19.21393394470215,-5.414207458496094,24.12103843688965,-0.8463464975357056,-1.182755470275879,-0.1054067611694336,1.075461983680725,5.053606033325195,-6.044120788574219
3_20251106_150758,1762412842546,3,0.17227186262607574,0.42071735858917236,0.8045240640640259,0.3821784555912018,1.2600327730178833,1.537149429321289,-2.5661098957061768,0.08307548612356186,3.7559337615966797,-5.790412902832031,-0.16368883848190308,-0.8922290802001953,0.44154831767082214,19.8149356842041,-5.559745788574219,23.83072853088379,-0.7939092516899109,-1.0381379127502441,0.20296621322631836,0.876984715461731,4.794071674346924,-5.99337911605835
3_20251106_150758,1762412842566,3,0.17884381115436554,0.42786094546318054,0.8003033995628357,0.3800846040248871,1.2442491054534912,1.4836866855621338,-2.582453727722168,-0.3167389929294586,3.733189821243286,-5.610855579376221,-0.22172099351882935,-0.9630893468856812,0.3890139162540436,20.415008544921875,-5.741340637207031,23.37742805480957,-0.9549789428710938,-0.848705530166626,0.3060188293457031,0.6382399797439575,4.581895351409912,-5.916874408721924
3_20251106_150758,1762412842585,3,0.18612849712371826,0.4346201419830322,0.7960962653160095,0.3777463436126709,1.2262215614318848,1.4330226182937622,-2.596334934234619,-0.7404944896697998,3.7020668983459473,-5.6000823974609375,-0.25287508964538574,-0.96186763048172,0.30349287390708923,21.01578712463379,-5.910377502441406,22.924394607543945,-1.10298752784729,-0.7038626670837402,0.2534337043762207,0.362493097782135,4.4059295654296875,-5.853516101837158
3_20251106_150758,1762412842603,3,0.19367338716983795,0.44093620777130127,0.7919363379478455,0.3753701150417328,1.206446647644043,1.3854353427886963,-2.60855770111084,-1.0792593955993652,3.5979232788085938,-5.743728160858154,-0.25287508964538574,-0.96186763048172,0.30349287390708923,21.56268882751465,-6.1707611083984375,22.494585037231445,-1.1534019708633423,-0.6464052200317383,0.0878305435180664,0.07414260506629944,4.244328498840332,-5.831558704376221
3_20251106_150758,1762412842621,3,0.2009587585926056,0.44689786434173584,0.7876876592636108,0.3734246790409088,1.1843723058700562,1.3392046689987183,-2.620353937149048,-1.2612110376358032,3.828953981399536,-5.906526565551758,-0.2773096561431885,-0.9062789678573608,0.356638103723526,22.14834976196289,-6.4025726318359375,21.958642959594727,-1.068282961845398,-0.33229947090148926,-0.05997419357299805,-0.19292809069156647,4.161253452301025,-5.84655237197876
3_20251106_150758,1762412842641,3,0.20771819353103638,0.45329970121383667,0.7830175161361694,0.37182798981666565,1.1593221426010132,1.2926465272903442,-2.632554292678833,-1.2552257776260376,4.088713645935059,-5.981940746307373,-0.301133394241333,-0.8720705509185791,0.4501003921031952,22.705013275146484,-6.71185302734375,21.474199295043945,-0.849838137626648,-0.05803203582763672,-0.10831069946289062,-0.40538761019706726,4.146745681762695,-5.873630046844482
3_20251106_150758,1762412842660,3,0.21384799480438232,0.45952460169792175,0.7781469821929932,0.3709358870983124,1.1320269107818604,1.2465415000915527,-2.644676446914673,-1.1439001560211182,4.295803070068359,-5.84787130355835,-0.4367453455924988,-0.8622967004776001,0.5789927840232849,23.31171989440918,-7.0045928955078125,20.910886764526367,-0.5908100605010986,0.11924600601196289,0.02060699462890625,-0.5530900955200195,4.1765570640563965,-5.868478298187256
3_20251106_150758,1762412842679,3,0.22031337022781372,0.4664526879787445,0.7723871469497681,0.37054288387298584,1.10597562789917,1.206365704536438,-2.655478000640869,-1.0696830749511719,4.699208736419678,-5.81794548034668,-0.4776732921600342,-0.8745139837265015,0.6315271854400635,23.802507400512695,-7.4173583984375,20.327268600463867,-0.4132744073867798,0.418121337890625,0.04042625427246094,-0.6564086675643921,4.281087398529053,-5.858371734619141
3_20251106_150758,1762412842698,3,0.22694002091884613,0.4737358093261719,0.7659872770309448,0.37058886885643005,1.0817652940750122,1.1723806858062744,-2.6654269695281982,-0.9667367935180664,5.163663864135742,-5.950817584991455,-0.5063839554786682,-0.9288809299468994,0.6370249390602112,24.329233169555664,-7.851776123046875,19.63646125793457,-0.24826252460479736,0.7060613632202148,-0.07395648956298828,-0.718474268913269,4.457602500915527,-5.876861095428467
3_20251106_150758,1762412842717,3,0.2337399423122406,0.48121026158332825,0.7591547966003418,0.370791494846344,1.0557900667190552,1.1393600702285767,-2.6749563217163086,-0.8566083312034607,5.395891189575195,-5.556988716125488,-0.5845746994018555,-0.9753066301345825,0.5710515975952148,24.8209228515625,-8.251716613769531,19.026071548461914,-0.11050719022750854,0.7506308555603027,0.25589799880981445,-0.7461011409759521,4.645260334014893,-5.812886714935303
3_20251106_150758,1762412842737,3,0.24139776825904846,0.48864975571632385,0.7519253492355347,0.37088650465011597,1.0307193994522095,1.111371397972107,-2.682725429534912,-0.875761091709137,5.757400035858154,-5.390598297119141,-0.7238517999649048,-0.9423199892044067,0.4647611677646637,25.298805236816406,-8.689445495605469,18.346818923950195,-0.10372799634933472,0.889711856842041,0.3378310203552246,-0.7720330953598022,4.867688179016113,-5.728429317474365
3_20251106_150758,1762412842756,3,0.2499241828918457,0.49520936608314514,0.7444920539855957,0.3715335726737976,1.0070366859436035,1.0901256799697876,-2.6884095668792725,-1.1570676565170288,6.33078670501709,-5.244558334350586,-0.8722919225692749,-0.9136093258857727,0.29738423228263855,25.298805236816406,-8.689445495605469,18.346818923950195,-0.30802762508392334,1.1704788208007812,0.3870968818664551,-0.8490400314331055,5.160307884216309,-5.631655216217041
3_20251106_150758,1762412842775,3,0.25927263498306274,0.5000714063644409,0.7371950745582581,0.3731617331504822,0.9840795397758484,1.0751631259918213,-2.690995216369629,-1.5161824226379395,6.849109649658203,-4.604136943817139,-1.0188994407653809,-0.8280882835388184,0.0738077312707901,25.71392822265625,-9.180030822753906,17.528894424438477,-0.5337139368057251,1.351041316986084,0.8220148086547852,-0.9824684858322144,5.498068332672119,-5.426151752471924
3_20251106_150758,1762412842795,3,0.2697080969810486,0.5028716325759888,0.730333149433136,0.3754878342151642,0.9567943215370178,1.0648629665374756,-2.690035581588745,-1.986622929573059,7.305184841156006,-4.212701797485352,-1.1471811532974243,-0.6625438928604126,-0.18031199276447296,26.15412712097168,-9.656463623046875,16.712217330932617,-0.8033236265182495,1.4456934928894043,0.9707598686218262,-1.1832993030548096,5.859491348266602,-5.183461666107178
3_20251106_150758,1762412842813,3,0.2808974087238312,0.5030692219734192,0.7242510914802551,0.37878531217575073,0.9279489517211914,1.0597305297851562,-2.6862499713897705,-2.7216110229492188,7.377007961273193,-4.119332313537598,-1.1471811532974243,-0.6625438928604126,-0.18031199276447296,26.619613647460938,-10.10687255859375,15.964628219604492,-1.2306493520736694,1.2140135765075684,0.8513035774230957,-1.4909616708755493,6.162994384765625,-4.970635890960693
3_20251106_150758,1762412842833,3,0.2924231290817261,0.500664234161377,0.7192065715789795,0.38283929228782654,0.8951200842857361,1.0588784217834473,-2.6804428100585938,-3.468569755554199,7.629585266113281,-4.164820194244385,-1.291345238685608,-0.5134929418563843,-0.33974766731262207,27.058612823486328,-10.596542358398438,15.215269088745117,-1.582086443901062,1.1732726097106934,0.6446528434753418,-1.8864833116531372,6.456312656402588,-4.809473037719727
3_20251106_150758,1762412842851,3,0.303994745016098,0.4969567060470581,0.7145218253135681,0.3874013423919678,0.8584523797035217,1.0620465278625488,-2.6718239784240723,-3.883946180343628,7.90610408782959,-3.6788177490234375,-1.3903051614761353,-0.6002357006072998,-0.19130757451057434,27.493377685546875,-10.9486083984375,14.441289901733398,-1.5979702472686768,1.1598334312438965,0.9045243263244629,-2.285975933074951,6.746270656585693,-4.5833420753479
3_20251106_150758,1762412842871,3,0.315952867269516,0.49357330799102783,0.7088861465454102,0.3924788236618042,0.8166429996490479,1.0689443349838257,-2.657078266143799,-3.977315902709961,7.973138809204102,-2.567955732345581,-1.3823639154434204,-0.664987325668335,0.002947423607110977,27.921905517578125,-11.188987731933594,13.723260879516602,-1.353071928024292,0.9814949035644531,1.612309217453003,-2.624243974685669,6.991643905639648,-4.180264949798584
3_20251106_150758,1762412842890,3,0.3282869756221771,0.49143746495246887,0.7016960978507996,0.3979189693927765,0.7753127217292786,1.078125238418579,-2.637277603149414,-3.9354190826416016,8.068902969360352,-1.8138148784637451,-1.1972719430923462,-0.5666381120681763,0.14711150527000427,28.345386505126953,-11.529014587402344,12.922021865844727,-1.0489401817321777,0.8618073463439941,1.893160104751587,-2.886478900909424,7.207095623016357,-3.706974983215332
3_20251106_150758,1762412842908,3,0.33932167291641235,0.49048298597335815,0.6940119862556458,0.4032798111438751,0.7753127217292786,1.078125238418579,-2.637277603149414,-3.9354190826416016,8.068902969360352,-1.8138148784637451,-1.0579948425292969,-0.36749622225761414,0.1917046159505844,28.70903778076172,-11.859916687011719,12.064529418945312,-1.0489401817321777,0.8618073463439941,1.893160104751587,-2.886478900909424,7.207095623016357,-3.706974983215332
3_20251106_150758,1762412842928,3,0.34800609946250916,0.4899676740169525,0.6869893074035645,0.4084962010383606,0.7329739928245544,1.0906926393508911,-2.613522529602051,-4.007242202758789,8.608772277832031,-1.9047906398773193,-1.0732663869857788,-0.16102394461631775,0.14344631135463715,29.048540115356445,-12.168914794921875,11.368780136108398,-0.8966107368469238,1.1213417053222656,1.4417474269866943,-3.1106314659118652,7.487430572509766,-3.3465380668640137
3_20251106_150758,1762412842946,3,0.3551193177700043,0.48868802189826965,0.6807698011398315,0.41427865624427795,0.6845784783363342,1.109223484992981,-2.584052562713623,-4.286154747009277,9.079212188720703,-1.9957664012908936,-1.1166378259658813,0.06010909005999565,0.13306160271167755,29.304460525512695,-12.446342468261719,10.724454879760742,-0.9404187202453613,1.273425579071045,1.0806174278259277,-3.345736026763916,7.805786609649658,-3.0763838291168213
3_20251106_150758,1762412842968,3,0.3612397015094757,0.4860464632511139,0.6752744913101196,0.4210332930088043,0.6002339124679565,1.1466197967529297,-2.528625011444092,-4.390297889709473,8.975069046020508,-1.7611446380615234,-1.1386290788650513,0.22504256665706635,0.25523456931114197,29.569549560546875,-12.773475646972656,10.106595993041992,-0.6449618339538574,0.7422122955322266,0.847498893737793,-3.7453360557556152,8.232856750488281,-2.6086435317993164
3_20251106_150758,1762412842985,3,0.3659401834011078,0.48264795541763306,0.6700842380523682,0.42909887433052063,0.5573800802230835,1.1685250997543335,-2.497141122817993,-3.9533748626708984,9.121109008789062,-1.5049760341644287,-1.1086965799331665,0.2879616320133209,0.4592633545398712,29.76224136352539,-13.081199645996094,9.580936431884766,-0.16643095016479492,0.710601806640625,0.8829338550567627,-3.7869439125061035,8.410507202148438,-2.3879098892211914
3_20251106_150758,1762412843005,3,0.3692196309566498,0.47986674308776855,0.6644074320793152,0.4381410479545593,0.515934407711029,1.1933366060256958,-2.462627410888672,-3.3237271308898926,9.366504669189453,-1.391256332397461,-1.1086965799331665,0.2879616320133209,0.4592633545398712,29.842241287231445,-13.446571350097656,9.076839447021484,0.3705732822418213,0.7647981643676758,0.7973227500915527,-3.694300413131714,8.601706504821777,-2.1885790824890137
3_20251106_150758,1762412843025,3,0.37091073393821716,0.4781492054462433,0.658214807510376,0.44783011078834534,0.4809619188308716,1.218152403831482,-2.429107189178467,-2.8077988624572754,9.48501205444336,-1.3242216110229492,-0.9455957412719727,0.3979172706604004,0.6413010358810425,29.87926483154297,-13.904243469238281,8.772167205810547,0.7092010974884033,0.7066440582275391,0.6914858818054199,-3.5169999599456787,8.77836799621582,-2.015707492828369
3_20251106_150758,1762412843042,3,0.37146854400634766,0.4771907925605774,0.651943564414978,0.4574599862098694,0.4521467685699463,1.2434204816818237,-2.3974926471710205,-2.436713457107544,9.969817161560059,-1.4283649921417236,-0.9413197040557861,0.512759804725647,0.562499463558197,29.818504333496094,-14.368675231933594,8.504119873046875,0.8642292022705078,0.9531593322753906,0.4698740243911743,-3.3009426593780518,9.016657829284668,-1.898239016532898
3_20251106_150758,1762412843062,3,0.37118664383888245,0.4757351577281952,0.646349310874939,0.4670429527759552,0.4265553951263428,1.27218496799469,-2.3643369674682617,-2.0967512130737305,10.265488624572754,-1.3685123920440674,-1.001184344291687,0.6666977405548096,0.42077890038490295,29.74135398864746,-14.886016845703125,8.42375373840332,0.963353157043457,0.9990644454956055,0.4237813949584961,-3.0601043701171875,9.266424179077148,-1.7922937870025635
3_20251106_150758,1762412843080,3,0.3700873553752899,0.47205737233161926,0.6420404314994812,0.47747382521629333,0.40572741627693176,1.302955150604248,-2.331991672515869,-1.790306806564331,10.521657943725586,-1.483429193496704,-1.087927222251892,0.7888706922531128,0.25767800211906433,29.543272018432617,-15.375251770019531,8.501470565795898,1.0158381462097168,1.0041866302490234,0.2470916509628296,-2.806144952774048,9.517471313476562,-1.7305208444595337
3_20251106_150758,1762412843100,3,0.36961477994918823,0.4672756493091583,0.6379204988479614,0.4879506230354309,0.3877364695072174,1.3372620344161987,-2.2974579334259033,-1.8729031085968018,10.680864334106445,-1.0105946063995361,-1.1722265481948853,0.8035314083099365,0.08785761892795563,29.269058227539062,-15.919746398925781,8.602222442626953,0.7465934753417969,0.9307146072387695,0.5759409666061401,-2.6194965839385986,9.750149726867676,-1.5865355730056763
3_20251106_150758,1762412843118,3,0.36979377269744873,0.46074676513671875,0.6342830657958984,0.49864810705184937,0.37303125858306885,1.3697409629821777,-2.26455020904541,-2.344540596008301,11.028009414672852,-0.2133597731590271,-1.1868873834609985,0.8401833176612854,-0.01415678858757019,28.900470733642578,-16.419967651367188,8.659557342529297,0.21996474266052246,1.022287368774414,1.0985405445098877,-2.5645053386688232,10.005722045898438,-1.3119003772735596
3_20251106_150758,1762412843139,3,0.3707332909107208,0.45291757583618164,0.6310552358627319,0.5091087818145752,0.35777387022972107,1.4091262817382812,-2.2250118255615234,-2.4774131774902344,11.683992385864258,0.26785406470298767,-1.1526788473129272,0.9764061570167542,0.029214605689048767,28.555156707763672,-16.93169403076172,8.771675109863281,0.06967377662658691,1.342616081237793,1.2638036012649536,-2.5470869541168213,10.341376304626465,-0.9959495663642883
3_20251106_150758,1762412843156,3,0.3711584806442261,0.4442073702812195,0.628282368183136,0.5197907090187073,0.34512144327163696,1.4481170177459717,-2.1874489784240723,-2.38763427734375,12.50037956237793,0.5300078392028809,-1.0818185806274414,1.0698684453964233,0.16055051982402802,28.171405792236328,-17.4483642578125,9.139129638671875,0.1275622844696045,1.727203369140625,1.2207659482955933,-2.5151965618133545,10.773176193237305,-0.6907581090927124
3_20251106_150758,1762412843176,3,0.370105504989624,0.4353650212287903,0.6256689429283142,0.5310533046722412,0.33290353417396545,1.496107578277588,-2.1438443660736084,-2.1410422325134277,13.021096229553223,0.6102101802825928,-1.0818185806274414,1.0698684453964233,0.16055051982402802,28.171405792236328,-17.4483642578125,9.139129638671875,0.29932332038879395,1.7983360290527344,1.0407747030258179,-2.4403655529022217,11.222760200500488,-0.4305644929409027
3_20251106_150758,1762412843195,3,0.3673352897167206,0.427237868309021,0.6231439709663391,0.5424243211746216,0.32435333728790283,1.543981909751892,-2.1025750637054443,-1.5377293825149536,12.88582992553711,0.2678540349006653,-0.7342365384101868,1.214032530784607,0.4794219136238098,27.704639434814453,-17.95587921142578,9.287155151367188,0.7221089601516724,1.3304557800292969,0.5587348341941833,-2.259838342666626,11.555374145507812,-0.29088079929351807
3_20251106_150758,1762412843214,3,0.3622375428676605,0.41991883516311646,0.6212013363838196,0.5536795854568481,0.3204319477081299,1.5930241346359253,-2.0632452964782715,-0.7285239696502686,12.853509902954102,-0.24568013846874237,-0.5919050574302673,1.2329694032669067,0.6474096775054932,27.216642379760742,-18.39112091064453,9.584463119506836,1.2250515222549438,1.038508415222168,0.03616051375865936,-1.9535754919052124,11.815001487731934,-0.28184065222740173
3_20251106_150758,1762412843234,3,0.35528385639190674,0.414228618144989,0.6194851994514465,0.5642926096916199,0.3233206272125244,1.6461039781570435,-2.0235252380371094,0.2865738868713379,13.143195152282715,-0.15350733697414398,-0.5454793572425842,1.270232081413269,0.7310981154441833,26.654712677001953,-18.855438232421875,9.797201156616211,1.7921195030212402,1.0625543594360352,0.10266666114330292,-1.5055456161499023,12.08064079284668,-0.2561739981174469
3_20251106_150758,1762412843253,3,0.34696078300476074,0.40966513752937317,0.6176154613494873,0.5747554302215576,0.3233206272125244,1.6461039781570435,-2.0235252380371094,0.2865738868713379,13.143195152282715,-0.15350733697414398,-0.4874471426010132,1.3453683853149414,0.693835437297821,26.005477905273438,-19.351234436035156,10.087076187133789,1.7921195030212402,1.0625543594360352,0.10266666114330292,-1.5055456161499023,12.08064079284668,-0.2561739981174469
3_20251106_150758,1762412843272,3,0.3378492593765259,0.4051026403903961,0.6159117221832275,0.5851516723632812,0.3351810574531555,1.70033860206604,-1.9855737686157227,1.4931997060775757,13.333526611328125,-0.1846306025981903,-0.40803471207618713,1.3313184976577759,0.6022056937217712,25.282421112060547,-19.864356994628906,10.37374496459961,2.398996353149414,1.0023088455200195,0.05723471939563751,-0.9057966470718384,12.331217765808105,-0.24186532199382782
3_20251106_150758,1762412843290,3,0.32828569412231445,0.40003883838653564,0.6149039268493652,0.595055103302002,0.3806670010089874,1.7974730730056763,-1.921797752380371,3.353414535522461,13.212623596191406,-0.07689617574214935,-0.40803471207618713,1.3313184976577759,0.6022056937217712,24.53036880493164,-20.45494842529297,10.7119140625,2.843876361846924,0.5447549819946289,0.13028734922409058,0.5095381140708923,12.667868614196777,-0.20718352496623993
3_20251106_150758,1762412843310,3,0.3192170262336731,0.39506295323371887,0.6143410205841064,0.6038301587104797,0.3806670010089874,1.7974730730056763,-1.921797752380371,3.353414535522461,13.212623596191406,-0.07689617574214935,-0.2602054476737976,1.2183085680007935,0.2540128231048584,23.656566619873047,-21.041732788085938,11.126541137695312,2.843876361846924,0.5447549819946289,0.13028734922409058,0.5095381140708923,12.667868614196777,-0.20718352496623993
3_20251106_150758,1762412843329,3,0.3111928701400757,0.38975271582603455,0.6144976615905762,0.6112646460533142,0.4204953610897064,1.8508321046829224,-1.887160062789917,3.5976123809814453,12.678739547729492,-0.20019224286079407,-0.2540968358516693,1.174937129020691,0.1361159384250641,22.808744430541992,-21.601547241210938,11.515644073486328,2.470459461212158,0.008696556091308594,0.005593031644821167,1.127152919769287,12.670042991638184,-0.20578527450561523
3_20251106_150758,1762412843348,3,0.30405569076538086,0.3835966885089874,0.6154218316078186,0.6177861094474792,0.5050030946731567,1.929513931274414,-1.832248330116272,4.112343788146973,11.047161102294922,-0.33785292506217957,-0.2540968358516693,1.174937129020691,0.1361159384250641,21.977449417114258,-22.07347869873047,11.988182067871094,1.9775569438934326,-1.1470489501953125,-0.06058230996131897,2.13478684425354,12.194210052490234,-0.2772706151008606
3_20251106_150758,1762412843367,3,0.29740846157073975,0.37768444418907166,0.6161929368972778,0.6238661408424377,0.5516520142555237,1.9602690935134888,-1.8077096939086914,4.399635314941406,11.022024154663086,-0.3091237545013428,-0.2290513664484024,1.0442121028900146,0.1917046159505844,21.170019149780273,-22.556106567382812,12.434404373168945,1.8118786811828613,-0.937748908996582,-0.025482505559921265,2.587756633758545,11.959773063659668,-0.2836412489414215
3_20251106_150758,1762412843386,3,0.2910154461860657,0.373655766248703,0.6164908409118652,0.6289916038513184,0.5516520142555237,1.9602690935134888,-1.8077096939086914,4.399635314941406,11.022024154663086,-0.3091237545013428,-0.046402812004089355,0.662421703338623,0.18865029513835907,20.390695571899414,-22.962478637695312,12.950773239135742,1.8118786811828613,-0.937748908996582,-0.025482505559921265,2.587756633758545,11.959773063659668,-0.2836412489414215
3_20251106_150758,1762412843406,3,0.2854326367378235,0.3712083697319031,0.6167364716529846,0.6327469348907471,0.6619979739189148,2.014740467071533,-1.756455898284912,4.162619590759277,10.720367431640625,-0.002679109573364258,-0.03479637950658798,0.6153850555419922,0.09274454414844513,19.70330238342285,-23.26148223876953,13.337526321411133,0.981673002243042,-0.8363142013549805,0.22731468081474304,3.1809465885162354,11.556681632995605,-0.2299937903881073
3_20251106_150758,1762412843424,3,0.2808605134487152,0.36887019872665405,0.6172673106193542,0.6356360912322998,0.7115424275398254,2.033670425415039,-1.7339818477630615,3.997426986694336,10.605449676513672,0.08470549434423447,-0.011583522893488407,0.6508152484893799,0.039599306881427765,19.17634391784668,-23.51262664794922,13.744962692260742,0.6531844139099121,-0.7609853744506836,0.25175943970680237,3.344242572784424,11.366435050964355,-0.1670539379119873
3_20251106_150758,1762412843444,3,0.2766764760017395,0.36597365140914917,0.6181244850158691,0.6383067965507507,0.7653155326843262,2.0511603355407715,-1.709926962852478,3.8298401832580566,10.546794891357422,-0.057743385434150696,0.044005170464515686,0.6434848308563232,0.039599306881427765,18.676786422729492,-23.70006561279297,14.222280502319336,0.38847827911376953,-0.6557121276855469,0.08744844794273376,3.441361904144287,11.202507019042969,-0.14519183337688446
3_20251106_150758,1762412843463,3,0.27235519886016846,0.36278480291366577,0.6194084286689758,0.6407362818717957,0.8142415881156921,2.064971923828125,-1.6877344846725464,3.585641860961914,10.483351707458496,0.030838273465633392,0.08371137827634811,0.5597963929176331,0.09579886496067047,18.192617416381836,-23.847557067871094,14.552202224731445,0.11542391777038574,-0.5753240585327148,0.1408240795135498,3.4702179431915283,11.058675765991211,-0.10998581349849701
3_20251106_150758,1762412843481,3,0.26798215508461,0.3601579964160919,0.6207564473152161,0.6427544355392456,0.8583411574363708,2.0759148597717285,-1.6672346591949463,3.4970602989196777,10.454623222351074,0.10385829210281372,0.15334995090961456,0.45533856749534607,0.1862068474292755,17.72657012939453,-23.893394470214844,14.844175338745117,0.02147388458251953,-0.4832420349121094,0.17107528448104858,3.475586414337158,10.937865257263184,-0.06721699237823486
3_20251106_150758,1762412843503,3,0.2635214924812317,0.35860559344291687,0.6219398379325867,0.6443207859992981,0.9075790047645569,2.0867326259613037,-1.6444661617279053,3.5832479000091553,10.546794891357422,-0.05295517295598984,0.24742314219474792,0.33255472779273987,0.2790582776069641,17.294458389282227,-23.98680877685547,15.109533309936523,0.08612918853759766,-0.31285667419433594,0.011409454047679901,3.4971187114715576,10.859651565551758,-0.06436462700366974
3_20251106_150758,1762412843520,3,0.25884106755256653,0.3584332764148712,0.6230637431144714,0.6452274322509766,0.9483475685119629,2.0955727100372314,-1.625954031944275,3.7711846828460693,10.872392654418945,-0.07569912075996399,0.28896191716194153,0.21832305192947388,0.33342525362968445,16.95037078857422,-24.024574279785156,15.392892837524414,0.2192528247833252,0.01019287109375,-0.0090675950050354,3.551931858062744,10.862199783325195,-0.06663152575492859
3_20251106_150758,1762412843540,3,0.25410768389701843,0.3596537709236145,0.6240716576576233,0.6454556584358215,0.9924260377883911,2.10625958442688,-1.6057969331741333,3.8956778049468994,11.30811882019043,0.1361786276102066,0.3048444092273712,0.15723657608032227,0.2851669192314148,16.619468688964844,-24.048583984375,15.63646125793457,0.2749967575073242,0.3567352294921875,0.16224811971187592,3.620681047439575,10.951383590698242,-0.02606949582695961
3_20251106_150758,1762412843557,3,0.24988320469856262,0.36161506175994873,0.6248852610588074,0.6452219486236572,0.9924260377883911,2.10625958442688,-1.6057969331741333,3.8956778049468994,11.30811882019043,0.1361786276102066,0.36470916867256165,0.17250820994377136,0.13917025923728943,16.32461929321289,-24.082496643066406,15.854204177856445,0.2749967575073242,0.3567352294921875,0.16224811971187592,3.620681047439575,10.951383590698242,-0.02606949582695961
3_20251106_150758,1762412843577,3,0.24630595743656158,0.3631395697593689,0.6261757016181946,0.6444897055625916,1.0686051845550537,2.126758098602295,-1.570730447769165,3.5341689586639404,11.008855819702148,-0.2588476538658142,0.36470916867256165,0.17250820994377136,0.13917025923728943,16.32461929321289,-24.082496643066406,15.854204177856445,-0.10344099998474121,-0.02852916717529297,-0.22961126267910004,3.6376099586486816,11.037384986877441,-0.029236389324069023
3_20251106_150758,1762412843597,3,0.24312609434127808,0.3636763095855713,0.6284919381141663,0.6431384682655334,1.1060413122177124,2.136598587036133,-1.5541149377822876,3.463542938232422,10.914289474487305,-0.2097686529159546,0.4386237859725952,0.1456301510334015,0.08358156681060791,15.724050521850586,-23.901573181152344,16.375085830688477,-0.1392536163330078,-0.09847640991210938,-0.14442580938339233,3.6027965545654297,11.012765884399414,-0.06534284353256226
3_20251106_150758,1762412843616,3,0.24006561934947968,0.36424127221107483,0.6310901045799255,0.641421914100647,1.1381750106811523,2.144510269165039,-1.540113925933838,3.653873920440674,10.808948516845703,-0.14871913194656372,0.4386237859725952,0.1456301510334015,0.08358156681060791,15.724050521850586,-23.901573181152344,16.375085830688477,0.040862083435058594,-0.1630544662475586,-0.06670103222131729,3.6130118370056152,10.972002983093262,-0.08201809972524643
3_20251106_150758,1762412843635,3,0.23681846261024475,0.36556193232536316,0.6335019469261169,0.6394972801208496,1.172421932220459,2.152642250061035,-1.52664053440094,3.7209086418151855,10.899924278259277,-0.5114250779151917,0.509484052658081,0.059498224407434464,0.16360484063625336,15.520563125610352,-23.805702209472656,16.73406410217285,0.08631753921508789,-0.0576629638671875,-0.34352558851242065,3.6345911026000977,10.957587242126465,-0.167899489402771
3_20251106_150758,1762412843656,3,0.2334309220314026,0.36828264594078064,0.6360498070716858,0.6366463303565979,1.172421932220459,2.152642250061035,-1.52664053440094,3.7209086418151855,10.899924278259277,-0.5114250779151917,0.6383764743804932,-0.05962039530277252,0.21064142882823944,15.366511344909668,-23.705711364746094,17.000391006469727,0.08631753921508789,-0.0576629638671875,-0.34352558851242065,3.6345911026000977,10.957587242126465,-0.167899489402771
3_20251106_150758,1762412843673,3,0.23015424609184265,0.3717762231826782,0.6389396786689758,0.632904052734375,1.232911467552185,2.1659531593322754,-1.507447600364685,3.600006580352783,10.72635269165039,-0.7855494022369385,0.6249374747276306,-0.15063923597335815,0.14466804265975952,15.265841484069824,-23.515045166015625,17.31107521057129,-0.02883744239807129,-0.16829204559326172,-0.4004672169685364,3.6288440227508545,10.894644737243652,-0.3850821852684021
3_20251106_150758,1762412843691,3,0.22745579481124878,0.3752155303955078,0.641722559928894,0.6290225386619568,1.25920569896698,2.1705093383789062,-1.5008270740509033,3.5976123809814453,10.489336967468262,-0.8501900434494019,0.636543869972229,-0.18240420520305634,0.1202334463596344,15.175131797790527,-23.373008728027344,17.54009437561035,-0.024985313415527344,-0.3242464065551758,-0.3720862865447998,3.6225976943969727,10.813583374023438,-0.47810375690460205
3_20251106_150758,1762412843711,3,0.2252340167760849,0.37855270504951477,0.6444040536880493,0.625068724155426,1.2869465351104736,2.1730666160583496,-1.4958031177520752,3.61796236038208,10.072763442993164,-1.1243144273757935,0.6725848913192749,-0.25387537479400635,0.11962258815765381,15.101356506347656,-23.13092803955078,17.893362045288086,-0.003708362579345703,-0.5926551818847656,-0.5169685482978821,3.621670722961426,10.66541862487793,-0.6073458790779114
3_20251106_150758,1762412843730,3,0.22331580519676208,0.3821796178817749,0.6471580862998962,0.6206892728805542,1.2869465351104736,2.1730666160583496,-1.4958031177520752,3.61796236038208,10.072763442993164,-1.1243144273757935,0.6725848913192749,-0.25387537479400635,0.11962258815765381,15.137651443481445,-22.88116455078125,18.19698143005371,-0.003708362579345703,-0.5926551818847656,-0.5169685482978821,3.621670722961426,10.66541862487793,-0.6073458790779114
3_20251106_150758,1762412843749,3,0.22165629267692566,0.3863888382911682,0.6498637199401855,0.6158321499824524,1.3135802745819092,2.1731739044189453,-1.4924527406692505,3.713726282119751,9.901586532592773,-1.075235366821289,0.7110694050788879,-0.44813036918640137,0.09030108153820038,15.173834800720215,-22.643150329589844,18.41923713684082,0.07364439964294434,-0.6110658645629883,-0.37431156635284424,3.6400818824768066,10.512652397155762,-0.7009238004684448
3_20251106_150758,1762412843767,3,0.22069787979125977,0.3912472128868103,0.6523866057395935,0.6104177236557007,1.3578779697418213,2.1665921211242676,-1.4909876585006714,3.4419960975646973,9.255179405212402,-1.5612373352050781,0.7275627851486206,-0.5122711658477783,0.03837757557630539,15.209214210510254,-22.417823791503906,18.65474510192871,-0.16335678100585938,-0.8668375015258789,-0.6088250875473022,3.6053528785705566,10.122016906738281,-0.9524122476577759
3_20251106_150758,1762412843787,3,0.2203935980796814,0.3961593508720398,0.6550769805908203,0.6044490337371826,1.3789732456207275,2.1579623222351074,-1.4943199157714844,3.160689353942871,8.861349105834961,-1.9670369625091553,0.7275627851486206,-0.5122711658477783,0.03837757557630539,15.40993595123291,-22.07996368408203,18.7230281829834,-0.3557307720184326,-1.0085334777832031,-0.8116997480392456,3.5164201259613037,9.869882583618164,-1.1553372144699097
3_20251106_150758,1762412843808,3,0.22072571516036987,0.4012335240840912,0.6576662063598633,0.5981362462043762,1.3968223333358765,2.146395444869995,-1.500339150428772,3.082881212234497,8.492658615112305,-2.253131866455078,0.5607966780662537,-0.630168080329895,0.07075341045856476,15.57108211517334,-21.79498291015625,18.81581687927246,-0.3468310832977295,-1.1017789840698242,-0.8782356977462769,3.4297122955322266,9.594437599182129,-1.3748961687088013
3_20251106_150758,1762412843826,3,0.22170861065387726,0.40660354495048523,0.659449577331543,0.5921529531478882,1.4135406017303467,2.1305365562438965,-1.5089808702468872,3.0577433109283447,8.182622909545898,-2.237570285797119,0.5247556567192078,-0.7566170692443848,0.10374009609222412,15.76778507232666,-21.520584106445312,18.95036506652832,-0.2975752353668213,-1.1294517517089844,-0.6901392936706543,3.355318546295166,9.312074661254883,-1.5474309921264648
3_20251106_150758,1762412843845,3,0.22336424887180328,0.41253480315208435,0.6604198217391968,0.5863182544708252,1.4274183511734009,2.1124322414398193,-1.5194059610366821,2.914097309112549,7.930045127868652,-2.504512310028076,0.5394164323806763,-0.8622967004776001,0.0939662754535675,15.993188858032227,-21.16912078857422,19.07396125793457,-0.35297703742980957,-1.1056232452392578,-0.7656650543212891,3.2670743465423584,9.03566837310791,-1.738847255706787
3_20251106_150758,1762412843864,3,0.2256486415863037,0.4192248582839966,0.6610615253448486,0.5799404382705688,1.4274183511734009,2.1124322414398193,-1.5194059610366821,2.914097309112549,7.930045127868652,-2.504512310028076,0.47710826992988586,-0.9325461387634277,0.043264493346214294,16.26358985900879,-20.9007568359375,19.03547477722168,-0.35297703742980957,-1.1056232452392578,-0.7656650543212891,3.2670743465423584,9.03566837310791,-1.738847255706787
3_20251106_150758,1762412843883,3,0.22869470715522766,0.4261380732059479,0.661494791507721,0.5731750726699829,1.4396007061004639,2.0902645587921143,-1.533577799797058,2.709402084350586,7.699014663696289,-2.9713616371154785,0.32927897572517395,-0.9508720636367798,-0.05080867186188698,16.62160301208496,-20.588897705078125,18.974180221557617,-0.4461379051208496,-1.0693225860595703,-0.9860115051269531,3.1555399894714355,8.76833724975586,-1.9853501319885254
3_20251106_150758,1762412843902,3,0.23291341960430145,0.4326697885990143,0.6614586114883423,0.5665869116783142,1.448333501815796,2.0669498443603516,-1.5492669343948364,2.33113431930542,7.5625505447387695,-3.041987419128418,0.15762600302696228,-0.9093332290649414,-0.1632077842950821,17.098756790161133,-20.319183349609375,18.90321922302246,-0.6595244407653809,-0.9646291732788086,-0.8453099727630615,2.990658760070801,8.527179718017578,-2.1966774463653564
3_20251106_150758,1762412843921,3,0.23833239078521729,0.43803656101226807,0.6609624028205872,0.5607587695121765,1.4548200368881226,2.0157370567321777,-1.5858187675476074,1.430953025817871,7.145977020263672,-3.2359094619750977,-0.03968329727649689,-0.9099441766738892,-0.22307252883911133,17.526744842529297,-20.076416015625,18.694604873657227,-1.0635225772857666,-0.9107828140258789,-0.6390607357025146,2.4944756031036377,8.05675983428955,-2.596848726272583
3_20251106_150758,1762412843939,3,0.24479790031909943,0.44208505749702454,0.6600034236907959,0.5559049248695374,1.4548200368881226,2.0157370567321777,-1.5858187675476074,1.430953025817871,7.145977020263672,-3.2359094619750977,-0.15452587604522705,-0.9582024216651917,-0.21085524559020996,17.963098526000977,-19.896041870117188,18.52570915222168,-1.0635225772857666,-0.9107828140258789,-0.6390607357025146,2.4944756031036377,8.05675983428955,-2.596848726272583
3_20251106_150758,1762412843959,3,0.25232580304145813,0.4456633925437927,0.6581388115882874,0.5518778562545776,1.4447498321533203,1.9561965465545654,-1.626360535621643,0.5403483510017395,6.816788673400879,-3.1293718814849854,-0.20644937455654144,-1.0235649347305298,-0.09356920421123505,18.53135871887207,-19.76782989501953,18.171663284301758,-1.317676305770874,-0.802391529083252,-0.32338571548461914,1.8580247163772583,7.619180202484131,-2.805986166000366
3_20251106_150758,1762412843978,3,0.2603064179420471,0.4498290717601776,0.6554303169250488,0.5480012893676758,1.434511661529541,1.9272857904434204,-1.644923448562622,0.33445584774017334,6.979587554931641,-2.9282679557800293,-0.20644937455654144,-1.0235649347305298,-0.09356920421123505,19.11178970336914,-19.650436401367188,17.72322654724121,-1.2188551425933838,-0.5116739273071289,-0.09782552719116211,1.5533109903335571,7.4912614822387695,-2.830442428588867
3_20251106_150758,1762412843997,3,0.26800528168678284,0.454681396484375,0.6517177224159241,0.5447035431861877,1.4199848175048828,1.8950823545455933,-1.6644073724746704,0.3296676576137543,6.936493873596191,-2.7941980361938477,-0.26814672350883484,-0.971030592918396,0.10496184229850769,19.6160888671875,-19.58831024169922,17.297826766967773,-0.9789146184921265,-0.4438138008117676,0.028995513916015625,1.3085823059082031,7.380307674407959,-2.8231935501098633
3_20251106_150758,1762412844017,3,0.27534008026123047,0.4599249064922333,0.6473515033721924,0.5418422222137451,1.4038962125778198,1.8641406297683716,-1.682639718055725,0.5559099912643433,7.265682697296143,-2.7319517135620117,-0.3170158565044403,-0.926437497138977,0.15932878851890564,19.6160888671875,-19.58831024169922,17.297826766967773,-0.6021378040313721,-0.09170007705688477,0.07299351692199707,1.1580477952957153,7.357382774353027,-2.804945230484009
3_20251106_150758,1762412844036,3,0.2819540202617645,0.4652032256126404,0.642774224281311,0.5393785238265991,1.3886044025421143,1.8371267318725586,-1.697862982749939,0.8767192363739014,7.6894378662109375,-2.3560781478881836,-0.43308016657829285,-0.9142202138900757,0.13855940103530884,20.773902893066406,-19.651817321777344,16.165334701538086,-0.22506284713745117,0.2656440734863281,0.35909366607666016,1.1017820835113525,7.423793792724609,-2.7151718139648438
3_20251106_150758,1762412844055,3,0.2886061370372772,0.47006887197494507,0.6376274824142456,0.5377480387687683,1.3737355470657349,1.8125503063201904,-1.7104136943817139,0.977271318435669,7.819915771484375,-2.018510103225708,-0.46851032972335815,-0.9435417056083679,0.06953167915344238,20.773902893066406,-19.651817321777344,16.165334701538086,-0.0996086597442627,0.3168978691101074,0.5573294162750244,1.0768799781799316,7.503017902374268,-2.5758395195007324
3_20251106_150758,1762412844075,3,0.29600244760513306,0.4744856655597687,0.6321069598197937,0.5363643765449524,1.3581854104995728,1.7894504070281982,-1.7207351922988892,0.8527781963348389,7.9887003898620605,-1.8425440788269043,-0.5369272232055664,-0.9465960264205933,0.0011148294433951378,21.24503517150879,-19.777206420898438,15.491701126098633,-0.17928147315979004,0.3885464668273926,0.5866363048553467,1.032059669494629,7.600153923034668,-2.429180383682251
3_20251106_150758,1762412844094,3,0.30411750078201294,0.4785570502281189,0.6264356970787048,0.5348588228225708,1.3434789180755615,1.7694027423858643,-1.727567195892334,0.7869404554367065,7.8917388916015625,-1.5241289138793945,-0.5943485498428345,-0.926437497138977,-0.06669116020202637,21.812654495239258,-19.909202575683594,14.862276077270508,-0.19609540700912476,0.23326778411865234,0.724041223526001,0.9830358624458313,7.65847110748291,-2.2481701374053955
3_20251106_150758,1762412844112,3,0.31283774971961975,0.4817619025707245,0.6206210851669312,0.5337297916412354,1.32970130443573,1.7513741254806519,-1.7325167655944824,0.7629995346069336,7.664299964904785,-1.7611446380615234,-0.5833529233932495,-0.9288809299468994,-0.08196277916431427,22.314903259277344,-20.132400512695312,14.160970687866211,-0.17602908611297607,0.004662990570068359,0.3896205425262451,0.9390286207199097,7.659636974334717,-2.1507651805877686
3_20251106_150758,1762412844131,3,0.32175207138061523,0.4844605028629303,0.6149531006813049,0.5325469970703125,1.3151692152023315,1.7334593534469604,-1.7368282079696655,0.678009033203125,7.719364166259766,-1.9131699800491333,-0.6077874898910522,-1.0107368230819702,-0.07768671214580536,22.860042572021484,-20.251808166503906,13.368631362915039,-0.20881569385528564,0.04778146743774414,0.19007623195648193,0.8868247270584106,7.6715826988220215,-2.1032462120056152
3_20251106_150758,1762412844150,3,0.330823689699173,0.4873862862586975,0.6090545058250427,0.5310959219932556,1.3151692152023315,1.7334593534469604,-1.7368282079696655,0.678009033203125,7.719364166259766,-1.9131699800491333,-0.700639009475708,-1.10236656665802,-0.09845611453056335,23.32652473449707,-20.47631072998047,12.557722091674805,-0.20881569385528564,0.04778146743774414,0.19007623195648193,0.8868247270584106,7.6715826988220215,-2.1032462120056152
3_20251106_150758,1762412844170,3,0.3409762978553772,0.49079975485801697,0.6022975444793701,0.5292338132858276,1.283955693244934,1.7024867534637451,-1.7383545637130737,0.15011024475097656,8.041370391845703,-1.0058064460754395,-0.7495081424713135,-1.0846513509750366,-0.11250600218772888,23.890382766723633,-20.706207275390625,11.669376373291016,-0.5134418606758118,0.25390148162841797,0.760777473449707,0.6635521054267883,7.787468910217285,-1.7665839195251465
3_20251106_150758,1762412844190,3,0.3518165349960327,0.49384236335754395,0.5950407981872559,0.5275142192840576,1.2649600505828857,1.6884918212890625,-1.7342305183410645,0.03519350290298462,8.193395614624023,-0.7209087014198303,-0.755005955696106,-1.0192888975143433,-0.09906698763370514,24.359968185424805,-20.891685485839844,10.724096298217773,-0.5026869177818298,0.3247413635253906,0.836540162563324,0.5378804206848145,7.868654251098633,-1.5574488639831543
3_20251106_150758,1762412844207,3,0.36239704489707947,0.49635741114616394,0.5878037214279175,0.526103138923645,1.249021291732788,1.6792837381362915,-1.7283012866973877,-0.06775274872779846,8.576452255249023,-0.301941454410553,-0.7898252010345459,-0.887952983379364,-0.12961022555828094,24.840429306030273,-21.101348876953125,9.765262603759766,-0.4845065474510193,0.5662384033203125,1.0044059753417969,0.4167537987232208,8.010213851928711,-1.3063474893569946
3_20251106_150758,1762412844226,3,0.37257736921310425,0.4982356131076813,0.5806190371513367,0.5251941680908203,1.2298163175582886,1.6708436012268066,-1.7191089391708374,-0.414897084236145,8.49744701385498,-0.25046831369400024,-0.7574493885040283,-0.6643764972686768,-0.19130757451057434,25.18747329711914,-21.227645874023438,8.867574691772461,-0.6653207540512085,0.3897867202758789,0.8447033762931824,0.2504236400127411,8.107660293579102,-1.0951716899871826
3_20251106_150758,1762412844245,3,0.382160484790802,0.49877509474754333,0.5741777420043945,0.5248778462409973,1.2091223001480103,1.664466381072998,-1.7084856033325195,-0.6423364877700806,8.705733299255371,-0.4060847759246826,-0.68109130859375,-0.5806880593299866,-0.15465568006038666,25.633277893066406,-21.413902282714844,7.840217590332031,-0.7142081260681152,0.4784584045410156,0.55126953125,0.07187162339687347,8.227274894714355,-0.9573543071746826
3_20251106_150758,1762412844265,3,0.3904675245285034,0.49837201833724976,0.5687975883483887,0.525004506111145,1.187243938446045,1.6596287488937378,-1.696427822113037,-0.7369033694267273,8.672216415405273,-0.2408919334411621,-0.6395524740219116,-0.5849640965461731,-0.0807410478591919,25.975753784179688,-21.494293212890625,6.810821533203125,-0.6470199823379517,0.3559532165527344,0.5731698870658875,-0.08988336473703384,8.316263198852539,-0.8140618205070496
3_20251106_150758,1762412844284,3,0.3981735110282898,0.49856746196746826,0.5633897185325623,0.5248622298240662,1.1635987758636475,1.6556038856506348,-1.6825839281082153,-0.671065628528595,8.583634376525879,-0.22652733325958252,-0.6322221159934998,-0.5385383367538452,-0.0007177647203207016,26.28954315185547,-21.64013671875,5.88725471496582,-0.46494582295417786,0.2138967514038086,0.4700276255607605,-0.20611980557441711,8.36973762512207,-0.696554958820343
3_20251106_150758,1762412844304,3,0.40518373250961304,0.4990445077419281,0.5578224062919617,0.5249903798103333,1.1396751403808594,1.6525979042053223,-1.6687238216400146,-0.6866272687911987,8.63869857788086,-0.4635431170463562,-0.680480420589447,-0.4719540774822235,0.009056070819497108,26.592754364013672,-21.761398315429688,4.93669319152832,-0.3844059705734253,0.21516895294189453,0.18640953302383423,-0.30222129821777344,8.423529624938965,-0.6499526500701904
3_20251106_150758,1762412844322,3,0.41177135705947876,0.4995597004890442,0.5520006418228149,0.525528073310852,1.1176165342330933,1.6502599716186523,-1.6566826105117798,-0.953569233417511,8.517796516418457,-0.5724745988845825,-0.680480420589447,-0.4719540774822235,0.009056070819497108,26.84722137451172,-21.885833740234375,3.9841690063476562,-0.52107834815979,0.07541370391845703,0.06198245286941528,-0.43249088525772095,8.4423828125,-0.6344570517539978
3_20251106_150758,1762412844340,3,0.418613463640213,0.49945735931396484,0.5458753705024719,0.5266167521476746,1.095315933227539,1.649103045463562,-1.6438469886779785,-0.9787073135375977,8.874517440795898,-0.06731976568698883,-0.9981300830841064,-0.6051226854324341,0.12450949847698212,27.057479858398438,-21.92608642578125,3.0855960845947266,-0.4369731545448303,0.34570789337158203,0.4537099003791809,-0.5417341589927673,8.528809547424316,-0.5210296511650085
3_20251106_150758,1762412844360,3,0.42566150426864624,0.49878761172294617,0.538820207118988,0.5288629531860352,1.0710047483444214,1.650206446647644,-1.626280665397644,-0.7955588102340698,9.29348373413086,0.8005410432815552,-1.0720447301864624,-0.6051226854324341,0.1465006321668625,27.105487823486328,-22.051467895507812,2.125,-0.20305973291397095,0.6117391586303711,1.0572565793991089,-0.5924990773200989,8.681744575500488,-0.2567155361175537
3_20251106_150758,1762412844379,3,0.4339682161808014,0.4988204836845398,0.529822826385498,0.531166136264801,1.0490190982818604,1.6538888216018677,-1.6069614887237549,-0.6088190674781799,9.660978317260742,1.0064334869384766,-1.06654691696167,-0.46462371945381165,0.06159043684601784,27.243125915527344,-22.095809936523438,1.1559028625488281,-0.013055980205535889,0.7833871841430664,1.01051926612854,-0.595763087272644,8.877591133117676,-0.004085749387741089
3_20251106_150758,1762412844398,3,0.44208037853240967,0.4979037344455719,0.5211072564125061,0.5339513421058655,1.0279228687286377,1.65958571434021,-1.586998462677002,-0.6722626686096191,9.678934097290039,0.5826780796051025,-1.0476101636886597,-0.32656827569007874,-0.06730201840400696,27.25537872314453,-22.21087646484375,0.18058204650878906,-0.06119966506958008,0.6410741806030273,0.46941107511520386,-0.6110630035400391,9.037859916687012,0.11326701194047928
3_20251106_150758,1762412844417,3,0.45002272725105286,0.4957473576068878,0.5134851932525635,0.5367001295089722,1.0072932243347168,1.6667368412017822,-1.5670543909072876,-0.8254849910736084,9.6717529296875,0.47015541791915894,-1.1160269975662231,-0.23371684551239014,-0.12961022555828094,27.35283660888672,-22.320526123046875,-0.7777881622314453,-0.1715375781059265,0.5071144104003906,0.28551071882247925,-0.6539474129676819,9.16463851928711,0.1846446990966797
3_20251106_150758,1762412844436,3,0.4579921364784241,0.4923614263534546,0.5066900253295898,0.5395262837409973,0.9872145056724548,1.6747575998306274,-1.5460237264633179,-0.8290761113166809,9.611900329589844,0.9441869854927063,-1.1337419748306274,-0.2502101957798004,-0.09662352502346039,27.352508544921875,-22.436927795410156,-1.699533462524414,-0.14010292291641235,0.35780906677246094,0.6076338291168213,-0.6889731884002686,9.254091262817383,0.336553156375885
3_20251106_150758,1762412844456,3,0.46609488129615784,0.488450288772583,0.49977704882621765,0.5425816178321838,0.9872145056724548,1.6747575998306274,-1.5460237264633179,-0.8290761113166809,9.611900329589844,0.9441869854927063,-1.0531078577041626,-0.35100287199020386,-0.019654572010040283,27.352508544921875,-22.436927795410156,-1.699533462524414,-0.14010292291641235,0.35780906677246094,0.6076338291168213,-0.6889731884002686,9.254091262817383,0.336553156375885
3_20251106_150758,1762412844474,3,0.4739592373371124,0.48532241582870483,0.4924284517765045,0.5452880263328552,0.9503797888755798,1.69333016872406,-1.4962509870529175,-0.5118580460548401,9.878841400146484,2.0179402828216553,-0.9743063449859619,-0.35650065541267395,0.0011148294433951378,27.382488250732422,-22.450881958007812,-2.6587352752685547,0.14246588945388794,0.4327821731567383,1.1392920017242432,-0.654323935508728,9.446059226989746,0.8786482810974121
3_20251106_150758,1762412844494,3,0.4813549220561981,0.4830876290798187,0.4848497807979584,0.5475805997848511,0.9329995512962341,1.7049310207366943,-1.4654957056045532,-0.5585429668426514,10.040443420410156,2.3734641075134277,-0.948039174079895,-0.24165809154510498,-0.11372774839401245,27.361907958984375,-22.505279541015625,-3.6612396240234375,0.07662475109100342,0.4755077362060547,1.1958526372909546,-0.6351677179336548,9.564935684204102,1.1776114702224731
3_20251106_150758,1762412844513,3,0.4884636402130127,0.480514794588089,0.4779146909713745,0.549642026424408,0.9329995512962341,1.7049310207366943,-1.4654957056045532,-0.5585429668426514,10.040443420410156,2.3734641075134277,-0.9107764363288879,-0.055344343185424805,-0.2811046540737152,27.401660919189453,-22.5565185546875,-4.580194473266602,0.07662475109100342,0.4755077362060547,1.1958526372909546,-0.6351677179336548,9.564935684204102,1.1776114702224731
3_20251106_150758,1762412844532,3,0.4956203103065491,0.4764331877231598,0.472432404756546,0.5515247583389282,0.9151855707168579,1.7176048755645752,-1.431925892829895,-1.0636978149414062,10.108675003051758,2.6092827320098877,-0.8423596024513245,0.18961241841316223,-0.3739561140537262,27.45895767211914,-22.49529266357422,-5.361120223999023,-0.3428241014480591,0.43499183654785156,1.1453371047973633,-0.7208737134933472,9.673683166503906,1.4639456272125244
3_20251106_150758,1762412844551,3,0.5021708607673645,0.47069478034973145,0.4690011441707611,0.5534517168998718,0.8784764409065247,1.7408164739608765,-1.3678313493728638,-1.68137526512146,9.731605529785156,2.131659984588623,-0.8252553939819336,0.3832565248012543,-0.32997384667396545,27.491798400878906,-22.424179077148438,-6.034633636474609,-0.6380875110626221,-0.0029582977294921875,0.3597278594970703,-1.043287754058838,9.734563827514648,1.7719321250915527
3_20251106_150758,1762412844570,3,0.5076621770858765,0.46371111273765564,0.4671337306499481,0.555911123752594,0.8581873178482056,1.7510857582092285,-1.3362056016921997,-1.695739984512329,9.455085754394531,1.973649263381958,-0.8478573560714722,0.36431971192359924,-0.1326645463705063,27.493122100830078,-22.25579833984375,-6.626408576965332,-0.5219618082046509,-0.22358226776123047,0.16137373447418213,-1.1737781763076782,9.678668022155762,1.8122755289077759
3_20251106_150758,1762412844589,3,0.5120211839675903,0.4567045271396637,0.46519044041633606,0.5593327879905701,0.8379568457603455,1.7598176002502441,-1.3047724962234497,-1.522167682647705,9.30545425415039,2.3183999061584473,-0.8454139232635498,0.251920610666275,0.12756381928920746,27.458904266357422,-22.065223693847656,-7.165061950683594,-0.27871155738830566,-0.2985715866088867,0.40489959716796875,-1.2434561252593994,9.604025840759277,1.9135003089904785
3_20251106_150758,1762412844608,3,0.5155510306358337,0.4512861669063568,0.4616355299949646,0.5634186267852783,0.8189814686775208,1.7681376934051514,-1.2731335163116455,-1.1546735763549805,9.613096237182617,2.5614006519317627,-0.827698826789856,0.23970332741737366,0.3047145903110504,27.410991668701172,-21.90069580078125,-7.691217422485352,0.07102608680725098,0.007256507873535156,0.5183203220367432,-1.2256996631622314,9.605839729309082,2.0430803298950195
3_20251106_150758,1762412844629,3,0.5179681181907654,0.44732967019081116,0.45679494738578796,0.5682812333106995,0.8019323348999023,1.7781065702438354,-1.2394566535949707,-0.5920603275299072,10.148178100585938,2.713426113128662,-0.9052786827087402,0.2830747067928314,0.27233877778053284,27.310020446777344,-21.803207397460938,-8.112524032592773,0.5069115161895752,0.4338703155517578,0.5362765789031982,-1.0989718437194824,9.71430778503418,2.177149534225464
3_20251106_150758,1762412844646,3,0.5199217796325684,0.44348111748695374,0.4515269100666046,0.5736978650093079,0.8019323348999023,1.7781065702438354,-1.2394566535949707,-0.5920603275299072,10.148178100585938,2.713426113128662,-1.0469993352890015,0.36798492074012756,0.048762280493974686,27.221965789794922,-21.669143676757812,-8.343320846557617,0.5069115161895752,0.4338703155517578,0.5362765789031982,-1.0989718437194824,9.71430778503418,2.177149534225464
3_20251106_150758,1762412844666,3,0.5228080153465271,0.4380819797515869,0.4464198648929596,0.579193651676178,0.7879171371459961,1.7898602485656738,-1.20469069480896,-0.3813796639442444,10.4653959274292,3.0892996788024902,-1.0469993352890015,0.36798492074012756,0.048762280493974686,27.072772979736328,-21.550933837890625,-8.644414901733398,0.5740737915039062,0.6008710861206055,0.7297201156616211,-0.9554534554481506,9.864524841308594,2.359579563140869
3_20251106_150758,1762412844686,3,0.5269904732704163,0.4303751289844513,0.4422266483306885,0.5843747854232788,0.7643015384674072,1.8144704103469849,-1.1377266645431519,-1.170235276222229,10.133813858032227,3.0031118392944336,-1.0983119010925293,0.4388451874256134,-0.29454368352890015,26.969329833984375,-21.456817626953125,-8.727814674377441,-0.22192418575286865,0.11488628387451172,0.3869619369506836,-0.9483110904693604,10.018927574157715,2.61614990234375
3_20251106_150758,1762412844706,3,0.5321025252342224,0.4215843677520752,0.4388778805732727,0.5886592268943787,0.7505695819854736,1.8252840042114258,-1.1026707887649536,-1.5580792427062988,9.571199417114258,3.2078075408935547,-1.0940358638763428,0.39913901686668396,-0.2041357159614563,26.820358276367188,-21.315109252929688,-8.866186141967773,-0.4878145456314087,-0.3581829071044922,0.4733259677886963,-1.0702646970748901,9.92938232421875,2.7344815731048584
3_20251106_150758,1762412844724,3,0.5371280908584595,0.4129128158092499,0.43550869822502136,0.5927297472953796,0.737359344959259,1.833202600479126,-1.0704330205917358,-1.6670106649398804,9.390445709228516,3.6543068885803223,-1.0897597074508667,0.39608466625213623,-0.032482728362083435,26.705917358398438,-21.220169067382812,-9.112272262573242,-0.47739672660827637,-0.4311494827270508,0.7358603477478027,-1.189613938331604,9.821595191955566,2.9184465408325195
3_20251106_150758,1762412844743,3,0.541384220123291,0.40486735105514526,0.4314793646335602,0.5973366498947144,0.7233445644378662,1.841034173965454,-1.0352755784988403,-1.469497561454773,9.781881332397461,3.9499778747558594,-1.090370774269104,0.3966955244541168,0.08724676072597504,26.58765411376953,-21.18841552734375,-9.31912899017334,-0.22390687465667725,-0.03177165985107422,0.8252248764038086,-1.2455906867980957,9.813652992248535,3.124752998352051
3_20251106_150758,1762412844761,3,0.5447396039962769,0.39739128947257996,0.4268299639225006,0.6026235222816467,0.7104068398475647,1.8490831851959229,-1.0002754926681519,-1.3773247003555298,10.220001220703125,4.488649845123291,-1.1099183559417725,0.40524765849113464,0.08663588762283325,26.421661376953125,-21.135269165039062,-9.47335433959961,-0.10538721084594727,0.32507896423339844,1.0911176204681396,-1.2719374895095825,9.894922256469727,3.3975322246551514
3_20251106_150758,1762412844780,3,0.5476385951042175,0.39000362157821655,0.4218587279319763,0.608296275138855,0.6966415643692017,1.8583321571350098,-0.96103835105896,-1.5604733228683472,10.32414436340332,4.906420707702637,-1.1111401319503784,0.4962664842605591,0.012721259146928787,26.296245574951172,-21.016281127929688,-9.692370414733887,-0.2308286428451538,0.34337806701660156,1.2071106433868408,-1.3296446800231934,9.980766296386719,3.699310064315796
3_20251106_150758,1762412844799,3,0.5498219132423401,0.3814661204814911,0.4176439344882965,0.6146161556243896,0.6823893785476685,1.8680673837661743,-0.9203920960426331,-1.7579864263534546,10.3265380859375,4.927967071533203,-1.0775424242019653,0.6153850555419922,-0.051419537514448166,26.13497543334961,-20.887115478515625,-9.912593841552734,-0.3426734209060669,0.27661800384521484,0.9829256534576416,-1.4153130054473877,10.049920082092285,3.9450414180755615
3_20251106_150758,1762412844819,3,0.552571713924408,0.3724381625652313,0.4139538109302521,0.6201584935188293,0.6664222478866577,1.8784579038619995,-0.8767832517623901,-1.9794405698776245,10.265487670898438,4.919588088989258,-1.0237864255905151,0.6807476282119751,-0.013545924797654152,25.970687866210938,-20.808448791503906,-10.106840133666992,-0.45130205154418945,0.1724538803100586,0.779637336730957,-1.528138518333435,10.093033790588379,4.139950752258301
3_20251106_150758,1762412844838,3,0.5549696683883667,0.36299076676368713,0.41101619601249695,0.6255494356155396,0.6505897641181946,1.8884629011154175,-0.8360261917114258,-2.046475410461426,10.32175064086914,4.650251388549805,-0.9633108377456665,0.7283951044082642,0.12450949847698212,25.78131103515625,-20.755538940429688,-10.397209167480469,-0.4146695137023926,0.18297290802001953,0.40824031829833984,-1.6318058967590332,10.138777732849121,4.242011070251465
3_20251106_150758,1762412844858,3,0.5561968088150024,0.35375210642814636,0.408499538898468,0.6313736438751221,0.6338751316070557,1.900046706199646,-0.7930928468704224,-1.9219820499420166,10.658121109008789,4.957893371582031,-0.9266588687896729,0.7436666488647461,0.32792744040489197,25.563236236572266,-20.779693603515625,-10.676626205444336,-0.23214101791381836,0.41547489166259766,0.5727057456970215,-1.6898410320281982,10.242646217346191,4.38518762588501
3_20251106_150758,1762412844876,3,0.5560458898544312,0.34532973170280457,0.40582677721977234,0.6378597021102905,0.6338751316070557,1.900046706199646,-0.7930928468704224,-1.9219820499420166,10.658121109008789,4.957893371582031,-0.8319748640060425,0.7919250130653381,0.4189462959766388,25.282733917236328,-20.821456909179688,-10.850629806518555,-0.23214101791381836,0.41547489166259766,0.5727057456970215,-1.6898410320281982,10.242646217346191,4.38518762588501
3_20251106_150758,1762412844896,3,0.5544904470443726,0.33775556087493896,0.4030287563800812,0.6450033187866211,0.6055848598480225,1.9275343418121338,-0.708239734172821,-1.4120391607284546,11.26382827758789,5.820965766906738,-0.763558030128479,0.9513607025146484,0.30715808272361755,25.282733917236328,-20.821456909179688,-10.850629806518555,0.20728838443756104,0.6751985549926758,0.97271728515625,-1.6193275451660156,10.588629722595215,4.848248481750488
3_20251106_150758,1762412844915,3,0.5522252321243286,0.3299797475337982,0.40135011076927185,0.6519806385040283,0.5933308601379395,1.9420884847640991,-0.6647303700447083,-1.445556640625,10.853239059448242,5.822163105010986,-0.6981955170631409,1.1101855039596558,0.1300072818994522,24.952484130859375,-20.879364013671875,-10.986310005187988,0.13901662826538086,0.2116870880126953,0.7791314125061035,-1.5845732688903809,10.641551971435547,5.043031692504883
3_20251106_150758,1762412844935,3,0.5500847101211548,0.3207593262195587,0.4013863503932953,0.6583382487297058,0.5815914869308472,1.95522141456604,-0.6220601797103882,-1.6203258037567139,10.388784408569336,5.530082702636719,-0.6670414209365845,1.1804349422454834,0.06097957119345665,24.727893829345703,-20.993576049804688,-11.051314353942871,-0.028602123260498047,-0.20221424102783203,0.38964080810546875,-1.5917236804962158,10.590998649597168,5.14044189453125
3_20251106_150758,1762412844953,3,0.5479596257209778,0.31048691272735596,0.40282803773880005,0.6641293168067932,0.5815914869308472,1.95522141456604,-0.6220601797103882,-1.6203258037567139,10.388784408569336,5.530082702636719,-0.6688740253448486,1.1639416217803955,0.13489419221878052,24.465347290039062,-21.123672485351562,-11.02344036102295,-0.028602123260498047,-0.20221424102783203,0.38964080810546875,-1.5917236804962158,10.590998649597168,5.14044189453125
3_20251106_150758,1762412844972,3,0.545586109161377,0.3000275492668152,0.40433740615844727,0.669948160648346,0.5590150356292725,1.9769428968429565,-0.53755122423172,-1.6706018447875977,10.247532844543457,5.841315746307373,-0.6688740253448486,1.1639416217803955,0.13489419221878052,24.237342834472656,-21.288925170898438,-11.008402824401855,-0.04569375514984131,-0.21886062622070312,0.45258140563964844,-1.6249080896377563,10.46639347076416,5.388734340667725
3_20251106_150758,1762412844992,3,0.5424110889434814,0.29026952385902405,0.4055880010128021,0.6760415434837341,0.5482752919197083,1.9870777130126953,-0.4942755699157715,-1.523364782333374,10.453425407409668,5.85927152633667,-0.5821312665939331,1.1957066059112549,0.32304054498672485,24.00954818725586,-21.442291259765625,-10.925519943237305,0.08123469352722168,-0.010374069213867188,0.37643003463745117,-1.6045994758605957,10.463799476623535,5.482841491699219
3_20251106_150758,1762412845010,3,0.5381600856781006,0.28096669912338257,0.40699532628059387,0.6824926733970642,0.5394107103347778,1.9960328340530396,-0.4555816054344177,-1.4754828214645386,10.581509590148926,6.170504570007324,-0.5821312665939331,1.1957066059112549,0.32304054498672485,23.817916870117188,-21.59381866455078,-10.787100791931152,0.10329329967498779,0.09416866302490234,0.5501303672790527,-1.5787761211395264,10.487340927124023,5.6203742027282715
3_20251106_150758,1762412845029,3,0.5335908532142639,0.2714715301990509,0.4085155427455902,0.6889840960502625,0.5394107103347778,1.9960328340530396,-0.4555816054344177,-1.4754828214645386,10.581509590148926,6.170504570007324,-0.5143252611160278,1.3276532888412476,0.24546071887016296,23.62195587158203,-21.820823669433594,-10.636749267578125,0.10329329967498779,0.09416866302490234,0.5501303672790527,-1.5787761211395264,10.487340927124023,5.6203742027282715
3_20251106_150758,1762412845048,3,0.5288942456245422,0.26145878434181213,0.4107624590396881,0.6951146721839905,0.52192223072052,2.013612985610962,-0.37572523951530457,-1.6287050247192383,10.507292747497559,6.2590861320495605,-0.4660668671131134,1.36797034740448,0.3218187987804413,23.50899887084961,-22.06859588623047,-10.361845970153809,-0.039998769760131836,0.016599655151367188,0.4355893135070801,-1.5887062549591064,10.490693092346191,5.8234968185424805
3_20251106_150758,1762412845067,3,0.5236315131187439,0.2513578534126282,0.4135330319404602,0.701155960559845,0.5144526958465576,2.0217018127441406,-0.3362728953361511,-1.3450044393539429,10.471380233764648,6.506875038146973,-0.38176754117012024,1.3997353315353394,0.47820016741752625,23.432994842529297,-22.313446044921875,-10.13953685760498,0.19496142864227295,-0.01544952392578125,0.5467023849487305,-1.5399658679962158,10.48682975769043,5.960172653198242
3_20251106_150758,1762412845086,3,0.5170388221740723,0.2417544275522232,0.41656437516212463,0.7076014280319214,0.5089786052703857,2.02927827835083,-0.29669877886772156,-0.9487810134887695,10.447439193725586,6.723541259765625,-0.38176754117012024,1.3997353315353394,0.47820016741752625,23.27300262451172,-22.53887176513672,-9.9066162109375,0.4729478359222412,-0.031513214111328125,0.6106948852539062,-1.4217288494110107,10.478952407836914,6.112846374511719
3_20251106_150758,1762412845105,3,0.5090057849884033,0.23308001458644867,0.41987255215644836,0.714348554611206,0.5058213472366333,2.0361924171447754,-0.25762492418289185,-0.6770508885383606,10.375617980957031,6.6517181396484375,-0.1728518009185791,1.3575857877731323,0.616866409778595,23.12338638305664,-22.789161682128906,-9.619668006896973,0.595742404460907,-0.08266830444335938,0.43109703063964844,-1.2727932929992676,10.45828628540039,6.220621109008789
3_20251106_150758,1762412845125,3,0.500174880027771,0.22542715072631836,0.4234779477119446,0.7208842635154724,0.5046243667602539,2.042156457901001,-0.2171022593975067,-0.627971887588501,10.145783424377441,6.697206497192383,-0.13497819006443024,1.3801876306533813,0.5466170310974121,22.984153747558594,-23.064308166503906,-9.278692245483398,0.5158571004867554,-0.2500028610229492,0.3812680244445801,-1.1438289880752563,10.39578628540039,6.315938472747803
3_20251106_150758,1762412845145,3,0.4914208650588989,0.2181391566991806,0.4274303913116455,0.7267903089523315,0.5048313140869141,2.045894145965576,-0.1793498396873474,-0.6746567487716675,9.796245574951172,6.7462849617004395,-0.08183296024799347,1.412563443183899,0.47331327199935913,22.844921112060547,-23.339454650878906,-8.937716484069824,0.3753378391265869,-0.4796333312988281,0.34427690505981445,-1.0499945878982544,10.27587890625,6.402008056640625
3_20251106_150758,1762412845164,3,0.48285216093063354,0.21037356555461884,0.43187564611434937,0.7321749329566956,0.5057498812675476,2.047391414642334,-0.14078009128570557,-0.8159086108207703,9.53887939453125,6.670870780944824,-0.007307469844818115,1.4492154121398926,0.43605053424835205,22.663814544677734,-23.693809509277344,-8.451116561889648,0.18726879358291626,-0.589599609375,0.21509027481079102,-1.0031774044036865,10.12847900390625,6.455780506134033
3_20251106_150758,1762412845181,3,0.47435396909713745,0.202470600605011,0.43689149618148804,0.736966609954834,0.5067924857139587,2.0467426776885986,-0.1096910610795021,-0.866184651851654,9.282711029052734,6.430263996124268,0.06538543850183487,1.5267952680587769,0.45193299651145935,22.48392105102539,-24.0233154296875,-7.936956405639648,0.10959416627883911,-0.6766147613525391,-0.02041339874267578,-0.9757788181304932,9.959325790405273,6.450677394866943
3_20251106_150758,1762412845201,3,0.46526217460632324,0.19419226050376892,0.44272708892822266,0.7414938807487488,0.5089350342750549,2.0441792011260986,-0.07515211403369904,-0.6543070077896118,9.354534149169922,6.382382392883301,0.12708276510238647,1.5182431936264038,0.544173538684845,22.303333282470703,-24.35376739501953,-7.328182220458984,0.257177472114563,-0.48383331298828125,-0.05463600158691406,-0.9114844799041748,9.838367462158203,6.437018394470215
3_20251106_150758,1762412845219,3,0.45499882102012634,0.18585185706615448,0.44910743832588196,0.7461485266685486,0.5121017098426819,2.0410170555114746,-0.0459238663315773,-0.3694092035293579,9.444313049316406,6.314150333404541,0.19916480779647827,1.4284459352493286,0.6382467150688171,22.099979400634766,-24.660430908203125,-6.746893882751465,0.43366026878356934,-0.3152437210083008,-0.09829473495483398,-0.8030694723129272,9.759556770324707,6.412445068359375
3_20251106_150758,1762412845239,3,0.4444897770881653,0.17888911068439484,0.4552980959415436,0.7504206895828247,0.5174358487129211,2.036902904510498,-0.015781857073307037,-0.147955060005188,9.504165649414062,6.1788835525512695,0.23764927685260773,1.3410923480987549,0.7103287577629089,21.87188720703125,-24.94599151611328,-5.922765731811523,0.5240915417671204,-0.20431232452392578,-0.18684959411621094,-0.6720466017723083,9.708477973937988,6.3657331466674805
3_20251106_150758,1762412845258,3,0.43352210521698,0.17333225905895233,0.4612846374511719,0.7544739842414856,0.5244432091712952,2.0322089195251465,0.010271526873111725,0.127366304397583,9.350942611694336,5.946656227111816,0.2138255536556244,1.317879557609558,0.7726369500160217,21.60330581665039,-25.308868408203125,-5.142241477966309,0.6395303606987,-0.2860279083251953,-0.33526134490966797,-0.5121640563011169,9.636970520019531,6.281917572021484
3_20251106_150758,1762412845277,3,0.42236945033073425,0.168504998087883,0.4668072760105133,0.7584860324859619,0.5339747071266174,2.0271453857421875,0.033728014677762985,0.535560131072998,9.416780471801758,5.810192108154297,0.20405173301696777,1.278784155845642,0.8172300457954407,21.300884246826172,-25.624038696289062,-4.348615646362305,0.838179349899292,-0.17615222930908203,-0.37738037109375,-0.30261921882629395,9.59293270111084,6.187572479248047
3_20251106_150758,1762412845297,3,0.4106003940105438,0.1639411300420761,0.4718877375125885,0.7627926468849182,0.5339747071266174,2.0271453857421875,0.033728014677762985,0.535560131072998,9.416780471801758,5.810192108154297,0.20405173301696777,1.278784155845642,0.8172300457954407,21.300884246826172,-25.624038696289062,-4.348615646362305,0.838179349899292,-0.17615222930908203,-0.37738037109375,-0.30261921882629395,9.59293270111084,6.187572479248047
3_20251106_150758,1762412845316,3,0.39894869923591614,0.15977168083190918,0.47678065299987793,0.7668071389198303,0.5622004866600037,2.016078472137451,0.07489115744829178,1.0526854991912842,9.304258346557617,5.643802642822266,0.26147302985191345,1.1712719202041626,0.5869340896606445,20.627887725830078,-26.3609619140625,-2.5496692657470703,0.891527533531189,-0.21060752868652344,-0.372528076171875,0.16115793585777283,9.51486587524414,6.016330718994141
3_20251106_150758,1762412845334,3,0.38831570744514465,0.1554936170578003,0.48181086778640747,0.7699941396713257,0.5775550603866577,2.010021209716797,0.09022001177072525,0.925798237323761,9.109138488769531,5.357707977294922,0.26697081327438354,1.0258861780166626,0.44154831767082214,20.627887725830078,-26.3609619140625,-2.5496692657470703,0.6117122173309326,-0.3245820999145508,-0.5268983840942383,0.314085990190506,9.433720588684082,5.88460636138916
3_20251106_150758,1762412845355,3,0.37922829389572144,0.1514461785554886,0.486728698015213,0.7722338438034058,0.5958970785140991,2.00169038772583,0.10528306663036346,0.7091323137283325,8.951128005981445,5.309825897216797,0.23337322473526,0.926315188407898,0.3157101571559906,20.326595306396484,-26.639808654785156,-1.6200885772705078,0.31603705883026123,-0.3860740661621094,-0.4598240852355957,0.3930952548980713,9.337202072143555,5.769649982452393
3_20251106_150758,1762412845373,3,0.37159475684165955,0.14763137698173523,0.4911844730377197,0.7738605737686157,0.5958970785140991,2.00169038772583,0.10528306663036346,0.7091323137283325,8.951128005981445,5.309825897216797,0.23337322473526,0.926315188407898,0.3157101571559906,19.89346694946289,-26.88958740234375,-0.7086277008056641,0.31603705883026123,-0.3860740661621094,-0.4598240852355957,0.3930952548980713,9.337202072143555,5.769649982452393
3_20251106_150758,1762412845392,3,0.36504143476486206,0.1433442085981369,0.4954034090042114,0.7750952839851379,0.6264887452125549,1.984532117843628,0.1253240704536438,0.3392440378665924,8.812270164489746,5.078795433044434,0.24253618717193604,0.9183740019798279,0.16727003455162048,19.536781311035156,-27.07208251953125,0.23412704467773438,-0.06568384170532227,-0.3445749282836914,-0.45536279678344727,0.4049278795719147,9.156845092773438,5.534158229827881
3_20251106_150758,1762412845411,3,0.35878056287765503,0.1383235901594162,0.4998681843280792,0.7760637402534485,0.6264887452125549,1.984532117843628,0.1253240704536438,0.3392440378665924,8.812270164489746,5.078795433044434,0.3152291178703308,0.7681012153625488,0.24240639805793762,19.227008819580078,-27.300277709960938,1.0426254272460938,-0.06568384170532227,-0.3445749282836914,-0.45536279678344727,0.4049278795719147,9.156845092773438,5.534158229827881
3_20251106_150758,1762412845430,3,0.3528592884540558,0.13433411717414856,0.5043069124221802,0.7766075134277344,0.6525172591209412,1.9655081033706665,0.13863924145698547,0.09504596889019012,8.9583101272583,5.052459716796875,0.3775373101234436,0.6074438095092773,0.3047145903110504,18.923891067504883,-27.4034423828125,1.9078292846679688,-0.2063686102628708,-0.11039924621582031,-0.30369043350219727,0.3014145791530609,9.068709373474121,5.356150150299072
3_20251106_150758,1762412845449,3,0.3468870520591736,0.13217267394065857,0.5085910558700562,0.7768750786781311,0.6637726426124573,1.9571285247802734,0.14304114878177643,0.14412499964237213,9.286301612854004,4.901632308959961,0.4123566150665283,0.5378052592277527,0.24668243527412415,18.632253646850586,-27.51837158203125,2.7732582092285156,-0.12583164870738983,0.1740732192993164,-0.3636140823364258,0.26995664834976196,9.112228393554688,5.265246391296387
3_20251106_150758,1762412845468,3,0.3413233458995819,0.13102351129055023,0.5128076672554016,0.7767621874809265,0.6737193465232849,1.9496816396713257,0.1461465209722519,-0.0019150227308273315,9.299469947814941,4.872902870178223,0.4398455321788788,0.5109272003173828,0.1049618273973465,18.343509674072266,-27.606163024902344,3.436471939086914,-0.2174973338842392,0.14979267120361328,-0.3138751983642578,0.21558231115341187,9.149677276611328,5.1867780685424805
3_20251106_150758,1762412845487,3,0.3366895914077759,0.1296742558479309,0.5172250866889954,0.7760818004608154,0.6737193465232849,1.9496816396713257,0.1461465209722519,-0.0019150227308273315,9.299469947814941,4.872902870178223,0.4606149196624756,0.5152032375335693,-0.00804814137518406,18.023040771484375,-27.60857391357422,4.113578796386719,-0.2174973338842392,0.14979267120361328,-0.3138751983642578,0.21558231115341187,9.149677276611328,5.1867780685424805
3_20251106_150758,1762412845506,3,0.333149254322052,0.12784694135189056,0.5219694972038269,0.774735152721405,0.6867344379425049,1.9339920282363892,0.14601893723011017,-0.7668295502662659,8.630319595336914,4.209737777709961,0.459393173456192,0.4834383428096771,-0.02759581059217453,17.729961395263672,-27.55889892578125,4.765689849853516,-0.6921393275260925,-0.39693355560302734,-0.6733794212341309,-0.07469021528959274,9.027253150939941,4.883117198944092
3_20251106_150758,1762412845525,3,0.32992544770240784,0.12554876506328583,0.5268999934196472,0.7731513977050781,0.6892625689506531,1.9239661693572998,0.14229249954223633,-0.9260371327400208,8.256839752197266,3.954765796661377,0.4282390773296356,0.4486190378665924,0.011499529704451561,17.593978881835938,-27.535491943359375,5.315254211425781,-0.6810775399208069,-0.6163311004638672,-0.7426810264587402,-0.24495959281921387,8.873170852661133,4.697446823120117
3_20251106_150758,1762412845545,3,0.32686978578567505,0.12352234870195389,0.5315418839454651,0.7715967893600464,0.6892625689506531,1.9239661693572998,0.14229249954223633,-0.9260371327400208,8.256839752197266,3.954765796661377,0.3934198021888733,0.41685405373573303,0.07869464159011841,17.397964477539062,-27.50322723388672,5.835597991943359,-0.6810775399208069,-0.6163311004638672,-0.7426810264587402,-0.24495959281921387,8.873170852661133,4.697446823120117
3_20251106_150758,1762412845564,3,0.3235878050327301,0.12175311148166656,0.5358279347419739,0.7702957391738892,0.6880877017974854,1.8997507095336914,0.12594056129455566,-0.9882836937904358,8.319086074829102,3.529813766479492,0.3158399760723114,0.32217004895210266,0.15932878851890564,17.16891860961914,-27.410560607910156,6.3557891845703125,-0.47553592920303345,-0.3358440399169922,-0.7514986991882324,-0.5127477645874023,8.654930114746094,4.281312465667725
3_20251106_150758,1762412845584,3,0.32020363211631775,0.12073313444852829,0.5394236445426941,0.7693603038787842,0.6880877017974854,1.8997507095336914,0.12594056129455566,-0.9882836937904358,8.319086074829102,3.529813766479492,0.24192532896995544,0.2678031027317047,0.1862068474292755,16.937152862548828,-27.36798858642578,6.861408233642578,-0.47553592920303345,-0.3358440399169922,-0.7514986991882324,-0.5127477645874023,8.654930114746094,4.281312465667725
3_20251106_150758,1762412845602,3,0.31675127148628235,0.12031469494104385,0.542110800743103,0.7689660787582397,0.6852520704269409,1.88764226436615,0.11529126018285751,-0.9822984337806702,8.643486976623535,3.769223690032959,0.2437579333782196,0.2830747067928314,0.12939642369747162,16.769123077392578,-27.28282928466797,7.275657653808594,-0.3756405711174011,-0.009154319763183594,-0.4096708297729492,-0.606657862663269,8.652641296386719,4.178894519805908
3_20251106_150758,1762412845621,3,0.3135228455066681,0.11980295181274414,0.5444056391716003,0.7687478065490723,0.6772629618644714,1.86712646484375,0.09525485336780548,-1.139111876487732,8.55370807647705,3.7428884506225586,0.3201160132884979,0.3600436747074127,0.0634230375289917,16.539979934692383,-27.19029998779297,7.809366226196289,-0.3649030923843384,-0.09702587127685547,-0.3267340660095215,-0.7742087841033936,8.650733947753906,4.06962251663208
3_20251106_150758,1762412845640,3,0.31057193875312805,0.11862420290708542,0.5472344160079956,0.7681196928024292,0.671431303024292,1.8564677238464355,0.08298272639513016,-1.2983195781707764,8.380136489868164,3.264068603515625,0.36409828066825867,0.38569995760917664,0.11045961081981659,16.472370147705078,-27.03681182861328,8.309957504272461,-0.41928863525390625,-0.2164773941040039,-0.6444430351257324,-0.8790309429168701,8.596613883972168,3.9085116386413574
3_20251106_150758,1762412845659,3,0.30762213468551636,0.11731093376874924,0.5507738590240479,0.7669777870178223,0.671431303024292,1.8564677238464355,0.08298272639513016,-1.2983195781707764,8.380136489868164,3.264068603515625,0.36409828066825867,0.38569995760917664,0.11045961081981659,16.35137939453125,-26.9739990234375,8.766189575195312,-0.41928863525390625,-0.2164773941040039,-0.6444430351257324,-0.8790309429168701,8.596613883972168,3.9085116386413574
3_20251106_150758,1762412845678,3,0.3036643862724304,0.11637061089277267,0.5542035102844238,0.7662273049354553,0.6575826406478882,1.8344666957855225,0.05333501100540161,-1.1810086965560913,8.321480751037598,2.9456536769866943,0.2694142758846283,0.242757648229599,0.3554163873195648,16.14929962158203,-26.853012084960938,9.125694274902344,-0.17047393321990967,-0.17187118530273438,-0.6300191879272461,-1.0105347633361816,8.493351936340332,3.5756728649139404
3_20251106_150758,1762412845697,3,0.2992674708366394,0.1166011393070221,0.5568524599075317,0.7660016417503357,0.6509888172149658,1.824400782585144,0.03730505704879761,-0.9775102138519287,8.635107040405273,3.109649419784546,0.19977566599845886,0.1969427913427353,0.3719097375869751,15.930129051208496,-26.79749298095703,9.672616958618164,0.026419639587402344,0.1134042739868164,-0.3728187084197998,-1.003929853439331,8.521702766418457,3.4824681282043457
3_20251106_150758,1762412845717,3,0.29480159282684326,0.11754963546991348,0.5588906407356262,0.7661040425300598,0.6450429558753967,1.8155457973480225,0.021215246990323067,-0.7907705307006836,8.920005798339844,3.4627790451049805,0.13807833194732666,0.17800599336624146,0.2955516278743744,15.724935531616211,-26.727142333984375,10.071615219116211,0.17052745819091797,0.31864261627197266,-0.015751361846923828,-0.9612979888916016,8.601363182067871,3.4785304069519043
3_20251106_150758,1762412845737,3,0.29087376594543457,0.11835481226444244,0.5602002143859863,0.7665248513221741,0.639574408531189,1.8082623481750488,0.00569281168282032,-0.902096152305603,8.972675323486328,3.4005322456359863,0.19183441996574402,0.1401323676109314,0.17948731780052185,15.564664840698242,-26.71680450439453,10.511804580688477,0.04736143350601196,0.29704952239990234,-0.062398433685302734,-0.949457585811615,8.675625801086426,3.462930679321289
3_20251106_150758,1762412845756,3,0.2876913845539093,0.11867126077413559,0.5615567564964294,0.7666842937469482,0.6341252326965332,1.802533507347107,-0.00903256144374609,-1.1367177963256836,8.98344898223877,3.201822280883789,0.23581667244434357,0.10286962240934372,0.109848752617836,15.564664840698242,-26.71680450439453,10.511804580688477,-0.14980816841125488,0.24625873565673828,-0.20888662338256836,-0.9869096279144287,8.737190246582031,3.4107089042663574
3_20251106_150758,1762412845774,3,0.285406231880188,0.1190531775355339,0.5633227229118347,0.7661834955215454,0.6283510327339172,1.7977246046066284,-0.023132840171456337,-1.3402161598205566,8.878108024597168,3.0665555000305176,0.20405171811580658,0.14196497201919556,0.07686205208301544,15.345776557922363,-26.67249298095703,10.923299789428711,-0.28264522552490234,0.11273384094238281,-0.27532267570495605,-1.0575709342956543,8.765374183654785,3.3418781757354736
3_20251106_150758,1762412845794,3,0.2834046483039856,0.11903241276741028,0.5652255415916443,0.7655280232429504,0.6212730407714844,1.7927219867706299,-0.03955942019820213,-1.380915880203247,8.78952693939209,2.8343279361724854,0.20405171811580658,0.14196497201919556,0.07686205208301544,15.200709342956543,-26.610862731933594,11.338003158569336,-0.2586759328842163,0.01932239532470703,-0.4060404300689697,-1.1222399473190308,8.770204544067383,3.240368366241455
3_20251106_150758,1762412845813,3,0.2812497019767761,0.11833550781011581,0.5669936537742615,0.765123188495636,0.6141262054443359,1.787452220916748,-0.056181538850069046,-1.398871660232544,8.495052337646484,2.5853419303894043,0.12708276510238647,0.19816452264785767,0.12756381928920746,14.977875709533691,-26.653106689453125,11.612489700317383,-0.22130537033081055,-0.2201213836669922,-0.5240211486816406,-1.1775662899017334,8.715173721313477,3.109363079071045
3_20251106_150758,1762412845832,3,0.27881327271461487,0.11739849299192429,0.5685530304908752,0.7650020718574524,0.6069856882095337,1.7820652723312378,-0.0742148905992508,-1.3055016994476318,8.576452255249023,2.292064666748047,0.09043088555335999,0.13829977810382843,0.2124740183353424,14.745378494262695,-26.646316528320312,11.928089141845703,-0.10234832763671875,-0.1109771728515625,-0.6538386344909668,-1.203153371810913,8.687429428100586,2.9459033012390137
3_20251106_150758,1762412845851,3,0.2759503126144409,0.11687987297773361,0.5698235630989075,0.7651742696762085,0.6069856882095337,1.7820652723312378,-0.0742148905992508,-1.3055016994476318,8.576452255249023,2.292064666748047,0.030566146597266197,-0.01136208325624466,0.28089088201522827,14.60785961151123,-26.67138671875,12.300886154174805,-0.10234832763671875,-0.1109771728515625,-0.6538386344909668,-1.203153371810913,8.687429428100586,2.9459033012390137
3_20251106_150758,1762412845870,3,0.2731610834598541,0.11751801520586014,0.5703004598617554,0.7657217979431152,0.59517902135849,1.7748490571975708,-0.10976289957761765,-0.9152637124061584,9.228843688964844,2.858268976211548,0.07454840838909149,-0.13109156489372253,0.25706714391708374,14.471625328063965,-26.6947021484375,12.49797248840332,0.20761579275131226,0.3882579803466797,-0.01165151596069336,-1.1228795051574707,8.840585708618164,2.869920492172241
3_20251106_150758,1762412845890,3,0.2710716724395752,0.11949043720960617,0.5702235102653503,0.7662162184715271,0.5899419784545898,1.7735005617141724,-0.12790696322917938,-1.0756683349609375,9.32819938659668,2.5973122119903564,0.11608719825744629,-0.07305941730737686,0.16788089275360107,14.3964204788208,-26.713912963867188,12.683992385864258,0.03776895999908447,0.3900909423828125,-0.21808648109436035,-1.113437294960022,8.938108444213867,2.815398693084717
3_20251106_150758,1762412845909,3,0.26962459087371826,0.12164657562971115,0.5705730319023132,0.766127347946167,0.5852731466293335,1.7732093334197998,-0.14561598002910614,-1.0924270153045654,9.275528907775879,2.3291730880737305,0.05683332681655884,0.04361573979258537,0.08969022333621979,14.335305213928223,-26.70654296875,12.803449630737305,0.016808271408081055,0.26993656158447266,-0.3889806270599365,-1.1092352867126465,9.005592346191406,2.718153715133667
3_20251106_150758,1762412845928,3,0.26826557517051697,0.1223747730255127,0.5711820125579834,0.7660346627235413,0.5810742974281311,1.7734439373016357,-0.1622849553823471,-1.107988715171814,9.207296371459961,2.4213459491729736,0.022624904289841652,0.06316341459751129,0.08235983550548553,14.22403621673584,-26.727462768554688,12.920419692993164,0.0009971857070922852,0.1613636016845703,-0.23744630813598633,-1.1089859008789062,9.04593276977539,2.65879225730896
3_20251106_150758,1762412845946,3,0.266936331987381,0.12220236659049988,0.5716914534568787,0.7661465406417847,0.5767614245414734,1.774006962776184,-0.17964184284210205,-1.1462942361831665,9.165400505065918,2.4249370098114014,0.04217257350683212,0.022235477343201637,0.11840085685253143,14.092427253723145,-26.674896240234375,13.065023422241211,-0.029846668243408203,0.09557437896728516,-0.18708443641662598,-1.1164475679397583,9.069826126098633,2.6120214462280273
3_20251106_150758,1762412845965,3,0.2654750943183899,0.12221522629261017,0.5720721483230591,0.7663679718971252,0.5725659132003784,1.7746890783309937,-0.19750136137008667,-1.1522793769836426,9.123503684997559,2.1125073432922363,0.05622246116399765,0.012461640872061253,0.13122901320457458,13.985684394836426,-26.620071411132812,13.143026351928711,-0.02866542339324951,0.042942047119140625,-0.3996114730834961,-1.123613953590393,9.080561637878418,2.5121188163757324
3_20251106_150758,1762412845985,3,0.2638864517211914,0.12263407558202744,0.572589635848999,0.7664632797241211,0.5682322978973389,1.775370717048645,-0.2164374142885208,-1.16903817653656,9.08041000366211,2.1579949855804443,-0.006696605123579502,0.026511529460549355,0.14833322167396545,13.913582801818848,-26.600265502929688,13.194677352905273,-0.036339402198791504,-0.00012111663818359375,-0.28329896926879883,-1.1326987743377686,9.080531120300293,2.441293954849243
3_20251106_150758,1762412846005,3,0.2623042166233063,0.12302209436893463,0.5729016065597534,0.7667110562324524,0.5644152760505676,1.776422381401062,-0.23362134397029877,-1.098412275314331,9.239617347717285,2.4069814682006836,-0.046402812004089355,0.04850265756249428,0.18498510122299194,13.770071029663086,-26.55970001220703,13.203363418579102,0.02742922306060791,0.12726879119873047,-0.027450084686279297,-1.125841498374939,9.112348556518555,2.434431552886963
3_20251106_150758,1762412846023,3,0.2604687213897705,0.12327589094638824,0.5727869868278503,0.7673813700675964,0.5612650513648987,1.778332233428955,-0.24967654049396515,-0.9523722529411316,9.444313049316406,2.5326714515686035,-0.032963789999485016,0.0576656311750412,0.181319922208786,13.612159729003906,-26.5577392578125,13.224283218383789,0.13877540826797485,0.26557159423828125,0.07859182357788086,-1.0911476612091064,9.178741455078125,2.4540796279907227
3_20251106_150758,1762412846042,3,0.2584232985973358,0.1235528439283371,0.5726034641265869,0.7681649327278137,0.5586004853248596,1.7810295820236206,-0.2648907005786896,-0.9715250134468079,9.500574111938477,2.4680309295654297,-0.032963789999485016,0.0576656311750412,0.181319922208786,13.47630786895752,-26.592132568359375,13.272424697875977,0.09569805860519409,0.25746631622314453,0.011161088943481445,-1.067223072052002,9.243107795715332,2.4568698406219482
3_20251106_150758,1762412846061,3,0.25644609332084656,0.12357829511165619,0.5725207328796387,0.7688847780227661,0.5562110543251038,1.7842119932174683,-0.2782759368419647,-1.0636978149414062,9.549654006958008,2.5817506313323975,-0.04518108069896698,0.04422660544514656,0.14222458004951477,13.330174446105957,-26.601531982421875,13.253023147583008,0.002820253372192383,0.2452373504638672,0.09990453720092773,-1.0665180683135986,9.30441665649414,2.4818460941314697
3_20251106_150758,1762412846079,3,0.2552791237831116,0.12403377145528793,0.5723196268081665,0.7693493962287903,0.5540263652801514,1.7886508703231812,-0.2903667390346527,-0.9894808530807495,9.759137153625488,2.967200517654419,-0.06839394569396973,0.052167847752571106,0.16238310933113098,13.213958740234375,-26.721961975097656,13.27326774597168,0.0616297721862793,0.36377620697021484,0.38828349113464355,-1.0511106252670288,9.395360946655273,2.5789170265197754
3_20251106_150758,1762412846099,3,0.2535712420940399,0.12410465627908707,0.5719862580299377,0.7701502442359924,0.5523783564567566,1.7942793369293213,-0.30127716064453125,-0.874563992023468,9.78666877746582,2.967200517654419,-0.0158595759421587,0.06499601155519485,0.15993964672088623,13.12523078918457,-26.79016876220703,13.254999160766602,0.1412373185157776,0.3130464553833008,0.310626745223999,-1.0158013105392456,9.47362232208252,2.65657377243042
3_20251106_150758,1762412846118,3,0.25170183181762695,0.12419731914997101,0.5717161893844604,0.7709486484527588,0.5513015389442444,1.7999519109725952,-0.31126999855041504,-0.8661847114562988,9.68970775604248,2.603297472000122,-0.005474875681102276,0.07965676486492157,0.1202334463596344,13.022202491760254,-26.89684295654297,13.235448837280273,0.11969327926635742,0.1728687286376953,-0.04262113571166992,-0.9858779907226562,9.516839027404785,2.645918607711792
3_20251106_150758,1762412846138,3,0.2497425377368927,0.12409630417823792,0.5718731880187988,0.771485447883606,0.5501701235771179,1.8059825897216797,-0.3207409977912903,-1.0038453340530396,9.6346435546875,2.8175692558288574,-0.07755690813064575,0.0680503323674202,0.10068577527999878,12.86973762512207,-27.00763702392578,13.308549880981445,-0.014373838901519775,0.09424304962158203,0.13732051849365234,-0.9894714951515198,9.540400505065918,2.680248737335205
3_20251106_150758,1762412846157,3,0.24814490973949432,0.1237393319606781,0.5718027949333191,0.7721102833747864,0.5491062998771667,1.8119006156921387,-0.3281038999557495,-1.005042552947998,9.713648796081543,3.1120433807373047,-0.07755690813064575,0.0680503323674202,0.10068577527999878,12.86973762512207,-27.00763702392578,13.308549880981445,-0.012456834316253662,0.13859844207763672,0.34543561935424805,-0.9925857186317444,9.575050354003906,2.7666077613830566
3_20251106_150758,1762412846176,3,0.24684469401836395,0.1237158328294754,0.5718029737472534,0.7725305557250977,0.548376739025116,1.818070411682129,-0.3332017958164215,-0.8901256918907166,9.774699211120605,3.4579906463623047,-0.07816777378320694,0.05522216856479645,0.109848752617836,12.85020637512207,-27.13440704345703,13.345968246459961,0.08196800947189331,0.15971946716308594,0.5531063079833984,-0.9720937013626099,9.61497974395752,2.9048843383789062
3_20251106_150758,1762412846196,3,0.24525940418243408,0.12327399104833603,0.5714697241783142,0.7733522653579712,0.5479000210762024,1.824365496635437,-0.33748796582221985,-0.8889285922050476,9.656190872192383,3.171895980834961,-0.07816777378320694,0.05522216856479645,0.109848752617836,12.848190307617188,-27.17194366455078,13.331659317016602,0.06653207540512085,0.03296947479248047,0.2136092185974121,-0.9554606676101685,9.623221397399902,2.958286762237549
3_20251106_150758,1762412846216,3,0.24396587908267975,0.12290922552347183,0.571347177028656,0.7739098072052002,0.5469397902488708,1.8296563625335693,-0.34137260913848877,-1.1223533153533936,9.396430969238281,3.0198707580566406,0.1154763400554657,0.028954988345503807,0.00844520516693592,12.785343170166016,-27.21331787109375,13.301382064819336,-0.1335141658782959,-0.18143272399902344,0.04926729202270508,-0.9888391494750977,9.577863693237305,2.9706034660339355
3_20251106_150758,1762412846234,3,0.24309927225112915,0.12271451205015182,0.5719536542892456,0.7737653851509094,0.5469397902488708,1.8296563625335693,-0.34137260913848877,-1.1223533153533936,9.396430969238281,3.0198707580566406,0.1460195779800415,0.020402882248163223,0.046318817883729935,12.743145942687988,-27.31615447998047,13.297800064086914,-0.1335141658782959,-0.18143272399902344,0.04926729202270508,-0.9888391494750977,9.577863693237305,2.9706034660339355
3_20251106_150758,1762412846252,3,0.24236054718494415,0.12255149334669113,0.5732018947601318,0.7730990052223206,0.5423569679260254,1.8350348472595215,-0.34769803285598755,-1.4647092819213867,8.973873138427734,2.962412118911743,0.1460195779800415,0.020402882248163223,0.046318817883729935,12.710112571716309,-27.255752563476562,13.297647476196289,-0.31394171714782715,-0.40972900390625,-0.012711763381958008,-1.1507675647735596,9.383602142333984,2.975123882293701
3_20251106_150758,1762412846271,3,0.240923672914505,0.1220831573009491,0.5745794177055359,0.7725995182991028,0.539175808429718,1.8357772827148438,-0.35114744305610657,-1.3150782585144043,8.933172225952148,2.8498897552490234,0.15823686122894287,0.046059198677539825,0.1562744677066803,12.659662246704102,-27.284446716308594,13.33570671081543,-0.13144850730895996,-0.36034393310546875,-0.10018730163574219,-1.1836297512054443,9.293516159057617,2.9500770568847656
3_20251106_150758,1762412846290,3,0.2382512241601944,0.1213662251830101,0.5759398937225342,0.7725282311439514,0.5368900299072266,1.836081862449646,-0.3547222316265106,-0.9152636528015137,9.147445678710938,2.84151029586792,0.14418697357177734,0.12241729348897934,0.26623010635375977,12.607604026794434,-27.338523864746094,13.400270462036133,0.2146928310394287,-0.11685657501220703,-0.0868535041809082,-1.1299564838409424,9.264302253723145,2.928363800048828
3_20251106_150758,1762412846310,3,0.2343703657388687,0.12031180411577225,0.577140212059021,0.7729843258857727,0.536261260509491,1.836977243423462,-0.35825538635253906,-0.5848780870437622,9.458677291870117,2.9420623779296875,-0.017692171037197113,0.2739117443561554,0.29249730706214905,12.521596908569336,-27.356643676757812,13.396574020385742,0.43606269359588623,0.1555004119873047,0.010958671569824219,-1.0209407806396484,9.303176879882812,2.9311037063598633
3_20251106_150758,1762412846329,3,0.2301318347454071,0.11924376338720322,0.5777985453605652,0.7739309668540955,0.5371599793434143,1.8387889862060547,-0.3605978190898895,-0.4376409947872162,9.72801399230957,3.2066102027893066,-0.10443495959043503,0.30140063166618347,0.19109375774860382,12.338213920593262,-27.369369506835938,13.470315933227539,0.46663978695869446,0.33986949920654297,0.22040510177612305,-0.9042807817459106,9.388144493103027,2.9862051010131836
3_20251106_150758,1762412846348,3,0.2263326346874237,0.11810287088155746,0.577864944934845,0.7751756906509399,0.5395708680152893,1.8419820070266724,-0.36171987652778625,-0.423276424407959,9.809412002563477,3.4304585456848145,-0.12337176501750946,0.30140063166618347,0.07564032077789307,12.174070358276367,-27.468673706054688,13.570222854614258,0.3848034739494324,0.33701419830322266,0.35540270805358887,-0.8080798983573914,9.472397804260254,3.0750558376312256
3_20251106_150758,1762412846367,3,0.2234347015619278,0.11664866656064987,0.5774341821670532,0.7765563726425171,0.5424543023109436,1.8456274271011353,-0.3616359233856201,-0.5501636266708374,9.750757217407227,3.4747495651245117,-0.07450258731842041,0.2592509984970093,0.002947423607110977,11.97397518157959,-27.557937622070312,13.682439804077148,0.20633304119110107,0.2226877212524414,0.31975507736206055,-0.7564966678619385,9.528069496154785,3.154994487762451
3_20251106_150758,1762412846386,3,0.2213372141122818,0.1148945614695549,0.5769094228744507,0.7778075933456421,0.5453557372093201,1.8494945764541626,-0.3609941601753235,-0.697400689125061,9.675342559814453,3.359832763671875,-0.07450258731842041,0.2592509984970093,0.002947423607110977,11.815681457519531,-27.544898986816406,13.852304458618164,0.04727679491043091,0.11781883239746094,0.16387057304382324,-0.7446774840354919,9.557523727416992,3.1959621906280518
3_20251106_150758,1762412846405,3,0.21967418491840363,0.11318767070770264,0.5767104625701904,0.7786763310432434,0.5478805303573608,1.853320837020874,-0.3605819046497345,-0.8290761709213257,9.613096237182617,3.124013900756836,-0.009750928729772568,0.21404699981212616,-0.011713329702615738,11.66433048248291,-27.63098907470703,13.966482162475586,-0.06751894950866699,0.04445838928222656,-0.05755877494812012,-0.7615572214126587,9.56863784790039,3.181572675704956
3_20251106_150758,1762412846425,3,0.21809037029743195,0.11154291033744812,0.5767872929573059,0.7793017029762268,0.5478805303573608,1.853320837020874,-0.3605819046497345,-0.8290761709213257,9.613096237182617,3.124013900756836,-0.013416117057204247,0.2171013355255127,0.03104720078408718,11.538649559020996,-27.702117919921875,14.00080680847168,-0.06751894950866699,0.04445838928222656,-0.05755877494812012,-0.7615572214126587,9.56863784790039,3.181572675704956
3_20251106_150758,1762412846444,3,0.2163524031639099,0.10977674275636673,0.5770991444587708,0.7798059582710266,0.5516899228096008,1.8601770401000977,-0.3611392378807068,-0.8829433917999268,9.489801406860352,2.872633457183838,-0.02563341148197651,0.25008800625801086,0.04754054918885231,11.330498695373535,-27.71697235107422,14.127630233764648,-0.07921940088272095,-0.060797691345214844,-0.22836589813232422,-0.8037239909172058,9.550599098205566,3.100999355316162
3_20251106_150758,1762412846463,3,0.21440733969211578,0.10783713310956955,0.5775433778762817,0.7802847623825073,0.5532280206680298,1.8627303838729858,-0.3627878725528717,-0.8613964319229126,9.32939624786377,2.778066635131836,-0.06533961743116379,0.2787986397743225,0.0738077312707901,11.255972862243652,-27.746849060058594,14.12415885925293,-0.04613792896270752,-0.17696285247802734,-0.2583460807800293,-0.8152585029602051,9.506359100341797,3.0364127159118652
3_20251106_150758,1762412846481,3,0.21200761198997498,0.10558856278657913,0.5779589414596558,0.7809399962425232,0.554629921913147,1.8645278215408325,-0.36478349566459656,-0.7799971103668213,9.349745750427246,2.7984166145324707,-0.08305469155311584,0.2745225727558136,0.11351394653320312,11.108738899230957,-27.76934051513672,14.158559799194336,0.028209149837493896,-0.1252908706665039,-0.19039702415466309,-0.8082062602043152,9.47503662109375,2.988813638687134
3_20251106_150758,1762412846501,3,0.20989806950092316,0.10382493585348129,0.5782065987586975,0.7815627455711365,0.5565521121025085,1.8660842180252075,-0.3678254187107086,-0.6626862287521362,9.362913131713867,2.681105613708496,-0.0543440505862236,0.22504256665706635,0.16238310933113098,11.036439895629883,-27.749801635742188,14.237241744995117,0.11641603708267212,-0.08969879150390625,-0.24616646766662598,-0.7791022658348083,9.452611923217773,2.927272081375122
3_20251106_150758,1762412846519,3,0.20725604891777039,0.1023591011762619,0.5784273743629456,0.7822974920272827,0.5587799549102783,1.8675360679626465,-0.37149813771247864,-0.5417842864990234,9.501770973205566,2.491971969604492,-0.06045269966125488,0.17861685156822205,0.20331105589866638,10.924564361572266,-27.78314208984375,14.340429306030273,0.18985438346862793,0.03932762145996094,-0.3482398986816406,-0.7316386699676514,9.462443351745605,2.840211868286133
3_20251106_150758,1762412846539,3,0.2044447809457779,0.10171232372522354,0.5786921381950378,0.7829254865646362,0.5617050528526306,1.8694974184036255,-0.37581855058670044,-0.5429813861846924,9.603520393371582,2.6942732334136963,-0.13009127974510193,0.13829977810382843,0.2387412041425705,10.71389102935791,-27.847816467285156,14.425649642944336,0.15092581510543823,0.11286163330078125,-0.11675095558166504,-0.6939072012901306,9.4906587600708,2.8110241889953613
