session_id,timestamp,label,quaternion_w,quaternion_x,quaternion_y,quaternion_z,position_x,position_y,position_z,accelerometer_x,accelerometer_y,accelerometer_z,gyroscope_x,gyroscope_y,gyroscope_z,magnetometer_x,magnetometer_y,magnetometer_z,linear_acceleration_x,linear_acceleration_y,linear_acceleration_z,gravity_x,gravity_y,gravity_z
4_20251106_213935,1762436338726,4,0.41722723841667175,0.42263805866241455,0.6667496562004089,0.4502703547477722,-0.11642537266016006,2.8142483234405518,1.2959747314453125,-1.4946354627609253,9.470647811889648,-2.2291908264160156,-0.12586866319179535,-0.015493056736886501,0.06204095110297203,33.55990219116211,-12.169517517089844,13.819984436035156,0.388197660446167,0.7592258453369141,0.030993938446044922,-1.8828331232070923,8.711421966552734,-2.2601847648620605
4_20251106_213935,1762436338746,4,0.41747966408729553,0.4225764572620392,0.6659557819366455,0.4512679874897003,-0.12922681868076324,2.8310799598693848,1.2484300136566162,-1.5832171440124512,9.452692031860352,-2.0903329849243164,-0.09471457451581955,-0.005108356010168791,-0.039362598210573196,33.5604133605957,-12.37017822265625,13.870315551757812,0.23969268798828125,0.5930156707763672,0.1358814239501953,-1.8229098320007324,8.859676361083984,-2.2262144088745117
4_20251106_213935,1762436338764,4,0.41798844933509827,0.42189618945121765,0.6657033562660217,0.45180559158325195,-0.12922681868076324,2.8310799598693848,1.2484300136566162,-1.5832171440124512,9.452692031860352,-2.0903329849243164,-0.09471457451581955,-0.005108356010168791,-0.039362598210573196,33.51267623901367,-12.573341369628906,13.851104736328125,0.23969268798828125,0.5930156707763672,0.1358814239501953,-1.8229098320007324,8.859676361083984,-2.2262144088745117
4_20251106_213935,1762436338783,4,0.41871878504753113,0.42066675424575806,0.6661233901977539,0.45165663957595825,-0.15500794351100922,2.867161750793457,1.1602662801742554,-2.3672845363616943,9.495786666870117,-2.2339792251586914,-0.04889971762895584,0.05719984322786331,-0.20063090324401855,33.47067642211914,-12.675910949707031,13.820487976074219,-0.41198718547821045,0.40921688079833984,-0.011098384857177734,-1.9552973508834839,9.086569786071777,-2.2228808403015137
4_20251106_213935,1762436338803,4,0.41935160756111145,0.41873955726623535,0.6670402884483337,0.4515071511268616,-0.1700652688741684,2.886228084564209,1.116947889328003,-2.5528273582458496,9.358125686645508,-2.3752307891845703,-0.09471457451581955,0.15310561656951904,-0.17925062775611877,33.43855285644531,-12.815628051757812,13.816604614257812,-0.4780240058898926,0.21724414825439453,-0.12188005447387695,-2.074803352355957,9.140881538391113,-2.2533507347106934
4_20251106_213935,1762436338821,4,0.4195095896720886,0.416304349899292,0.6680867075920105,0.45206475257873535,-0.1837921291589737,2.903215169906616,1.0795633792877197,-2.421151638031006,9.419174194335938,-2.394383430480957,-0.15702277421951294,0.217246413230896,-0.09617301821708679,33.46151351928711,-12.839149475097656,13.817058563232422,-0.27707862854003906,0.22263431549072266,-0.11282610893249512,-2.144073009490967,9.196539878845215,-2.281557321548462
4_20251106_213935,1762436338841,4,0.41920244693756104,0.4139386713504791,0.6687749028205872,0.4535021483898163,-0.19819596409797668,2.9219536781311035,1.0402538776397705,-2.1159043312072754,9.462268829345703,-2.2315850257873535,-0.1955072581768036,0.20502911508083344,-0.030199620872735977,33.51166915893555,-12.810859680175781,13.819549560546875,0.022535085678100586,0.2125835418701172,0.0399777889251709,-2.138439416885376,9.249685287475586,-2.2715628147125244
4_20251106_213935,1762436338860,4,0.4187973141670227,0.41189154982566833,0.6689871549606323,0.4554232954978943,-0.21067708730697632,2.9399213790893555,1.0053826570510864,-1.9495141506195068,9.6346435546875,-2.050830602645874,-0.16068795323371887,0.13783399760723114,-0.0033215759322047234,33.52365493774414,-12.810333251953125,13.84707260131836,0.1511402130126953,0.3079662322998047,0.17658567428588867,-2.100654363632202,9.326677322387695,-2.2274162769317627
4_20251106_213935,1762436338880,4,0.4185791611671448,0.410534530878067,0.6688938140869141,0.4569835662841797,-0.21067708730697632,2.9399213790893555,1.0053826570510864,-1.9495141506195068,9.6346435546875,-2.050830602645874,-0.07211258262395859,0.0681954100728035,0.02050214819610119,33.538673400878906,-12.747695922851562,13.943496704101562,0.1511402130126953,0.3079662322998047,0.17658567428588867,-2.100654363632202,9.326677322387695,-2.2274162769317627
4_20251106_213935,1762436338899,4,0.4183131754398346,0.409939706325531,0.6688072085380554,0.4578869640827179,-0.22299887239933014,2.9600884914398193,0.9699254631996155,-1.8669179677963257,9.714845657348633,-1.8820465803146362,-0.07211258262395859,0.0681954100728035,0.02050214819610119,33.47825241088867,-12.7393798828125,13.968341827392578,0.1869891881942749,0.3105344772338867,0.2762957811355591,-2.0539071559906006,9.404311180114746,-2.1583423614501953
4_20251106_213935,1762436338919,4,0.4175957143306732,0.4097534418106079,0.6688690781593323,0.45861753821372986,-0.24033276736736298,2.997112989425659,0.9101188778877258,-1.4886503219604492,9.897994995117188,-2.3237576484680176,-0.00491746049374342,0.0578107126057148,0.0583757609128952,33.47825241088867,-12.7393798828125,13.968341827392578,0.391451358795166,0.33396148681640625,-0.1357440948486328,-1.8801016807556152,9.564033508300781,-2.1880135536193848
4_20251106_213935,1762436338939,4,0.4169090986251831,0.4097406566143036,0.6688807010650635,0.45923638343811035,-0.24675218760967255,3.0168063640594482,0.8810298442840576,-1.443162441253662,9.92432975769043,-2.1070919036865234,-0.00491746049374342,0.0578107126057148,0.0583757609128952,33.419647216796875,-12.693794250488281,14.034526824951172,0.3495514392852783,0.2882366180419922,0.06473731994628906,-1.7927138805389404,9.636093139648438,-2.1718292236328125
4_20251106_213935,1762436338956,4,0.4164905548095703,0.408975750207901,0.6689823269844055,0.46014899015426636,-0.2512154281139374,3.033057928085327,0.858497679233551,-1.4647092819213867,9.795047760009766,-1.7360066175460815,-0.07027998566627502,0.09262999892234802,-0.0039324406534433365,33.419647216796875,-12.693794250488281,14.034526824951172,0.26240360736846924,0.12716388702392578,0.3486579656600952,-1.727112889289856,9.66788387298584,-2.0846645832061768
4_20251106_213935,1762436338976,4,0.4161931872367859,0.40722352266311646,0.6692900061607361,0.4615226089954376,-0.2554751932621002,3.0514297485351562,0.8349241018295288,-1.4874533414840698,9.736392974853516,-1.555252194404602,-0.12403608113527298,0.20747257769107819,-0.11083376407623291,33.3338508605957,-12.700027465820312,14.098674774169922,0.19172775745391846,0.05480766296386719,0.42352986335754395,-1.6791810989379883,9.681585311889648,-1.978782057762146
4_20251106_213935,1762436338994,4,0.41575226187705994,0.40497174859046936,0.6699795722961426,0.462898850440979,-0.2554751932621002,3.0514297485351562,0.8349241018295288,-1.4874533414840698,9.736392974853516,-1.555252194404602,-0.05195404589176178,0.18548144400119781,-0.17375284433364868,33.27846145629883,-12.603675842285156,14.11185073852539,0.19172775745391846,0.05480766296386719,0.42352986335754395,-1.6791810989379883,9.681585311889648,-1.978782057762146
4_20251106_213935,1762436339014,4,0.4154711067676544,0.4026842415332794,0.671118438243866,0.46349671483039856,-0.2640472650527954,3.0834522247314453,0.7962623834609985,-2.1422390937805176,9.433539390563965,-1.611513376235962,-0.05195404589176178,0.18548144400119781,-0.17375284433364868,33.18270492553711,-12.561286926269531,14.25766372680664,-0.37277674674987793,-0.20643997192382812,0.23237061500549316,-1.7694623470306396,9.639979362487793,-1.843883991241455
4_20251106_213935,1762436339034,4,0.4153847396373749,0.3999510109424591,0.6729347109794617,0.4633072316646576,-0.2716887891292572,3.0964159965515137,0.7783513069152832,-2.6964731216430664,8.898458480834961,-1.6821393966674805,0.014019345864653587,0.22091159224510193,-0.3026452958583832,33.1337776184082,-12.553123474121094,14.377613067626953,-0.7416086196899414,-0.5932168960571289,0.1293957233428955,-1.954864501953125,9.49167537689209,-1.811535120010376
4_20251106_213935,1762436339051,4,0.41530078649520874,0.39691221714019775,0.6750133037567139,0.46297189593315125,-0.2716887891292572,3.0964159965515137,0.7783513069152832,-2.6964731216430664,8.898458480834961,-1.6821393966674805,-0.040958479046821594,0.2673373222351074,-0.21590250730514526,33.04072952270508,-12.472251892089844,14.443119049072266,-0.7416086196899414,-0.5932168960571289,0.1293957233428955,-1.954864501953125,9.49167537689209,-1.811535120010376
4_20251106_213935,1762436339071,4,0.4147351384162903,0.3938309848308563,0.6768251657485962,0.46346476674079895,-0.2927078902721405,3.1110501289367676,0.7492820620536804,-3.1214256286621094,8.36337661743164,-1.4654734134674072,-0.07944295555353165,0.2642830014228821,-0.09861648082733154,32.984336853027344,-12.388862609863281,14.496578216552734,-0.7623043060302734,-0.7393484115600586,0.2500171661376953,-2.359121322631836,9.1027250289917,-1.7154905796051025
4_20251106_213935,1762436339090,4,0.41384607553482056,0.39129289984703064,0.6780550479888916,0.46461021900177,-0.3060677647590637,3.1149556636810303,0.7366811633110046,-3.1381843090057373,8.430412292480469,-1.4235767126083374,-0.07944295555353165,0.2642830014228821,-0.09861648082733154,32.89048385620117,-12.320686340332031,14.575336456298828,-0.6232504844665527,-0.5378503799438477,0.23353111743927002,-2.5149338245391846,8.968262672424316,-1.6571078300476074
4_20251106_213935,1762436339109,4,0.4125184416770935,0.38929858803749084,0.6790092587471008,0.466070294380188,-0.320085346698761,3.117311716079712,0.7256597876548767,-2.998129367828369,8.474702835083008,-1.3110542297363281,-0.05256490409374237,0.280165433883667,0.05409970507025719,32.80881881713867,-12.251716613769531,14.654582977294922,-0.38655638694763184,-0.3948478698730469,0.27684295177459717,-2.6115729808807373,8.869550704956055,-1.5878971815109253
4_20251106_213935,1762436339128,4,0.41079357266426086,0.38775429129600525,0.6798168420791626,0.46770113706588745,-0.3340093791484833,3.1187326908111572,0.7159818410873413,-2.8329367637634277,8.571663856506348,-1.2990837097167969,-0.020189078524708748,0.29665881395339966,0.08281034231185913,32.77338409423828,-12.217781066894531,14.789066314697266,-0.17709112167358398,-0.2383098602294922,0.23105084896087646,-2.6558456420898438,8.80997371673584,-1.5301345586776733
4_20251106_213935,1762436339147,4,0.4087255597114563,0.3864830732345581,0.6806797981262207,0.46930721402168274,-0.3340093791484833,3.1187326908111572,0.7159818410873413,-2.8329367637634277,8.571663856506348,-1.2990837097167969,-0.020189078524708748,0.29665881395339966,0.08281034231185913,32.72243881225586,-12.247154235839844,14.894706726074219,-0.17709112167358398,-0.2383098602294922,0.23105084896087646,-2.6558456420898438,8.80997371673584,-1.5301345586776733
4_20251106_213935,1762436339166,4,0.4065597653388977,0.3844434320926666,0.6818726062774658,0.47112858295440674,-0.3476771116256714,3.1195929050445557,0.7074315547943115,-2.8161778450012207,8.631516456604004,-1.29549241065979,-0.047067128121852875,0.3620213270187378,0.024778202176094055,32.636756896972656,-12.24163818359375,15.040218353271484,-0.1282658576965332,-0.14276599884033203,0.187713623046875,-2.6879119873046875,8.774282455444336,-1.483206033706665
4_20251106_213935,1762436339185,4,0.4042319059371948,0.38061970472335815,0.6837373375892639,0.4735276997089386,-0.36183440685272217,3.119887113571167,0.7000930905342102,-3.1154403686523438,8.583634376525879,-1.1973344087600708,-0.1948963850736618,0.7651920318603516,-0.16397900879383087,32.495174407958984,-12.152061462402344,15.171607971191406,-0.3420226573944092,-0.15251827239990234,0.2286972999572754,-2.7734177112579346,8.736152648925781,-1.4260317087173462
4_20251106_213935,1762436339204,4,0.4008008539676666,0.3748127222061157,0.6865141987800598,0.4770454168319702,-0.37713852524757385,3.1195085048675537,0.6928589940071106,-3.4494171142578125,8.49625015258789,-1.5217348337173462,-0.1948963850736618,0.7651920318603516,-0.16397900879383087,32.35943603515625,-12.174705505371094,15.30111312866211,-0.5407993793487549,-0.19192218780517578,-0.07656252384185791,-2.9086177349090576,8.688172340393066,-1.4451723098754883
4_20251106_213935,1762436339222,4,0.39633092284202576,0.3687109649181366,0.6891855001449585,0.4816610813140869,-0.39442145824432373,3.1177785396575928,0.6843950748443604,-3.5595457553863525,8.243672370910645,-1.8497264385223389,-0.30607375502586365,0.9008040428161621,0.1359555721282959,32.16470718383789,-12.140693664550781,15.645744323730469,-0.5207424163818359,-0.35560035705566406,-0.3236433267593384,-3.0388033390045166,8.599272727966309,-1.5260831117630005
4_20251106_213935,1762436339242,4,0.3910847306251526,0.36393243074417114,0.6908474564552307,0.48717111349105835,-0.4095904529094696,3.114990472793579,0.676270067691803,-3.1980366706848145,8.067706108093262,-1.886834740638733,-0.30607375502586365,0.9008040428161621,0.1359555721282959,31.97451400756836,-12.243873596191406,15.974445343017578,-0.12738656997680664,-0.42525386810302734,-0.288601279258728,-3.070650100708008,8.492959976196289,-1.5982334613800049
4_20251106_213935,1762436339261,4,0.38555416464805603,0.3607458770275116,0.6914814114570618,0.4930150508880615,-0.4355131983757019,3.108539342880249,0.6597428917884827,-2.4606542587280273,8.583633422851562,-1.311053991317749,-0.29141300916671753,0.6888339519500732,0.3045542538166046,31.713132858276367,-12.302810668945312,16.422908782958984,0.41721129417419434,0.11031818389892578,0.27094006538391113,-2.8778655529022217,8.473315238952637,-1.5819940567016602
4_20251106_213935,1762436339280,4,0.3806523382663727,0.35814133286476135,0.6917215585708618,0.4983571469783783,-0.44615164399147034,3.1051177978515625,0.6543262004852295,-2.641408920288086,8.24606704711914,-0.9363777041435242,-0.2712544798851013,0.815282940864563,0.2086484730243683,31.366844177246094,-12.366767883300781,16.813873291015625,0.18916535377502441,-0.18179893493652344,0.5164931416511536,-2.8305742740631104,8.427865982055664,-1.4528708457946777
4_20251106_213935,1762436339299,4,0.37519824504852295,0.35416457056999207,0.6927938461303711,0.5038158893585205,-0.44615164399147034,3.1051177978515625,0.6543262004852295,-2.641408920288086,8.24606704711914,-0.9363777041435242,-0.32134538888931274,1.0437463521957397,0.22086575627326965,30.932544708251953,-12.474761962890625,17.28171157836914,0.18916535377502441,-0.18179893493652344,0.5164931416511536,-2.8305742740631104,8.427865982055664,-1.4528708457946777
4_20251106_213935,1762436339319,4,0.36837831139564514,0.3488893210887909,0.6943214535713196,0.5103836059570312,-0.465533047914505,3.0907340049743652,0.6459949016571045,-2.561206340789795,7.2477264404296875,-1.2895071506500244,-0.46062254905700684,1.231892704963684,0.41084471344947815,30.456951141357422,-12.672767639160156,17.719196319580078,0.21185016632080078,-0.8024053573608398,0.08405923843383789,-2.7730565071105957,8.050131797790527,-1.3735663890838623
4_20251106_213935,1762436339339,4,0.3598228394985199,0.3434221148490906,0.6951664090156555,0.5189725160598755,-0.465533047914505,3.0907340049743652,0.6459949016571045,-2.561206340789795,7.2477264404296875,-1.2895071506500244,-0.5766868591308594,1.3424592018127441,0.6741273999214172,30.456951141357422,-12.672767639160156,17.719196319580078,0.21185016632080078,-0.8024053573608398,0.08405923843383789,-2.7730565071105957,8.050131797790527,-1.3735663890838623
4_20251106_213935,1762436339358,4,0.34948062896728516,0.33870136737823486,0.6948484182357788,0.5294623374938965,-0.4736563265323639,3.071957588195801,0.6379156708717346,-1.123550295829773,7.71457576751709,-1.4894144535064697,-0.5766868591308594,1.3424592018127441,0.6741273999214172,29.903221130371094,-12.95196533203125,18.260284423828125,1.1878381967544556,-0.20556259155273438,-0.07682418823242188,-2.3113884925842285,7.920138359069824,-1.4125902652740479
4_20251106_213935,1762436339376,4,0.33817747235298157,0.3355729877948761,0.6932317614555359,0.5407925248146057,-0.47042810916900635,3.0641212463378906,0.6352599859237671,-0.17548717558383942,7.937227249145508,-1.0872058868408203,-0.6231125593185425,1.3039747476577759,0.9068668484687805,29.285234451293945,-13.297645568847656,18.77056884765625,1.7087211608886719,0.013671398162841797,0.26030755043029785,-1.88420832157135,7.923555850982666,-1.3475134372711182
4_20251106_213935,1762436339395,4,0.3269639015197754,0.33388906717300415,0.6903469562530518,0.5522986650466919,-0.460122674703598,3.0577661991119385,0.6340038776397705,0.3188942074775696,8.714112281799316,-0.7843523621559143,-0.6438819766044617,1.1286566257476807,0.9642881751060486,28.57207679748535,-13.824684143066406,19.273723602294922,1.762481927871704,0.6324453353881836,0.45052891969680786,-1.4435877799987793,8.081666946411133,-1.2348812818527222
4_20251106_213935,1762436339414,4,0.3162165880203247,0.3320282995700836,0.6873759031295776,0.5632749199867249,-0.4459700584411621,3.055266857147217,0.633534848690033,0.3248794674873352,9.261163711547852,-0.9926389455795288,-0.5827955007553101,1.1439281702041626,0.7999655604362488,27.78911781311035,-14.305587768554688,19.707412719726562,1.414773941040039,0.9435977935791016,0.1937938928604126,-1.089894413948059,8.31756591796875,-1.1864328384399414
4_20251106_213935,1762436339433,4,0.306018590927124,0.3292293846607208,0.6850277185440063,0.5733216404914856,-0.42834463715553284,3.05578351020813,0.6325240135192871,0.4338109493255615,9.371292114257812,-1.3924534320831299,-0.5827955007553101,1.1439281702041626,0.7999655604362488,26.987728118896484,-14.900169372558594,20.124717712402344,1.2189643383026123,0.8429813385009766,-0.1648164987564087,-0.785153329372406,8.528310775756836,-1.2276369333267212
4_20251106_213935,1762436339452,4,0.29586663842201233,0.32571032643318176,0.6828285455703735,0.5831988453865051,-0.40741536021232605,3.0591485500335693,0.63158118724823,0.74025559425354,9.575987815856934,-1.2212754487991333,-0.5925693511962891,1.1781365871429443,0.7388790845870972,26.210512161254883,-15.493431091308594,20.570037841796875,1.2203271389007568,0.8381414413452148,0.005089163780212402,-0.4800715744495392,8.737846374511719,-1.2263646125793457
4_20251106_213935,1762436339472,4,0.28634870052337646,0.32248249650001526,0.6798098087310791,0.5931847095489502,-0.40741536021232605,3.0591485500335693,0.63158118724823,0.74025559425354,9.575987815856934,-1.2212754487991333,-0.7440637946128845,1.0773439407348633,0.7223857641220093,25.3173770904541,-16.20671844482422,20.995052337646484,1.2203271389007568,0.8381414413452148,0.005089163780212402,-0.4800715744495392,8.737846374511719,-1.2263646125793457
4_20251106_213935,1762436339491,4,0.2774108350276947,0.31911468505859375,0.6762057542800903,0.6032866835594177,-0.3822777569293976,3.0669212341308594,0.6323641538619995,0.9042513370513916,10.1876802444458,-0.6586621403694153,-0.7019141316413879,1.0675700902938843,0.6710731387138367,24.389488220214844,-16.89673614501953,21.365055084228516,1.1074583530426025,1.159867286682129,0.45416194200515747,-0.20320700109004974,9.027812957763672,-1.1128240823745728
4_20251106_213935,1762436339510,4,0.2685803771018982,0.31536591053009033,0.672821044921875,0.612960696220398,-0.32789888978004456,3.0931551456451416,0.6405186057090759,1.3304009437561035,10.780220031738281,-0.22533029317855835,-0.6170039176940918,1.104222059249878,0.6808469891548157,23.482336044311523,-17.659690856933594,21.653358459472656,1.0291996002197266,1.1437578201293945,0.5653146505355835,0.30120137333869934,9.636462211608887,-0.7906449437141418
4_20251106_213935,1762436339530,4,0.2590975761413574,0.31150099635124207,0.6698567271232605,0.6221957206726074,-0.29702863097190857,3.110463857650757,0.6465319991111755,1.7529592514038086,10.82331371307373,-0.3187001347541809,-0.5577500462532043,1.0938372611999512,0.7431551814079285,22.629777908325195,-18.30713653564453,22.013580322265625,1.1614062786102295,0.9494810104370117,0.37755584716796875,0.5915529727935791,9.873832702636719,-0.6962559819221497
4_20251106_213935,1762436339550,4,0.24909146130084991,0.30825766921043396,0.6668949723243713,0.6310164332389832,-0.25889280438423157,3.132077217102051,0.6540352702140808,2.298813819885254,10.899924278259277,-0.34144410490989685,-0.5088808536529541,0.980216383934021,0.8158480525016785,21.764612197875977,-18.979141235351562,22.237621307373047,1.3658087253570557,0.8208732604980469,0.2838495075702667,0.9330050945281982,10.07905101776123,-0.6252936124801636
4_20251106_213935,1762436339568,4,0.2391807585954666,0.3063357472419739,0.663607120513916,0.63919997215271,-0.22350935637950897,3.152184247970581,0.6612272262573242,2.691446304321289,11.097437858581543,-0.18582764267921448,-0.4062555730342865,0.780463695526123,0.8176806569099426,20.877906799316406,-19.59088897705078,22.55661392211914,1.4067529439926147,0.8147096633911133,0.35157278180122375,1.2846933603286743,10.28272819519043,-0.5374004244804382
4_20251106_213935,1762436339587,4,0.23010912537574768,0.3058854341506958,0.6603771448135376,0.6460541486740112,-0.18568238615989685,3.1732773780822754,0.6693615317344666,2.9954967498779297,11.091452598571777,-0.008664354681968689,-0.2724761962890625,0.6479060649871826,0.765757143497467,20.002668380737305,-20.22601318359375,22.780956268310547,1.368642807006836,0.6469793319702148,0.4229888319969177,1.6268539428710938,10.444473266601562,-0.4316532015800476
4_20251106_213935,1762436339606,4,0.22169724106788635,0.3061560392379761,0.6577464938163757,0.6515277028083801,-0.18568238615989685,3.1732773780822754,0.6693615317344666,2.9954967498779297,11.091452598571777,-0.008664354681968689,-0.2724761962890625,0.6479060649871826,0.765757143497467,19.116357803344727,-20.83722686767578,23.045886993408203,1.368642807006836,0.6469793319702148,0.4229888319969177,1.6268539428710938,10.444473266601562,-0.4316532015800476
4_20251106_213935,1762436339625,4,0.21360397338867188,0.30641764402389526,0.6555936336517334,0.6562610268592834,-0.13508866727352142,3.1991138458251953,0.6788915991783142,3.4407989978790283,10.81014633178711,-0.4084787964820862,-0.1942855268716812,0.5697153210639954,0.6270908713340759,18.319875717163086,-21.36713409423828,23.275283813476562,1.4511561393737793,0.2925386428833008,0.01853954792022705,1.989642858505249,10.517607688903809,-0.42701834440231323
4_20251106_213935,1762436339644,4,0.20624929666519165,0.3065877854824066,0.6535630822181702,0.6605455875396729,-0.04479844868183136,3.236968994140625,0.6910107731819153,4.2404279708862305,10.03924560546875,-0.8047022223472595,-0.22421789169311523,0.5177918672561646,0.5226330161094666,17.597511291503906,-21.879310607910156,23.46733856201172,1.5012168884277344,-0.3779745101928711,-0.2503364682197571,2.739211082458496,10.417220115661621,-0.5543657541275024
4_20251106_213935,1762436339663,4,0.19993436336517334,0.30649882555007935,0.6515147686004639,0.6645398736000061,-0.04479844868183136,3.236968994140625,0.6910107731819153,4.2404279708862305,10.03924560546875,-0.8047022223472595,-0.23032653331756592,0.49763327836990356,0.4151207506656647,16.91482162475586,-22.338478088378906,23.62137222290039,1.5012168884277344,-0.3779745101928711,-0.2503364682197571,2.739211082458496,10.417220115661621,-0.5543657541275024
4_20251106_213935,1762436339682,4,0.19442619383335114,0.30595889687538147,0.6496372818946838,0.6682506799697876,0.059801314026117325,3.2693915367126465,0.6964443922042847,4.605527877807617,10.303794860839844,-1.493005633354187,-0.23032653331756592,0.49763327836990356,0.4151207506656647,16.2548828125,-22.833045959472656,23.708011627197266,1.2130212783813477,-0.0231781005859375,-0.6545488834381104,3.3925065994262695,10.326972961425781,-0.8384567499160767
4_20251106_213935,1762436339701,4,0.1900622695684433,0.3051377832889557,0.6480054259300232,0.6714583039283752,0.11049510538578033,3.2844221591949463,0.6960689425468445,4.635454177856445,10.688047409057617,-1.5408875942230225,-0.3121824264526367,0.41516655683517456,0.17382918298244476,15.711864471435547,-23.194625854492188,23.774673461914062,0.9943580627441406,0.28885936737060547,-0.5619447231292725,3.6410961151123047,10.399188041687012,-0.97894287109375
4_20251106_213935,1762436339720,4,0.18693363666534424,0.303710401058197,0.6461459994316101,0.6747674942016602,0.11049510538578033,3.2844221591949463,0.6960689425468445,4.635454177856445,10.688047409057617,-1.5408875942230225,-0.47589415311813354,0.3974514901638031,0.0736473798751831,15.242061614990234,-23.551307678222656,23.830760955810547,0.9943580627441406,0.28885936737060547,-0.5619447231292725,3.6410961151123047,10.399188041687012,-0.97894287109375
4_20251106_213935,1762436339739,4,0.18502524495124817,0.30146554112434387,0.6435049176216125,0.6788119077682495,0.1734277904033661,3.3037824630737305,0.6947724223136902,4.747976779937744,10.91788101196289,-1.2128961086273193,-0.6554883718490601,0.37484949827194214,-0.001488981768488884,14.822004318237305,-23.89185333251953,23.848526000976562,0.8855047225952148,0.41495513916015625,-0.1871626377105713,3.8624720573425293,10.502925872802734,-1.025733470916748
4_20251106_213935,1762436339759,4,0.18418948352336884,0.2985081672668457,0.6398451924324036,0.68378746509552,0.27670806646347046,3.3382787704467773,0.6979513764381409,5.123850345611572,11.375153541564941,0.25468650460243225,-0.6976380348205566,0.3247585892677307,-0.09250782430171967,14.454301834106445,-24.17790985107422,23.76117706298828,0.8369688987731934,0.587529182434082,0.9437704086303711,4.286881446838379,10.78762435913086,-0.6890839338302612
4_20251106_213935,1762436339779,4,0.1843574345111847,0.29520562291145325,0.6359595060348511,0.6887826323509216,0.3366464674472809,3.359778881072998,0.7056076526641846,5.1202592849731445,11.347620964050293,0.5934514999389648,-0.5553065538406372,0.16898810863494873,-0.2085721343755722,14.454301834106445,-24.17790985107422,23.76117706298828,0.6667022705078125,0.4479970932006836,1.0260283946990967,4.453557014465332,10.89962387084961,-0.43257686495780945
4_20251106_213935,1762436339797,4,0.1858033388853073,0.29241952300071716,0.6329290866851807,0.6923645734786987,0.3366464674472809,3.359778881072998,0.7056076526641846,5.1202592849731445,11.347620964050293,0.5934514999389648,-0.3854861557483673,-0.057642724364995956,-0.29409316182136536,14.234636306762695,-24.428787231445312,23.626178741455078,0.6667022705078125,0.4479970932006836,1.0260283946990967,4.453557014465332,10.89962387084961,-0.43257686495780945
4_20251106_213935,1762436339816,4,0.1887614130973816,0.2909439206123352,0.6307761669158936,0.6941485404968262,0.43622639775276184,3.3985438346862793,0.7258554697036743,4.367315292358398,11.32487678527832,0.6329541206359863,-0.3854861557483673,-0.057642724364995956,-0.29409316182136536,14.077198028564453,-24.662322998046875,23.412799835205078,-0.12433624267578125,0.2556905746459961,0.6819398403167725,4.49165153503418,11.069186210632324,-0.04898573458194733
4_20251106_213935,1762436339835,4,0.192959725856781,0.29069674015045166,0.6292140483856201,0.6945154070854187,0.48183926939964294,3.4175102710723877,0.7384569644927979,3.9734859466552734,11.129758834838867,0.6425305008888245,-0.1997833102941513,-0.3838444948196411,-0.36006656289100647,13.979689598083496,-24.90485382080078,23.242156982421875,-0.4145326614379883,0.048458099365234375,0.5532130002975464,4.388018608093262,11.081300735473633,0.08931750059127808
4_20251106_213935,1762436339854,4,0.19782155752182007,0.2911415994167328,0.6279428005218506,0.694111704826355,0.5233083963394165,3.434823751449585,0.7521235346794128,3.7089381217956543,10.82451057434082,0.7071712017059326,-0.1997833102941513,-0.3838444948196411,-0.36006656289100647,13.922362327575684,-25.082077026367188,23.060787200927734,-0.5432643890380859,-0.20543193817138672,0.49428296089172363,4.25220251083374,11.029942512512207,0.21288824081420898
4_20251106_213935,1762436339874,4,0.20316347479820251,0.291880339384079,0.6267530918121338,0.6933332681655884,0.5606158375740051,3.449791669845581,0.7664365768432617,3.491075277328491,10.490533828735352,0.6975947618484497,-0.18206822872161865,-0.4974653422832489,-0.3948858678340912,14.027978897094727,-25.17322540283203,22.84682846069336,-0.6089017391204834,-0.43152713775634766,0.38776522874832153,4.099977016448975,10.9220609664917,0.3098295331001282
4_20251106_213935,1762436339892,4,0.20894066989421844,0.29279762506484985,0.6254708766937256,0.6923868656158447,0.5940260291099548,3.46213436126709,0.7810617089271545,3.3593997955322266,10.237956047058105,0.6844272017478943,-0.1839008331298828,-0.5609952807426453,-0.4144335091114044,14.156249046325684,-25.29991912841797,22.578994750976562,-0.5924618244171143,-0.5472841262817383,0.29967814683914185,3.951861619949341,10.785240173339844,0.38474905490875244
4_20251106_213935,1762436339911,4,0.21540023386478424,0.29413285851478577,0.624020516872406,0.6911489963531494,0.5940260291099548,3.46213436126709,0.7810617089271545,3.3593997955322266,10.237956047058105,0.6844272017478943,-0.16068796813488007,-0.6446837186813354,-0.45352888107299805,14.399831771850586,-25.319007873535156,22.317684173583984,-0.5924618244171143,-0.5472841262817383,0.29967814683914185,3.951861619949341,10.785240173339844,0.38474905490875244
4_20251106_213935,1762436339932,4,0.22222290933132172,0.2955293655395508,0.622770369052887,0.6895189881324768,0.6517318487167358,3.479574680328369,0.8111722469329834,2.879383087158203,9.739984512329102,0.48691409826278687,-0.16068796813488007,-0.6446837186813354,-0.45352888107299805,14.70062255859375,-25.397178649902344,22.08454132080078,-0.728905200958252,-0.7294864654541016,0.04584980010986328,3.608288288116455,10.469470977783203,0.4410642981529236
4_20251106_213935,1762436339949,4,0.22987404465675354,0.2972389757633209,0.6215681433677673,0.6873572468757629,0.6711451411247253,3.4828686714172363,0.8232723474502563,2.644761323928833,9.370096206665039,0.5312049388885498,-0.1692400723695755,-0.8193910121917725,-0.5207239985466003,15.10181999206543,-25.41863250732422,21.84286117553711,-0.7708218097686768,-0.8794994354248047,0.07211250066757202,3.4155831336975098,10.249595642089844,0.4590924382209778
4_20251106_213935,1762436339969,4,0.23818805813789368,0.29928529262542725,0.6200459003448486,0.6850093603134155,0.689767599105835,3.483985662460327,0.8369752168655396,2.4041543006896973,9.406007766723633,0.5180373787879944,-0.21444405615329742,-0.8792557716369629,-0.5017871260643005,15.479870796203613,-25.40522003173828,21.722637176513672,-0.80914306640625,-0.674870491027832,0.047155946493148804,3.2132973670959473,10.080878257751465,0.4708814322948456
4_20251106_213935,1762436339989,4,0.24693205952644348,0.3017462193965912,0.6179545521736145,0.6827195286750793,0.7040128707885742,3.484038829803467,0.8496520519256592,2.279661178588867,9.73280143737793,0.5838750600814819,-0.2413221001625061,-0.9421748518943787,-0.4834612309932709,15.956892013549805,-25.38343048095703,21.403594970703125,-0.7469089031219482,-0.2784614562988281,0.09039491415023804,3.0265700817108154,10.011262893676758,0.4934801459312439
4_20251106_213935,1762436340007,4,0.25583431124687195,0.3044533431529999,0.6155226230621338,0.680432915687561,0.7153225541114807,3.484143018722534,0.8623338937759399,2.216217517852783,10.030866622924805,0.7263239622116089,-0.24743075668811798,-0.9824919104576111,-0.5256108641624451,16.47017478942871,-25.359664916992188,21.126571655273438,-0.6482820510864258,0.01568317413330078,0.18627506494522095,2.864499568939209,10.015183448791504,0.5400488972663879
4_20251106_213935,1762436340027,4,0.26539140939712524,0.30724069476127625,0.6129496693611145,0.6778371930122375,0.7237035632133484,3.484370470046997,0.8755823969841003,2.003142833709717,10.061989784240723,0.9777042865753174,-0.24010038375854492,-1.0087590217590332,-0.6312904953956604,17.04427719116211,-25.343673706054688,20.77063751220703,-0.6890854835510254,0.037445068359375,0.3501243591308594,2.692228317260742,10.024544715881348,0.627579927444458
4_20251106_213935,1762436340045,4,0.2756510078907013,0.309478223323822,0.6106166243553162,0.6748237609863281,0.7286583185195923,3.4843838214874268,0.8895527124404907,1.5961458683013916,9.950664520263672,1.1321237087249756,-0.24010038375854492,-1.0087590217590332,-0.6312904953956604,17.69611930847168,-25.247032165527344,20.36516571044922,-0.8768658638000488,-0.05910491943359375,0.40363502502441406,2.4730117321014404,10.009769439697266,0.7284886837005615
4_20251106_213935,1762436340065,4,0.2865317463874817,0.3111821711063385,0.6084620356559753,0.6714455485343933,0.7286583185195923,3.4843838214874268,0.8895527124404907,1.5961458683013916,9.950664520263672,1.1321237087249756,-0.2315482795238495,-0.974550724029541,-0.7522416710853577,18.345142364501953,-25.20062255859375,19.958637237548828,-0.8768658638000488,-0.05910491943359375,0.40363502502441406,2.4730117321014404,10.009769439697266,0.7284886837005615
4_20251106_213935,1762436340084,4,0.2973726987838745,0.3123643696308136,0.6064340472221375,0.6680087447166443,0.7271575927734375,3.483248472213745,0.9185235500335693,0.8384135961532593,9.82377815246582,1.1129709482192993,-0.24865248799324036,-0.9684420824050903,-0.7155898213386536,19.00010108947754,-25.05335235595703,19.513671875,-1.100345253944397,-0.12688636779785156,0.24415338039398193,1.9387588500976562,9.950664520263672,0.8688175678253174
4_20251106_213935,1762436340102,4,0.3079598844051361,0.3135480582714081,0.6041714549064636,0.6646993160247803,0.7210087776184082,3.4819536209106445,0.9330730438232422,0.6109742522239685,9.745969772338867,1.1512764692306519,-0.25964805483818054,-1.0014287233352661,-0.6117427945137024,19.6546630859375,-24.90662384033203,19.122772216796875,-1.062227725982666,-0.1637554168701172,0.2259671688079834,1.6732020378112793,9.909725189208984,0.9253093004226685
4_20251106_213935,1762436340122,4,0.3180597126483917,0.3153934180736542,0.6014001369476318,0.6615760922431946,0.7113869786262512,3.4803466796875,0.9488516449928284,0.5307719707489014,9.807018280029297,1.329636812210083,-0.23948951065540314,-1.1009995937347412,-0.48468294739723206,20.419567108154297,-24.7750244140625,18.451915740966797,-0.9139441251754761,-0.08216571807861328,0.32346200942993164,1.4447160959243774,9.88918399810791,1.0061748027801514
4_20251106_213935,1762436340140,4,0.3278424143791199,0.3185865879058838,0.5980082154273987,0.6583373546600342,0.7007624506950378,3.4792096614837646,0.963645875453949,0.47091948986053467,9.985379219055176,1.5355292558670044,-0.23948951065540314,-1.1009995937347412,-0.48468294739723206,21.198091506958008,-24.59429168701172,17.97183609008789,-0.779037356376648,0.07695579528808594,0.4234834909439087,1.2499568462371826,9.90842342376709,1.1120457649230957
4_20251106_213935,1762436340159,4,0.33743199706077576,0.32318490743637085,0.5941960215568542,0.6546924710273743,0.6878265738487244,3.478296995162964,0.9798696637153625,0.41824930906295776,9.991363525390625,1.6181256771087646,-0.11548397690057755,-1.2360007762908936,-0.31425172090530396,21.914770126342773,-24.441970825195312,17.421192169189453,-0.665365993976593,0.06635189056396484,0.40486395359039307,1.0836153030395508,9.92501163482666,1.2132617235183716
4_20251106_213935,1762436340179,4,0.34656134247779846,0.328546941280365,0.5903796553611755,0.6506949663162231,0.6730172038078308,3.47761869430542,0.9968839287757874,0.4673283100128174,10.002138137817383,1.4732826948165894,-0.08982765674591064,-1.2469964027404785,-0.26354995369911194,22.56809425354004,-24.343307495117188,16.812976837158203,-0.4930295944213867,0.06170082092285156,0.2080167531967163,0.9603579044342041,9.940437316894531,1.265265941619873
4_20251106_213935,1762436340199,4,0.35524463653564453,0.33422598242759705,0.58647221326828,0.6466410160064697,0.6585158109664917,3.477520704269409,1.0130399465560913,0.5463336110115051,10.127828598022461,1.5570762157440186,-0.09960149228572845,-1.295865535736084,-0.2513326406478882,23.285070419311523,-24.190582275390625,16.221786499023438,-0.3312194347381592,0.14991283416748047,0.23344826698303223,0.8775530457496643,9.97791576385498,1.3236279487609863
4_20251106_213935,1762436340218,4,0.364210307598114,0.3403366506099701,0.5821655988693237,0.6423434019088745,0.6585158109664917,3.477520704269409,1.0130399465560913,0.5463336110115051,10.127828598022461,1.5570762157440186,-0.11059705913066864,-1.3001415729522705,-0.3111973702907562,23.285070419311523,-24.190582275390625,16.221786499023438,-0.3312194347381592,0.14991283416748047,0.23344826698303223,0.8775530457496643,9.97791576385498,1.3236279487609863
4_20251106_213935,1762436340236,4,0.37353596091270447,0.3460651636123657,0.5778603553771973,0.6377986669540405,0.6277664303779602,3.479604959487915,1.0470534563064575,0.2518594563007355,10.266685485839844,1.8431708812713623,-0.10876446217298508,-1.2305030822753906,-0.40282711386680603,23.9632625579834,-24.08966064453125,15.54697036743164,-0.4303222596645355,0.18423748016357422,0.33461427688598633,0.682181715965271,10.08244800567627,1.508556604385376
4_20251106_213935,1762436340257,4,0.38299399614334106,0.3507806360721588,0.574000358581543,0.6330814957618713,0.6100171804428101,3.4810216426849365,1.0654808282852173,-0.006703212857246399,10.112265586853027,1.953299641609192,-0.10876446217298508,-1.2305030822753906,-0.40282711386680603,24.67610740661621,-24.01213836669922,14.940677642822266,-0.5511079430580139,0.023853302001953125,0.35579442977905273,0.5444047451019287,10.088412284851074,1.5975052118301392
4_20251106_213935,1762436340274,4,0.3926822245121002,0.35462692379951477,0.5704094171524048,0.6282304525375366,0.592482328414917,3.4821295738220215,1.0828286409378052,-0.4136999547481537,10.046428680419922,2.244182586669922,-0.15641191601753235,-1.1315429210662842,-0.5530998110771179,25.343706130981445,-23.898239135742188,14.143989562988281,-0.7664837837219238,-0.03358745574951172,0.5173418521881104,0.35278382897377014,10.080016136169434,1.7268407344818115
4_20251106_213935,1762436340293,4,0.4026373028755188,0.35762447118759155,0.566963255405426,0.6233302354812622,0.592482328414917,3.4821295738220215,1.0828286409378052,-0.4136999547481537,10.046428680419922,2.244182586669922,-0.1545793116092682,-1.0399131774902344,-0.5879190564155579,26.000852584838867,-23.73638916015625,13.496543884277344,-0.7664837837219238,-0.03358745574951172,0.5173418521881104,0.35278382897377014,10.080016136169434,1.7268407344818115
4_20251106_213935,1762436340313,4,0.41227343678474426,0.3597394526004791,0.5639321804046631,0.6185455918312073,0.5689985156059265,3.4826431274414062,1.1040023565292358,-0.8554112315177917,9.866870880126953,2.307626247406006,-0.1545793116092682,-1.0399131774902344,-0.5879190564155579,26.558183670043945,-23.630447387695312,12.776538848876953,-0.9665560722351074,-0.1705169677734375,0.4646284580230713,0.11114482581615448,10.03738784790039,1.8429977893829346
4_20251106_213935,1762436340332,4,0.4214259088039398,0.361847460269928,0.5610361099243164,0.6137630343437195,0.5199701189994812,3.480280876159668,1.142271876335144,-1.5808231830596924,9.47902774810791,2.3495230674743652,-0.12647953629493713,-1.008148193359375,-0.5530998110771179,27.19064712524414,-23.482200622558594,12.073783874511719,-1.1349551677703857,-0.38416385650634766,0.3251338005065918,-0.44586801528930664,9.863191604614258,2.0243892669677734
4_20251106_213935,1762436340351,4,0.42974066734313965,0.36447951197624207,0.5582684278488159,0.6089450120925903,0.49295511841773987,3.477536201477051,1.1601654291152954,-1.7651687860488892,9.417978286743164,2.1053247451782227,0.025625774636864662,-1.0295284986495972,-0.34968188405036926,27.854631423950195,-23.2066650390625,11.361133575439453,-1.0554406642913818,-0.356170654296875,0.06474828720092773,-0.7097281217575073,9.774148941040039,2.040576457977295
4_20251106_213935,1762436340371,4,0.4370982348918915,0.3680633306503296,0.5555090308189392,0.6040564775466919,0.4596044719219208,3.4735329151153564,1.1793999671936035,-1.726863145828247,9.487405776977539,1.8623237609863281,0.06411025673151016,-1.055795669555664,-0.21590250730514526,28.39463996887207,-22.97673797607422,10.64278793334961,-0.8137080073356628,-0.22939491271972656,-0.14260220527648926,-0.9131551384925842,9.716800689697266,2.0049259662628174
4_20251106_213935,1762436340391,4,0.44380995631217957,0.37278470396995544,0.5522869825363159,0.5992022752761841,0.42914968729019165,3.4701030254364014,1.19553804397583,-1.5652614831924438,9.720830917358398,1.8611266613006592,0.043951719999313354,-1.0796194076538086,-0.12915971875190735,28.995790481567383,-22.73095703125,9.994739532470703,-0.5216851234436035,0.0032243728637695312,-0.11503946781158447,-1.0435763597488403,9.717606544494629,1.9761661291122437
4_20251106_213935,1762436340409,4,0.4501441419124603,0.3780089020729065,0.5485186576843262,0.5946484804153442,0.42914968729019165,3.4701030254364014,1.19553804397583,-1.5652614831924438,9.720830917358398,1.8611266613006592,0.007910698652267456,-1.0307502746582031,-0.14259874820709229,29.536701202392578,-22.488204956054688,9.249624252319336,-0.5216851234436035,0.0032243728637695312,-0.11503946781158447,-1.0435763597488403,9.717606544494629,1.9761661291122437
4_20251106_213935,1762436340428,4,0.4563644230365753,0.3827327489852905,0.5447322726249695,0.5903506875038147,0.3955520689487457,3.4674794673919678,1.212767481803894,-1.5269559621810913,10.009320259094238,2.0610342025756836,-0.0226325374096632,-0.8798666000366211,-0.2244546115398407,30.02515983581543,-22.300071716308594,8.623138427734375,-0.3867037296295166,0.23337078094482422,0.06789445877075195,-1.1402522325515747,9.775949478149414,1.9931397438049316
4_20251106_213935,1762436340447,4,0.46233317255973816,0.38600555062294006,0.5416584610939026,0.586390495300293,0.36531758308410645,3.466055154800415,1.2278120517730713,-1.6346904039382935,10.07874870300293,2.0789897441864014,-0.07333430647850037,-0.7375351786613464,-0.31486257910728455,30.456212997436523,-22.053123474121094,7.995519638061523,-0.3955504894256592,0.24223899841308594,0.0686800479888916,-1.2391399145126343,9.836509704589844,2.0103096961975098
4_20251106_213935,1762436340465,4,0.46826493740081787,0.3877861201763153,0.539215087890625,0.5827494859695435,0.308872252702713,3.463684320449829,1.2544841766357422,-2.1901211738586426,9.781881332397461,2.1903154850006104,-0.10876446217298508,-0.6202491521835327,-0.35517963767051697,30.887561798095703,-21.805770874023438,7.327352523803711,-0.6589999198913574,-0.04971027374267578,0.12305641174316406,-1.5311212539672852,9.831591606140137,2.0672590732574463
4_20251106_213935,1762436340485,4,0.47397321462631226,0.38850998878479004,0.5372186899185181,0.5794872045516968,0.2752131223678589,3.462052822113037,1.269547462463379,-2.4558663368225098,9.73280143737793,2.3267788887023926,-0.10876446217298508,-0.6202491521835327,-0.35517963767051697,31.318910598754883,-21.55841827392578,6.659185409545898,-0.7397960424423218,-0.07903194427490234,0.20761585235595703,-1.716070294380188,9.811833381652832,2.1191630363464355
4_20251106_213935,1762436340504,4,0.47934243083000183,0.388875812292099,0.5354731678962708,0.5764328837394714,0.2752131223678589,3.462052822113037,1.269547462463379,-2.4558663368225098,9.73280143737793,2.3267788887023926,-0.07333431392908096,-0.5084608793258667,-0.2928714454174042,31.601221084594727,-21.359214782714844,6.078954696655273,-0.7397960424423218,-0.07903194427490234,0.20761585235595703,-1.716070294380188,9.811833381652832,2.1191630363464355
4_20251106_213935,1762436340522,4,0.48406532406806946,0.3893689513206482,0.5339158773422241,0.5735908150672913,0.23861700296401978,3.459442377090454,1.285240888595581,-2.6174678802490234,9.518529891967773,2.318399667739868,-0.044623665511608124,-0.5035739541053772,-0.21712423861026764,31.943546295166016,-21.18048095703125,5.433067321777344,-0.7211180925369263,-0.23464298248291016,0.15938925743103027,-1.8963497877120972,9.753172874450684,2.159010410308838
4_20251106_213935,1762436340542,4,0.48827627301216125,0.39035236835479736,0.5322330594062805,0.5709108710289001,0.17601168155670166,3.453357458114624,1.3113995790481567,-2.951444625854492,9.467056274414062,2.511124610900879,-0.0006414083763957024,-0.4400440454483032,-0.1371009647846222,32.19121551513672,-20.946258544921875,4.879188537597656,-0.7022662162780762,-0.17506980895996094,0.23856854438781738,-2.249178409576416,9.642126083374023,2.2725560665130615
4_20251106_213935,1762436340561,4,0.4916493594646454,0.3916205167770386,0.5307283401489258,0.5685434937477112,0.1396399736404419,3.449769973754883,1.3251177072525024,-2.955035924911499,9.613097190856934,2.1101131439208984,0.04517345130443573,-0.3135950565338135,-0.03142135217785835,32.475650787353516,-20.697769165039062,4.394626617431641,-0.5646860599517822,-0.023222923278808594,-0.12995433807373047,-2.390349864959717,9.636320114135742,2.240067481994629
4_20251106_213935,1762436340580,4,0.4935722351074219,0.3928378224372864,0.5297266244888306,0.5669696927070618,0.1059122383594513,3.4469215869903564,1.3358970880508423,-2.71921706199646,9.778289794921875,1.6564311981201172,0.04517345130443573,-0.3135950565338135,-0.03142135217785835,32.64800262451172,-20.4945068359375,3.9454078674316406,-0.2630937099456787,0.11357593536376953,-0.46690917015075684,-2.4561233520507812,9.664713859558105,2.123340368270874
4_20251106_213935,1762436340600,4,0.49428054690361023,0.39468851685523987,0.5286483764648438,0.5660730004310608,0.07473206520080566,3.4454567432403564,1.3439172506332397,-2.1422390937805176,10.11705493927002,1.314075231552124,0.07449495047330856,-0.2525085508823395,0.1151861697435379,32.82439422607422,-20.429115295410156,3.547842025756836,0.25110745429992676,0.36187267303466797,-0.6474120616912842,-2.3933465480804443,9.755182266235352,1.9614872932434082
4_20251106_213935,1762436340621,4,0.49405935406684875,0.39782407879829407,0.5269603133201599,0.5656449198722839,0.04515344277024269,3.44671630859375,1.3497071266174316,-1.4503448009490967,10.589889526367188,1.1764144897460938,0.12214239686727524,-0.3581881821155548,0.40534693002700806,33.001487731933594,-20.351165771484375,3.1505393981933594,0.754401445388794,0.6677656173706055,-0.6280583143234253,-2.2047462463378906,9.922123908996582,1.804472804069519
4_20251106_213935,1762436340640,4,0.49349528551101685,0.4022478461265564,0.5244736671447754,0.5653197765350342,0.02282859943807125,3.4513778686523438,1.3537895679473877,-0.7452826499938965,11.080678939819336,1.424203634262085,0.13741400837898254,-0.44859614968299866,0.3931296169757843,33.02823257446289,-20.346343994140625,2.827129364013672,1.167570948600769,0.9268436431884766,-0.30421531200408936,-1.9128535985946655,10.15383529663086,1.7284189462661743
4_20251106_213935,1762436340656,4,0.4934026300907135,0.4073842465877533,0.5215381383895874,0.5644376873970032,0.02282859943807125,3.4513778686523438,1.3537895679473877,-0.7452826499938965,11.080678939819336,1.424203634262085,0.14352266490459442,-0.42416155338287354,0.23063960671424866,33.02823257446289,-20.346343994140625,2.827129364013672,1.167570948600769,0.9268436431884766,-0.30421531200408936,-1.9128535985946655,10.15383529663086,1.7284189462661743
4_20251106_213935,1762436340676,4,0.49388042092323303,0.4115898311138153,0.5193184614181519,0.5630135536193848,-0.0026449961587786674,3.4676144123077393,1.3617666959762573,-0.11324059963226318,11.435005187988281,2.0095608234405518,0.13741400837898254,-0.27388882637023926,-0.05157989636063576,33.06172180175781,-20.44091033935547,2.475065231323242,1.168032169342041,0.8255033493041992,0.20846843719482422,-1.2812727689743042,10.609501838684082,1.8010923862457275
4_20251106_213935,1762436340695,4,0.4951673150062561,0.4136276841163635,0.518720269203186,0.5609374046325684,-0.0026449961587786674,3.4676144123077393,1.3617666959762573,-0.11324059963226318,11.435005187988281,2.0095608234405518,0.1135902926325798,-0.09490546584129333,-0.3319667875766754,33.10470199584961,-20.561553955078125,2.298675537109375,1.168032169342041,0.8255033493041992,0.20846843719482422,-1.2812727689743042,10.609501838684082,1.8010923862457275
4_20251106_213935,1762436340714,4,0.49707621335983276,0.41312649846076965,0.5199562907218933,0.5584685802459717,-0.010743486694991589,3.4782469272613525,1.3659992218017578,-0.3634239435195923,11.11419677734375,1.801274299621582,0.07632754743099213,-0.008773544803261757,-0.4920133650302887,33.16347885131836,-20.630096435546875,2.0157032012939453,0.7342790365219116,0.40375614166259766,0.00014543533325195312,-1.097702980041504,10.710440635681152,1.80112886428833
4_20251106_213935,1762436340733,4,0.4996319115161896,0.41125622391700745,0.5220091342926025,0.5556461811065674,-0.025861313566565514,3.497764825820923,1.3741843700408936,-1.3605660200119019,10.542007446289062,1.9556937217712402,0.07021889835596085,0.013217585161328316,-0.5127826929092407,33.14592361450195,-20.754173278808594,1.782796859741211,-0.23047900199890137,-0.14418792724609375,0.12631011009216309,-1.1300870180130005,10.686195373535156,1.8293836116790771
4_20251106_213935,1762436340753,4,0.5022034645080566,0.40898841619491577,0.5243077278137207,0.5528305172920227,-0.03456854820251465,3.505711793899536,1.3790392875671387,-1.6131434440612793,10.378011703491211,2.1412363052368164,0.12458585947751999,0.015661044046282768,-0.47918519377708435,33.25739288330078,-20.732986450195312,1.6387958526611328,-0.38644516468048096,-0.24654769897460938,0.2494821548461914,-1.2266982793807983,10.62455940246582,1.891754150390625
4_20251106_213935,1762436340772,4,0.5042218565940857,0.4068687856197357,0.5269123911857605,0.55007404088974,-0.04481447860598564,3.5121631622314453,1.3843141794204712,-1.7328484058380127,10.13261604309082,2.0299105644226074,0.22293508052825928,0.004665479529649019,-0.4254290759563446,33.37259292602539,-20.637130737304688,1.5639591217041016,-0.4049201011657715,-0.3935546875,0.11052513122558594,-1.3279283046722412,10.52617073059082,1.9193854331970215
4_20251106_213935,1762436340790,4,0.5058006048202515,0.4056158661842346,0.5296470522880554,0.5469145178794861,-0.05486658588051796,3.5164358615875244,1.3888458013534546,-1.852553129196167,10.021289825439453,1.928161382675171,0.29196280241012573,-0.013660462573170662,-0.36495348811149597,33.50069808959961,-20.516311645507812,1.5847549438476562,-0.41969990730285645,-0.40390491485595703,0.007020711898803711,-1.4328532218933105,10.42519474029541,1.9211406707763672
4_20251106_213935,1762436340810,4,0.5068554282188416,0.40505844354629517,0.5324404835700989,0.5436288118362427,-0.06697864830493927,3.5194015502929688,1.3933922052383423,-1.9267703294754028,9.917146682739258,1.8431711196899414,0.331058144569397,-0.0014431677991524339,-0.3118082582950592,33.70423126220703,-20.352783203125,1.5822525024414062,-0.39513373374938965,-0.40643787384033203,-0.062375664710998535,-1.5316365957260132,10.32358455657959,1.90554678440094
4_20251106_213935,1762436340830,4,0.5074403882026672,0.40490859746932983,0.5352734923362732,0.5404031276702881,-0.0799446851015091,3.520641326904297,1.3971723318099976,-2.011760711669922,9.804624557495117,1.7282543182373047,0.359157919883728,0.06086503714323044,-0.27821069955825806,33.93647766113281,-20.100570678710938,1.6636772155761719,-0.3840993642807007,-0.41516876220703125,-0.14183402061462402,-1.6276613473892212,10.219793319702148,1.8700883388519287
4_20251106_213935,1762436340849,4,0.5074138045310974,0.4047328531742096,0.5384195446968079,0.5374261736869812,-0.09194108098745346,3.520543336868286,1.399385929107666,-1.9973962306976318,9.749560356140137,1.4565240144729614,0.35793620347976685,0.1555490791797638,-0.23300671577453613,34.089359283447266,-19.75305938720703,1.7032318115234375,-0.2957878112792969,-0.3761863708496094,-0.33085155487060547,-1.701608419418335,10.125746726989746,1.787375569343567
4_20251106_213935,1762436340866,4,0.5067138671875,0.404338538646698,0.5418065786361694,0.5349739193916321,-0.10405126959085464,3.5193796157836914,1.400364637374878,-1.9914110898971558,9.69090461730957,1.330833911895752,0.35793620347976685,0.1555490791797638,-0.23300671577453613,34.21012496948242,-19.533653259277344,1.8337783813476562,-0.23184216022491455,-0.3478736877441406,-0.3652334213256836,-1.7595689296722412,10.038778305053711,1.6960673332214355
4_20251106_213935,1762436340886,4,0.5055533051490784,0.4038516581058502,0.545214056968689,0.5329740047454834,-0.11766641587018967,3.5171191692352295,1.4001054763793945,-2.0333077907562256,9.699284553527832,1.2709813117980957,0.33655595779418945,0.2593960762023926,-0.1523725688457489,34.33985900878906,-19.151275634765625,1.9947891235351562,-0.21899116039276123,-0.2715950012207031,-0.3400688171386719,-1.8143166303634644,9.970879554748535,1.6110501289367676
4_20251106_213935,1762436340904,4,0.503960907459259,0.40330633521080017,0.548664927482605,0.5313512682914734,-0.12993504106998444,3.514724016189575,1.3986486196517944,-2.0692193508148193,9.783077239990234,1.109379768371582,0.33655595779418945,0.2593960762023926,-0.1523725688457489,34.475433349609375,-18.881118774414062,2.1539154052734375,-0.20392215251922607,-0.15024185180664062,-0.40133631229400635,-1.8652971982955933,9.933319091796875,1.5107160806655884
4_20251106_213935,1762436340926,4,0.5020406246185303,0.40264996886253357,0.5521678328514099,0.5300366878509521,-0.12993504106998444,3.514724016189575,1.3986486196517944,-2.0692193508148193,9.783077239990234,1.109379768371582,0.33655592799186707,0.3259803056716919,-0.11022290587425232,34.52460861206055,-18.629615783691406,2.3634090423583984,-0.20392215251922607,-0.15024185180664062,-0.40133631229400635,-1.8652971982955933,9.933319091796875,1.5107160806655884
4_20251106_213935,1762436340943,4,0.49985384941101074,0.40198448300361633,0.5557700395584106,0.5288423299789429,-0.1561708152294159,3.509171724319458,1.393038034439087,-1.9746524095535278,9.874053001403809,1.1584588289260864,0.3713752031326294,0.3711842894554138,-0.07906880974769592,34.57066345214844,-18.428749084472656,2.612396240234375,-0.056580424308776855,-0.03256702423095703,-0.2319566011428833,-1.918071985244751,9.906620025634766,1.3904154300689697
4_20251106_213935,1762436340962,4,0.4970666468143463,0.40132763981819153,0.5596580505371094,0.5278671383857727,-0.1681164801120758,3.507040023803711,1.3893773555755615,-1.9519084692001343,10.056004524230957,1.109379768371582,0.4123031497001648,0.39439713954925537,-0.06929497420787811,34.618934631347656,-18.19007110595703,2.8486595153808594,-0.02706921100616455,0.1195077896118164,-0.22482848167419434,-1.9248392581939697,9.93649673461914,1.3342082500457764
4_20251106_213935,1762436340981,4,0.4939432144165039,0.40081846714019775,0.5637808442115784,0.5267977118492126,-0.1681164801120758,3.507040023803711,1.3893773555755615,-1.9519084692001343,10.056004524230957,1.109379768371582,0.433072566986084,0.4493749737739563,-0.08639918267726898,34.604793548583984,-17.95738983154297,3.2852134704589844,-0.02706921100616455,0.1195077896118164,-0.22482848167419434,-1.9248392581939697,9.93649673461914,1.3342082500457764
4_20251106_213935,1762436341000,4,0.49055376648902893,0.40008091926574707,0.5682688355445862,0.525702178478241,-0.19121840596199036,3.5041234493255615,1.3805897235870361,-2.0859780311584473,10.063186645507812,0.9429898858070374,0.4532310962677002,0.5263439416885376,-0.09250782430171967,34.5839958190918,-17.84973907470703,3.6650638580322266,-0.1119391918182373,0.07878303527832031,-0.2808327078819275,-1.97403883934021,9.984403610229492,1.2238225936889648
4_20251106_213935,1762436341019,4,0.48657527565956116,0.3988475501537323,0.5733036994934082,0.5248695015907288,-0.2024255394935608,3.50337553024292,1.3746367692947388,-2.0991454124450684,10.15536117553711,0.7047771215438843,0.4526202082633972,0.5660501718521118,-0.07601447403430939,34.60560989379883,-17.627365112304688,4.116342544555664,-0.10008525848388672,0.1367664337158203,-0.41523635387420654,-1.9990601539611816,10.018594741821289,1.1200134754180908
4_20251106_213935,1762436341040,4,0.48236438632011414,0.397590696811676,0.5783774256706238,0.5241429209709167,-0.2024255394935608,3.50337553024292,1.3746367692947388,-2.0991454124450684,10.15536117553711,0.7047771215438843,0.4697244465351105,0.5477242469787598,-0.04119518771767616,34.57062530517578,-17.546432495117188,4.576271057128906,-0.10008525848388672,0.1367664337158203,-0.41523635387420654,-1.9990601539611816,10.018594741821289,1.1200134754180908
4_20251106_213935,1762436341060,4,0.4779689610004425,0.39668768644332886,0.5833175182342529,0.5233786702156067,-0.22461815178394318,3.5031328201293945,1.3573229312896729,-1.9064205884933472,10.204439163208008,0.5300078988075256,0.4892721176147461,0.5086288452148438,-0.010041087865829468,34.450958251953125,-17.447021484375,5.141426086425781,0.07422864437103271,0.12928199768066406,-0.3737730383872986,-1.9806492328643799,10.075157165527344,0.9037809371948242
4_20251106_213935,1762436341079,4,0.4735012948513031,0.3962330222129822,0.5880471467971802,0.5224906206130981,-0.23387214541435242,3.503772735595703,1.3488526344299316,-1.938740849494934,10.261898040771484,0.7622354626655579,0.4892721176147461,0.5086288452148438,-0.010041087865829468,34.37902069091797,-17.36901092529297,5.653949737548828,0.03352665901184082,0.14939212799072266,-0.1132364273071289,-1.972267508506775,10.112505912780762,0.8754718899726868
4_20251106_213935,1762436341097,4,0.46888336539268494,0.3956632614135742,0.5930303931236267,0.5214536786079407,-0.24254558980464935,3.5045807361602783,1.3409299850463867,-2.1123130321502686,10.206832885742188,0.7538560628890991,0.5735714435577393,0.6295800805091858,-0.09006436169147491,34.37902069091797,-17.36901092529297,5.653949737548828,-0.11203646659851074,0.07546138763427734,-0.09729266166687012,-2.000276565551758,10.13137149810791,0.8511487245559692
4_20251106_213935,1762436341115,4,0.46371665596961975,0.3943564295768738,0.5989516973495483,0.5202948451042175,-0.2513412535190582,3.5043256282806396,1.331987738609314,-2.2260327339172363,9.716043472290039,0.27623340487480164,0.6193863153457642,0.7926809787750244,-0.11510983109474182,34.20124053955078,-17.223342895507812,6.217708587646484,-0.1806049346923828,-0.3322629928588867,-0.45993223786354065,-2.0454277992248535,10.048306465148926,0.7361656427383423
4_20251106_213935,1762436341135,4,0.4575343430042267,0.3921926021575928,0.6058936715126038,0.519365131855011,-0.26123282313346863,3.5023586750030518,1.319374680519104,-2.245185375213623,9.489801406860352,-0.3079266846179962,0.6138885021209717,0.872704267501831,-0.029588758945465088,34.09296798706055,-17.12421417236328,6.891483306884766,-0.1598060131072998,-0.4468040466308594,-0.8352738618850708,-2.0853793621063232,9.936605453491211,0.527347207069397
4_20251106_213935,1762436341154,4,0.45045343041419983,0.3901055157184601,0.6128261089324951,0.5189928412437439,-0.270581990480423,3.4995710849761963,1.3053778409957886,-2.2392001152038574,9.567609786987305,-0.4252375066280365,0.6138885021209717,0.872704267501831,-0.029588758945465088,33.93726348876953,-17.00328826904297,7.577341079711914,-0.12305665016174316,-0.295196533203125,-0.7620677947998047,-2.1161434650421143,9.86280632019043,0.3368302583694458
4_20251106_213935,1762436341173,4,0.4427982568740845,0.388705849647522,0.619060218334198,0.5192320346832275,-0.27970609068870544,3.496063709259033,1.2901805639266968,-2.2044858932495117,9.549654006958008,-0.35580867528915405,0.5821235179901123,0.8513239622116089,0.10602320730686188,33.846221923828125,-16.80371856689453,8.334815979003906,-0.07067394256591797,-0.2505216598510742,-0.5541111826896667,-2.1338119506835938,9.800175666809082,0.1983024924993515
4_20251106_213935,1762436341192,4,0.4342125952243805,0.3878706097602844,0.6246286630630493,0.5204371213912964,-0.2881507873535156,3.4914958477020264,1.274130940437317,-2.0524604320526123,9.349745750427246,-0.3893260359764099,0.5473042130470276,1.0223660469055176,0.4639899432659149,33.616302490234375,-16.700653076171875,9.071531295776367,0.06508135795593262,-0.36034393310546875,-0.47010281682014465,-2.117541790008545,9.710089683532715,0.08077678829431534
4_20251106_213935,1762436341211,4,0.42396900057792664,0.38764655590057373,0.6298131942749023,0.5227961540222168,-0.2956531345844269,3.4861021041870117,1.2583198547363281,-1.9279674291610718,9.3258056640625,-0.1247781440615654,0.5466933250427246,1.200738549232483,0.7303269505500793,33.339046478271484,-16.575653076171875,9.806814193725586,0.15165960788726807,-0.30742740631103516,-0.1644439548254013,-2.07962703704834,9.633233070373535,0.03966580703854561
4_20251106_213935,1762436341231,4,0.41126132011413574,0.3880542814731598,0.6346172094345093,0.5268197059631348,-0.30174100399017334,3.479522705078125,1.2423436641693115,-1.6143404245376587,9.243207931518555,-0.014649607241153717,0.5521911382675171,1.4530256986618042,0.9868901371955872,33.01899719238281,-16.554298400878906,10.619611740112305,0.37222933769226074,-0.31202030181884766,-0.04345232993364334,-1.9865697622299194,9.555228233337402,0.028802722692489624
4_20251106_213935,1762436341250,4,0.3956362307071686,0.38859689235687256,0.639300525188446,0.5326905846595764,-0.3040333390235901,3.472219705581665,1.2260061502456665,-0.8194997906684875,9.057665824890137,-0.6706326603889465,0.5760148763656616,1.5251078605651855,1.2025253772735596,32.597347259521484,-16.602890014648438,11.508262634277344,0.9336559176445007,-0.39805030822753906,-0.5595483183860779,-1.7531557083129883,9.455716133117676,-0.11108434945344925
4_20251106_213935,1762436341270,4,0.3781847655773163,0.38994118571281433,0.6433903574943542,0.5394172668457031,-0.3006743788719177,3.4645652770996094,1.2066066265106201,0.10581941902637482,9.340169906616211,-1.1183290481567383,0.5760148763656616,1.5251078605651855,1.2025253772735596,32.11094284057617,-16.718643188476562,12.433691024780273,1.4871801137924194,-0.0924367904663086,-0.8057957887649536,-1.381360650062561,9.43260669708252,-0.31253328919410706
4_20251106_213935,1762436341287,4,0.3608399033546448,0.3938705325126648,0.6464976072311401,0.5447030067443848,-0.29286566376686096,3.459188461303711,1.1884722709655762,0.9389657974243164,9.798639297485352,-1.4367443323135376,0.8692299127578735,1.0077053308486938,1.245896816253662,31.47517967224121,-16.906173706054688,13.297847747802734,1.8562612533569336,0.29282569885253906,-0.8993688821792603,-0.9172954559326172,9.505813598632812,-0.5373754501342773
4_20251106_213935,1762436341307,4,0.34485411643981934,0.3992948532104492,0.6496108174324036,0.5473984479904175,-0.2772943675518036,3.4550225734710693,1.1644988059997559,1.3339921236038208,10.112266540527344,-1.7563564777374268,0.8918319344520569,0.9441754221916199,0.9758946299552917,30.70648765563965,-17.290679931640625,14.220722198486328,1.8010300397872925,0.48516273498535156,-0.9751847982406616,-0.46703794598579407,9.627103805541992,-0.7811716794967651
4_20251106_213935,1762436341326,4,0.3304745554924011,0.40354058146476746,0.6533719301223755,0.5486772060394287,-0.2596551179885864,3.452634811401367,1.1408721208572388,1.289701223373413,10.103887557983398,-2.052027702331543,0.7769893407821655,1.0614614486694336,0.6484711170196533,29.815637588500977,-17.68353271484375,15.179241180419922,1.4053913354873657,0.3814268112182617,-1.0166847705841064,-0.11569014191627502,9.722460746765137,-1.0353429317474365
4_20251106_213935,1762436341345,4,0.31725820899009705,0.4045460522174835,0.6581162810325623,0.5500660538673401,-0.2368399202823639,3.4497673511505127,1.1118558645248413,1.2645632028579712,9.608308792114258,-2.3764278888702393,0.7769893407821655,1.0614614486694336,0.6484711170196533,29.01080894470215,-18.046653747558594,16.23633575439453,1.1042027473449707,-0.09132194519042969,-1.0728679895401,0.16036048531532288,9.699630737304688,-1.3035598993301392
4_20251106_213935,1762436341363,4,0.3048713207244873,0.4029441177845001,0.6631469130516052,0.5522007942199707,-0.2368399202823639,3.4497673511505127,1.1118558645248413,1.2645632028579712,9.608308792114258,-2.3764278888702393,0.6157211065292358,1.202571153640747,0.43711188435554504,28.204259872436523,-18.44690704345703,17.238574981689453,1.1042027473449707,-0.09132194519042969,-1.0728679895401,0.16036048531532288,9.699630737304688,-1.3035598993301392
4_20251106_213935,1762436341382,4,0.2929408550262451,0.4002237617969513,0.6675481796264648,0.5553251504898071,-0.1886974573135376,3.442255735397339,1.0515285730361938,1.5410815477371216,9.337776184082031,-2.8444743156433105,0.31151047348976135,1.1457607746124268,0.4230619966983795,27.304651260375977,-18.77790069580078,18.211441040039062,0.9167958498001099,-0.23273658752441406,-1.0074448585510254,0.6242856979370117,9.570512771606445,-1.8370294570922852
4_20251106_213935,1762436341402,4,0.2820974588394165,0.3979457914829254,0.6706990003585815,0.5587692260742188,-0.15927892923355103,3.4371185302734375,1.01738703250885,1.8822407722473145,9.244405746459961,-2.5966849327087402,0.227211132645607,0.9154647588729858,0.46643340587615967,26.48419189453125,-19.003135681152344,19.135295867919922,1.006364107131958,-0.26088523864746094,-0.6077244281768799,0.8758766651153564,9.505290985107422,-1.9889605045318604
4_20251106_213935,1762436341422,4,0.2726549506187439,0.39678677916526794,0.672613799571991,0.5619699358940125,-0.12875905632972717,3.431053876876831,0.9859611392021179,2.3227548599243164,8.98464584350586,-2.2124321460723877,0.2467588186264038,0.6790601015090942,0.5146917700767517,25.70008087158203,-19.237869262695312,19.992778778076172,1.15750253200531,-0.4165163040161133,-0.17877745628356934,1.1652523279190063,9.401162147521973,-2.0336546897888184
4_20251106_213935,1762436341440,4,0.26436206698417664,0.39723652601242065,0.6737184524536133,0.5642865300178528,-0.09557133913040161,3.4245142936706543,0.9557769894599915,2.6938400268554688,9.117518424987793,-2.1537766456604004,0.32128432393074036,0.5165700912475586,0.4908679723739624,24.933286666870117,-19.383644104003906,20.825565338134766,1.222870111465454,-0.2269153594970703,-0.09609746932983398,1.4709699153900146,9.344433784484863,-2.0576791763305664
4_20251106_213935,1762436341460,4,0.25688907504081726,0.39855843782424927,0.674797773361206,0.5655149221420288,-0.05825125053524971,3.417670488357544,0.925187885761261,2.830303907394409,9.244405746459961,-2.190885066986084,0.3463297486305237,0.474420428276062,0.3467039167881012,24.29417610168457,-19.43236541748047,21.54345703125,1.0874671936035156,-0.08002281188964844,-0.10656476020812988,1.7428367137908936,9.32442855834961,-2.084320306777954
4_20251106_213935,1762436341479,4,0.25032901763916016,0.39925068616867065,0.6763757467269897,0.5660830736160278,-0.05825125053524971,3.417670488357544,0.925187885761261,2.830303907394409,9.244405746459961,-2.190885066986084,0.3237277865409851,0.5312308669090271,0.1463402658700943,23.716983795166016,-19.47576141357422,22.128639221191406,1.0874671936035156,-0.08002281188964844,-0.10656476020812988,1.7428367137908936,9.32442855834961,-2.084320306777954
4_20251106_213935,1762436341499,4,0.24446932971477509,0.3981736898422241,0.6787505745887756,0.566559910774231,0.014660630375146866,3.402322292327881,0.8678562641143799,2.5094945430755615,8.660245895385742,-2.6924490928649902,0.2168264389038086,0.6124758720397949,-0.019814925268292427,23.10312271118164,-19.533287048339844,22.63098907470703,0.4567606449127197,-0.4785137176513672,-0.42769956588745117,2.052733898162842,9.13875961303711,-2.264749526977539
4_20251106_213935,1762436341516,4,0.2394857555627823,0.39545372128486633,0.6813111901283264,0.5675191283226013,0.014660630375146866,3.402322292327881,0.8678562641143799,2.5094945430755615,8.660245895385742,-2.6924490928649902,0.0983186736702919,0.6430190801620483,-0.11694242060184479,23.10312271118164,-19.533287048339844,22.63098907470703,0.4567606449127197,-0.4785137176513672,-0.42769956588745117,2.052733898162842,9.13875961303711,-2.264749526977539
4_20251106_213935,1762436341537,4,0.23525433242321014,0.39162108302116394,0.683711051940918,0.5690584778785706,0.0839347243309021,3.3807249069213867,0.8093899488449097,1.9600489139556885,8.34901237487793,-2.706813335418701,0.03295615315437317,0.5843760967254639,-0.12915971875190735,22.541133880615234,-19.525390625,23.190685272216797,-0.09321880340576172,-0.5198030471801758,-0.26664090156555176,2.05326771736145,8.868815422058105,-2.4401724338531494
4_20251106_213935,1762436341556,4,0.23169299960136414,0.3877665400505066,0.6857326030731201,0.5707243084907532,0.11481373012065887,3.368626356124878,0.7815119624137878,1.9875811338424683,8.331056594848633,-2.8313069343566895,0.03295615315437317,0.5843760967254639,-0.12915971875190735,22.10309410095215,-19.49510955810547,23.566322326660156,-0.05254924297332764,-0.4302072525024414,-0.31290769577026367,2.040130376815796,8.761263847351074,-2.518399238586426
4_20251106_213935,1762436341574,4,0.2287331372499466,0.38486170768737793,0.6872801780700684,0.572021484375,0.1420244425535202,3.356858015060425,0.7550381422042847,1.8044325113296509,8.40407657623291,-3.0802929401397705,0.03173442184925079,0.4597596824169159,-0.08151225745677948,21.637258529663086,-19.529067993164062,23.92613983154297,-0.18855822086334229,-0.2857503890991211,-0.44951486587524414,1.9929907321929932,8.689826965332031,-2.6307780742645264
4_20251106_213935,1762436341593,4,0.22672997415065765,0.38330191373825073,0.6884564161300659,0.5724517107009888,0.16824495792388916,3.3444766998291016,0.7272969484329224,1.6045252084732056,8.478294372558594,-3.0659284591674805,0.027458367869257927,0.11767545342445374,-0.002099846489727497,21.26044464111328,-19.494407653808594,24.26367950439453,-0.31077253818511963,-0.16922664642333984,-0.34812021255493164,1.9152977466583252,8.647521018981934,-2.717808246612549
4_20251106_213935,1762436341613,4,0.2255869209766388,0.38275694847106934,0.688999354839325,0.5726146101951599,0.19368810951709747,3.330522060394287,0.69954913854599,1.6595895290374756,8.129952430725098,-2.7199811935424805,0.027458367869257927,0.11767545342445374,-0.002099846489727497,20.956947326660156,-19.4547119140625,24.577129364013672,-0.2045665979385376,-0.41405487060546875,-0.0017385482788085938,1.8641561269760132,8.544007301330566,-2.718242645263672
4_20251106_213935,1762436341631,4,0.22469942271709442,0.3829592168331146,0.6886899471282959,0.5732002854347229,0.2153332531452179,3.316344976425171,0.6758853197097778,1.8199940919876099,7.631978988647461,-2.69364595413208,-0.08005382120609283,0.1347796618938446,0.1671096682548523,20.702476501464844,-19.423049926757812,24.75711441040039,-0.035329580307006836,-0.7296228408813477,0.019677400588989258,1.8553236722946167,8.361601829528809,-2.7133233547210693
4_20251106_213935,1762436341651,4,0.22294510900974274,0.38314542174339294,0.6880437135696411,0.5745354294776917,0.23825910687446594,3.2977685928344727,0.6501514911651611,1.8810436725616455,7.17350959777832,-2.961785078048706,-0.16252055764198303,0.1604360044002533,0.21658971905708313,20.470869064331055,-19.41504669189453,24.951068878173828,0.020576000213623047,-0.9504737854003906,-0.19876933097839355,1.8604676723480225,8.123983383178711,-2.7630157470703125
4_20251106_213935,1762436341670,4,0.22102965414524078,0.3833979070186615,0.6868000626564026,0.5765913724899292,0.23825910687446594,3.2977685928344727,0.6501514911651611,1.8810436725616455,7.17350959777832,-2.961785078048706,-0.16252055764198303,0.1604360044002533,0.21658971905708313,20.276920318603516,-19.391563415527344,25.092693328857422,0.020576000213623047,-0.9504737854003906,-0.19876933097839355,1.8604676723480225,8.123983383178711,-2.7630157470703125
4_20251106_213935,1762436341690,4,0.21954116225242615,0.38332927227020264,0.6845289468765259,0.5798969268798828,0.2785378694534302,3.248359203338623,0.6019925475120544,1.5853724479675293,5.522778511047363,-2.9103121757507324,-0.574243426322937,0.2679481506347656,0.2501872777938843,20.126964569091797,-19.464149475097656,25.11252212524414,-0.2047901153564453,-1.8122477531433105,-0.0827779769897461,1.7901625633239746,7.335026264190674,-2.8275341987609863
4_20251106_213935,1762436341708,4,0.2182542383670807,0.38247010111808777,0.681124210357666,0.5849372148513794,0.29466527700424194,3.217226505279541,0.5816254019737244,1.4991848468780518,4.433464050292969,-2.7056164741516113,-0.8063719868659973,0.26733729243278503,0.2495764046907425,19.984460830688477,-19.623573303222656,25.103958129882812,-0.232782244682312,-2.3212499618530273,0.0975341796875,1.7319670915603638,6.754714012145996,-2.8031506538391113
4_20251106_213935,1762436341727,4,0.21785731613636017,0.3811723291873932,0.6763923764228821,0.5913875699043274,0.29466527700424194,3.217226505279541,0.5816254019737244,1.4991848468780518,4.433464050292969,-2.7056164741516113,-0.9884096384048462,0.20502911508083344,0.22025489807128906,19.87971305847168,-19.767379760742188,25.02954864501953,-0.232782244682312,-2.3212499618530273,0.0975341796875,1.7319670915603638,6.754714012145996,-2.8031506538391113
4_20251106_213935,1762436341746,4,0.21868139505386353,0.37967649102211,0.6705502867698669,0.5986539125442505,0.3113544285297394,3.1709773540496826,0.5613927841186523,1.378282904624939,3.250779151916504,-2.1046979427337646,-1.0666003227233887,0.1396665871143341,0.26179370284080505,19.743741989135742,-20.03807830810547,24.924488067626953,-0.2829474210739136,-2.8031482696533203,0.5587623119354248,1.6612303256988525,6.053927421569824,-2.6634602546691895
4_20251106_213935,1762436341764,4,0.21991893649101257,0.3785606026649475,0.6638889908790588,0.6062828898429871,0.325287401676178,3.120499610900879,0.546277642250061,1.511155366897583,2.144705295562744,-1.8341646194458008,-1.0763741731643677,0.020547961816191673,0.37541458010673523,19.56585693359375,-20.422828674316406,24.680416107177734,-0.12005996704101562,-3.127377986907959,0.6634366512298584,1.6312153339385986,5.272083282470703,-2.497601270675659
4_20251106_213935,1762436341784,4,0.22119572758674622,0.37881675362586975,0.6564172506332397,0.6137480735778809,0.34886810183525085,3.0154263973236084,0.5213190317153931,1.5063672065734863,3.1442415714263916,-2.8744006156921387,-1.0763741731643677,0.020547961816191673,0.37541458010673523,19.37377166748047,-20.845909118652344,24.421546936035156,-0.10231161117553711,-1.1651194095611572,-0.36487865447998047,1.6086788177490234,4.309360980987549,-2.509521961212158
4_20251106_213935,1762436341803,4,0.22264502942562103,0.38058310747146606,0.6479530334472656,0.6210817694664001,0.34886810183525085,3.0154263973236084,0.5213190317153931,1.5063672065734863,3.1442415714263916,-2.8744006156921387,-1.2468054294586182,-0.22135445475578308,0.5012527108192444,19.19809341430664,-21.41741180419922,24.092910766601562,-0.10231161117553711,-1.1651194095611572,-0.36487865447998047,1.6086788177490234,4.309360980987549,-2.509521961212158
4_20251106_213935,1762436341822,4,0.22532470524311066,0.3827466070652008,0.6384422183036804,0.6285899877548218,0.36049938201904297,2.956228256225586,0.5050994157791138,1.226257562637329,4.635765075683594,-3.0312139987945557,-1.4709928035736084,-0.25311943888664246,0.4352792799472809,18.998437881469727,-21.989959716796875,23.709228515625,-0.3059370517730713,0.2611231803894043,-0.41735339164733887,1.5321946144104004,4.3746418952941895,-2.613860607147217
4_20251106_213935,1762436341841,4,0.22952702641487122,0.3841191828250885,0.6276853680610657,0.63700932264328,0.37558621168136597,2.868635892868042,0.4819391667842865,0.8527781963348389,5.970475196838379,-1.4283649921417236,-1.6768542528152466,-0.1993633210659027,0.37969061732292175,18.802793502807617,-22.723609924316406,23.187442779541016,-0.4677692651748657,1.101966381072998,0.934539794921875,1.3205474615097046,4.868508815765381,-2.3629047870635986
4_20251106_213935,1762436341860,4,0.23437918722629547,0.3840382695198059,0.6159260272979736,0.6466963291168213,0.3806927502155304,2.832608222961426,0.4781500995159149,0.8467929363250732,6.249387741088867,-0.2875768840312958,-1.6768542528152466,-0.1993633210659027,0.37969061732292175,18.64289093017578,-23.47917938232422,22.58550262451172,-0.379003643989563,1.1047029495239258,1.6602623462677002,1.2257965803146362,5.144684791564941,-1.9478392601013184
4_20251106_213935,1762436341879,4,0.23870299756526947,0.3828977048397064,0.6032381057739258,0.6576579213142395,0.3806927502155304,2.832608222961426,0.4781500995159149,0.8467929363250732,6.249387741088867,-0.2875768840312958,-1.946245551109314,0.04986947029829025,0.6087648868560791,18.444005966186523,-24.286827087402344,21.92696762084961,-0.379003643989563,1.1047029495239258,1.6602623462677002,1.2257965803146362,5.144684791564941,-1.9478392601013184
4_20251106_213935,1762436341899,4,0.24159803986549377,0.38139665126800537,0.588982343673706,0.6702736616134644,0.3932099938392639,2.7786521911621094,0.49640634655952454,2.1455917358398438,7.378205299377441,2.211862087249756,-2.1557719707489014,0.08102356642484665,0.8463912606239319,18.25326156616211,-25.18036651611328,21.145431518554688,0.7208231687545776,1.5240678787231445,2.8916592597961426,1.4247685670852661,5.854137420654297,-0.6797972321510315
4_20251106_213935,1762436341920,4,0.24333006143569946,0.3802441656589508,0.5722644925117493,0.6846299767494202,0.4059440791606903,2.76173996925354,0.5267550945281982,2.961979389190674,7.96116828918457,4.0433478355407715,-2.1557719707489014,0.08102356642484665,0.8463912606239319,18.25326156616211,-25.18036651611328,21.145431518554688,1.2297687530517578,1.685624599456787,3.7785160541534424,1.732210636138916,6.275543689727783,0.2648317217826843
4_20251106_213935,1762436341938,4,0.2443741410970688,0.379987895488739,0.5533357262611389,0.6997928619384766,0.4200683534145355,2.7543184757232666,0.5626689791679382,3.7041499614715576,8.818255424499512,5.989749908447266,-2.1838719844818115,-0.09429460018873215,1.1658735275268555,17.64923858642578,-27.469276428222656,19.617530822753906,1.5775516033172607,2.0341696739196777,4.579934597015381,2.126598358154297,6.784085750579834,1.4098153114318848
4_20251106_213935,1762436341956,4,0.2445964515209198,0.3810456097126007,0.5338314771652222,0.7141433954238892,0.44186294078826904,2.754183769226074,0.6152878403663635,4.604331016540527,9.607110977172852,6.690023899078369,-1.8772177696228027,-0.13522253930568695,1.1860320568084717,17.64923858642578,-27.469276428222656,19.617530822753906,1.9821863174438477,2.258420467376709,4.2241668701171875,2.6221446990966797,7.348690509796143,2.4658570289611816
4_20251106_213935,1762436341975,4,0.243482768535614,0.3827521800994873,0.5158121585845947,0.7267425656318665,0.44186294078826904,2.754183769226074,0.6152878403663635,4.604331016540527,9.607110977172852,6.690023899078369,-1.5394096374511719,-0.3471926152706146,1.069356918334961,17.246557235717773,-28.49878692626953,18.514141082763672,1.9821863174438477,2.258420467376709,4.2241668701171875,2.6221446990966797,7.348690509796143,2.4658570289611816
4_20251106_213935,1762436341995,4,0.24284692108631134,0.3860580027103424,0.49977198243141174,0.7363508343696594,0.4728029668331146,2.765699863433838,0.680899977684021,5.025691986083984,10.826904296875,5.557615280151367,-1.3194983005523682,-0.5096825957298279,0.8659389615058899,16.788972854614258,-29.65583038330078,17.284503936767578,1.922837734222412,2.7825708389282227,2.4734065532684326,3.1028542518615723,8.044333457946777,3.0842087268829346
4_20251106_213935,1762436342013,4,0.2436291128396988,0.3902072608470917,0.4857105314731598,0.7432821989059448,0.5047575235366821,2.7846152782440186,0.7423208355903625,5.056816101074219,11.330862998962402,4.915996551513672,-1.2064883708953857,-0.4040030241012573,0.6399189829826355,16.26047134399414,-30.79145050048828,15.944324493408203,1.5631694793701172,2.6292238235473633,1.4654302597045898,3.4936466217041016,8.701639175415039,3.450566291809082
4_20251106_213935,1762436342033,4,0.24529309570789337,0.39296454191207886,0.4735053479671478,0.7491347193717957,0.5380319356918335,2.8068723678588867,0.7987733483314514,5.327348709106445,10.826904296875,3.927233934402466,-1.2064883708953857,-0.4040030241012573,0.6399189829826355,15.661478042602539,-31.881874084472656,14.629287719726562,1.4669618606567383,1.7002124786376953,0.3813340663909912,3.860386848449707,9.126691818237305,3.5458998680114746
4_20251106_213935,1762436342051,4,0.24840810894966125,0.3940297067165375,0.46229010820388794,0.7545341849327087,0.6141768097877502,2.8620834350585938,0.9030882716178894,5.5930938720703125,11.439794540405273,2.854677677154541,-1.4398386478424072,-0.14560723304748535,0.08036689460277557,15.090465545654297,-32.919403076171875,13.208160400390625,1.1129546165466309,1.6073684692382812,-0.4877743721008301,4.480139255523682,9.832426071166992,3.342452049255371
4_20251106_213935,1762436342071,4,0.2536909580230713,0.39219653606414795,0.45114320516586304,0.7604554891586304,0.6561293005943298,2.900376319885254,0.9540935158729553,5.177717685699463,12.487211227416992,3.279630422592163,-1.724501609802246,-0.003275760915130377,-0.3484601378440857,14.53013801574707,-33.75682830810547,11.872352600097656,0.5580630302429199,2.1238279342651367,-0.050257205963134766,4.619654655456543,10.363383293151855,3.329887628555298
4_20251106_213935,1762436342089,4,0.2626130282878876,0.3868580460548401,0.4398750066757202,0.7667367458343506,0.6561293005943298,2.900376319885254,0.9540935158729553,5.177717685699463,12.487211227416992,3.279630422592163,-1.8839373588562012,0.0993495061993599,-0.7815632224082947,14.195613861083984,-34.45519256591797,10.629110336303711,0.5580630302429199,2.1238279342651367,-0.050257205963134766,4.619654655456543,10.363383293151855,3.329887628555298
4_20251106_213935,1762436342110,4,0.27482476830482483,0.3783465325832367,0.42931222915649414,0.7726682424545288,0.7245134115219116,2.9799270629882812,1.0552181005477905,3.209768295288086,11.13095474243164,5.385239601135254,-1.7562665939331055,0.12683843076229095,-0.8872427940368652,13.979816436767578,-34.99491882324219,9.31235122680664,-1.0634021759033203,0.2976112365722656,1.4521760940551758,4.273170471191406,10.833343505859375,3.933063507080078
4_20251106_213935,1762436342129,4,0.28715378046035767,0.36909186840057373,0.420005202293396,0.777759313583374,0.7245134115219116,2.9799270629882812,1.0552181005477905,3.209768295288086,11.13095474243164,5.385239601135254,-1.469771146774292,-0.01732564903795719,-0.608688473701477,13.878120422363281,-35.451881408691406,7.974557876586914,-1.0634021759033203,0.2976112365722656,1.4521760940551758,4.273170471191406,10.833343505859375,3.933063507080078
4_20251106_213935,1762436342148,4,0.2968551218509674,0.3624180555343628,0.4112885296344757,0.7819027900695801,0.7531822323799133,3.020967721939087,1.119189739227295,2.674687385559082,10.260700225830078,5.850892066955566,-1.2987289428710938,-0.13522252440452576,-0.21651336550712585,13.894866943359375,-35.738990783691406,6.698675155639648,-1.2787864208221436,-0.4581146240234375,1.5342631340026855,3.9534738063812256,10.718814849853516,4.316628932952881
4_20251106_213935,1762436342166,4,0.3033960461616516,0.35842183232307434,0.4020557105541229,0.78602534532547,0.7735893130302429,3.0538063049316406,1.1764531135559082,2.818333625793457,10.415119171142578,6.057981491088867,-1.2553575038909912,-0.18531343340873718,-0.001488981768488884,14.006486892700195,-35.84514617919922,5.470468521118164,-0.9081120491027832,-0.24295711517333984,1.3930821418762207,3.7264456748962402,10.658076286315918,4.6648993492126465
4_20251106_213935,1762436342186,4,0.30829936265945435,0.3557295799255371,0.39222702383995056,0.7902948260307312,0.8049558401107788,3.111598491668701,1.2923169136047363,3.274409294128418,11.03519058227539,8.279705047607422,-1.134406328201294,-0.041760243475437164,0.002176206558942795,14.157965660095215,-35.909629821777344,4.082330703735352,-0.26766061782836914,0.267974853515625,2.5082592964172363,3.542069911956787,10.767215728759766,5.7714457511901855
4_20251106_213935,1762436342205,4,0.3122948110103607,0.35229000449180603,0.3835444450378418,0.7945170402526855,0.8206446766853333,3.142002582550049,1.3629933595657349,3.3917200565338135,10.57791805267334,7.541125774383545,-0.8069828748703003,0.12317322939634323,-0.060131993144750595,14.323066711425781,-35.92498016357422,2.8849658966064453,-0.12028002738952637,-0.15143775939941406,1.4157443046569824,3.51200008392334,10.729355812072754,6.1253814697265625
4_20251106_213935,1762436342224,4,0.3150920271873474,0.34823423624038696,0.3778635263442993,0.7979154586791992,0.8346971869468689,3.1685373783111572,1.4266071319580078,3.4731192588806152,10.399558067321777,6.062769889831543,-0.5137677788734436,-0.028932081535458565,-0.05402334779500961,14.511932373046875,-35.95116424560547,1.6748027801513672,-0.031104564666748047,-0.2638378143310547,-0.050089359283447266,3.5042238235473633,10.663395881652832,6.11285924911499
4_20251106_213935,1762436342242,4,0.31733450293540955,0.3463587462902069,0.37397652864456177,0.7996724247932434,0.8346971869468689,3.1685373783111572,1.4266071319580078,3.4731192588806152,10.399558067321777,6.062769889831543,-0.4178619980812073,-0.3038212060928345,-0.027145300060510635,14.656705856323242,-35.88141632080078,0.5999526977539062,-0.031104564666748047,-0.2638378143310547,-0.050089359283447266,3.5042238235473633,10.663395881652832,6.11285924911499
4_20251106_213935,1762436342262,4,0.320136159658432,0.34725603461265564,0.370002806186676,0.8000149726867676,0.8585278987884521,3.216268539428711,1.5409173965454102,3.0912606716156006,10.71198844909668,5.818572044372559,-0.5070482492446899,-0.3038212060928345,-0.017982328310608864,14.723651885986328,-35.880836486816406,-0.31696510314941406,-0.2924509048461914,0.08893966674804688,-0.1431431770324707,3.383711576461792,10.623048782348633,5.961715221405029
4_20251106_213935,1762436342281,4,0.3232763111591339,0.347992867231369,0.3653657138347626,0.8005630970001221,0.8685424327850342,3.2386560440063477,1.59356689453125,3.196600914001465,10.688047409057617,5.98137092590332,-0.6377732753753662,-0.09368374198675156,-0.07784707844257355,14.742770195007324,-35.85899353027344,-1.1677360534667969,-0.1496884822845459,0.05199909210205078,0.01572418212890625,3.3462893962860107,10.636048316955566,5.965646743774414
4_20251106_213935,1762436342301,4,0.3265305757522583,0.3464168310165405,0.3606463074684143,0.8020644783973694,0.8780982494354248,3.2600808143615723,1.646639108657837,3.195404052734375,10.319355964660645,6.104666709899902,-0.6854207515716553,0.07430405914783478,-0.15848122537136078,14.772367477416992,-35.86187744140625,-1.9779949188232422,-0.12070822715759277,-0.2533540725708008,0.11121559143066406,3.3161122798919678,10.572710037231445,5.993451118469238
4_20251106_213935,1762436342319,4,0.33003348112106323,0.34317031502723694,0.3562886714935303,0.8039716482162476,0.8856410980224609,3.2771973609924316,1.6921600103378296,3.0613341331481934,10.084733963012695,6.05199670791626,-0.6683166027069092,0.14821869134902954,-0.17130938172340393,14.778719902038574,-35.83002471923828,-2.653280258178711,-0.20382261276245117,-0.390380859375,0.04683637619018555,3.2651567459106445,10.475114822387695,6.005160331726074
4_20251106_213935,1762436342339,4,0.33328869938850403,0.33935078978538513,0.35228395462036133,0.8060122132301331,0.8924957513809204,3.293346643447876,1.740949034690857,2.9009299278259277,9.844127655029297,6.248312473297119,-0.6683166027069092,0.14821869134902954,-0.17130938172340393,14.778719902038574,-35.83002471923828,-2.653280258178711,-0.2913813591003418,-0.5047893524169922,0.19452190399169922,3.1923112869262695,10.348917007446289,6.05379056930542
4_20251106_213935,1762436342358,4,0.33609291911125183,0.33614853024482727,0.34835144877433777,0.807896614074707,0.8924957513809204,3.293346643447876,1.740949034690857,2.9009299278259277,9.844127655029297,6.248312473297119,-0.618225634098053,0.1146211251616478,-0.11449895799160004,14.809469223022461,-35.773353576660156,-3.1378297805786133,-0.2913813591003418,-0.5047893524169922,0.19452190399169922,3.1923112869262695,10.348917007446289,6.05379056930542
4_20251106_213935,1762436342377,4,0.3381368815898895,0.3334967792034149,0.34477558732032776,0.8096747398376465,0.9022920727729797,3.316633939743042,1.828138828277588,2.8865652084350586,9.53887939453125,6.171701431274414,-0.535148024559021,0.09812778234481812,-0.04730383679270744,14.865901947021484,-35.69011688232422,-3.6073532104492188,-0.19701790809631348,-0.549260139465332,0.06569528579711914,3.083583116531372,10.088139533996582,6.106006145477295
4_20251106_213935,1762436342396,4,0.33939963579177856,0.3314427137374878,0.34206289052963257,0.8111390471458435,0.9058858752250671,3.3242244720458984,1.8680999279022217,2.862624168395996,9.264755249023438,5.9430646896362305,-0.29446732997894287,0.1298927664756775,0.05654316768050194,14.898061752319336,-35.60833740234375,-4.091374397277832,-0.17676711082458496,-0.6587076187133789,-0.13035345077514648,3.039391279220581,9.923462867736816,6.073418140411377
4_20251106_213935,1762436342415,4,0.3397245407104492,0.3296653926372528,0.3401206135749817,0.8125428557395935,0.9058858752250671,3.3242244720458984,1.8680999279022217,2.862624168395996,9.264755249023438,5.9430646896362305,-0.2633132338523865,0.1714315563440323,0.12434914708137512,14.931037902832031,-35.50225067138672,-4.493769645690918,-0.17676711082458496,-0.6587076187133789,-0.13035345077514648,3.039391279220581,9.923462867736816,6.073418140411377
4_20251106_213935,1762436342434,4,0.33931073546409607,0.32792526483535767,0.3383313715457916,0.8141652941703796,0.9135759472846985,3.332411289215088,1.9383623600006104,3.3917198181152344,9.044498443603516,5.521703720092773,-0.24804162979125977,0.11706458777189255,0.1713857203722,15.002180099487305,-35.36839294433594,-4.921198844909668,0.2770111560821533,-0.5872440338134766,-0.36344003677368164,3.114708662033081,9.631742477416992,5.885143756866455
4_20251106_213935,1762436342454,4,0.3387432396411896,0.3269425630569458,0.336312860250473,0.8156318068504333,0.9197945594787598,3.3333914279937744,1.9719842672348022,3.7699875831604004,8.98225212097168,5.909547328948975,-0.23215913772583008,0.01871536858379841,0.18848994374275208,14.949458122253418,-35.268402099609375,-5.27296257019043,0.5242233276367188,-0.51959228515625,0.019522666931152344,3.2457642555236816,9.50184440612793,5.890024662017822
4_20251106_213935,1762436342472,4,0.33823809027671814,0.3268785774707794,0.3340206742286682,0.8168081641197205,0.9267855286598206,3.3326523303985596,2.001274347305298,3.9256041049957275,8.861349105834961,6.110651969909668,-0.19245293736457825,-0.055199261754751205,0.12312741577625275,14.896539688110352,-35.16868591308594,-5.59769344329834,0.5438718795776367,-0.5123958587646484,0.17650175094604492,3.381732225418091,9.37374496459961,5.934150218963623
4_20251106_213935,1762436342491,4,0.3381105959415436,0.3272348642349243,0.3319984972476959,0.8175423741340637,0.9351041913032532,3.329946994781494,2.0318655967712402,3.8585691452026367,8.657851219177246,6.378790855407715,-0.13625337183475494,-0.04053850844502449,-0.027145300060510635,14.853704452514648,-35.09423065185547,-5.827848434448242,0.3814694881439209,-0.5727148056030273,0.3557124137878418,3.477099657058716,9.230566024780273,6.023078441619873
4_20251106_213935,1762436342511,4,0.3391444683074951,0.3272715210914612,0.3307865858078003,0.8175907135009766,0.9438437819480896,3.3243579864501953,2.0630178451538086,3.615568161010742,8.281977653503418,6.207612991333008,-0.13625337183475494,-0.04053850844502449,-0.027145300060510635,14.808260917663574,-35.05812072753906,-5.991213798522949,0.11077475547790527,-0.7588701248168945,0.1476278305053711,3.504793405532837,9.040847778320312,6.059985160827637
4_20251106_213935,1762436342530,4,0.3408573865890503,0.3258875906467438,0.33045196533203125,0.8175665140151978,0.9509907960891724,3.316476345062256,2.0909433364868164,3.2349066734313965,8.006656646728516,5.9909467697143555,-0.10082321614027023,0.12134063988924026,-0.25377610325813293,14.773791313171387,-35.046058654785156,-6.181649208068848,-0.21590924263000488,-0.8273525238037109,-0.05523061752319336,3.4508159160614014,8.834009170532227,6.046177387237549
4_20251106_213935,1762436342550,4,0.3429378271102905,0.3239496946334839,0.33073073625564575,0.8173539042472839,0.9565535187721252,3.305457353591919,2.118213415145874,2.929658889770508,7.801960468292236,5.83054256439209,-0.09593630582094193,0.1091233417391777,-0.2446131408214569,14.753721237182617,-34.995391845703125,-6.3843183517456055,-0.41692566871643066,-0.8256392478942871,-0.17250823974609375,3.3465845584869385,8.627599716186523,6.003050804138184
4_20251106_213935,1762436342570,4,0.3449763357639313,0.3221084475517273,0.33101126551628113,0.8171101808547974,0.9598719477653503,3.292232036590576,2.1437411308288574,2.6998255252838135,7.7205610275268555,5.878424167633057,-0.09776889532804489,0.07369319349527359,-0.1926896572113037,14.769109725952148,-34.9554443359375,-6.531715393066406,-0.5174074172973633,-0.7256307601928711,-0.0997014045715332,3.2172329425811768,8.446191787719727,5.97812557220459
4_20251106_213935,1762436342587,4,0.3468010425567627,0.3206923305988312,0.33100149035453796,0.8168987035751343,0.9611679911613464,3.2801270484924316,2.1640121936798096,2.5873029232025146,7.797172546386719,5.822163105010986,-0.09776889532804489,0.07369319349527359,-0.1926896572113037,14.75851821899414,-34.942466735839844,-6.65358829498291,-0.5039441585540771,-0.5192155838012695,-0.1247701644897461,3.091247081756592,8.316388130187988,5.946933269500732
4_20251106_213935,1762436342606,4,0.3481558859348297,0.31966298818588257,0.33097776770591736,0.8167354464530945,0.9611679911613464,3.2801270484924316,2.1640121936798096,2.5873029232025146,7.797172546386719,5.822163105010986,-0.01896734908223152,-0.0038866265676915646,-0.09250782430171967,14.871604919433594,-34.88427734375,-6.729216575622559,-0.5039441585540771,-0.5192155838012695,-0.1247701644897461,3.091247081756592,8.316388130187988,5.946933269500732
4_20251106_213935,1762436342625,4,0.3491772711277008,0.3193558156490326,0.33107486367225647,0.8163801431655884,0.9606150984764099,3.264575481414795,2.1859683990478516,2.4328835010528564,7.651132583618164,5.716822624206543,-0.02935205027461052,-0.008773543871939182,-0.024090975522994995,14.948541641235352,-34.816322326660156,-6.7655029296875,-0.5266907215118408,-0.5322046279907227,-0.18408870697021484,2.9595742225646973,8.183337211608887,5.900911331176758
4_20251106_213935,1762436342644,4,0.34971916675567627,0.31925004720687866,0.3308774530887604,0.81626957654953,0.9555538296699524,3.2330245971679688,2.224334716796875,2.4292922019958496,7.499107360839844,6.238736152648926,-0.06356047093868256,0.05231292545795441,0.07181479036808014,15.012179374694824,-34.77387237548828,-6.843356132507324,-0.33095335960388184,-0.4415454864501953,0.2727088928222656,2.7602455615997314,7.940652847290039,5.96602725982666
4_20251106_213935,1762436342663,4,0.34938010573387146,0.31880101561546326,0.33031558990478516,0.8168176412582397,0.9525947570800781,3.2161548137664795,2.2432782649993896,2.751298427581787,7.506289005279541,6.077134609222412,0.01951712928712368,0.06453021615743637,0.16955313086509705,15.112375259399414,-34.729034423828125,-6.91973876953125,-0.007157564163208008,-0.3474907875061035,0.08888578414916992,2.758455991744995,7.8537797927856445,5.988248825073242
4_20251106_213935,1762436342682,4,0.34798991680145264,0.3188021183013916,0.33009472489356995,0.8174996376037598,0.9509496092796326,3.199707269668579,2.260871410369873,3.1834335327148438,7.700211524963379,5.841316223144531,0.01951712928712368,0.06453021615743637,0.16955313086509705,15.153755187988281,-34.65049743652344,-6.997781753540039,0.3399820327758789,-0.12285423278808594,-0.11754608154296875,2.843451499938965,7.823065757751465,5.9588623046875
4_20251106_213935,1762436342702,4,0.346206396818161,0.32023805379867554,0.32985520362854004,0.8177922964096069,0.951349675655365,3.183763265609741,2.278336524963379,3.5162129402160645,7.988699913024902,5.916729927062988,0.10564905405044556,-0.16637663543224335,0.20925933122634888,15.177225112915039,-34.66173553466797,-6.970032691955566,0.5382091999053955,0.13250732421875,-0.033705711364746094,2.978003740310669,7.856192588806152,5.950435638427734
4_20251106_213935,1762436342721,4,0.3450448513031006,0.3226848244667053,0.32935595512390137,0.8175225853919983,0.951349675655365,3.183763265609741,2.278336524963379,3.5162129402160645,7.988699913024902,5.916729927062988,0.11786634474992752,-0.20119592547416687,0.0840320736169815,15.088200569152832,-34.7303466796875,-6.947752952575684,0.5382091999053955,0.13250732421875,-0.033705711364746094,2.978003740310669,7.856192588806152,5.950435638427734
4_20251106_213935,1762436342741,4,0.3448801338672638,0.3250831663608551,0.3292232155799866,0.816694974899292,0.9579577445983887,3.1585073471069336,2.3120779991149902,3.6598589420318604,8.381333351135254,6.227962493896484,0.19666790962219238,-0.19264382123947144,-0.08945350348949432,15.088200569152832,-34.7303466796875,-6.947752952575684,0.42508721351623535,0.3540945053100586,0.18049001693725586,3.234771728515625,8.027238845825195,6.0474724769592285
4_20251106_213935,1762436342759,4,0.34568044543266296,0.3270823359489441,0.330281525850296,0.8151296377182007,0.9618055820465088,3.1488423347473145,2.326958179473877,3.3749613761901855,8.243671417236328,6.129804611206055,0.29623883962631226,-0.163322314620018,-0.2238437384366989,15.113178253173828,-34.716339111328125,-6.932991981506348,0.1121516227722168,0.17314624786376953,0.06586599349975586,3.2628097534179688,8.070525169372559,6.063938617706299
4_20251106_213935,1762436342780,4,0.34726595878601074,0.3287930190563202,0.3325777053833008,0.8128305673599243,0.9655755758285522,3.138522148132324,2.3432579040527344,3.115201473236084,8.187410354614258,6.006508827209473,0.3383885324001312,-0.07230347394943237,-0.27882155776023865,15.111669540405273,-34.74158477783203,-6.920003890991211,-0.11808657646179199,0.09350776672363281,-0.0459437370300293,3.233288049697876,8.093902587890625,6.052452564239502
4_20251106_213935,1762436342798,4,0.3488749861717224,0.32971620559692383,0.3356744945049286,0.8104912638664246,0.9676059484481812,3.1297740936279297,2.3553709983825684,2.8111510276794434,7.953986167907715,5.58155632019043,0.3383885324001312,-0.07230347394943237,-0.27882155776023865,15.111669540405273,-34.74158477783203,-6.920003890991211,-0.3377096652984619,-0.11193275451660156,-0.37671709060668945,3.1488606929779053,8.065918922424316,5.958273410797119
4_20251106_213935,1762436342816,4,0.3501565754413605,0.3298395574092865,0.33934181928634644,0.8083584308624268,0.9681520462036133,3.121025562286377,2.3647305965423584,2.5873026847839355,7.888148307800293,5.085977554321289,0.359157919883728,0.026045745238661766,-0.2928714454174042,15.1113862991333,-34.730377197265625,-6.784577369689941,-0.4492464065551758,-0.14221668243408203,-0.6978368759155273,3.0365490913391113,8.030364990234375,5.783814430236816
4_20251106_213935,1762436342836,4,0.35113975405693054,0.3297950327396393,0.3426915407180786,0.8065349459648132,0.9672437310218811,3.1116623878479004,2.3716859817504883,2.505903482437134,7.815128326416016,4.898040771484375,0.3194517195224762,0.043149955570697784,-0.25255438685417175,15.123894691467285,-34.70594787597656,-6.634880065917969,-0.4245164394378662,-0.17218923568725586,-0.7086191177368164,2.930419921875,7.9873175621032715,5.606659889221191
4_20251106_213935,1762436342855,4,0.35198071599006653,0.33017444610595703,0.34475788474082947,0.8051313161849976,0.965121328830719,3.102128744125366,2.376741886138916,2.5310416221618652,7.931241989135742,4.981834411621094,0.21010690927505493,-0.014882191084325314,-0.15909209847450256,15.19492244720459,-34.71562957763672,-6.442974090576172,-0.3195028305053711,-0.0448603630065918,-0.4998607635498047,2.8505444526672363,7.976102352142334,5.481695175170898
4_20251106_213935,1762436342874,4,0.35246869921684265,0.3310854136943817,0.3456380367279053,0.804165780544281,0.962870717048645,3.0943443775177,2.3802080154418945,2.673490285873413,8.125164031982422,5.133859634399414,0.06533198058605194,-0.0863533616065979,0.030886847525835037,15.268558502197266,-34.68696594238281,-6.317856788635254,-0.14164328575134277,0.11924934387207031,-0.27826881408691406,2.815133571624756,8.005914688110352,5.412128448486328
4_20251106_213935,1762436342893,4,0.3525625169277191,0.3321581184864044,0.3457585275173187,0.8036302924156189,0.9604974985122681,3.086915969848633,2.3838541507720947,2.815939426422119,8.265218734741211,5.407983779907227,0.01646280474960804,-0.04114937409758568,0.04188241437077522,15.419936180114746,-34.57765197753906,-6.242278099060059,0.000644683837890625,0.2074432373046875,-0.0033159255981445312,2.8152947425842285,8.057775497436523,5.411299705505371
4_20251106_213935,1762436342912,4,0.3523681163787842,0.33267533779144287,0.34569427371025085,0.8035292625427246,0.9586431980133057,3.0805575847625732,2.3870010375976562,2.9200825691223145,8.183819770812988,5.358904838562012,-0.014080431312322617,0.04559341445565224,-0.0027107112109661102,15.48330307006836,-34.51237487792969,-6.089827537536621,0.08383011817932129,0.10083580017089844,-0.0419158935546875,2.836252450942993,8.08298397064209,5.400820732116699
4_20251106_213935,1762436342930,4,0.35256868600845337,0.33237698674201965,0.34569352865219116,0.8035650849342346,0.9571954607963562,3.0746853351593018,2.389688730239868,2.92606782913208,8.022218704223633,5.342145919799805,-0.014080431312322617,0.04559341445565224,-0.0027107112109661102,15.470735549926758,-34.502098083496094,-5.941374778747559,0.07185220718383789,-0.04861259460449219,-0.046939849853515625,2.854215621948242,8.070831298828125,5.38908576965332
4_20251106_213935,1762436342952,4,0.35307514667510986,0.3318842351436615,0.34578147530555725,0.8035085201263428,0.9554001092910767,3.067441701889038,2.392989158630371,2.8231215476989746,7.955183029174805,5.437910079956055,-0.022021673619747162,0.05048033595085144,-0.046692971140146255,15.50670051574707,-34.500526428222656,-5.8588056564331055,-0.024875402450561523,-0.09251880645751953,0.03905916213989258,2.847996950149536,8.047701835632324,5.398850917816162
4_20251106_213935,1762436342970,4,0.35362422466278076,0.33173081278800964,0.3456219434738159,0.8033990263938904,0.953863799571991,3.061138391494751,2.395848035812378,2.7908012866973877,7.774428367614746,5.5181121826171875,-0.0006414074450731277,-0.058253586292266846,-0.011873681098222733,15.56713581085205,-34.497230529785156,-5.7887725830078125,-0.04575657844543457,-0.21861839294433594,0.09540891647338867,2.8365578651428223,7.993046760559082,5.422703266143799
4_20251106_213935,1762436342989,4,0.35411643981933594,0.3322070240974426,0.3453867733478546,0.8030865788459778,0.953863799571991,3.061138391494751,2.395848035812378,2.7908012866973877,7.774428367614746,5.5181121826171875,-0.0006414074450731277,-0.058253586292266846,-0.011873681098222733,15.592620849609375,-34.47093200683594,-5.746715545654297,-0.04575657844543457,-0.21861839294433594,0.09540891647338867,2.8365578651428223,7.993046760559082,5.422703266143799
4_20251106_213935,1762436343008,4,0.35428160429000854,0.33294352889060974,0.3451285660266876,0.8028196692466736,0.9508764147758484,3.0486271381378174,2.401902198791504,2.9033238887786865,8.029399871826172,5.459456920623779,0.024404047057032585,-0.0863533616065979,0.04860192537307739,15.629377365112305,-34.46827697753906,-5.772276878356934,0.05881857872009277,0.04510068893432617,0.013945579528808594,2.8445053100585938,7.984299182891846,5.445511341094971
4_20251106_213935,1762436343027,4,0.354275107383728,0.33387327194213867,0.34480488300323486,0.8025754690170288,0.9497524499893188,3.0433592796325684,2.404974937438965,2.9164912700653076,8.198184967041016,5.512126922607422,0.024404047057032585,-0.0863533616065979,0.04860192537307739,15.628066062927246,-34.493255615234375,-5.786320686340332,0.057588815689086914,0.17110919952392578,0.053292274475097656,2.8589024543762207,8.02707576751709,5.458834648132324
4_20251106_213935,1762436343047,4,0.35452932119369507,0.33468097448349,0.3443973958492279,0.8023017048835754,0.9485451579093933,3.038327693939209,2.40812611579895,2.831501007080078,8.104814529418945,5.48459529876709,-0.017134755849838257,-0.032597269862890244,-0.017371464520692825,15.576501846313477,-34.546661376953125,-5.789338111877441,-0.021921157836914062,0.062191009521484375,0.02060842514038086,2.853422164916992,8.042623519897461,5.463986873626709
4_20251106_213935,1762436343065,4,0.35502535104751587,0.3348860740661621,0.3441562354564667,0.8021002411842346,0.9472143054008484,3.0339431762695312,2.410818099975586,2.7321457862854004,8.009050369262695,5.463047981262207,-0.03179550915956497,0.027267474681138992,-0.05280161648988724,15.563314437866211,-34.56041717529297,-5.749544143676758,-0.09702110290527344,-0.02685832977294922,-0.0007510185241699219,2.829166889190674,8.035908699035645,5.463798999786377
4_20251106_213935,1762436343083,4,0.35561683773994446,0.33444181084632874,0.34413275122642517,0.8020336627960205,0.9472143054008484,3.0339431762695312,2.410818099975586,2.7321457862854004,8.009050369262695,5.463047981262207,-0.04951058328151703,0.06453021615743637,-0.053412482142448425,15.645488739013672,-34.617103576660156,-5.801495552062988,-0.09702110290527344,-0.02685832977294922,-0.0007510185241699219,2.829166889190674,8.035908699035645,5.463798999786377
4_20251106_213935,1762436343104,4,0.3561035096645355,0.3336155414581299,0.34412428736686707,0.8021654486656189,0.9451773762702942,3.028628349304199,2.4133377075195312,2.661520004272461,7.900118350982666,5.325387954711914,-0.05256491154432297,0.04376082122325897,-0.03875173255801201,15.670663833618164,-34.602821350097656,-5.8137664794921875,-0.13411760330200195,-0.10863256454467773,-0.11072921752929688,2.795637607574463,8.008750915527344,5.436117172241211
4_20251106_213935,1762436343121,4,0.3566528558731079,0.3330340087413788,0.3439464867115021,0.8022392988204956,0.940947413444519,3.019258499145508,2.416766405105591,2.679475784301758,7.886951446533203,5.424742698669434,-0.022021673619747162,-0.04420369863510132,0.021113011986017227,15.707914352416992,-34.59949493408203,-5.906908988952637,-0.0684061050415039,-0.07584476470947266,0.009000301361083984,2.7478818893432617,7.962796211242676,5.41574239730835
4_20251106_213935,1762436343141,4,0.35699984431266785,0.33320266008377075,0.3437647521495819,0.8020928502082825,0.9386947154998779,3.014437198638916,2.419614791870117,2.757283926010132,7.998276710510254,5.769493103027344,0.01951712928712368,-0.10895536094903946,0.07731257379055023,15.693811416625977,-34.6376953125,-5.935223579406738,0.007521629333496094,0.028384685516357422,0.28300046920776367,2.7497622966766357,7.9698920249938965,5.48649263381958
4_20251106_213935,1762436343159,4,0.3569788932800293,0.3341118097305298,0.3434124290943146,0.8018748760223389,0.9386947154998779,3.014437198638916,2.419614791870117,2.757283926010132,7.998276710510254,5.769493103027344,0.0286801028996706,-0.05642099305987358,0.10663406550884247,15.62120246887207,-34.63017272949219,-5.910869598388672,0.007521629333496094,0.028384685516357422,0.28300046920776367,2.7497622966766357,7.9698920249938965,5.48649263381958
4_20251106_213935,1762436343179,4,0.356253445148468,0.3343935012817383,0.34310075640678406,0.8022134304046631,0.9366335868835449,3.007370948791504,2.4259262084960938,3.0613343715667725,8.163470268249512,5.567191123962402,0.04578430950641632,-0.03442986309528351,0.0687604621052742,15.645870208740234,-34.62818145751953,-5.950437545776367,0.21377086639404297,0.1252307891845703,0.030579090118408203,2.8475635051727295,8.038239479064941,5.536612033843994
4_20251106_213935,1762436343200,4,0.3557530641555786,0.334860622882843,0.3430675268173218,0.8022547960281372,0.9365277290344238,3.004492998123169,2.428499221801758,3.019437789916992,8.15030288696289,5.355313777923584,0.020127994939684868,-0.008162680082023144,0.0070631243288517,15.681229591369629,-34.63903045654297,-5.881649017333984,0.13749933242797852,0.08965110778808594,-0.14503860473632812,2.8819384574890137,8.060651779174805,5.500352382659912
4_20251106_213935,1762436343219,4,0.3559030294418335,0.33517569303512573,0.34305936098098755,0.8020601868629456,0.9362738132476807,3.0016603469848633,2.4304189682006836,2.831501007080078,8.028203010559082,5.327781677246094,-0.030573779717087746,0.0016111558070406318,-0.04058432579040527,15.681229591369629,-34.63903045654297,-5.881649017333984,-0.04034996032714844,-0.025959014892578125,-0.13805675506591797,2.8718509674072266,8.05416202545166,5.465838432312012
4_20251106_213935,1762436343237,4,0.3565349578857422,0.33523523807525635,0.3430449068546295,0.8017607927322388,0.9358689188957214,2.998976945877075,2.4321184158325195,2.7955894470214844,7.948000907897949,5.489383220672607,-0.07822122424840927,0.029710935428738594,-0.0546342097222805,15.668832778930664,-34.651710510253906,-5.949984550476074,-0.06100916862487793,-0.0849294662475586,0.018836021423339844,2.8565986156463623,8.032930374145508,5.470547199249268
4_20251106_213935,1762436343256,4,0.3574080467224121,0.3346610963344574,0.3428814113140106,0.8016818165779114,0.9352758526802063,2.9961910247802734,2.4343011379241943,2.78840708732605,7.998276710510254,5.6449995040893555,-0.07516690343618393,0.033376120030879974,-0.056466806679964066,15.634178161621094,-34.62830352783203,-6.0185089111328125,-0.05455327033996582,-0.027723312377929688,0.13956212997436523,2.8429603576660156,8.026000022888184,5.50543737411499
4_20251106_213935,1762436343275,4,0.35823825001716614,0.33386144042015076,0.34260880947113037,0.8017612099647522,0.9342901706695557,2.9934420585632324,2.4369285106658936,2.689052104949951,7.9887003898620605,5.707245826721191,-0.026908589527010918,0.01016326155513525,-0.05768853798508644,15.657648086547852,-34.63954162597656,-5.99075984954834,-0.12312650680541992,-0.02983999252319336,0.16144704818725586,2.812178611755371,8.018540382385254,5.5457987785339355
4_20251106_213935,1762436343294,4,0.35883498191833496,0.3332018554210663,0.3426227867603302,0.8017628192901611,0.9326744079589844,2.9907257556915283,2.4397425651550293,2.564558982849121,7.980320930480957,5.6617584228515625,0.004245510324835777,0.02115882746875286,-0.04486037790775299,15.682132720947266,-34.62620544433594,-5.908417701721191,-0.19809579849243164,-0.03057575225830078,0.09276771545410156,2.7626547813415527,8.010896682739258,5.568990707397461
4_20251106_213935,1762436343313,4,0.3591634929180145,0.3324090838432312,0.34292200207710266,0.8018168807029724,0.9304842352867126,2.9877560138702393,2.442072629928589,2.5238590240478516,7.868995189666748,5.44389533996582,0.004245510324835777,0.02115882746875286,-0.04486037790775299,15.696321487426758,-34.5994873046875,-5.988496780395508,-0.19103646278381348,-0.11352109909057617,-0.10007619857788086,2.714895486831665,7.982516288757324,5.543971538543701
4_20251106_213935,1762436343332,4,0.3590431809425354,0.3314712345600128,0.3435581624507904,0.8019866347312927,0.9280140995979309,2.9847447872161865,2.443847417831421,2.5729384422302246,7.913286209106445,5.384042739868164,0.02623664401471615,0.040095631033182144,-0.017982330173254013,15.734375,-34.583473205566406,-6.094891548156738,-0.11356568336486816,-0.05538368225097656,-0.1279430389404297,2.6865041255950928,7.968669891357422,5.511985778808594
4_20251106_213935,1762436343352,4,0.35903429985046387,0.330924391746521,0.34385356307029724,0.8020898699760437,0.9280140995979309,2.9847447872161865,2.443847417831421,2.5729384422302246,7.913286209106445,5.384042739868164,-0.015302160754799843,-0.01121700368821621,0.07059305906295776,15.722497940063477,-34.57225036621094,-6.04105281829834,-0.11356568336486816,-0.05538368225097656,-0.1279430389404297,2.6865041255950928,7.968669891357422,5.511985778808594
4_20251106_213935,1762436343371,4,0.35890623927116394,0.33098065853118896,0.34370556473731995,0.8021873831748962,0.9230934977531433,2.979116916656494,2.448331594467163,2.753692626953125,8.01623249053955,5.799419403076172,0.008521562442183495,0.007108938414603472,0.10419061779975891,15.71323013305664,-34.522682189941406,-6.054003715515137,0.06464314460754395,0.038292884826660156,0.21862411499023438,2.689049482345581,7.977939605712891,5.5807952880859375
4_20251106_213935,1762436343391,4,0.3581729531288147,0.33087000250816345,0.34364038705825806,0.8025885820388794,0.9217150807380676,2.976952314376831,2.451268434524536,2.9643735885620117,8.120376586914062,5.719216823577881,0.029901830479502678,0.06147589534521103,0.09808196127414703,15.725824356079102,-34.509735107421875,-6.012701034545898,0.2202591896057129,0.11394977569580078,0.11073732376098633,2.744114398956299,8.006426811218262,5.6084794998168945
4_20251106_213935,1762436343409,4,0.3570794463157654,0.33032843470573425,0.3437488079071045,0.8032522201538086,0.9216153621673584,2.9758684635162354,2.453981399536133,3.1822361946105957,8.317890167236328,5.690487384796143,0.029901830479502678,0.06147589534521103,0.09808196127414703,15.692605972290039,-34.43798828125,-5.890942573547363,0.3504974842071533,0.24917125701904297,0.06560659408569336,2.8317387104034424,8.068718910217285,5.624880790710449
4_20251106_213935,1762436343428,4,0.356440931558609,0.3295500874519348,0.34385359287261963,0.8038104772567749,0.9225492477416992,2.9755735397338867,2.4568424224853516,3.208571434020996,8.357391357421875,5.676123142242432,-0.02935204841196537,0.13905572891235352,-0.043638650327920914,15.61888313293457,-34.455177307128906,-5.907665252685547,0.3014659881591797,0.23093795776367188,0.04099416732788086,2.9071054458618164,8.126453399658203,5.635128974914551
4_20251106_213935,1762436343446,4,0.35656970739364624,0.32868754863739014,0.3440367579460144,0.8040281534194946,0.923872709274292,2.9757766723632812,2.4594268798828125,3.103231191635132,8.316692352294922,5.63901424407959,-0.009193513542413712,0.12072977423667908,-0.08701004087924957,15.583425521850586,-34.44446563720703,-5.962937355041504,0.15690064430236816,0.152191162109375,0.0031080245971679688,2.9463305473327637,8.164501190185547,5.635906219482422
4_20251106_213935,1762436343466,4,0.35704368352890015,0.32798996567726135,0.34444135427474976,0.8039294481277466,0.923872709274292,2.9757766723632812,2.4594268798828125,3.103231191635132,8.316692352294922,5.63901424407959,-0.009193513542413712,0.12072977423667908,-0.08701004087924957,15.606907844543457,-34.444091796875,-5.840310096740723,0.15690064430236816,0.152191162109375,0.0031080245971679688,2.9463305473327637,8.164501190185547,5.635906219482422
4_20251106_213935,1762436343485,4,0.3575344681739807,0.3277396261692047,0.34512361884117126,0.803520679473877,0.927038848400116,2.976959466934204,2.463008403778076,2.993102550506592,8.273598670959473,5.319401741027832,0.04334085434675217,0.0785801112651825,-0.08090139925479889,15.619304656982422,-34.43141174316406,-5.771974563598633,0.026678085327148438,0.07288646697998047,-0.22822809219360352,2.9664244651794434,8.200712203979492,5.5476298332214355
4_20251106_213935,1762436343503,4,0.3579661548137665,0.3280068039894104,0.3457978665828705,0.8029294013977051,0.927038848400116,2.976959466934204,2.463008403778076,2.993102550506592,8.273598670959473,5.319401741027832,0.030512696132063866,-0.006330085452646017,-0.06685151159763336,15.681941032409668,-34.40192413330078,-5.809543609619141,0.026678085327148438,0.07288646697998047,-0.22822809219360352,2.9664244651794434,8.200712203979492,5.5476298332214355
4_20251106_213935,1762436343524,4,0.358809232711792,0.3285992741584778,0.3462629020214081,0.8021100163459778,0.9297685027122498,2.978590488433838,2.464102268218994,2.893747568130493,8.244869232177734,5.431924819946289,-0.005528325214982033,0.01871536858379841,-0.09311869740486145,15.757073402404785,-34.359619140625,-5.792292594909668,-0.057813405990600586,0.029218673706054688,-0.06064462661743164,2.9515609741210938,8.21565055847168,5.492569446563721
4_20251106_213935,1762436343542,4,0.35989296436309814,0.3287288248538971,0.3465653359889984,0.8014404773712158,0.9297685027122498,2.978590488433838,2.464102268218994,2.893747568130493,8.244869232177734,5.431924819946289,-0.005528325214982033,0.01871536858379841,-0.09311869740486145,15.803814888000488,-34.382362365722656,-5.709760665893555,-0.057813405990600586,0.029218673706054688,-0.06064462661743164,2.9515609741210938,8.21565055847168,5.492569446563721
4_20251106_213935,1762436343561,4,0.3610655963420868,0.32824280858039856,0.3470155596733093,0.8009172677993774,0.9303940534591675,2.9793310165405273,2.4646403789520264,2.7656631469726562,8.187411308288574,5.5348711013793945,0.005467240698635578,0.07552578300237656,-0.12977057695388794,15.851755142211914,-34.391876220703125,-5.694546699523926,-0.14871811866760254,-0.022591590881347656,0.03384113311767578,2.914381265640259,8.210002899169922,5.501029968261719
4_20251106_213935,1762436343580,4,0.361861914396286,0.3272900879383087,0.34780198335647583,0.8006066083908081,0.9302418231964111,2.9797534942626953,2.465337038040161,2.6531405448913574,8.120376586914062,5.577964782714844,0.0622776597738266,0.052923791110515594,-0.07784707844257355,15.939679145812988,-34.33635711669922,-5.66302490234375,-0.20899248123168945,-0.0717010498046875,0.06154775619506836,2.862133026123047,8.19207763671875,5.516417026519775
4_20251106_213935,1762436343599,4,0.3621858060359955,0.3266920745372772,0.3487587869167328,0.8002880811691284,0.9286000728607178,2.979057550430298,2.4656946659088135,2.690248966217041,7.888148307800293,5.34813117980957,0.10625991970300674,-0.0399276465177536,-0.0069867633283138275,16.012203216552734,-34.3323974609375,-5.578984260559082,-0.10311079025268555,-0.21654033660888672,-0.11747121810913086,2.7933597564697266,8.10468864440918,5.465602397918701
4_20251106_213935,1762436343620,4,0.3622250258922577,0.3273494839668274,0.3495027422904968,0.7996768951416016,0.9273461699485779,2.977362632751465,2.4651448726654053,2.736933946609497,7.823507308959961,5.305037975311279,0.1288619041442871,-0.09918152540922165,0.029054254293441772,16.052074432373047,-34.27911376953125,-5.644038200378418,-0.04514050483703613,-0.224945068359375,-0.12845134735107422,2.782074451446533,8.048452377319336,5.4334893226623535
4_20251106_213935,1762436343639,4,0.3620605170726776,0.32869258522987366,0.34998562932014465,0.7989889979362488,0.9273461699485779,2.977362632751465,2.4651448726654053,2.736933946609497,7.823507308959961,5.305037975311279,0.08121446520090103,-0.08329904079437256,0.024167336523532867,16.123485565185547,-34.29986572265625,-5.60107421875,-0.04514050483703613,-0.224945068359375,-0.12845134735107422,2.782074451446533,8.048452377319336,5.4334893226623535
4_20251106_213935,1762436343658,4,0.3620898425579071,0.32982712984085083,0.3500702381134033,0.7984709143638611,0.9252431392669678,2.9736509323120117,2.462970018386841,2.7788310050964355,7.951591491699219,5.369678497314453,0.00485637504607439,-0.03137553855776787,-0.020425789058208466,16.123485565185547,-34.29986572265625,-5.60107421875,-0.0013096332550048828,-0.05528831481933594,-0.01689767837524414,2.7801406383514404,8.006879806518555,5.386576175689697
4_20251106_213935,1762436343677,4,0.36255618929862976,0.330308735370636,0.3499812185764313,0.7980992197990417,0.9237989783287048,2.971292018890381,2.461860418319702,2.6507463455200195,7.870192527770996,5.38763427734375,-0.011026107706129551,0.03154352679848671,-0.07296015322208405,16.146163940429688,-34.31217956542969,-5.4651947021484375,-0.1035153865814209,-0.10934972763061523,0.00084686279296875,2.7542617321014404,7.979542255401611,5.386787414550781
4_20251106_213935,1762436343696,4,0.3630991578102112,0.32989558577537537,0.3501235842704773,0.7979607582092285,0.9218524694442749,2.9686875343322754,2.4603891372680664,2.4652037620544434,7.740910530090332,5.174559593200684,0.017684536054730415,0.04681514576077461,-0.08395572006702423,16.15774154663086,-34.32380676269531,-5.478484153747559,-0.2312464714050293,-0.19090557098388672,-0.1697826385498047,2.6964502334594727,7.931816101074219,5.344342231750488
