session_id,timestamp,label,quaternion_w,quaternion_x,quaternion_y,quaternion_z,position_x,position_y,position_z,accelerometer_x,accelerometer_y,accelerometer_z,gyroscope_x,gyroscope_y,gyroscope_z,magnetometer_x,magnetometer_y,magnetometer_z,linear_acceleration_x,linear_acceleration_y,linear_acceleration_z,gravity_x,gravity_y,gravity_z
7_20251106_165723,1762419406565,7,0.07289933413267136,-0.03407703712582588,-0.7287794947624207,-0.6800035834312439,2.8563072681427,4.0757317543029785,3.0319483280181885,3.036196231842041,9.408401489257812,-0.007467307150363922,-0.03252854943275452,0.13852502405643463,0.10052160918712616,-4.9300079345703125,-26.48672103881836,39.29175567626953,0.3915257453918457,1.3230457305908203,0.36054521799087524,2.6446704864501953,8.085355758666992,-0.36801251769065857
7_20251106_165723,1762419406584,7,0.0744219571352005,-0.034554000943899155,-0.7283031344413757,-0.6803248524665833,2.855729818344116,4.092104434967041,2.9880290031433105,2.881776809692383,9.543667793273926,-0.31750309467315674,-0.10583231598138809,0.2063310146331787,0.04554377868771553,-5.142203330993652,-26.588258743286133,39.29508590698242,0.18968486785888672,1.1666498184204102,0.040407538414001465,2.692091941833496,8.377017974853516,-0.3579106330871582
7_20251106_165723,1762419406603,7,0.07613277435302734,-0.03408002853393555,-0.7273815870285034,-0.6811448931694031,2.8540992736816406,4.130036354064941,2.909365653991699,2.46879506111145,9.92193603515625,-0.7029529809951782,-0.14553852379322052,0.21060706675052643,0.06570231914520264,-5.341224670410156,-26.687652587890625,39.16374588012695,-0.17432045936584473,1.0370121002197266,-0.2512800097465515,2.643115520477295,8.884923934936523,-0.4516729712486267
7_20251106_165723,1762419406622,7,0.07790423929691315,-0.03374612331390381,-0.7262263298034668,-0.6821931004524231,2.8540992736816406,4.130036354064941,2.909365653991699,2.46879506111145,9.92193603515625,-0.7029529809951782,-0.11621700972318649,0.1446336805820465,0.11212804168462753,-5.578707695007324,-26.81521987915039,39.09798812866211,-0.17432045936584473,1.0370121002197266,-0.2512800097465515,2.643115520477295,8.884923934936523,-0.4516729712486267
7_20251106_165723,1762419406642,7,0.07948508858680725,-0.03408769890666008,-0.7253291010856628,-0.6829479336738586,2.851309299468994,4.180744171142578,2.8290727138519287,2.628002405166626,10.350479125976562,-0.8190668225288391,-0.11438442021608353,0.04445185884833336,0.1292322427034378,-5.865541458129883,-26.958385467529297,39.01648712158203,0.006415843963623047,0.9781761169433594,-0.24375081062316895,2.621586561203003,9.372303009033203,-0.5753160119056702
7_20251106_165723,1762419406661,7,0.08050740510225296,-0.035172414034605026,-0.7245247960090637,-0.6836265325546265,2.8498802185058594,4.208280086517334,2.7927117347717285,2.5549826622009277,10.468986511230469,-0.4874840974807739,-0.12354739010334015,-0.059395138174295425,0.10601938515901566,-6.0517578125,-27.03295135498047,38.994293212890625,-0.0532832145690918,0.8773469924926758,0.07026553153991699,2.6082658767700195,9.591639518737793,-0.5577496290206909
7_20251106_165723,1762419406679,7,0.08072061091661453,-0.03672292083501816,-0.7237585783004761,-0.6843311190605164,2.84795880317688,4.234954357147217,2.7611589431762695,2.3502869606018066,10.360055923461914,-0.08168435841798782,-0.12354739010334015,-0.059395138174295425,0.10601938515901566,-6.235266208648682,-27.069034576416016,38.89179611206055,-0.20638322830200195,0.6147327423095703,0.38085222244262695,2.5566701889038086,9.745323181152344,-0.4625365734100342
7_20251106_165723,1762419406698,7,0.08068837225437164,-0.0380573496222496,-0.7232276201248169,-0.684823215007782,2.84795880317688,4.234954357147217,2.7611589431762695,2.3502869606018066,10.360055923461914,-0.08168435841798782,-0.05513054132461548,-0.002584721427410841,0.05837193876504898,-6.374714374542236,-27.448837280273438,38.39238739013672,-0.20638322830200195,0.6147327423095703,0.38085222244262695,2.5566701889038086,9.745323181152344,-0.4625365734100342
7_20251106_165723,1762419406718,7,0.08104877918958664,-0.03870609775185585,-0.7227645516395569,-0.6852330565452576,2.841003894805908,4.29340934753418,2.7003822326660156,2.1336212158203125,10.423500061035156,-0.17984242737293243,-0.05513054132461548,-0.002584721427410841,0.05837193876504898,-6.4027228355407715,-27.524959564208984,38.30872344970703,-0.2797532081604004,0.4524202346801758,0.16962413489818573,2.413374423980713,9.97107982635498,-0.34946656227111816
7_20251106_165723,1762419406737,7,0.08166050910949707,-0.03910887986421585,-0.7220342755317688,-0.6859071254730225,2.837063789367676,4.32010555267334,2.675191879272461,2.200655937194824,10.394769668579102,-0.1666748821735382,-0.10644317418336868,0.054836563766002655,0.052874159067869186,-6.502326011657715,-27.568984985351562,38.30400848388672,-0.17017483711242676,0.33895206451416016,0.14623335003852844,2.370830774307251,10.055817604064941,-0.31290823221206665
7_20251106_165723,1762419406756,7,0.08225937932729721,-0.039398521184921265,-0.721214234828949,-0.68668133020401,2.8317506313323975,4.3492536544799805,2.64931583404541,1.991172194480896,10.374420166015625,-0.07809320837259293,-0.07345648109912872,0.002913061063736677,0.04493291303515434,-6.63184118270874,-27.714921951293945,38.282684326171875,-0.30372679233551025,0.2548828125,0.18785205483436584,2.2948989868164062,10.119537353515625,-0.2659452557563782
7_20251106_165723,1762419406775,7,0.08248146623373032,-0.03994724899530411,-0.7206538915634155,-0.6872109770774841,2.8254554271698,4.376009464263916,2.6268393993377686,1.748171091079712,10.283443450927734,0.053582217544317245,-0.01542433351278305,-0.04412352293729782,0.07547615468502045,-6.942697525024414,-28.1185359954834,37.7896614074707,-0.43738245964050293,0.13112545013427734,0.2556219696998596,2.185553550720215,10.152318000793457,-0.20203976333141327
7_20251106_165723,1762419406795,7,0.08259999006986618,-0.04089430347084999,-0.7204891443252563,-0.6873137950897217,2.81779408454895,4.402676105499268,2.604688882827759,1.7362005710601807,10.123040199279785,-0.09485191106796265,0.06704240292310715,-0.07405589520931244,0.13778434693813324,-6.920848369598389,-28.166770935058594,37.74903869628906,-0.3594825267791748,-0.0234222412109375,0.0857502818107605,2.0956830978393555,10.146462440490723,-0.18060219287872314
7_20251106_165723,1762419406814,7,0.08316504955291748,-0.04209247976541519,-0.7208578586578369,-0.6867865324020386,2.8103139400482178,4.426567077636719,2.5842928886413574,1.8894230127334595,10.082340240478516,-0.32827651500701904,0.10797034204006195,-0.09849047660827637,0.20803378522396088,-6.924682140350342,-28.241575241088867,37.693389892578125,-0.16500794887542725,-0.05129814147949219,-0.11813944578170776,2.0544309616088867,10.133638381958008,-0.21013706922531128
7_20251106_165723,1762419406833,7,0.0837898850440979,-0.04415345564484596,-0.7214915156364441,-0.6859152317047119,2.803408622741699,4.4492998123168945,2.5642049312591553,2.1276357173919678,10.146980285644531,-0.4695283770561218,0.07559450715780258,-0.08749491721391678,0.2324683666229248,-6.976146697998047,-28.294845581054688,37.676856994628906,0.0585637092590332,0.01067352294921875,-0.20751303434371948,2.0690720081329346,10.136306762695312,-0.26201534271240234
7_20251106_165723,1762419406852,7,0.08466865867376328,-0.046341098845005035,-0.721926212310791,-0.6852052807807922,2.7979276180267334,4.46988582611084,2.545682668685913,2.3670458793640137,10.187681198120117,-0.4419962167739868,0.0206166859716177,-0.06672552227973938,0.201925128698349,-6.976146697998047,-28.294845581054688,37.676856994628906,0.23837924003601074,0.04109954833984375,-0.14398470520973206,2.128666639328003,10.146581649780273,-0.29801151156425476
7_20251106_165723,1762419406871,7,0.08554470539093018,-0.04820682853460312,-0.7220171093940735,-0.6848718523979187,2.793755292892456,4.490828990936279,2.5271670818328857,2.611243724822998,10.255911827087402,-0.2768033742904663,0.012064579874277115,-0.07405589520931244,0.14328213036060333,-7.084252834320068,-28.0057315826416,38.110809326171875,0.3860616683959961,0.0874643325805664,0.01696649193763733,2.225182056427002,10.168447494506836,-0.29376986622810364
7_20251106_165723,1762419406889,7,0.08595629781484604,-0.0498216487467289,-0.722069501876831,-0.6846495270729065,2.7914650440216064,4.510994911193848,2.5102643966674805,2.835092067718506,10.266685485839844,-0.043378785252571106,0.025503603741526604,-0.04106919839978218,0.06936750560998917,-7.1829400062561035,-28.025318145751953,38.17420196533203,0.4879279136657715,0.07859039306640625,0.20031286776065826,2.3471641540527344,10.188095092773438,-0.24369165301322937
7_20251106_165723,1762419406908,7,0.08612240105867386,-0.05077254772186279,-0.7221810221672058,-0.6844411492347717,2.7909135818481445,4.530611038208008,2.494204521179199,2.939235210418701,10.355266571044922,-0.2444830983877182,0.03955349326133728,0.0523931048810482,-0.025927390903234482,-7.217396259307861,-28.00164222717285,38.078643798828125,0.47365689277648926,0.13373661041259766,-0.0006331652402877808,2.465578317642212,10.221529960632324,-0.24384993314743042
7_20251106_165723,1762419406928,7,0.0863712951540947,-0.050466977059841156,-0.7223106622695923,-0.6842955350875854,2.7909135818481445,4.530611038208008,2.494204521179199,2.939235210418701,10.355266571044922,-0.2444830983877182,0.05299251526594162,0.07132990658283234,-0.11572451144456863,-7.252953052520752,-27.991064071655273,38.036888122558594,0.47365689277648926,0.13373661041259766,-0.0006331652402877808,2.465578317642212,10.221529960632324,-0.24384993314743042
7_20251106_165723,1762419406947,7,0.08610238134860992,-0.04951317608356476,-0.72258061170578,-0.6841140985488892,2.7930281162261963,4.567790508270264,2.460129737854004,2.6974313259124756,10.07515811920166,-0.8310372829437256,0.05726856738328934,-0.03740401193499565,-0.11816795915365219,-7.092617511749268,-27.943336486816406,38.07108688354492,0.11391091346740723,-0.11934280395507812,-0.41180717945098877,2.5835204124450684,10.194500923156738,-0.4192301034927368
7_20251106_165723,1762419406967,7,0.08506502211093903,-0.04925522208213806,-0.7230285406112671,-0.6837891340255737,2.7930281162261963,4.567790508270264,2.460129737854004,2.6974313259124756,10.07515811920166,-0.8310372829437256,0.07254018634557724,-0.17668116092681885,-0.05036197975277901,-7.164113521575928,-27.91110610961914,38.13651657104492,0.11391091346740723,-0.11934280395507812,-0.41180717945098877,2.5835204124450684,10.194500923156738,-0.4192301034927368
7_20251106_165723,1762419406987,7,0.0835241973400116,-0.050289954990148544,-0.723696768283844,-0.6831966638565063,2.794363021850586,4.58512544631958,2.4418869018554688,2.6052584648132324,9.92193603515625,-0.5832480788230896,0.07254018634557724,-0.22188515961170197,0.02538524568080902,-7.133298873901367,-27.796367645263672,38.12635803222656,0.01739048957824707,-0.21805191040039062,-0.13121438026428223,2.5878679752349854,10.13998794555664,-0.4520336985588074
7_20251106_165723,1762419407007,7,0.08219461888074875,-0.0520908385515213,-0.724320113658905,-0.6825620532035828,2.797623634338379,4.613699436187744,2.4106011390686035,2.805166006088257,10.085931777954102,-0.3833408057689667,0.040775224566459656,-0.20783525705337524,0.07425443083047867,-7.0359954833984375,-27.778669357299805,38.25218963623047,0.1626286506652832,-0.009122848510742188,0.057178884744644165,2.6425373554229736,10.095054626464844,-0.44051969051361084
7_20251106_165723,1762419407023,7,0.08140520751476288,-0.05546421557664871,-0.7244686484336853,-0.6822331547737122,2.797623634338379,4.613699436187744,2.4106011390686035,2.805166006088257,10.085931777954102,-0.3833408057689667,0.031001387163996696,-0.1791246235370636,0.09196949750185013,-6.9384942054748535,-27.76070213317871,38.350990295410156,0.1626286506652832,-0.009122848510742188,0.057178884744644165,2.6425373554229736,10.095054626464844,-0.44051969051361084
7_20251106_165723,1762419407042,7,0.08095882087945938,-0.05892368033528328,-0.7243839502334595,-0.682086169719696,2.802715539932251,4.636729717254639,2.38608455657959,3.0002846717834473,10.054807662963867,-0.4144641160964966,0.031001387163996696,-0.1791246235370636,0.09196949750185013,-6.801727294921875,-27.701871871948242,38.37095642089844,0.2421736717224121,-0.03227043151855469,-0.0015195608139038086,2.758111000061035,10.087078094482422,-0.4129445552825928
7_20251106_165723,1762419407062,7,0.08094456791877747,-0.06251123547554016,-0.7242396473884583,-0.6819217205047607,2.802715539932251,4.636729717254639,2.38608455657959,3.0002846717834473,10.054807662963867,-0.4144641160964966,0.05543597787618637,-0.16018781065940857,0.20436859130859375,-6.746225357055664,-27.786474227905273,38.43914031982422,0.2421736717224121,-0.03227043151855469,-0.0015195608139038086,2.758111000061035,10.087078094482422,-0.4129445552825928
7_20251106_165723,1762419407081,7,0.08136463165283203,-0.06680261343717575,-0.7242059707641602,-0.6815004944801331,2.8124985694885254,4.658010482788086,2.3597171306610107,3.413266897201538,9.844127655029297,-0.6885883808135986,0.057879433035850525,-0.22432860732078552,0.3540304899215698,-6.632506370544434,-27.692638397216797,38.567047119140625,0.4583714008331299,-0.15970230102539062,-0.19192582368850708,2.954895496368408,10.003829956054688,-0.49666255712509155
7_20251106_165723,1762419407100,7,0.0823582336306572,-0.07274483144283295,-0.7242887020111084,-0.6806843876838684,2.820134401321411,4.666901588439941,2.347019910812378,3.8489928245544434,9.852506637573242,-0.6802090406417847,0.04016435891389847,-0.3129040002822876,0.5831047296524048,-6.520447254180908,-27.36492347717285,39.091453552246094,0.715277910232544,-0.12105846405029297,-0.14683717489242554,3.1337149143218994,9.973565101623535,-0.5333718657493591
7_20251106_165723,1762419407119,7,0.08420629054307938,-0.08110120892524719,-0.724172055721283,-0.6796371936798096,2.831564426422119,4.675337791442871,2.3340916633605957,4.655803680419922,9.969817161560059,-0.8489930629730225,0.02672533132135868,-0.4417964816093445,0.8427222371101379,-6.422366142272949,-27.35776138305664,39.014278411865234,1.2176709175109863,-0.00299835205078125,-0.25249695777893066,3.4381327629089355,9.97281551361084,-0.5964961051940918
7_20251106_165723,1762419407137,7,0.08662156760692596,-0.09025164693593979,-0.7239590883255005,-0.6784058809280396,2.8474318981170654,4.683872222900391,2.3219406604766846,5.7044196128845215,10.355267524719238,-0.8058992624282837,0.02672533132135868,-0.4417964816093445,0.8427222371101379,-6.3882060050964355,-27.381839752197266,39.15038299560547,1.8130297660827637,0.30596160888671875,-0.16752254962921143,3.891389846801758,10.04930591583252,-0.6383767127990723
7_20251106_165723,1762419407156,7,0.08900761604309082,-0.1025453582406044,-0.7234846353530884,-0.6768545508384705,2.8710010051727295,4.694639205932617,2.309690237045288,6.682408809661865,10.854436874389648,-0.6622533798217773,0.005345067009329796,-0.6531556248664856,1.0693531036376953,-6.363438606262207,-27.379711151123047,39.09729766845703,2.2328152656555176,0.6441049575805664,-0.019101381301879883,4.449593544006348,10.210331916809082,-0.6431519985198975
7_20251106_165723,1762419407177,7,0.09020614624023438,-0.11741442233324051,-0.7232185006141663,-0.6745603680610657,2.904465675354004,4.708554267883301,2.2972872257232666,7.704689025878906,11.245872497558594,-0.6933766007423401,0.16478076577186584,-1.1565080881118774,1.1322721242904663,-6.353821754455566,-27.688140869140625,38.69970703125,2.604076385498047,0.8284330368041992,-0.040179669857025146,5.100612640380859,10.417439460754395,-0.6531969308853149
7_20251106_165723,1762419407196,7,0.08973958343267441,-0.13354673981666565,-0.7236738204956055,-0.6711246371269226,2.9443440437316895,4.724584102630615,2.2853527069091797,8.62761402130127,11.682795524597168,-0.923210084438324,0.198378324508667,-1.3177763223648071,0.8696002960205078,-6.3189697265625,-27.71127700805664,38.7411994934082,2.821600914001465,1.012284278869629,-0.21601051092147827,5.806013107299805,10.670511245727539,-0.7071995735168457
7_20251106_165723,1762419407215,7,0.08643781393766403,-0.14912569522857666,-0.72452712059021,-0.6673458218574524,2.9929966926574707,4.744575500488281,2.2729108333587646,8.692255020141602,11.973678588867188,-0.8741310238838196,0.09453131258487701,-1.3782520294189453,0.39495840668678284,-6.174134254455566,-27.715248107910156,38.841434478759766,2.308993339538574,1.0425338745117188,-0.1335451602935791,6.383261680603027,10.931144714355469,-0.7405858635902405
7_20251106_165723,1762419407234,7,0.07968258857727051,-0.16191604733467102,-0.7252519130706787,-0.6644122004508972,3.0412800312042236,4.76497220993042,2.2630136013031006,7.977616310119629,11.789332389831543,-0.2552565336227417,0.018784090876579285,-1.3831390142440796,-0.10778326541185379,-6.174134254455566,-27.715248107910156,38.841434478759766,1.2754840850830078,0.6865501403808594,0.388263463973999,6.702132225036621,11.102782249450684,-0.6435199975967407
7_20251106_165723,1762419407254,7,0.06960724294185638,-0.171244814991951,-0.7260996699333191,-0.6622758507728577,3.0913193225860596,4.786404609680176,2.2545766830444336,7.279736518859863,11.443385124206543,-0.1630837321281433,0.04260781407356262,-1.3373240232467651,-0.4266546368598938,-5.624859809875488,-27.66667938232422,38.836734771728516,0.4620838165283203,0.27248191833496094,0.38434898853302,6.817652702331543,11.170903205871582,-0.5474327206611633
7_20251106_165723,1762419407272,7,0.057935167104005814,-0.17775987088680267,-0.7274025678634644,-0.6602503061294556,3.134082317352295,4.805288314819336,2.248412847518921,6.809295654296875,11.397897720336914,-0.1211870089173317,0.03711003065109253,-1.4381167888641357,-0.5659317970275879,-5.624859809875488,-27.66667938232422,38.836734771728516,-0.0066852569580078125,0.1815958023071289,0.34099656343460083,6.815980911254883,11.216301918029785,-0.46218356490135193
7_20251106_165723,1762419407291,7,0.04468225687742233,-0.18375161290168762,-0.7288346290588379,-0.658056914806366,3.134082317352295,4.805288314819336,2.248412847518921,6.809295654296875,11.397897720336914,-0.1211870089173317,0.07254018634557724,-1.68307363986969,-0.6758874654769897,-4.94364070892334,-27.63542938232422,38.9315185546875,-0.0066852569580078125,0.1815958023071289,0.34099656343460083,6.815980911254883,11.216301918029785,-0.46218356490135193
7_20251106_165723,1762419407310,7,0.02900182455778122,-0.19046206772327423,-0.7305755019187927,-0.6550897359848022,3.2108194828033447,4.842283248901367,2.2473154067993164,5.290240287780762,11.152502059936523,1.559470295906067,0.07254018634557724,-1.68307363986969,-0.6758874654769897,-4.0545806884765625,-27.601348876953125,38.84514617919922,-1.1199283599853516,-0.05653667449951172,1.4309924840927124,6.410168647766113,11.209038734436035,0.1284777969121933
7_20251106_165723,1762419407329,7,0.010914135724306107,-0.1976974904537201,-0.7334105372428894,-0.6503118872642517,3.2389142513275146,4.858896732330322,2.2540414333343506,4.402029991149902,11.066314697265625,1.897038221359253,0.5312995314598083,-2.1082353591918945,-0.9519982933998108,-3.029965400695801,-27.533281326293945,38.751182556152344,-1.606511116027832,-0.11417865753173828,1.4148483276367188,6.008541107177734,11.180493354797363,0.4821898639202118
7_20251106_165723,1762419407348,7,0.008569004945456982,0.20446781814098358,0.7378296852111816,0.6432160139083862,3.2389142513275146,4.858896732330322,2.2540414333343506,4.402029991149902,11.066314697265625,1.897038221359253,0.7182241678237915,-2.134502649307251,-1.1511400938034058,-1.7780036926269531,-27.053119659423828,38.998390197753906,-1.606511116027832,-0.11417865753173828,1.4148483276367188,6.008541107177734,11.180493354797363,0.4821898639202118
7_20251106_165723,1762419407368,7,0.02902766317129135,0.20961993932724,0.7433992624282837,0.6344875693321228,3.268195152282715,4.883540630340576,2.2764344215393066,2.1168622970581055,9.762727737426758,1.6277021169662476,0.7683150172233582,-2.0691399574279785,-1.3325669765472412,-0.20121479034423828,-26.68478775024414,38.769351959228516,-2.700972080230713,-1.0402908325195312,0.7191463708877563,4.817834377288818,10.803018569946289,0.9085557460784912
7_20251106_165723,1762419407387,7,0.04988502338528633,0.21265307068824768,0.7493459582328796,0.6251165866851807,3.2655091285705566,4.888244152069092,2.288548231124878,0.7151175141334534,9.118715286254883,1.1967642307281494,0.7683150172233582,-2.0691399574279785,-1.3325669765472412,1.5421419143676758,-26.167463302612305,38.49552917480469,-3.2821736335754395,-1.347442626953125,0.23056679964065552,3.997291088104248,10.466157913208008,0.9661974310874939
7_20251106_165723,1762419407406,7,0.07017301023006439,0.21438489854335785,0.7554569244384766,0.6151419878005981,3.2509639263153076,4.886562347412109,2.2984459400177,-0.3741973638534546,8.224519729614258,0.3791796565055847,0.9699004292488098,-1.881604552268982,-1.349060297012329,3.3820390701293945,-25.478506088256836,37.94472885131836,-3.4971909523010254,-1.7933111190795898,-0.46961426734924316,3.1229934692382812,10.017830848693848,0.8487939238548279
7_20251106_165723,1762419407425,7,0.08958837389945984,0.21574974060058594,0.7620589137077332,0.6038974523544312,3.2270450592041016,4.878236293792725,2.30436110496521,-1.2743785381317139,7.251317977905273,-0.36658215522766113,1.0474803447723389,-1.8950434923171997,-1.2733131647109985,5.290829658508301,-25.073070526123047,37.4183235168457,-3.517897605895996,-2.2132110595703125,-0.9723008871078491,2.2435190677642822,9.464529037475586,0.605718731880188
7_20251106_165723,1762419407444,7,0.10858479887247086,0.21762850880622864,0.7686606049537659,0.5916147232055664,3.2270450592041016,4.878236293792725,2.30436110496521,-1.2743785381317139,7.251317977905273,-0.36658215522766113,0.991280734539032,-1.827237606048584,-1.2024527788162231,7.131749153137207,-24.134979248046875,36.99395751953125,-3.517897605895996,-2.2132110595703125,-0.9723008871078491,2.2435190677642822,9.464529037475586,0.605718731880188
7_20251106_165723,1762419407462,7,0.12689736485481262,0.21950025856494904,0.7745684385299683,0.579448401927948,3.1432855129241943,4.83925199508667,2.301727771759033,-3.265071392059326,6.1452436447143555,-1.64143967628479,0.8171842694282532,-1.6586389541625977,-1.098605751991272,8.930268287658691,-23.087051391601562,36.570003509521484,-3.680635690689087,-2.2044010162353516,-1.5278164148330688,0.41556423902511597,8.349644660949707,-0.1136232316493988
7_20251106_165723,1762419407481,7,0.14370906352996826,0.22066186368465424,0.7793058753013611,0.5686285495758057,3.1432855129241943,4.83925199508667,2.301727771759033,-3.265071392059326,6.1452436447143555,-1.64143967628479,0.576503574848175,-1.4002431631088257,-0.909237802028656,10.794257164001465,-21.947790145874023,36.20441436767578,-3.680635690689087,-2.2044010162353516,-1.5278164148330688,0.41556423902511597,8.349644660949707,-0.1136232316493988
7_20251106_165723,1762419407500,7,0.1581045240163803,0.22125665843486786,0.782541811466217,0.5600684881210327,3.082646369934082,4.808714866638184,2.291724920272827,-4.006045341491699,5.813661575317383,-2.1023035049438477,0.576503574848175,-1.4002431631088257,-0.909237802028656,12.497008323669434,-20.869083404541016,35.83139419555664,-3.537287712097168,-2.0287861824035645,-1.5909442901611328,-0.46875762939453125,7.842447757720947,-0.5113592743873596
7_20251106_165723,1762419407519,7,0.1694563627243042,0.22193147242069244,0.7842856645584106,0.5540098547935486,3.0169730186462402,4.775105953216553,2.277416229248047,-4.458529949188232,5.6376953125,-2.4362802505493164,0.34498587250709534,-1.1180236339569092,-0.632516086101532,13.95444393157959,-19.820032119750977,35.569950103759766,-3.1918177604675293,-1.7638020515441895,-1.5399367809295654,-1.2667120695114136,7.4014973640441895,-0.896343469619751
7_20251106_165723,1762419407538,7,0.17813709378242493,0.22377774119377136,0.7845656871795654,0.5501339435577393,2.8749823570251465,4.702394962310791,2.239715814590454,-4.419027328491211,5.8328142166137695,-2.284255027770996,0.10369428247213364,-0.9604206085205078,0.05348501354455948,15.297554969787598,-18.877239227294922,35.16681671142578,-1.9900932312011719,-0.9775266647338867,-0.8237184286117554,-2.428934097290039,6.810340881347656,-1.4605365991592407
7_20251106_165723,1762419407558,7,0.1852228194475174,0.2282603234052658,0.7837429642677307,0.5471166968345642,2.795989751815796,4.662291526794434,2.2167928218841553,-3.9402074813842773,6.127288818359375,-2.3369252681732178,0.10369428247213364,-0.9604206085205078,0.05348501354455948,16.540489196777344,-18.180612564086914,34.957977294921875,-1.2090187072753906,-0.5464415550231934,-0.7011109590530396,-2.7311887741088867,6.673730373382568,-1.6358143091201782
7_20251106_165723,1762419407577,7,0.19045193493366241,0.23565222322940826,0.7824873924255371,0.5439757108688354,2.795989751815796,4.662291526794434,2.2167928218841553,-3.9402074813842773,6.127288818359375,-2.3369252681732178,0.2802341878414154,-0.991574764251709,0.6301413178443909,17.62420654296875,-17.28244400024414,34.827857971191406,-1.2090187072753906,-0.5464415550231934,-0.7011109590530396,-2.7311887741088867,6.673730373382568,-1.6358143091201782
7_20251106_165723,1762419407596,7,0.1943439543247223,0.2450820803642273,0.7809680104255676,0.540605366230011,2.7228827476501465,4.6259684562683105,2.1932945251464844,-3.393156051635742,6.626458168029785,-2.660128593444824,0.26190826296806335,-0.9158274531364441,0.6851191520690918,18.532062530517578,-16.94443130493164,34.49101257324219,-0.529573917388916,-0.037817955017089844,-0.8194514513015747,-2.863582134246826,6.664276123046875,-1.8406771421432495
7_20251106_165723,1762419407615,7,0.1973583698272705,0.2546262741088867,0.7792442440986633,0.537581205368042,2.6528286933898926,4.592178821563721,2.1685357093811035,-3.0831198692321777,6.92572021484375,-2.728360414505005,0.14217877388000488,-0.7063009142875671,0.5837156176567078,19.30849838256836,-16.77814292907715,34.199893951416016,-0.1756303310394287,0.20915508270263672,-0.7101466655731201,-2.907489538192749,6.716565132141113,-2.0182137489318848
7_20251106_165723,1762419407635,7,0.19963234663009644,0.26223140954971313,0.7774225473403931,0.5357199311256409,2.5182807445526123,4.5312981605529785,2.1157114505767822,-3.2471158504486084,7.205829620361328,-2.6134438514709473,-0.08017599582672119,-0.38254261016845703,0.4010670483112335,19.700389862060547,-16.784870147705078,33.66062927246094,-0.25815629959106445,0.33132410049438477,-0.3458976745605469,-2.988959550857544,6.874505519866943,-2.2675461769104004
7_20251106_165723,1762419407654,7,0.20096056163311005,0.26638516783714294,0.7755094766616821,0.5359466671943665,2.456510305404663,4.505552291870117,2.0898265838623047,-3.2124013900756836,7.296805381774902,-2.7977893352508545,-0.3220784366130829,0.0627778023481369,0.281948447227478,20.308834075927734,-16.804302215576172,33.31889343261719,-0.17875337600708008,0.33783960342407227,-0.4241945743560791,-3.0336480140686035,6.95896577835083,-2.3735947608947754
7_20251106_165723,1762419407674,7,0.2002328485250473,0.2667907178401947,0.773510217666626,0.5388983488082886,2.3978240489959717,4.483551502227783,2.0639309883117676,-3.035238027572632,7.854630470275879,-2.849262237548828,-0.5022835731506348,0.29307377338409424,0.1964273601770401,20.746063232421875,-17.071836471557617,32.884666442871094,-0.001271963119506836,0.7165317535400391,-0.38053393363952637,-3.033966064453125,7.13809871673584,-2.4687283039093018
7_20251106_165723,1762419407692,7,0.1987190693616867,0.26509737968444824,0.7712331414222717,0.543537974357605,2.3422951698303223,4.465667247772217,2.0381972789764404,-2.952641725540161,8.237687110900879,-2.881582736968994,-0.5108356475830078,0.29307377338409424,0.0779196172952652,20.746063232421875,-17.071836471557617,32.884666442871094,0.06505942344665527,0.8796706199645996,-0.33028364181518555,-3.0177011489868164,7.358016490936279,-2.5512990951538086
7_20251106_165723,1762419407712,7,0.19782505929470062,0.26255884766578674,0.769162118434906,0.5480124950408936,2.2859814167022705,4.451286792755127,2.0124967098236084,-3.2758450508117676,8.510614395141602,-2.540423631668091,-0.5108356475830078,0.29307377338409424,0.0779196172952652,20.970218658447266,-17.43050765991211,32.67029571533203,-0.20651507377624512,0.9220786094665527,0.008700370788574219,-3.0693299770355225,7.588535785675049,-2.549124002456665
7_20251106_165723,1762419407729,7,0.19780300557613373,0.2594136893749237,0.7677143216133118,0.5515371561050415,2.240004539489746,4.441342353820801,1.991815209388733,-3.298588752746582,8.34781551361084,-2.5164828300476074,-0.3941604197025299,0.4018077254295349,-0.07785089313983917,20.828510284423828,-17.80179786682129,32.576637268066406,-0.18340682983398438,0.6074237823486328,0.026113033294677734,-3.1151819229125977,7.740391731262207,-2.542595863342285
7_20251106_165723,1762419407750,7,0.19643189013004303,0.25496092438697815,0.766884982585907,0.5552448630332947,2.186846971511841,4.431635856628418,1.9652652740478516,-2.877227783203125,8.326269149780273,-3.2227418422698975,-0.44852742552757263,0.6217190027236938,-0.01676442101597786,20.970001220703125,-18.104455947875977,32.4818000793457,0.19036340713500977,0.4687018394470215,-0.544116735458374,-3.0675911903381348,7.857567310333252,-2.6786251068115234
7_20251106_165723,1762419407768,7,0.1934814751148224,0.25000011920928955,0.7659028768539429,0.5598728656768799,2.1453447341918945,4.425166130065918,1.9414867162704468,-2.343343734741211,8.43998908996582,-3.5555214881896973,-0.5963566899299622,0.6840272545814514,0.036991674453020096,20.955101013183594,-18.368289947509766,32.48977279663086,0.5793979167938232,0.46593713760375977,-0.7015171051025391,-2.922741651535034,7.9740519523620605,-2.854004383087158
7_20251106_165723,1762419407788,7,0.18995943665504456,0.24484844505786896,0.7641760110855103,0.5656851530075073,2.1048412322998047,4.4196882247924805,1.9156919717788696,-1.8357946872711182,8.418441772460938,-3.0826869010925293,-0.7283034920692444,0.624162495136261,0.06814577430486679,20.815929412841797,-18.678142547607422,32.53260040283203,0.8695576190948486,0.3555116653442383,-0.18294596672058105,-2.705352306365967,8.0629301071167,-2.8997409343719482
7_20251106_165723,1762419407807,7,0.18707580864429474,0.24035046994686127,0.7614445090293884,0.5722207427024841,2.0721569061279297,4.415841102600098,1.8930827379226685,-1.2947282791137695,8.462732315063477,-2.6553401947021484,-0.697149395942688,0.5148176550865173,0.13900607824325562,20.810630798339844,-18.956300735473633,32.797607421875,1.1284992694854736,0.3198413848876953,0.19552063941955566,-2.423227548599243,8.142890930175781,-2.850860834121704
7_20251106_165723,1762419407826,7,0.1844099760055542,0.2370084524154663,0.7584177255630493,0.5784657001495361,2.0459699630737305,4.413539886474609,1.8719433546066284,-0.6507157683372498,8.63630485534668,-2.727163314819336,-0.5444331765174866,0.3523276746273041,0.22147279977798462,20.486465454101562,-19.30426025390625,32.940677642822266,1.4180092811584473,0.3947315216064453,0.09895801544189453,-2.068725109100342,8.241573333740234,-2.8261213302612305
7_20251106_165723,1762419407845,7,0.18206216394901276,0.23551078140735626,0.7556403875350952,0.5834343433380127,2.0263423919677734,4.412479400634766,1.8528779745101929,-0.1551373451948166,8.651866912841797,-2.4554331302642822,-0.5444331765174866,0.3523276746273041,0.22147279977798462,20.135406494140625,-19.703632354736328,33.04116439819336,1.5308701992034912,0.3282346725463867,0.2965505123138428,-1.6860074996948242,8.32363224029541,-2.751983642578125
7_20251106_165723,1762419407866,7,0.18066717684268951,0.23517902195453644,0.7530723214149475,0.5873093605041504,2.0106637477874756,4.412546634674072,1.8346115350723267,-0.2149898111820221,8.675806999206543,-2.2291908264160156,-0.3581194281578064,0.14768800139427185,0.04310031980276108,19.923316955566406,-20.017980575561523,33.05401611328125,1.1768141984939575,0.2817392349243164,0.41823434829711914,-1.3918039798736572,8.394067764282227,-2.6474251747131348
7_20251106_165723,1762419407883,7,0.18027876317501068,0.23414282500743866,0.7512357234954834,0.5901877880096436,2.0106637477874756,4.412546634674072,1.8346115350723267,-0.2149898111820221,8.675806999206543,-2.2291908264160156,-0.3581194281578064,0.14768800139427185,0.04310031980276108,19.611175537109375,-20.42334747314453,32.7367057800293,1.1768141984939575,0.2817392349243164,0.41823434829711914,-1.3918039798736572,8.394067764282227,-2.6474251747131348
7_20251106_165723,1762419407902,7,0.18023131787776947,0.23123371601104736,0.7502453923225403,0.5926039814949036,1.98927640914917,4.412512302398682,1.807875394821167,-1.0708801746368408,8.106011390686035,-2.287846088409424,-0.3623954951763153,0.45067688822746277,-0.20857596397399902,19.286392211914062,-20.79534149169922,32.7711181640625,0.15252959728240967,-0.2565622329711914,0.2377917766571045,-1.2234097719192505,8.362573623657227,-2.5256378650665283
7_20251106_165723,1762419407920,7,0.17905284464359283,0.22639991343021393,0.7495211362838745,0.5957358479499817,1.9802743196487427,4.410870552062988,1.7956205606460571,-0.9463869333267212,7.858222007751465,-2.614640712738037,-0.4460839331150055,0.6088908314704895,-0.060746680945158005,18.927845001220703,-21.142719268798828,32.615360260009766,0.22161829471588135,-0.40348148345947266,-0.07120227813720703,-1.1680052280426025,8.261703491210938,-2.54343843460083
7_20251106_165723,1762419407940,7,0.17617373168468475,0.22158338129520416,0.7482564449310303,0.5999799370765686,1.9729959964752197,4.408409595489502,1.7819043397903442,-0.436443954706192,8.022217750549316,-2.8001832962036133,-0.4460839331150055,0.6088908314704895,-0.060746680945158005,18.607254028320312,-21.474210739135742,32.366722106933594,0.5852490663528442,-0.1915884017944336,-0.20539593696594238,-1.0216929912567139,8.21380615234375,-2.594787359237671
7_20251106_165723,1762419407959,7,0.17292559146881104,0.2185967117547989,0.7460776567459106,0.60471510887146,1.9685190916061401,4.4068121910095215,1.7699307203292847,-0.25928065180778503,8.441184997558594,-2.447053909301758,-0.5199986100196838,0.27169352769851685,0.2593464255332947,18.31053924560547,-21.80478858947754,32.186649322509766,0.6099298000335693,0.18190288543701172,0.11818695068359375,-0.8692104816436768,8.259282112121582,-2.5652408599853516
7_20251106_165723,1762419407978,7,0.17075926065444946,0.21816392242908478,0.7431125640869141,0.6091219186782837,1.966064214706421,4.406188011169434,1.7610312700271606,-0.21379277110099792,8.584831237792969,-1.6629866361618042,-0.4674642086029053,0.09148845076560974,0.3344827890396118,18.024898529052734,-22.159282684326172,31.965988159179688,0.524334192276001,0.2604389190673828,0.7218033075332642,-0.7381269335746765,8.324392318725586,-2.3847899436950684
7_20251106_165723,1762419407997,7,0.16928188502788544,0.21934707462787628,0.7399330735206604,0.612967848777771,1.965843915939331,4.406693935394287,1.7551778554916382,0.03160235285758972,8.724885940551758,-1.436744213104248,-0.4350883662700653,0.1147013008594513,0.3857954144477844,17.732707977294922,-22.414113998413086,31.7469482421875,0.6157834529876709,0.32039451599121094,0.7584366798400879,-0.5841810703277588,8.404491424560547,-2.195180892944336
7_20251106_165723,1762419408017,7,0.16724926233291626,0.22069008648395538,0.7367627620697021,0.6168502569198608,1.968026876449585,4.409661769866943,1.7517247200012207,0.20637157559394836,9.214479446411133,-1.4056209325790405,-0.4350883662700653,0.1147013008594513,0.3857954144477844,17.404579162597656,-22.647293090820312,31.635093688964844,0.6324421167373657,0.6479902267456055,0.6316479444503784,-0.42607054114341736,8.566489219665527,-2.037268877029419
7_20251106_165723,1762419408036,7,0.1647258847951889,0.2209927886724472,0.733497142791748,0.6212966442108154,1.9718043804168701,4.414903163909912,1.7505086660385132,0.23270665109157562,9.500574111938477,-1.3445714712142944,-0.5670352578163147,0.41097068786621094,0.19948166608810425,17.406810760498047,-22.81081771850586,31.740283966064453,0.5270217657089233,0.7472677230834961,0.5541578531265259,-0.2943150997161865,8.75330638885498,-1.8987293243408203
7_20251106_165723,1762419408055,7,0.16195297241210938,0.21909843385219574,0.7303056716918945,0.6264349222183228,1.9772659540176392,4.421246528625488,1.7505191564559937,0.3883230686187744,9.250391006469727,-1.4738528728485107,-0.6623300909996033,0.5679629445075989,0.06936750560998917,17.051677703857422,-23.107158660888672,31.504486083984375,0.5461105108261108,0.39766788482666016,0.3399012088775635,-0.1577874720096588,8.852723121643066,-1.8137540817260742
7_20251106_165723,1762419408074,7,0.15907064080238342,0.21521219611167908,0.7270144820213318,0.6323212385177612,1.9835060834884644,4.4277167320251465,1.7518755197525024,0.22552435100078583,9.014572143554688,-1.3230245113372803,-0.7845030426979065,0.5533021688461304,0.008281033486127853,16.705612182617188,-23.45333480834961,31.308670043945312,0.30664947628974915,0.12947940826416016,0.3925837278366089,-0.08112511783838272,8.885092735290527,-1.7156082391738892
7_20251106_165723,1762419408095,7,0.1568833887577057,0.2108575701713562,0.7230668663978577,0.6388278007507324,1.9901180267333984,4.434143543243408,1.756452202796936,0.04117874801158905,8.870925903320312,-0.6562680602073669,-0.7845030426979065,0.5533021688461304,0.008281033486127853,16.705612182617188,-23.45333480834961,31.308670043945312,0.09784309566020966,-0.011333465576171875,0.8474721312522888,-0.05666434392333031,8.882259368896484,-1.5037401914596558
7_20251106_165723,1762419408112,7,0.15481768548488617,0.20719939470291138,0.7181116342544556,0.6460770964622498,1.9963128566741943,4.441058158874512,1.7631949186325073,0.1632777899503708,9.458677291870117,-0.3546116054058075,-0.9689841866493225,0.5294784307479858,0.24957258999347687,16.369434356689453,-23.82504653930664,31.23446273803711,0.1759537160396576,0.4611339569091797,0.9193029403686523,-0.012675918638706207,8.997543334960938,-1.2739145755767822
7_20251106_165723,1762419408131,7,0.1516076624393463,0.2040882557630539,0.7123717069625854,0.6541327834129333,2.004084825515747,4.449864387512207,1.7731419801712036,0.5559099912643433,9.680131912231445,-0.11280764639377594,-0.9689841866493225,0.5294784307479858,0.24957258999347687,15.622607231140137,-24.42010498046875,30.761390686035156,0.45486873388290405,0.5460710525512695,0.9288855791091919,0.10104125738143921,9.134060859680176,-1.0416932106018066
7_20251106_165723,1762419408151,7,0.14782892167568207,0.20142856240272522,0.7063894271850586,0.6622591018676758,2.0133302211761475,4.458910942077637,1.7858561277389526,0.7797582149505615,9.38206672668457,0.14814911782741547,-0.8669698238372803,0.42013365030288696,0.2837810218334198,15.247532844543457,-24.85536766052246,30.522197723388672,0.5429735779762268,0.19840526580810547,0.9518738985061646,0.23678463697433472,9.183661460876465,-0.8037247657775879
7_20251106_165723,1762419408170,7,0.14492876827716827,0.1994590163230896,0.700829267501831,0.6693654656410217,2.023440361022949,4.468949794769287,1.8015295267105103,0.5211955308914185,9.510150909423828,0.16969600319862366,-0.8119919896125793,0.37004274129867554,0.21108810603618622,14.883742332458496,-25.302661895751953,30.310264587402344,0.22752872109413147,0.26119136810302734,0.7787365913391113,0.293666809797287,9.2489595413208,-0.6090406179428101
7_20251106_165723,1762419408188,7,0.1427084356546402,0.19743958115577698,0.695595920085907,0.6758684515953064,2.03249454498291,4.477459907531738,1.8175817728042603,0.46014603972435,9.219267845153809,0.4677613079547882,-0.8437569737434387,0.4170793294906616,0.2373552918434143,14.479659080505371,-25.82700538635254,30.027694702148438,0.13318338990211487,-0.02375316619873047,0.8614415526390076,0.3269626498222351,9.243021011352539,-0.39368024468421936
7_20251106_165723,1762419408208,7,0.14005789160728455,0.19513477385044098,0.690166175365448,0.6826249957084656,2.0430350303649902,4.486603736877441,1.8376394510269165,0.65047687292099,9.295877456665039,0.630560040473938,-0.900567352771759,0.5050438642501831,0.33753710985183716,13.979496955871582,-26.332590103149414,29.741729736328125,0.2588113844394684,0.04228496551513672,0.8193922638893127,0.3916654884815216,9.253592491149902,-0.18883220851421356
7_20251106_165723,1762419408226,7,0.13619039952754974,0.19270120561122894,0.68423992395401,0.690024733543396,2.053978443145752,4.495495319366455,1.8559752702713013,1.1759815216064453,9.689708709716797,0.29299208521842957,-0.9689841866493225,0.5349761843681335,0.4499362111091614,13.539658546447754,-26.84662628173828,29.444435119628906,0.6274528503417969,0.3488931655883789,0.38545942306518555,0.5485286712646484,9.340815544128418,-0.09246735274791718
7_20251106_165723,1762419408245,7,0.13150231540203094,0.19074039161205292,0.6776025295257568,0.6979828476905823,2.053978443145752,4.495495319366455,1.8559752702713013,1.1759815216064453,9.689708709716797,0.29299208521842957,-0.9970839619636536,0.3718753457069397,0.42916685342788696,13.03797435760498,-27.38907241821289,29.076580047607422,0.6274528503417969,0.3488931655883789,0.38545942306518555,0.5485286712646484,9.340815544128418,-0.09246735274791718
7_20251106_165723,1762419408265,7,0.1280979961156845,0.18991133570671082,0.670556902885437,0.7056047320365906,2.0838959217071533,4.517199993133545,1.900740146636963,1.4896085262298584,9.760334014892578,1.548696756362915,-0.9726493954658508,0.19961151480674744,0.24651826918125153,12.512511253356934,-27.932300567626953,28.626644134521484,0.5890756845474243,0.25316905975341797,1.2077809572219849,0.9005328416824341,9.50716495513916,0.3409157693386078
7_20251106_165723,1762419408284,7,0.1269260197877884,0.1891416758298874,0.6636922955513,0.7124800086021423,2.098587989807129,4.527594089508057,1.928253173828125,0.9736801385879517,9.572397232055664,2.2621383666992188,-0.9078977704048157,0.2729152739048004,0.0314938947558403,12.482789039611816,-28.258501052856445,28.51116180419922,0.05851787328720093,0.052186012268066406,1.5369781255722046,0.9151622653007507,9.520211219787598,0.7251602411270142
7_20251106_165723,1762419408303,7,0.12653848528862,0.1863945871591568,0.657580554485321,0.7189109325408936,2.111950635910034,4.537769317626953,1.9571655988693237,0.6983588933944702,9.629855155944824,1.736633539199829,-0.9078977704048157,0.2729152739048004,0.0314938947558403,12.109408378601074,-28.67985725402832,28.137069702148438,-0.17344272136688232,0.08771514892578125,0.8091786503791809,0.8718016147613525,9.542140007019043,0.9274548888206482
7_20251106_165723,1762419408322,7,0.12472166866064072,0.18103870749473572,0.65194171667099,0.7257006764411926,2.1245927810668945,4.547837257385254,1.9853549003601074,0.8527782559394836,9.68851089477539,1.1907790899276733,-0.973871111869812,0.7353398203849792,0.07303269952535629,11.681941032409668,-29.204442977905273,27.718353271484375,-0.015218675136566162,0.1170969009399414,0.21065938472747803,0.8679969310760498,9.57141399383545,0.9801197052001953
7_20251106_165723,1762419408341,7,0.12134356051683426,0.1751064658164978,0.6457871794700623,0.7331932783126831,2.1377105712890625,4.558189392089844,2.0124926567077637,1.2717455625534058,9.858491897583008,1.110576868057251,-1.0771071910858154,0.6400449275970459,0.2062011957168579,11.222441673278809,-29.655664443969727,27.259201049804688,0.32299888134002686,0.2296619415283203,0.10436570644378662,0.9487466812133789,9.628829956054688,1.0062111616134644
7_20251106_165723,1762419408361,7,0.11777796596288681,0.17062070965766907,0.6386054158210754,0.7410803437232971,2.151406764984131,4.568762302398682,2.0411345958709717,1.3986326456069946,9.897994995117188,2.0490636825561523,-1.10093092918396,0.38470351696014404,0.22941404581069946,10.858611106872559,-30.137798309326172,26.76263427734375,0.35990869998931885,0.21533203125,0.8342820405960083,1.0387239456176758,9.682662963867188,1.214781641960144
7_20251106_165723,1762419408379,7,0.11560726165771484,0.16815733909606934,0.6308718919754028,0.7485711574554443,2.1649985313415527,4.579568386077881,2.0727779865264893,1.2501986026763916,9.960241317749023,2.8307368755340576,-1.0520617961883545,0.3407212495803833,0.14816904067993164,10.48239803314209,-30.620996475219727,26.29261016845703,0.16917967796325684,0.2220630645751953,1.2927641868591309,1.0810189247131348,9.738178253173828,1.5379726886749268
7_20251106_165723,1762419408399,7,0.1141725406050682,0.16551338136196136,0.6233632564544678,0.7556376457214355,2.1790390014648438,4.591766357421875,2.107867479324341,1.228651762008667,10.196060180664062,2.6715292930603027,-1.02823805809021,0.530700147151947,0.07730875164270401,10.143757820129395,-31.07723617553711,25.878646850585938,0.11810624599456787,0.3663053512573242,0.9068453311920166,1.1105455160140991,9.829754829406738,1.7646839618682861
7_20251106_165723,1762419408418,7,0.11203392595052719,0.16096344590187073,0.6161917448043823,0.7627888917922974,2.1790390014648438,4.591766357421875,2.107867479324341,1.228651762008667,10.196060180664062,2.6715292930603027,-1.072831153869629,0.6492078900337219,0.04432205110788345,9.841761589050293,-31.542572021484375,25.35776138305664,0.11810624599456787,0.3663053512573242,0.9068453311920166,1.1105455160140991,9.829754829406738,1.7646839618682861
7_20251106_165723,1762419408437,7,0.10945276916027069,0.15527686476707458,0.6088785529136658,0.770179271697998,2.206165075302124,4.615149021148682,2.176321506500244,1.4118002653121948,10.002138137817383,2.796022415161133,-1.072831153869629,0.6492078900337219,0.04432205110788345,9.480046272277832,-31.987035751342773,24.861984252929688,0.18801486492156982,0.08983135223388672,0.696063756942749,1.223785400390625,9.912306785583496,2.099958658218384
7_20251106_165723,1762419408456,7,0.10783050209283829,0.14995746314525604,0.6012976169586182,0.7773844003677368,2.206165075302124,4.615149021148682,2.176321506500244,1.4118002653121948,10.002138137817383,2.796022415161133,-1.0343466997146606,0.37004274129867554,-0.10411807894706726,9.030110359191895,-32.48741912841797,24.37523651123047,0.18801486492156982,0.08983135223388672,0.696063756942749,1.223785400390625,9.912306785583496,2.099958658218384
7_20251106_165723,1762419408477,7,0.10790939629077911,0.14561139047145844,0.5940601229667664,0.7837381362915039,2.22585129737854,4.634429454803467,2.2543375492095947,-0.007900282740592957,9.24919319152832,4.428797721862793,-0.827874481678009,0.32911479473114014,-0.14687861502170563,8.681904792785645,-32.89449691772461,23.988872528076172,-0.9104737043380737,-0.5146017074584961,1.609778881072998,0.9025734066963196,9.763794898986816,2.819018840789795
7_20251106_165723,1762419408495,7,0.10810581594705582,0.14119219779968262,0.5882568955421448,0.7888800501823425,2.22585129737854,4.634429454803467,2.2543375492095947,-0.007900282740592957,9.24919319152832,4.428797721862793,-0.6592758297920227,0.5288675427436829,0.07547614723443985,8.3342924118042,-33.30076217651367,23.521411895751953,-0.9104737043380737,-0.5146017074584961,1.609778881072998,0.9025734066963196,9.763794898986816,2.819018840789795
7_20251106_165723,1762419408514,7,0.10521519929170609,0.13638736307621002,0.5835015177726746,0.7936335802078247,2.2300267219543457,4.64082145690918,2.299771547317505,-0.3526504933834076,9.014572143554688,3.6004395484924316,-0.7289143800735474,0.5881214737892151,0.5678331255912781,8.3342924118042,-33.30076217651367,23.521411895751953,-1.0041791200637817,-0.5993785858154297,0.6251363754272461,0.6515285968780518,9.613950729370117,2.9753031730651855
7_20251106_165723,1762419408533,7,0.09836312383413315,0.13375689089298248,0.5777699947357178,0.7991343140602112,2.2400104999542236,4.6488847732543945,2.3708229064941406,2.060601234436035,9.543667793273926,2.825948715209961,-0.8785762190818787,0.28207823634147644,0.9319084882736206,7.586516380310059,-34.168052673339844,22.71863555908203,1.1375772953033447,0.01841449737548828,-0.02529621124267578,0.9230238795280457,9.525253295898438,2.8512449264526367
7_20251106_165723,1762419408553,7,0.09066570550203323,0.13569298386573792,0.5702729225158691,0.805081307888031,2.2519190311431885,4.654338836669922,2.4071812629699707,2.8614273071289062,10.106281280517578,3.817105293273926,-0.8657480478286743,-0.07405589520931244,0.8696002960205078,7.586516380310059,-34.168052673339844,22.71863555908203,1.5507228374481201,0.46482276916503906,0.7726881504058838,1.3107044696807861,9.641458511352539,3.044417142868042
7_20251106_165723,1762419408571,7,0.0854235514998436,0.14044292271137238,0.5624472498893738,0.8103281259536743,2.266481876373291,4.66163969039917,2.4465837478637695,2.4951300621032715,10.413923263549805,4.816641807556152,-0.7264708876609802,-0.07344502210617065,0.43099939823150635,7.2005414962768555,-34.602352142333984,22.303237915039062,0.9475405216217041,0.6179723739624023,1.4177796840667725,1.5475895404815674,9.795950889587402,3.39886212348938
7_20251106_165723,1762419408590,7,0.08341405540704727,0.1430969387292862,0.5560646057128906,0.8144676089286804,2.281034231185913,4.668871879577637,2.488218069076538,1.8092206716537476,9.903980255126953,4.930360794067383,-0.6617192625999451,0.3309473991394043,0.011946220882236958,6.756468772888184,-34.97878646850586,21.9813232421875,0.20930492877960205,0.08642292022705078,1.2251989841461182,1.5999157428741455,9.817557334899902,3.7051618099212646
7_20251106_165723,1762419408609,7,0.08224355429410934,0.14013083279132843,0.5509709715843201,0.8185538053512573,2.281034231185913,4.668871879577637,2.488218069076538,1.8092206716537476,9.903980255126953,4.930360794067383,-0.7399099469184875,0.7072400450706482,-0.07174224406480789,6.33585262298584,-35.37807083129883,21.592281341552734,0.20930492877960205,0.08642292022705078,1.2251989841461182,1.5999157428741455,9.817557334899902,3.7051618099212646
7_20251106_165723,1762419408628,7,0.07987495511770248,0.13356272876262665,0.5456401705741882,0.8234426379203796,2.3085083961486816,4.6788434982299805,2.5664219856262207,1.8259793519973755,9.249194145202637,3.545375347137451,-0.9042325615882874,0.6620360612869263,0.1090737134218216,5.965079307556152,-35.76108169555664,21.151397705078125,0.18241167068481445,-0.3901834487915039,-0.163360595703125,1.643567681312561,9.63937759399414,3.708735942840576
7_20251106_165723,1762419408647,7,0.07672102004289627,0.12830713391304016,0.5388563871383667,0.8290265202522278,2.322906970977783,4.682662010192871,2.6039230823516846,2.1599559783935547,9.587959289550781,4.318669319152832,-0.95554518699646,0.2839108109474182,0.32165461778640747,5.608099937438965,-36.11791229248047,20.68450164794922,0.41311073303222656,-0.04113483428955078,0.4879467487335205,1.7468452453613281,9.629094123840332,3.8307225704193115
7_20251106_165723,1762419408667,7,0.07383836805820465,0.1271510273218155,0.5311630368232727,0.8344137668609619,2.3387835025787354,4.687389373779297,2.6463611125946045,2.232976198196411,9.927921295166016,5.454668998718262,-0.95554518699646,0.2839108109474182,0.32165461778640747,5.184748649597168,-36.57890701293945,20.18600845336914,0.3889048099517822,0.23906230926513672,1.2991571426391602,1.844071388244629,9.688858985900879,4.155511856079102
7_20251106_165723,1762419408686,7,0.07221836596727371,0.12842358648777008,0.5246709585189819,0.8384582996368408,2.3534433841705322,4.692028999328613,2.688478708267212,1.9648370742797852,9.824974060058594,5.546841621398926,-0.5108356475830078,0.059112612158060074,0.12801051139831543,4.777010917663574,-36.9764518737793,19.702842712402344,0.09661245346069336,0.10889244079589844,1.1130638122558594,1.8682246208190918,9.716081619262695,4.433777809143066
7_20251106_165723,1762419408706,7,0.07132858783006668,0.12827058136463165,0.5203133821487427,0.8412685990333557,2.368043899536133,4.69558048248291,2.731825590133667,1.848723292350769,9.358124732971191,4.838188171386719,-0.45769038796424866,0.3101780116558075,0.00767016876488924,4.425473213195801,-37.233097076416016,19.265090942382812,-0.015601038932800293,-0.2863655090332031,0.3235282897949219,1.8643243312835693,9.644490242004395,4.514659881591797
7_20251106_165723,1762419408725,7,0.07003346085548401,0.12543079257011414,0.5167046189308167,0.8440253734588623,2.380711793899536,4.69722843170166,2.771380662918091,1.6787422895431519,9.076818466186523,4.672995567321777,-0.5707004070281982,0.3346126079559326,0.011335357092320919,4.168913841247559,-37.52159881591797,18.884536743164062,-0.14846563339233398,-0.45413780212402344,0.12666845321655273,1.8272079229354858,9.530956268310547,4.546327114105225
7_20251106_165723,1762419408744,7,0.06875525414943695,0.12238190323114395,0.5122882723808289,0.8472638726234436,2.390711784362793,4.697931289672852,2.806708335876465,1.4776378870010376,9.213281631469727,5.322993278503418,-0.643393337726593,0.2014440894126892,0.08708258718252182,3.998459815979004,-37.791847229003906,18.494163513183594,-0.2796560525894165,-0.25413990020751953,0.621333122253418,1.757293939590454,9.467421531677246,4.70166015625
7_20251106_165723,1762419408763,7,0.0676141232252121,0.12071200460195541,0.5071214437484741,0.8506966233253479,2.390711784362793,4.697931289672852,2.806708335876465,1.4776378870010376,9.213281631469727,5.322993278503418,-0.5450440645217896,0.11347956955432892,0.11945841461420059,3.8289098739624023,-38.04927062988281,18.07701873779297,-0.2796560525894165,-0.25413990020751953,0.621333122253418,1.757293939590454,9.467421531677246,4.70166015625
7_20251106_165723,1762419408782,7,0.06650456041097641,0.11987439543008804,0.5025736689567566,0.8535965085029602,2.4091877937316895,4.696988582611084,2.8904287815093994,1.2705484628677368,8.9583101272583,5.396013259887695,-0.3996582329273224,0.08415807038545609,0.13595175743103027,3.6268320083618164,-38.234004974365234,17.68701934814453,-0.33181917667388916,-0.3748626708984375,0.4279146194458008,1.602367639541626,9.333172798156738,4.9680986404418945
7_20251106_165723,1762419408801,7,0.06528449058532715,0.11944270879030228,0.4991507828235626,0.8557568788528442,2.415879487991333,4.694366931915283,2.9287564754486084,1.298080563545227,8.765584945678711,5.2846879959106445,-0.3740018904209137,0.12569686770439148,0.23979875445365906,3.4215269088745117,-38.48112106323242,17.25515365600586,-0.24342966079711914,-0.4540700912475586,0.25327157974243164,1.5415102243423462,9.21965503692627,5.031416416168213
7_20251106_165723,1762419408819,7,0.06292439997196198,0.11911513656377792,0.49585580825805664,0.8578922748565674,2.4222545623779297,4.691449165344238,2.9647622108459473,1.6847275495529175,8.993024826049805,5.6449995040893555,-0.3740018904209137,0.12569686770439148,0.23979875445365906,3.331759452819824,-38.59713363647461,16.992534637451172,0.11457383632659912,-0.1813039779663086,0.49086666107177734,1.5701537132263184,9.174328804016113,5.154132843017578
7_20251106_165723,1762419408839,7,0.05951837822794914,0.11906328797340393,0.4917987585067749,0.8604739904403687,2.430543899536133,4.687942028045654,3.0042824745178223,2.0833449363708496,9.033724784851074,5.652181625366211,-0.48456841707229614,0.181285560131073,0.355252206325531,3.1779184341430664,-38.790977478027344,16.57720184326172,0.410552978515625,-0.11248302459716797,0.3984389305114746,1.6727919578552246,9.146207809448242,5.253742694854736
7_20251106_165723,1762419408858,7,0.05616709217429161,0.11889970302581787,0.4874412715435028,0.8631970286369324,2.4390628337860107,4.684241771697998,3.040963888168335,2.0510246753692627,8.951128959655762,5.623453140258789,-0.5096139311790466,0.19900062680244446,0.23369011282920837,2.9514684677124023,-38.977298736572266,16.186222076416016,0.3025861978530884,-0.15606307983398438,0.29576826095581055,1.7484384775161743,9.107192039489746,5.3276848793029785
7_20251106_165723,1762419408876,7,0.05374455079436302,0.11810632050037384,0.4830189645290375,0.8659417629241943,2.4390628337860107,4.684241771697998,3.040963888168335,2.0510246753692627,8.951128959655762,5.623453140258789,-0.5096139311790466,0.19900062680244446,0.23369011282920837,2.7142419815063477,-39.13930130004883,15.795280456542969,0.3025861978530884,-0.15606307983398438,0.29576826095581055,1.7484384775161743,9.107192039489746,5.3276848793029785
7_20251106_165723,1762419408896,7,0.05220889300107956,0.11632444709539413,0.47839707136154175,0.8688377737998962,2.4467837810516357,4.679903984069824,3.076951026916504,1.6129045486450195,8.80748176574707,5.743157386779785,-0.5432115197181702,0.3089562654495239,0.06936750560998917,2.4406557083129883,-39.30341339111328,15.375835418701172,-0.10842716693878174,-0.23976802825927734,0.33237791061401367,1.7213317155838013,9.047249794006348,5.4107794761657715
7_20251106_165723,1762419408916,7,0.050584372133016586,0.11367198079824448,0.47394514083862305,0.8717200756072998,2.4559426307678223,4.665843963623047,3.146998643875122,0.9904388785362244,8.182622909545898,5.34932804107666,-0.530383288860321,0.3981425166130066,0.24102047085762024,2.2395925521850586,-39.46357345581055,15.04043197631836,-0.4773479104042053,-0.5866870880126953,-0.09621286392211914,1.4677867889404297,8.769309997558594,5.445540904998779
7_20251106_165723,1762419408935,7,0.04705579951405525,0.11088672280311584,0.46945059299468994,0.8747034072875977,2.4559426307678223,4.665843963623047,3.146998643875122,0.9904388785362244,8.182622909545898,5.34932804107666,-0.5890263915061951,0.3504951000213623,0.5055249333381653,2.2395925521850586,-39.46357345581055,15.04043197631836,-0.4773479104042053,-0.5866870880126953,-0.09621286392211914,1.4677867889404297,8.769309997558594,5.445540904998779
7_20251106_165723,1762419408954,7,0.041751276701688766,0.10974061489105225,0.4641861319541931,0.8779208660125732,2.4652695655822754,4.646764278411865,3.206617832183838,2.329936981201172,8.369361877441406,5.686896324157715,-0.6745473742485046,0.1550183892250061,0.6258652806282043,1.9507055282592773,-39.679115295410156,14.659988403320312,0.6666927337646484,-0.2021474838256836,0.2619142532348633,1.6632442474365234,8.57150936126709,5.424982070922852
7_20251106_165723,1762419408973,7,0.03632586449384689,0.11086848378181458,0.45802292227745056,0.8812511563301086,2.473684787750244,4.637833118438721,3.2372658252716064,2.754889726638794,8.65306282043457,6.393155574798584,-0.6690496206283569,0.09942968934774399,0.49758368730545044,1.6279802322387695,-39.846946716308594,14.292648315429688,0.8733165264129639,0.06524276733398438,0.774538516998291,1.88157320022583,8.587820053100586,5.618617057800293
7_20251106_165723,1762419408992,7,0.03230046480894089,0.11208637803792953,0.451905757188797,0.884406328201294,2.483677864074707,4.629635810852051,3.2683157920837402,2.610046863555908,8.69256591796875,6.323726654052734,-0.6690496206283569,0.09942968934774399,0.49758368730545044,1.242802619934082,-40.05561065673828,13.840965270996094,0.5827789306640625,0.08379650115966797,0.5640878677368164,2.0272679328918457,8.608769416809082,5.759638786315918
7_20251106_165723,1762419409010,7,0.029937805607914925,0.11155354976654053,0.44658932089805603,0.8872528076171875,2.493478775024414,4.621987342834473,3.2972195148468018,2.3550753593444824,8.49864387512207,6.148957252502441,-0.5981892943382263,0.1867833435535431,0.24468567967414856,0.9688215255737305,-40.22026443481445,13.4755859375,0.26224589347839355,-0.08810043334960938,0.31145477294921875,2.092829465866089,8.58674430847168,5.837502479553223
7_20251106_165723,1762419409030,7,0.028692245483398438,0.10943888127803802,0.4413660764694214,0.8901662230491638,2.5037808418273926,4.612729072570801,3.3284647464752197,2.078556776046753,8.19698715209961,6.07952880859375,-0.6800451874732971,0.2942954897880554,0.015000545419752598,0.7304830551147461,-40.406978607177734,13.043567657470703,-0.01141810417175293,-0.31180572509765625,0.19362115859985352,2.089974880218506,8.508792877197266,5.8859076499938965
7_20251106_165723,1762419409049,7,0.027922935783863068,0.10692071169614792,0.4356851279735565,0.8932898640632629,2.5117740631103516,4.603635787963867,3.356395959854126,1.7589445114135742,8.030597686767578,6.379987716674805,-0.6995928883552551,0.21549397706985474,0.030883025377988815,0.4942588806152344,-40.5560188293457,12.612342834472656,-0.26482439041137695,-0.3825559616088867,0.395263671875,2.023768901824951,8.413153648376465,5.984724044799805
7_20251106_165723,1762419409068,7,0.027343645691871643,0.10506482422351837,0.4297919273376465,0.8963775038719177,2.5185036659240723,4.592601299285889,3.3873863220214844,1.4620764255523682,7.940817832946777,6.4805402755737305,-0.6721039414405823,0.16906827688217163,0.07914134114980698,0.25864124298095703,-40.69263458251953,12.194896697998047,-0.4493539333343506,-0.37786865234375,0.3966531753540039,1.9114303588867188,8.318686485290527,6.083887100219727
7_20251106_165723,1762419409088,7,0.026651551946997643,0.1037825420498848,0.42400461435317993,0.899299144744873,2.5231306552886963,4.580336570739746,3.417850971221924,1.330400824546814,7.732532024383545,6.420687675476074,-0.6256782412528992,0.14829885959625244,0.14633645117282867,-0.04799175262451172,-40.807960510253906,11.680419921875,-0.4648236036300659,-0.46892309188842773,0.2694406509399414,1.7952244281768799,8.201455116271973,6.151247024536133
7_20251106_165723,1762419409107,7,0.02517794445157051,0.10276498645544052,0.4185630977153778,0.9020035266876221,2.525926113128662,4.567777633666992,3.4460320472717285,1.292095422744751,7.6583147048950195,6.4015350341796875,-0.6177369952201843,0.14341194927692413,0.23430097103118896,-0.2447528839111328,-40.915870666503906,11.143325805664062,-0.4025031328201294,-0.4345121383666992,0.20023059844970703,1.6945985555648804,8.092826843261719,6.2013044357299805
7_20251106_165723,1762419409126,7,0.023010825738310814,0.10213735699653625,0.4130921959877014,0.9046509265899658,2.525926113128662,4.567777633666992,3.4460320472717285,1.292095422744751,7.6583147048950195,6.4015350341796875,-0.6580540537834167,0.16906827688217163,0.32837414741516113,-0.40525150299072266,-41.02179718017578,10.64825439453125,-0.4025031328201294,-0.4345121383666992,0.20023059844970703,1.6945985555648804,8.092826843261719,6.2013044357299805
7_20251106_165723,1762419409145,7,0.019962916150689125,0.1016346663236618,0.40719178318977356,0.9074506759643555,2.5278172492980957,4.553110122680664,3.4775850772857666,1.3830710649490356,7.651132583618164,6.786984920501709,-0.6690496802330017,0.2124396562576294,0.39434754848480225,-0.5178098678588867,-41.137245178222656,10.16839599609375,-0.2492220401763916,-0.35335540771484375,0.46854400634765625,1.6322931051254272,8.004487991333008,6.318440914154053
7_20251106_165723,1762419409164,7,0.016306517645716667,0.10106521844863892,0.40106916427612305,0.9103095531463623,2.5307247638702393,4.5278425216674805,3.532850742340088,1.7637327909469604,7.7169694900512695,7.1891937255859375,-0.6323977112770081,0.22526782751083374,0.44443845748901367,-0.38608646392822266,-41.759681701660156,9.420537948608398,0.12070310115814209,-0.1828632354736328,0.5844788551330566,1.6430296897888184,7.899832725524902,6.604714870452881
7_20251106_165723,1762419409183,7,0.012154110707342625,0.10061074048280716,0.3951910734176636,0.9129916429519653,2.533961296081543,4.514651298522949,3.561971426010132,2.23537015914917,7.696619987487793,7.040759086608887,-0.5865828990936279,0.2539784610271454,0.4945293664932251,-0.5582647323608398,-41.85411834716797,8.952272415161133,0.47387242317199707,-0.16256999969482422,0.34883546829223633,1.7614977359771729,7.859189987182617,6.69192361831665
7_20251106_165723,1762419409202,7,0.007409435696899891,0.10013926774263382,0.3896436393260956,0.9154753088951111,2.539459466934204,4.501847743988037,3.590376377105713,2.644761085510254,7.760064125061035,6.961753845214844,-0.5633700489997864,0.1654030680656433,0.4749816954135895,-0.7659997940063477,-41.93797302246094,8.44224739074707,0.7066106796264648,-0.0793008804321289,0.2158641815185547,1.938150405883789,7.839365005493164,6.745889663696289
7_20251106_165723,1762419409220,7,0.003216787939891219,0.10051954537630081,0.38431981205940247,0.9177057147026062,2.5460033416748047,4.490102767944336,3.6179873943328857,2.5861058235168457,7.749290466308594,7.577037334442139,-0.5633700489997864,0.1654030680656433,0.4749816954135895,-0.9632673263549805,-42.058170318603516,7.877859115600586,0.518364429473877,-0.07205963134765625,0.6649184226989746,2.0677413940429688,7.82135009765625,6.912118911743164
7_20251106_165723,1762419409240,7,0.0006579358014278114,0.10139619559049606,0.37928807735443115,0.9197059273719788,2.5535221099853516,4.4773406982421875,3.650067090988159,2.268887519836426,7.701408386230469,7.877496719360352,-0.5468767285346985,0.06399953365325928,0.3357045352458954,-1.2081527709960938,-42.14521789550781,7.44746208190918,0.16091680526733398,-0.09595298767089844,0.7723026275634766,2.107970714569092,7.797361373901367,7.105194091796875
7_20251106_165723,1762419409259,7,0.0008375317556783557,-0.10109569877386093,-0.3744015395641327,-0.9217388033866882,2.5600826740264893,4.465175628662109,3.6804614067077637,2.0258865356445312,7.56135368347168,7.630904674530029,-0.5371028780937195,0.13119465112686157,0.1866535246372223,-1.4548568725585938,-42.269535064697266,6.975725173950195,-0.06566739082336426,-0.18880653381347656,0.42056846618652344,2.0915539264678955,7.750160217285156,7.210336208343506
7_20251106_165723,1762419409277,7,0.002092160051688552,-0.09930842369794846,-0.36958983540534973,-0.9238705635070801,2.565934419631958,4.453119277954102,3.7084479331970215,2.0701775550842285,7.300396919250488,7.466908931732178,-0.5352702736854553,0.25153499841690063,0.10174334049224854,-1.7461748123168945,-42.32181930541992,6.517126083374023,-0.017101049423217773,-0.35981035232543945,0.20525789260864258,2.0872786045074463,7.660207271575928,7.261651039123535
7_20251106_165723,1762419409297,7,0.0035335849970579147,-0.09684967994689941,-0.3648431599140167,-0.9260113835334778,2.5727035999298096,4.438833713531494,3.7388644218444824,2.282055377960205,7.147174835205078,7.549505233764648,-0.5206094980239868,0.2576436400413513,0.13900607824325562,-2.0028514862060547,-42.40912628173828,6.032173156738281,0.1558213233947754,-0.41042566299438477,0.23028326034545898,2.1262340545654297,7.557600498199463,7.3192219734191895
7_20251106_165723,1762419409317,7,0.005208222195506096,-0.09510329365730286,-0.3601621687412262,-0.9280147552490234,2.580172061920166,4.424294948577881,3.7684929370880127,2.4675979614257812,7.239347457885742,7.560278415679932,-0.5206094980239868,0.2576436400413513,0.13900607824325562,-2.1736068725585938,-42.466835021972656,5.659311294555664,0.27309107780456543,-0.25460243225097656,0.19284486770629883,2.194506883621216,7.493949890136719,7.367433547973633
7_20251106_165723,1762419409336,7,0.006758383009582758,-0.09494447708129883,-0.35594454407691956,-0.929646909236908,2.587385654449463,4.410862445831299,3.7964351177215576,2.3670458793640137,7.380599021911621,7.805674076080322,-0.40576687455177307,0.057890884578228,0.14877991378307343,-2.3573646545410156,-42.54964065551758,5.204334259033203,0.1380312442779541,-0.09068107604980469,0.35059213638305664,2.2290146350860596,7.471280097961426,7.455081939697266
7_20251106_165723,1762419409355,7,0.007813732139766216,-0.0951371043920517,-0.3522636294364929,-0.9310199618339539,2.594068765640259,4.39771842956543,3.823751449584961,2.1671385765075684,7.331520080566406,7.736245155334473,-0.4234819710254669,0.18372902274131775,0.07181096822023392,-2.4827022552490234,-42.66668701171875,4.805082321166992,-0.04950094223022461,-0.11180782318115234,0.2249307632446289,2.216639518737793,7.443327903747559,7.511314392089844
7_20251106_165723,1762419409374,7,0.008616789244115353,-0.09390497952699661,-0.3484926223754883,-0.9325559139251709,2.6002326011657715,4.384169578552246,3.8499250411987305,2.1491827964782715,7.056198596954346,7.592598915100098,-0.4497491419315338,0.27596956491470337,0.06936750560998917,-2.590214729309082,-42.6824836730957,4.4084320068359375,-0.05396533012390137,-0.30970335006713867,0.06502723693847656,2.203148126602173,7.365901947021484,7.527571678161621
7_20251106_165723,1762419409393,7,0.00966014713048935,-0.09181112051010132,-0.34450164437294006,-0.9342355132102966,2.606409788131714,4.370205402374268,3.8750734329223633,2.3203608989715576,6.967617034912109,7.630904197692871,-0.44241878390312195,0.26069796085357666,0.14694732427597046,-2.590214729309082,-42.6824836730957,4.4084320068359375,0.09377026557922363,-0.31862783432006836,0.08266592025756836,2.226590633392334,7.286244869232178,7.548238277435303
7_20251106_165723,1762419409412,7,0.011343153193593025,-0.0901217833161354,-0.3404948115348816,-0.9358486533164978,2.613077402114868,4.356324672698975,3.899381637573242,2.517873764038086,7.0621843338012695,7.700333595275879,-0.44241878390312195,0.26069796085357666,0.14694732427597046,-2.723311424255371,-42.72471618652344,3.9832401275634766,0.23302650451660156,-0.17924880981445312,0.12167596817016602,2.2848472595214844,7.241433143615723,7.578657627105713
7_20251106_165723,1762419409431,7,0.013384728692471981,-0.08988489210605621,-0.3368549942970276,-0.9371607303619385,2.620356321334839,4.343138694763184,3.9234488010406494,2.629199504852295,7.241741180419922,7.93375825881958,-0.3324631154537201,0.0023021954111754894,0.2575138211250305,-2.80684757232666,-42.73945999145508,3.6416358947753906,0.2754817008972168,0.0002465248107910156,0.28408050537109375,2.353717803955078,7.241494655609131,7.649677753448486
7_20251106_165723,1762419409450,7,0.015294973738491535,-0.09093435853719711,-0.3337678909301758,-0.9381343126296997,2.627876043319702,4.330835819244385,3.94803786277771,2.5741353034973145,7.323140621185303,8.278508186340332,-0.29397863149642944,-0.019078070297837257,0.19398389756679535,-2.917278289794922,-42.80562210083008,3.2574462890625,0.17633390426635742,0.06531667709350586,0.5030641555786133,2.397801399230957,7.257823944091797,7.775444030761719
7_20251106_165723,1762419409470,7,0.016638824716210365,-0.09195812791585922,-0.3310950696468353,-0.9389584064483643,2.627876043319702,4.330835819244385,3.94803786277771,2.5741353034973145,7.323140621185303,8.278508186340332,-0.27259835600852966,0.06705385446548462,0.09624554961919785,-3.0356664657592773,-42.79723358154297,2.874349594116211,0.17633390426635742,0.06531667709350586,0.5030641555786133,2.397801399230957,7.257823944091797,7.775444030761719
7_20251106_165723,1762419409488,7,0.017373135313391685,-0.09187214076519012,-0.32866036891937256,-0.9398084878921509,2.636025905609131,4.316816806793213,3.9772531986236572,2.364651679992676,7.125627517700195,8.364696502685547,-0.2506072521209717,0.1654030680656433,0.04126772657036781,-3.1707658767700195,-42.865386962890625,2.5297279357910156,-0.026519775390625,-0.10575675964355469,0.4714016914367676,2.391171455383301,7.23138427734375,7.893294811248779
7_20251106_165723,1762419409508,7,0.01799825020134449,-0.09065909683704376,-0.3264259099960327,-0.9406929016113281,2.6468629837036133,4.292914390563965,4.023105621337891,2.1024978160858154,6.729404449462891,8.018749237060547,-0.22250747680664062,0.14952059090137482,0.03882426768541336,-3.2412004470825195,-42.854896545410156,2.256723403930664,-0.20256328582763672,-0.34903907775878906,0.04849720001220703,2.305061101913452,7.07844352722168,7.97025203704834
7_20251106_165723,1762419409527,7,0.01854679174721241,-0.08956343680620193,-0.3244372606277466,-0.9414748549461365,2.6468629837036133,4.292914390563965,4.023105621337891,2.1024978160858154,6.729404449462891,8.018749237060547,-0.16875138878822327,0.035899754613637924,0.08219566941261292,-3.370759963989258,-42.82272720336914,1.9277305603027344,-0.20256328582763672,-0.34903907775878906,0.04849720001220703,2.305061101913452,7.07844352722168,7.97025203704834
7_20251106_165723,1762419409547,7,0.019146880134940147,-0.08960754424333572,-0.3229171335697174,-0.9419811367988586,2.651204824447632,4.278077602386475,4.048006057739258,1.9576547145843506,6.689901828765869,7.976851940155029,-0.09239328652620316,-0.02213239297270775,0.12801051139831543,-3.5053396224975586,-42.866981506347656,1.7052841186523438,-0.2779250144958496,-0.3108334541320801,0.005280017852783203,2.2355797290802,7.000735282897949,7.971571922302246
7_20251106_165723,1762419409565,7,0.02009790949523449,-0.09024320542812347,-0.3220655024051666,-0.9421921372413635,2.654764413833618,4.251716613769531,4.087714195251465,1.635648488998413,6.517526626586914,7.911014080047607,-0.06612610071897507,-0.003195586148649454,0.15183421969413757,-3.578889846801758,-42.90712356567383,1.4717731475830078,-0.4100039005279541,-0.3276405334472656,-0.05695199966430664,2.045652389526367,6.84516716003418,7.967966079711914
7_20251106_165723,1762419409585,7,0.021367965266108513,-0.09072225540876389,-0.3214167654514313,-0.9423397183418274,2.654764413833618,4.251716613769531,4.087714195251465,1.635648488998413,6.517526626586914,7.911014080047607,-0.08200858533382416,0.08171461522579193,0.16832756996154785,-3.698550224304199,-42.88887405395508,1.3592662811279297,-0.4100039005279541,-0.3276405334472656,-0.05695199966430664,2.045652389526367,6.84516716003418,7.967966079711914
7_20251106_165723,1762419409605,7,0.02301996573805809,-0.09045946598052979,-0.3205931782722473,-0.9426065683364868,2.653057098388672,4.220347881317139,4.126589775085449,1.7266242504119873,6.2888898849487305,7.699136734008789,-0.07956513017416,0.17395517230033875,0.23430097103118896,-3.7331056594848633,-42.865333557128906,1.2772254943847656,-0.17142677307128906,-0.3795757293701172,-0.21131420135498047,1.8980510234832764,6.668465614318848,7.9104509353637695
7_20251106_165723,1762419409622,7,0.025613002479076385,-0.08951777964830399,-0.3197059631347656,-0.9429308772087097,2.6525461673736572,4.206646919250488,4.140257835388184,2.091724395751953,6.3032546043396,7.337627410888672,-0.07956513017416,0.17395517230033875,0.23430097103118896,-3.8060245513916016,-42.86983108520508,1.2472496032714844,0.1549386978149414,-0.29216909408569336,-0.45825910568237305,1.9367856979370117,6.595423698425293,7.795886516571045
7_20251106_165723,1762419409642,7,0.028758427128195763,-0.08966581523418427,-0.31894415616989136,-0.9430841207504272,2.6534030437469482,4.1910247802734375,4.154675483703613,2.406548500061035,6.493585586547852,7.513593673706055,-0.036193735897541046,-0.07894281297922134,0.37968677282333374,-3.9115819931030273,-42.813385009765625,1.1630573272705078,0.3758101463317871,-0.08147048950195312,-0.22583389282226562,2.030738353729248,6.575056076049805,7.73942756652832
7_20251106_165723,1762419409661,7,0.03178263083100319,-0.09163441509008408,-0.3184317648410797,-0.9429709315299988,2.6554148197174072,4.177640914916992,4.167186260223389,2.550194263458252,6.564211368560791,7.814053058624268,-0.03191768378019333,-0.12170334160327911,0.3106590807437897,-4.104556083679199,-42.8001708984375,1.0746402740478516,0.41556477546691895,-0.00867605209350586,0.05970048904418945,2.134629487991333,6.572887420654297,7.754352569580078
7_20251106_165723,1762419409679,7,0.034025825560092926,-0.09383971244096756,-0.31803277134895325,-0.9428104162216187,2.65848708152771,4.164209365844727,4.180148601531982,2.519071102142334,6.568999290466309,7.90622615814209,-0.06795869767665863,-0.017856337130069733,0.15122337639331818,-4.250492095947266,-42.809295654296875,1.0282058715820312,0.3075532913208008,-0.0031104087829589844,0.12149906158447266,2.211517810821533,6.572109699249268,7.784727096557617
7_20251106_165723,1762419409698,7,0.035148750990629196,-0.0946410670876503,-0.31739145517349243,-0.9429052472114563,2.6621508598327637,4.1515655517578125,4.192612171173096,2.4831595420837402,6.614487648010254,7.839191436767578,-0.1412624567747116,0.11592303216457367,0.013778815045952797,-4.357260704040527,-42.77769470214844,0.9164524078369141,0.21731328964233398,0.03390216827392578,0.04357147216796875,2.2658462524414062,6.580585479736328,7.795619964599609
7_20251106_165723,1762419409717,7,0.035337164998054504,-0.09384844452142715,-0.31615954637527466,-0.9433911442756653,2.665863037109375,4.139249324798584,4.20465087890625,2.3502869606018066,6.469644546508789,7.867920398712158,-0.17547088861465454,0.14096848666667938,-0.06196841225028038,-4.453240394592285,-42.7588005065918,0.8995399475097656,0.06755256652832031,-0.08875274658203125,0.05784034729003906,2.2827343940734863,6.55839729309082,7.810080051422119
7_20251106_165723,1762419409737,7,0.034507472068071365,-0.0933523029088974,-0.31542861461639404,-0.9437157511711121,2.665863037109375,4.139249324798584,4.20465087890625,2.3502869606018066,6.469644546508789,7.867920398712158,-0.17547088861465454,0.14096848666667938,-0.06196841225028038,-4.5245513916015625,-42.7379150390625,0.8430595397949219,0.06755256652832031,-0.08875274658203125,0.05784034729003906,2.2827343940734863,6.55839729309082,7.810080051422119
7_20251106_165723,1762419409755,7,0.03356297314167023,-0.09347254782915115,-0.3149280250072479,-0.9439050555229187,2.669321298599243,4.125887870788574,4.218279838562012,2.1515767574310303,6.430141448974609,8.104936599731445,-0.05085448920726776,-0.015412879176437855,-0.03325776755809784,-4.669090270996094,-42.73353958129883,0.7022762298583984,-0.10492610931396484,-0.10260486602783203,0.2358856201171875,2.256502866744995,6.532746315002441,7.869050979614258
7_20251106_165723,1762419409776,7,0.03298817574977875,-0.09370336681604385,-0.3149302899837494,-0.9439016580581665,2.6726832389831543,4.1014838218688965,4.243600368499756,1.8271764516830444,6.248189926147461,8.229429244995117,-0.04108065366744995,-0.009304232895374298,-0.010044909082353115,-4.74262809753418,-42.76206970214844,0.5636425018310547,-0.301582932472229,-0.18671321868896484,0.23868656158447266,2.1287593841552734,6.434903144836426,7.9907426834106445
7_20251106_165723,1762419409795,7,0.03283381834626198,-0.0936271920800209,-0.31476613879203796,-0.9439693689346313,2.6725335121154785,4.089049339294434,4.256327152252197,1.690712809562683,6.133274078369141,8.21267032623291,-0.060017459094524384,0.05605829134583473,0.0040049804374575615,-4.79209041595459,-42.78942108154297,0.4665393829345703,-0.3504372835159302,-0.2413034439086914,0.17754173278808594,2.0411500930786133,6.374577522277832,8.035128593444824
7_20251106_165723,1762419409814,7,0.03305041044950485,-0.09271831065416336,-0.31435102224349976,-0.9441898465156555,2.671541452407837,4.076354503631592,4.268641948699951,1.731412410736084,6.053071022033691,8.116907119750977,-0.0539088100194931,0.11225784569978714,0.04920896887779236,-4.84245491027832,-42.829593658447266,0.39620399475097656,-0.24779021739959717,-0.2572054862976074,0.06542301177978516,1.9792026281356812,6.310276508331299,8.051484107971191
7_20251106_165723,1762419409832,7,0.033953957259655,-0.09123487025499344,-0.3138423264026642,-0.9444714784622192,2.6707723140716553,4.064319610595703,4.278984546661377,2.029477596282959,6.062647819519043,7.750609397888184,-0.0007635792717337608,0.08599065989255905,0.13595175743103027,-4.84245491027832,-42.829593658447266,0.39620399475097656,0.040220022201538086,-0.1981029510498047,-0.24069976806640625,1.989257574081421,6.260750770568848,7.99130916595459
7_20251106_165723,1762419409851,7,0.03563765436410904,-0.09034682810306549,-0.31373900175094604,-0.944529116153717,2.6708011627197266,4.052026271820068,4.288606643676758,2.280858039855957,6.1787614822387695,7.718289375305176,0.04199695587158203,-0.01846720278263092,0.1603863388299942,-4.877010345458984,-42.806053161621094,0.3141632080078125,0.23328042030334473,-0.06559133529663086,-0.2184157371520996,2.0475776195526123,6.2443528175354,7.936705112457275
7_20251106_165723,1762419409871,7,0.03693578392267227,-0.09114240854978561,-0.3143211901187897,-0.9442092180252075,2.6715645790100098,4.039497375488281,4.297939300537109,2.2892374992370605,6.166790962219238,7.841585159301758,0.021227549761533737,-0.019688932225108147,0.08769344538450241,-4.900677680969238,-42.79508590698242,0.313446044921875,0.1933279037475586,-0.06204986572265625,-0.0760960578918457,2.095909595489502,6.2288408279418945,7.9176812171936035
7_20251106_165723,1762419409890,7,0.03730908781290054,-0.09220115095376968,-0.3148952126502991,-0.9439004063606262,2.6724259853363037,4.0279340744018555,4.306192874908447,2.158759117126465,6.13566780090332,7.855949878692627,-0.03558287024497986,0.0676647275686264,-0.017986152321100235,-4.9834699630737305,-42.76243591308594,0.2567405700683594,0.05027961730957031,-0.0745382308959961,-0.04938507080078125,2.1084794998168945,6.210206031799316,7.905334949493408
7_20251106_165723,1762419409909,7,0.037020567804574966,-0.09213785082101822,-0.31489092111587524,-0.9439193606376648,2.6730408668518066,4.016438961029053,4.3137736320495605,2.0342659950256348,6.0243425369262695,7.81046199798584,-0.03558287024497986,0.0676647275686264,-0.017986152321100235,-5.090943336486816,-42.74338912963867,0.14472389221191406,-0.05937075614929199,-0.14869070053100586,-0.0758981704711914,2.0936367511749268,6.173033237457275,7.886360168457031
7_20251106_165723,1762419409927,7,0.03661252185702324,-0.09168189764022827,-0.3146788477897644,-0.9440504312515259,2.6731855869293213,4.005524158477783,4.3206892013549805,1.927728533744812,5.941745758056641,7.924181938171387,-0.03558287024497986,0.01757381483912468,-0.019207879900932312,-5.11552619934082,-42.75686264038086,0.075897216796875,-0.1327265501022339,-0.1850299835205078,0.030257225036621094,2.060455083847046,6.126775741577148,7.893924713134766
7_20251106_165723,1762419409947,7,0.03639177978038788,-0.0916113331913948,-0.3145916759967804,-0.9440948367118835,2.6726691722869873,3.9932401180267334,4.328474044799805,1.840343952178955,5.875907897949219,8.053462982177734,-0.01908952184021473,0.011465167626738548,0.007670168299227953,-5.127106666564941,-42.74523162841797,0.0891876220703125,-0.17608880996704102,-0.20069408416748047,0.12763071060180664,2.016432762145996,6.076601982116699,7.925832271575928
7_20251106_165723,1762419409967,7,0.03644854575395584,-0.09146379679441452,-0.31443536281585693,-0.9441590309143066,2.671515941619873,3.981229543685913,4.335955619812012,1.7984472513198853,5.964489936828613,7.954108238220215,-0.01908952184021473,0.045062728226184845,0.018054869025945663,-5.14846134185791,-42.69632339477539,0.062229156494140625,-0.17438828945159912,-0.08968973159790039,0.02262115478515625,1.9728355407714844,6.054179668426514,7.931487083435059
7_20251106_165723,1762419409986,7,0.03672869876027107,-0.09087864309549332,-0.31407347321510315,-0.9443250894546509,2.671515941619873,3.981229543685913,4.335955619812012,1.7984472513198853,5.964489936828613,7.954108238220215,-0.017867792397737503,0.06583212316036224,0.02905043214559555,-5.136275291442871,-42.69552993774414,0.06271934509277344,-0.17438828945159912,-0.08968973159790039,0.02262115478515625,1.9728355407714844,6.054179668426514,7.931487083435059
7_20251106_165723,1762419410006,7,0.03720233589410782,-0.09008482098579407,-0.3139287829399109,-0.9444307684898376,2.670097589492798,3.9695212841033936,4.342648029327393,1.866679072380066,5.956110000610352,7.794899940490723,-0.030695950612425804,0.06583212316036224,0.020498327910900116,-5.139589309692383,-42.74643325805664,0.12924575805664062,-0.08492505550384521,-0.07845592498779297,-0.10926961898803711,1.9516041278839111,6.0345659255981445,7.90416955947876
7_20251106_165723,1762419410024,7,0.037530530244112015,-0.08946923911571503,-0.31380945444107056,-0.9445159435272217,2.667471170425415,3.9492294788360596,4.353342056274414,1.9636400938034058,6.0554656982421875,7.883481979370117,-0.07223475724458694,0.08660152554512024,-0.00210366677492857,-5.1640729904174805,-42.759769439697266,0.04690361022949219,0.016513347625732422,0.02410125732421875,0.007253170013427734,1.9471267461776733,6.031364440917969,7.8762288093566895
7_20251106_165723,1762419410043,7,0.03762342408299446,-0.08873305469751358,-0.31341153383255005,-0.9447137713432312,2.666330099105835,3.9398701190948486,4.3590474128723145,1.9756104946136475,6.114120960235596,8.102542877197266,-0.07223475724458694,0.08660152554512024,-0.00210366677492857,-5.142730712890625,-42.82029342651367,-0.021017074584960938,0.022786974906921387,0.06620502471923828,0.18105125427246094,1.952823519706726,6.047915935516357,7.921491622924805
7_20251106_165723,1762419410062,7,0.037217095494270325,-0.0883839875459671,-0.3130200505256653,-0.944892406463623,2.664924383163452,3.9307892322540283,4.36493444442749,1.8355556726455688,5.978854179382324,8.091768264770508,-0.07284561544656754,0.042008399963378906,-0.03570122644305229,-5.1315460205078125,-42.83245849609375,0.019758224487304688,-0.09381425380706787,-0.05524921417236328,0.13622093200683594,1.9293699264526367,6.0341033935546875,7.955547332763672
7_20251106_165723,1762419410082,7,0.03654618561267853,-0.08826486766338348,-0.31305065751075745,-0.9449195861816406,2.6625165939331055,3.921278476715088,4.370922565460205,1.5997369289398193,5.892666816711426,7.9888224601745605,-0.009926551021635532,0.02062813937664032,-0.06013581529259682,-5.118247032165527,-42.80695343017578,0.0613250732421875,-0.2637064456939697,-0.11314964294433594,0.026619911193847656,1.863443374633789,6.005816459655762,7.962202548980713
7_20251106_165723,1762419410100,7,0.0361492745578289,-0.08770689368247986,-0.3129885792732239,-0.94500732421875,2.659672975540161,3.9126322269439697,4.376328945159912,1.5446728467941284,5.796902656555176,8.078601837158203,-0.053297944366931915,0.08721239864826202,-0.014320961199700832,-5.154904365539551,-42.809471130371094,0.07336997985839844,-0.2550164461135864,-0.1671309471130371,0.09311962127685547,1.7996892929077148,5.964033603668213,7.985482215881348
7_20251106_165723,1762419410119,7,0.03640473634004593,-0.08635147660970688,-0.31250235438346863,-0.9452832341194153,2.656463384628296,3.9038352966308594,4.382219314575195,1.669165849685669,5.917804718017578,8.156410217285156,-0.04657842963933945,0.09209930896759033,0.047376375645399094,-5.1667938232421875,-42.80986404418945,0.03233146667480469,-0.10441875457763672,-0.03698301315307617,0.13674259185791016,1.7735846042633057,5.954787731170654,8.019667625427246
7_20251106_165723,1762419410137,7,0.037290070205926895,-0.08505157381296158,-0.31184622645378113,-0.9455832242965698,2.6537036895751953,3.8959507942199707,4.387751579284668,1.8259793519973755,5.968080520629883,8.11331558227539,-0.04657842963933945,0.09209930896759033,0.047376375645399094,-5.1285295486450195,-42.781959533691406,-0.00621795654296875,0.04191577434539795,0.010634422302246094,0.07491874694824219,1.7840635776519775,5.957446098327637,8.038396835327148
7_20251106_165723,1762419410157,7,0.038303572684526443,-0.08428677916526794,-0.3117532432079315,-0.945641815662384,2.6509363651275635,3.887420415878296,4.393491268157959,1.8319646120071411,5.889075756072998,8.00558090209961,0.038331761956214905,0.029180245473980904,0.06875663995742798,-5.125920295715332,-42.743614196777344,-0.07300758361816406,0.03832089900970459,-0.054696083068847656,-0.02625274658203125,1.7936437129974365,5.943771839141846,8.03183364868164
7_20251106_165723,1762419410177,7,0.03898736834526062,-0.08413872867822647,-0.31201228499412537,-0.9455416202545166,2.6484878063201904,3.879974603652954,4.398563861846924,1.7601417303085327,5.881893157958984,8.09895133972168,0.013286309316754341,0.015130355954170227,0.052874159067869186,-5.091167449951172,-42.76688766479492,-0.017999649047851562,-0.026801466941833496,-0.049503326416015625,0.05369377136230469,1.7869431972503662,5.931396484375,8.045257568359375
7_20251106_165723,1762419410196,7,0.03947719186544418,-0.08412477374076843,-0.31206199526786804,-0.9455061554908752,2.645355224609375,3.8712751865386963,4.404410362243652,1.6619834899902344,5.798099517822266,8.112117767333984,0.01756236143410206,0.04139753803610802,0.03638080880045891,-5.089658737182617,-42.74163818359375,-0.030988693237304688,-0.09996771812438965,-0.10663747787475586,0.05348777770996094,1.761951208114624,5.9047369956970215,8.058629989624023
7_20251106_165723,1762419410215,7,0.03988650441169739,-0.08369003981351852,-0.31206101179122925,-0.9455279111862183,2.6423819065093994,3.8633673191070557,4.408783912658691,1.6595895290374756,5.747823715209961,7.821235656738281,0.026114465668797493,0.0939319059252739,0.046765509992837906,-5.0309553146362305,-42.787086486816406,-0.11068916320800781,-0.08188939094543457,-0.12553071975708008,-0.18991565704345703,1.7414789199829102,5.873354434967041,8.011151313781738
7_20251106_165723,1762419410234,7,0.04065779969096184,-0.08264390379190445,-0.3120068609714508,-0.9456049203872681,2.6423819065093994,3.8633673191070557,4.408783912658691,1.6595895290374756,5.747823715209961,7.821235656738281,0.026114465668797493,0.0939319059252739,0.046765509992837906,-5.0309553146362305,-42.787086486816406,-0.11068916320800781,-0.08188939094543457,-0.12553071975708008,-0.18991565704345703,1.7414789199829102,5.873354434967041,8.011151313781738
7_20251106_165723,1762419410253,7,0.041682906448841095,-0.08171837031841278,-0.31175750494003296,-0.9457229375839233,2.639326333999634,3.85465145111084,4.412402629852295,1.761338710784912,5.750217437744141,7.7206830978393555,-0.059406593441963196,0.09332104027271271,0.1035759374499321,-5.006385803222656,-42.78522872924805,-0.13673973083496094,0.015887856483459473,-0.0985097885131836,-0.2323746681213379,1.7454508543014526,5.848727226257324,7.953057765960693
7_20251106_165723,1762419410273,7,0.04271036759018898,-0.08124604821205139,-0.3112037479877472,-0.9459002017974854,2.636132001876831,3.8408374786376953,4.416873931884766,2.0534188747406006,5.897455215454102,7.818841457366943,-0.05268707871437073,0.007189114112406969,0.08769345283508301,-5.091378211975098,-42.778770446777344,-0.08584403991699219,0.212996244430542,0.04248619079589844,-0.07229948043823242,1.8404226303100586,5.854969024658203,7.891140937805176
7_20251106_165723,1762419410291,7,0.04327024891972542,-0.08181875944137573,-0.31084075570106506,-0.9459447264671326,2.6351850032806396,3.8347864151000977,4.418966293334961,1.9265315532684326,5.968080520629883,7.944531440734863,-0.02519816905260086,-0.04168006405234337,0.07181096822023392,-5.091378211975098,-42.778770446777344,-0.08584403991699219,0.06888723373413086,0.09048938751220703,0.04271221160888672,1.8576443195343018,5.877591133117676,7.901819229125977
7_20251106_165723,1762419410310,7,0.04357767105102539,-0.08286888897418976,-0.3107684850692749,-0.9458629488945007,2.6351850032806396,3.8347864151000977,4.418966293334961,1.9265315532684326,5.968080520629883,7.944531440734863,-0.0258090328425169,-0.0038064508698880672,0.05470674857497215,-5.189261436462402,-42.78566360473633,-0.035701751708984375,0.06888723373413086,0.09048938751220703,0.04271221160888672,1.8576443195343018,5.877591133117676,7.901819229125977
7_20251106_165723,1762419410329,7,0.043965429067611694,-0.08320118486881256,-0.31068506836891174,-0.9458432197570801,2.633042097091675,3.823225736618042,4.4239349365234375,1.8068265914916992,5.871119976043701,8.007975578308105,-0.0258090328425169,-0.0038064508698880672,0.05470674857497215,-5.248880386352539,-42.76465606689453,-0.02410888671875,-0.03558778762817383,-0.014292716979980469,0.06698226928710938,1.842414379119873,5.885412693023682,7.940993309020996
7_20251106_165723,1762419410348,7,0.04443731531500816,-0.08263880014419556,-0.3102981746196747,-0.9459974765777588,2.6319570541381836,3.817366361618042,4.426438331604004,1.8475261926651,5.811267375946045,7.933757781982422,-0.06856956332921982,0.10248401015996933,0.033937349915504456,-5.355340003967285,-42.72103500366211,-0.08153152465820312,0.004089474678039551,-0.059316158294677734,-0.005788326263427734,1.8434367179870605,5.870583534240723,7.93954610824585
7_20251106_165723,1762419410368,7,0.045018136501312256,-0.081767238676548,-0.30966615676879883,-0.9462528228759766,2.6310043334960938,3.811310291290283,4.428747653961182,1.8690731525421143,5.7095184326171875,7.916999340057373,-0.06856956332921982,0.10248401015996933,0.033937349915504456,-5.427244186401367,-42.700958251953125,-0.05691337585449219,0.02050912380218506,-0.12885189056396484,-0.01803731918334961,1.8485640287399292,5.838370323181152,7.935036659240723
7_20251106_165723,1762419410387,7,0.045595988631248474,-0.08119110763072968,-0.3090399503707886,-0.9464794397354126,2.630269765853882,3.8057146072387695,4.430516242980957,1.8942111730575562,5.79091739654541,7.820038318634033,-0.08078686147928238,0.07377336919307709,0.06875663995742798,-5.473972320556641,-42.66659927368164,-0.044567108154296875,0.03651773929595947,-0.03796243667602539,-0.09199857711791992,1.8576934337615967,5.8288798332214355,7.912036895751953
7_20251106_165723,1762419410406,7,0.046266019344329834,-0.08091165870428085,-0.3081930875778198,-0.9467469453811646,2.6301252841949463,3.800297737121582,4.432292461395264,2.059403896331787,5.792114734649658,7.946926116943359,-0.11682787537574768,0.016352085396647453,0.0779196098446846,-5.558964729309082,-42.66014099121094,0.006328582763671875,0.16136837005615234,-0.029412269592285156,0.027911663055419922,1.8980355262756348,5.821527004241943,7.9190144538879395
7_20251106_165723,1762419410425,7,0.046730585396289825,-0.0812569111585617,-0.3072611391544342,-0.9469974637031555,2.6307196617126465,3.7958133220672607,4.435478210449219,2.1647443771362305,6.062647819519043,8.465248107910156,-0.14920370280742645,-0.06489292532205582,0.07364355772733688,-5.579911231994629,-42.59907913208008,0.020183563232421875,0.21336710453033447,0.19289636611938477,0.43698692321777344,1.951377272605896,5.869751453399658,8.028261184692383
7_20251106_165723,1762419410444,7,0.04685679450631142,-0.08256271481513977,-0.30598753690719604,-0.9472905993461609,2.6318764686584473,3.7922990322113037,4.4403276443481445,2.1671385765075684,6.141653060913086,8.69268798828125,-0.07589994370937347,-0.036182280629873276,0.014389680698513985,-5.556158065795898,-42.621524810791016,-0.087493896484375,0.1726090908050537,0.21752119064331055,0.5315418243408203,1.9945294857025146,5.924131870269775,8.16114616394043
7_20251106_165723,1762419410463,7,0.04658270254731178,-0.08337367326021194,-0.3053004741668701,-0.9474547505378723,2.632979154586792,3.789304494857788,4.445263385772705,1.9959604740142822,6.049479961395264,8.280902862548828,0.04016435891389847,0.03651062026619911,-0.0711313784122467,-5.553351402282715,-42.582908630371094,-0.18131637573242188,0.0011447668075561523,0.10027837753295898,0.09580516815185547,1.994815707206726,5.949201583862305,8.185097694396973
7_20251106_165723,1762419410482,7,0.04583645612001419,-0.08317165076732635,-0.3055785596370697,-0.9474192261695862,2.633524179458618,3.7861993312835693,4.449016571044922,1.8116148710250854,5.854361534118652,7.843979358673096,0.028557928279042244,0.05483656004071236,-0.10045288503170013,-5.554069519042969,-42.607078552246094,-0.276458740234375,-0.1465606689453125,-0.07587194442749023,-0.27289438247680664,1.958175539970398,5.930233478546143,8.116873741149902
7_20251106_165723,1762419410502,7,0.044980328530073166,-0.08254292607307434,-0.3060314953327179,-0.9473690986633301,2.6330995559692383,3.7828526496887207,4.4521074295043945,1.6392396688461304,5.850769996643066,7.899043560028076,0.028557928279042244,0.05483656004071236,-0.10045288503170013,-5.593545913696289,-42.659828186035156,-0.2654705047607422,-0.2551487684249878,-0.06357097625732422,-0.17426443099975586,1.8943884372711182,5.914340972900391,8.073307991027832
7_20251106_165723,1762419410520,7,0.04434169456362724,-0.08220045268535614,-0.3058861196041107,-0.9474759101867676,2.6330995559692383,3.7828526496887207,4.4521074295043945,1.6392396688461304,5.850769996643066,7.899043560028076,-0.08139772713184357,0.02368246205151081,-0.021651338785886765,-5.618425369262695,-42.673702239990234,-0.2937488555908203,-0.2551487684249878,-0.06357097625732422,-0.17426443099975586,1.8943884372711182,5.914340972900391,8.073307991027832
7_20251106_165723,1762419410539,7,0.04426774010062218,-0.08160535991191864,-0.3054501712322235,-0.9476714134216309,2.6307437419891357,3.7763922214508057,4.45755672454834,1.7134567499160767,5.8651347160339355,8.103738784790039,-0.07101302593946457,0.038954079151153564,0.005226709879934788,-5.653995513916016,-42.67473602294922,-0.43038368225097656,-0.10583686828613281,-0.02019214630126953,0.021965980529785156,1.8192936182022095,5.885326862335205,8.081772804260254
7_20251106_165723,1762419410558,7,0.04449409991502762,-0.08095113188028336,-0.3048495352268219,-0.9479103088378906,2.629326105117798,3.7734172344207764,4.460453987121582,1.7721121311187744,5.929775238037109,8.182744979858398,-0.07101302593946457,0.038954079151153564,0.005226709879934788,-5.667505264282227,-42.71212387084961,-0.5397968292236328,-0.03774523735046387,0.03555870056152344,0.08077812194824219,1.8098573684692383,5.894216537475586,8.101966857910156
7_20251106_165723,1762419410577,7,0.04477754235267639,-0.08052466809749603,-0.30442389845848083,-0.9480700492858887,2.628099203109741,3.7710235118865967,4.463999271392822,1.8535115718841553,6.051874160766602,8.391031265258789,-0.055741406977176666,0.028569379821419716,0.03149389103055,-5.632877349853516,-42.75875473022461,-0.6610279083251953,0.034923434257507324,0.12612581253051758,0.23125171661376953,1.818588137626648,5.925748348236084,8.15977954864502
7_20251106_165723,1762419410597,7,0.045107726007699966,-0.08024907857179642,-0.3040493130683899,-0.9481979608535767,2.6273019313812256,3.7690067291259766,4.467956066131592,1.952866554260254,6.019554138183594,8.374272346496582,-0.012980874627828598,0.006578249391168356,0.033326487988233566,-5.645471572875977,-42.77170181274414,-0.70233154296875,0.10742270946502686,0.07504463195800781,0.17159366607666016,1.845443844795227,5.944509506225586,8.202678680419922
7_20251106_165723,1762419410616,7,0.04530160129070282,-0.08026222884654999,-0.30402499437332153,-0.9481953978538513,2.6267948150634766,3.767272710800171,4.472274303436279,1.9408961534500122,6.037509918212891,8.321601867675781,0.04260782152414322,-0.036182284355163574,0.015611410140991211,-5.621310234069824,-42.78199768066406,-0.769195556640625,0.07636189460754395,0.07440042495727539,0.0951385498046875,1.8645342588424683,5.963109493255615,8.226463317871094
7_20251106_165723,1762419410635,7,0.04523716866970062,-0.0807599425315857,-0.30448490381240845,-0.94800865650177,2.6267948150634766,3.767272710800171,4.472274303436279,1.9408961534500122,6.037509918212891,8.321601867675781,0.04566214233636856,-0.011136827059090137,-0.02653825655579567,-5.621817588806152,-42.79428482055664,-0.7964916229248047,0.07636189460754395,0.07440042495727539,0.0951385498046875,1.8645342588424683,5.963109493255615,8.226463317871094
7_20251106_165723,1762419410655,7,0.04486330598592758,-0.08089534938335419,-0.30504611134529114,-0.9478344321250916,2.62520694732666,3.7635412216186523,4.479659557342529,1.6727570295333862,5.786128997802734,8.070221900939941,0.018173227086663246,0.04017580673098564,-0.05280543863773346,-5.545783042907715,-42.739158630371094,-0.8060092926025391,-0.14897692203521729,-0.1381664276123047,-0.1252765655517578,1.8217339515686035,5.924295425415039,8.1954984664917
7_20251106_165723,1762419410673,7,0.0444575697183609,-0.08036097139120102,-0.305318683385849,-0.9478112459182739,2.62520694732666,3.7635412216186523,4.479659557342529,1.6727570295333862,5.786128997802734,8.070221900939941,0.018173227086663246,0.04017580673098564,-0.05280543863773346,-5.545783042907715,-42.739158630371094,-0.8060092926025391,-0.14897692203521729,-0.1381664276123047,-0.1252765655517578,1.8217339515686035,5.924295425415039,8.1954984664917
7_20251106_165723,1762419410692,7,0.04437416419386864,-0.07947936654090881,-0.3053405284881592,-0.9478824138641357,2.6224467754364014,3.758754014968872,4.48463773727417,1.7589446306228638,5.749020576477051,8.060646057128906,0.009010255336761475,0.054836563766002655,0.008281033486127853,-5.532101631164551,-42.724727630615234,-0.9133853912353516,-0.02007472515106201,-0.11006927490234375,-0.0914764404296875,1.7790193557739258,5.8590898513793945,8.152122497558594
7_20251106_165723,1762419410710,7,0.04469260945916176,-0.07872504740953445,-0.30535316467285156,-0.9479263424873352,2.6224467754364014,3.758754014968872,4.48463773727417,1.7589446306228638,5.749020576477051,8.060646057128906,0.03711003065109253,0.012076032347977161,0.024774380028247833,-5.542989730834961,-42.712154388427734,-0.9947090148925781,-0.02007472515106201,-0.11006927490234375,-0.0914764404296875,1.7790193557739258,5.8590898513793945,8.152122497558594
7_20251106_165723,1762419410730,7,0.04494468495249748,-0.07865384966135025,-0.30564767122268677,-0.9478254318237305,2.620532751083374,3.7534313201904297,4.487640380859375,1.920546293258667,5.835208415985107,7.839191436767578,0.043829545378685,-0.0349605530500412,0.021109193563461304,-5.529900550842285,-42.69853591918945,-1.020986557006836,0.09977054595947266,-0.008006572723388672,-0.22881317138671875,1.8207757472991943,5.843214988708496,8.068004608154297
7_20251106_165723,1762419410749,7,0.0449494831264019,-0.07918659597635269,-0.3060920536518097,-0.9476374387741089,2.619999647140503,3.7504758834838867,4.488186836242676,1.8942111730575562,5.727474212646484,7.899044036865234,0.03161225467920303,-0.07283416390419006,-0.002714531496167183,-5.564146041870117,-42.6629753112793,-1.0486984252929688,0.05874836444854736,-0.09259271621704102,-0.13516807556152344,1.8354628086090088,5.820066928863525,8.034212112426758
7_20251106_165723,1762419410772,7,0.04453444108366966,-0.08013089001178741,-0.3066559135913849,-0.9473953247070312,2.6191961765289307,3.7471489906311035,4.488586902618408,1.7804914712905884,5.795705795288086,7.985231399536133,-0.004428768530488014,-0.04045833647251129,-0.023483935743570328,-5.524570465087891,-42.6100959777832,-1.0732040405273438,-0.04397714138031006,-0.019488811492919922,-0.0391845703125,1.8244686126708984,5.815194606781006,8.024415969848633
7_20251106_165723,1762419410787,7,0.04411289468407631,-0.0806494653224945,-0.3067050278186798,-0.9473551511764526,2.6185269355773926,3.7450482845306396,4.4887003898620605,1.724230170249939,5.7921142578125,7.945728302001953,-0.02886335738003254,0.018184678629040718,-0.03997727856040001,-5.515500068664551,-42.659934997558594,-1.0332202911376953,-0.08019077777862549,-0.01846456527709961,-0.06295013427734375,1.8044209480285645,5.8105788230896,8.008678436279297
7_20251106_165723,1762419410808,7,0.04366543889045715,-0.08038868755102158,-0.3065394163131714,-0.947451651096344,2.6172518730163574,3.7420883178710938,4.488580226898193,1.6895157098770142,5.76099157333374,7.927772521972656,-0.053297944366931915,0.03406716138124466,-0.031425174325704575,-5.487998962402344,-42.596099853515625,-0.9768543243408203,-0.09192419052124023,-0.03966999053955078,-0.06472492218017578,1.7814399003982544,5.800661563873291,7.992497444152832
7_20251106_165723,1762419410827,7,0.043392330408096313,-0.07992742210626602,-0.30619192123413086,-0.9476155638694763,2.6159234046936035,3.7396881580352783,4.488880634307861,1.6966979503631592,5.853164196014404,8.139650344848633,-0.07345648109912872,-0.001362991868518293,-0.006990584544837475,-5.478547096252441,-42.657012939453125,-1.0858135223388672,-0.06779360771179199,0.042002201080322266,0.1177225112915039,1.7644915580749512,5.811161994934082,8.021927833557129
7_20251106_165723,1762419410846,7,0.04326648637652397,-0.07980765402317047,-0.30565717816352844,-0.9478040337562561,2.6144819259643555,3.7375528812408447,4.490142345428467,1.699092149734497,5.8639373779296875,8.377862930297852,-0.04780016094446182,-0.008693368174135685,0.00705930357798934,-5.418914794921875,-42.666404724121094,-1.0025272369384766,-0.05231952667236328,0.042220115661621094,0.2847480773925781,1.7514116764068604,5.821717262268066,8.093114852905273
7_20251106_165723,1762419410865,7,0.04323234036564827,-0.0797407329082489,-0.3052806258201599,-0.9479325413703918,2.6129262447357178,3.7355711460113525,4.491796970367432,1.683530569076538,5.838799476623535,8.259355545043945,-0.0007635802030563354,-0.0007521271472796798,0.01255708560347557,-5.3871660232543945,-42.72856140136719,-0.8266639709472656,-0.05430483818054199,0.01366567611694336,0.13299274444580078,1.73783540725708,5.825133800506592,8.126362800598145
7_20251106_165723,1762419410883,7,0.0433662086725235,-0.0795302614569664,-0.3051246106624603,-0.9479943513870239,2.6112864017486572,3.7337682247161865,4.493811130523682,1.6404366493225098,5.8172526359558105,8.339557647705078,0.0206166859716177,-0.009304232895374298,0.03515908122062683,-5.363498687744141,-42.739532470703125,-0.8259468078613281,-0.07791900634765625,-0.006305217742919922,0.17055606842041016,1.718355655670166,5.8235578536987305,8.169001579284668
7_20251106_165723,1762419410903,7,0.0437222383916378,-0.07945113629102707,-0.3052266836166382,-0.9479517936706543,2.6112864017486572,3.7337682247161865,4.493811130523682,1.6404366493225098,5.8172526359558105,8.339557647705078,0.024281876161694527,0.03406716138124466,0.05959366634488106,-5.341129302978516,-42.76386642456055,-0.7443962097167969,-0.07791900634765625,-0.006305217742919922,0.17055606842041016,1.718355655670166,5.8235578536987305,8.169001579284668
7_20251106_165723,1762419410922,7,0.044453855603933334,-0.07895997911691666,-0.3052281141281128,-0.9479582905769348,2.608408212661743,3.730344533920288,4.498154163360596,1.8762553930282593,5.798099994659424,8.090572357177734,0.031612247228622437,0.05728001892566681,0.04859810695052147,-5.330748558044434,-42.78872299194336,-0.69036865234375,0.1253798007965088,-0.024911880493164062,-0.07758331298828125,1.7508755922317505,5.823011875152588,8.168155670166016
7_20251106_165723,1762419410941,7,0.0450635589659214,-0.0784236341714859,-0.3053961396217346,-0.9479199647903442,2.607686996459961,3.7286341190338135,4.499536514282227,1.9025905132293701,5.820843696594238,7.973260879516602,0.0029016081243753433,0.024293327704072,0.020498327910900116,-5.343231201171875,-42.78992462158203,-0.6503105163574219,0.12137198448181152,-0.0017347335815429688,-0.1559152603149414,1.7812185287475586,5.822578430175781,8.129176139831543
7_20251106_165723,1762419410960,7,0.045117393136024475,-0.07848987728357315,-0.30540406703948975,-0.9479093551635742,2.607686996459961,3.7286341190338135,4.499536514282227,1.9025905132293701,5.820843696594238,7.973260879516602,-0.012980874627828598,-0.010525962337851524,-0.006379719823598862,-5.331849098205566,-42.80181884765625,-0.6365680694580078,0.12137198448181152,-0.0017347335815429688,-0.1559152603149414,1.7812185287475586,5.822578430175781,8.129176139831543
7_20251106_165723,1762419410978,7,0.04484733194112778,-0.07884885370731354,-0.3054421842098236,-0.9478800892829895,2.6064531803131104,3.725538492202759,4.502437591552734,1.7302154302597046,5.747823715209961,8.127679824829102,0.015729768201708794,0.03162370249629021,-0.027759987860918045,-5.393372535705566,-42.806602478027344,-0.55792236328125,-0.04394209384918213,-0.05952644348144531,-0.016854286193847656,1.7741575241088867,5.807350158691406,8.14453411102295
7_20251106_165723,1762419410998,7,0.04461948946118355,-0.078498974442482,-0.30551138520240784,-0.9478975534439087,2.6054635047912598,3.7233612537384033,4.502967834472656,1.6751511096954346,5.631710052490234,7.852358818054199,0.031001387163996696,0.05300396680831909,-0.031425174325704575,-5.392667770385742,-42.794044494628906,-0.5576591491699219,-0.07920515537261963,-0.14051198959350586,-0.23373985290527344,1.7543562650680542,5.77222204208374,8.086098670959473
7_20251106_165723,1762419411017,7,0.044519562274217606,-0.07784862071275711,-0.3057126998901367,-0.9478909969329834,2.604241371154785,3.720747947692871,4.502739429473877,1.6344513893127441,5.535945892333984,7.828417778015137,-0.014813468791544437,0.04078667238354683,-0.006990584544837475,-5.36759090423584,-42.77989959716797,-0.5564136505126953,-0.09592390060424805,-0.18902111053466797,-0.2061452865600586,1.7303752899169922,5.724967002868652,8.034563064575195
7_20251106_165723,1762419411036,7,0.04448399320244789,-0.07743407040834427,-0.30558958649635315,-0.9479663372039795,2.602895975112915,3.7179110050201416,4.5024590492248535,1.6631807088851929,5.595798492431641,8.011566162109375,-0.049632757902145386,0.014519492164254189,0.03576994687318802,-5.328015327453613,-42.72701644897461,-0.5809192657470703,-0.05375564098358154,-0.10333490371704102,-0.01839733123779297,1.7169363498687744,5.699133396148682,8.029963493347168
7_20251106_165723,1762419411056,7,0.0447612963616848,-0.07734211534261703,-0.30504903197288513,-0.9481348395347595,2.6017801761627197,3.7149856090545654,4.502443313598633,1.7924619913101196,5.670015335083008,8.116907119750977,-0.033139411360025406,-0.014191151596605778,0.06936750560998917,-5.328324317932129,-42.739036560058594,-0.6352481842041016,0.06042051315307617,-0.023294448852539062,0.06955528259277344,1.7320414781570435,5.693309783935547,8.047351837158203
7_20251106_165723,1762419411076,7,0.04525217413902283,-0.07758881896734238,-0.3045676350593567,-0.9482461810112,2.6012094020843506,3.7123355865478516,4.5026397705078125,1.8930140733718872,5.73585319519043,8.116907119750977,-0.033139411360025406,-0.014191151596605778,0.06936750560998917,-5.4027509689331055,-42.76877975463867,-0.6522350311279297,0.1287781000137329,0.03403472900390625,0.05564403533935547,1.7642359733581543,5.701818466186523,8.061263084411621
7_20251106_165723,1762419411095,7,0.04567636176943779,-0.07806234806776047,-0.30434927344322205,-0.9482570886611938,2.6012094020843506,3.7123355865478516,4.5026397705078125,1.8930140733718872,5.73585319519043,8.116907119750977,-0.022754710167646408,0.013297761790454388,0.03149389103055,-5.4027509689331055,-42.76877975463867,-0.6522350311279297,0.1287781000137329,0.03403472900390625,0.05564403533935547,1.7642359733581543,5.701818466186523,8.061263084411621
7_20251106_165723,1762419411113,7,0.045862145721912384,-0.07827979326248169,-0.30406805872917175,-0.9483203887939453,2.6017367839813232,3.7078487873077393,4.503184795379639,1.9612460136413574,5.704730033874512,8.15999984741211,-0.06307177990674973,0.03773234784603119,-0.023483935743570328,-5.459761619567871,-42.70942687988281,-0.7074317932128906,0.1235966682434082,0.000522613525390625,0.07927989959716797,1.8376493453979492,5.704207420349121,8.080719947814941
7_20251106_165723,1762419411132,7,0.04554259404540062,-0.07831644266843796,-0.30348557233810425,-0.9485193490982056,2.602130889892578,3.7056872844696045,4.5040202140808105,1.8247822523117065,5.6448774337768555,8.271326065063477,-0.07528907805681229,0.05361483246088028,-0.06807705014944077,-5.459761619567871,-42.70942687988281,-0.7074317932128906,-0.01029360294342041,-0.04746389389038086,0.15248489379882812,1.835075855255127,5.692341327667236,8.118841171264648
7_20251106_165723,1762419411151,7,0.04482133314013481,-0.07806327939033508,-0.3027355372905731,-0.9488142132759094,2.601918935775757,3.703083038330078,4.5053510665893555,1.6284661293029785,5.586221694946289,8.2665376663208,-0.050243623554706573,0.042619265615940094,-0.05463803932070732,-5.469437599182129,-42.67201232910156,-0.7611961364746094,-0.16528785228729248,-0.08489561080932617,0.11815738677978516,1.793753981590271,5.671117305755615,8.148380279541016
7_20251106_165723,1762419411170,7,0.0443744994699955,-0.07765071094036102,-0.30206647515296936,-0.9490822553634644,2.6013102531433105,3.7004077434539795,4.506380558013916,1.6416337490081787,5.552704811096191,8.085783004760742,-0.020922116935253143,0.012076032347977161,0.019887462258338928,-5.470847129821777,-42.69712448120117,-0.7617244720458984,-0.1216961145401001,-0.09472990036010742,-0.05007743835449219,1.7633298635482788,5.647434711456299,8.135860443115234
7_20251106_165723,1762419411189,7,0.044591788202524185,-0.07737649232149124,-0.30157944560050964,-0.9492493271827698,2.6013102531433105,3.7004077434539795,4.506380558013916,1.6416337490081787,5.552704811096191,8.085783004760742,-0.003817903809249401,-0.0606168732047081,0.09258037060499191,-5.482539176940918,-42.697242736816406,-0.8297958374023438,-0.1216961145401001,-0.09472990036010742,-0.05007743835449219,1.7633298635482788,5.647434711456299,8.135860443115234
7_20251106_165723,1762419411209,7,0.04524965584278107,-0.07801417261362076,-0.30135443806648254,-0.9492374658584595,2.600658655166626,3.6957790851593018,4.507864475250244,1.94448721408844,5.796902656555176,8.158803939819336,-0.00015271548181772232,-0.06428205966949463,0.11029544472694397,-5.558870315551758,-42.752777099609375,-0.7797298431396484,0.1425631046295166,0.1192178726196289,0.032303810119628906,1.8019241094589233,5.677684783935547,8.126500129699707
7_20251106_165723,1762419411228,7,0.046061061322689056,-0.07892203330993652,-0.30131176114082336,-0.9491369128227234,2.6012203693389893,3.694366455078125,4.508582592010498,2.030674934387207,5.869922637939453,8.119300842285156,-0.022754710167646408,-0.014802015386521816,0.06081539765000343,-5.617883682250977,-42.7193489074707,-0.7543582916259766,0.18300068378448486,0.15378999710083008,-0.005759239196777344,1.8476742506027222,5.716132640838623,8.125060081481934
7_20251106_165723,1762419411248,7,0.04640580713748932,-0.07950444519519806,-0.30115994811058044,-0.9491196870803833,2.602095127105713,3.693295478820801,4.509124279022217,1.9720194339752197,5.814858436584473,8.073813438415527,-0.04535670578479767,0.02123900316655636,-0.010044909082353115,-5.61698055267334,-42.706520080566406,-0.7811260223388672,0.09947609901428223,0.07898092269897461,-0.04099750518798828,1.8725433349609375,5.735877513885498,8.114810943603516
7_20251106_165723,1762419411266,7,0.04613858833909035,-0.07972405105829239,-0.3009718656539917,-0.9491739869117737,2.6030030250549316,3.6924753189086914,4.509807109832764,1.8834377527236938,5.818449974060059,8.161197662353516,-0.06612610071897507,0.03773234784603119,-0.04303160309791565,-5.579928398132324,-42.70346450805664,-0.8472366333007812,0.008715510368347168,0.06605768203735352,0.037109375,1.8747222423553467,5.752392292022705,8.124088287353516
7_20251106_165723,1762419411286,7,0.045612119138240814,-0.07963422685861588,-0.300596684217453,-0.9493258595466614,2.6030030250549316,3.6924753189086914,4.509807109832764,1.8834377527236938,5.818449974060059,8.161197662353516,-0.052687086164951324,0.03345629572868347,-0.037533823400735855,-5.629884719848633,-42.73148727416992,-0.8767585754394531,0.008715510368347168,0.06605768203735352,0.037109375,1.8747222423553467,5.752392292022705,8.124088287353516
7_20251106_165723,1762419411305,7,0.0451846607029438,-0.07941224426031113,-0.30028384923934937,-0.9494638442993164,2.6043121814727783,3.6908111572265625,4.5108561515808105,1.8415409326553345,5.66522741317749,7.991216659545898,-0.010537415742874146,-0.011136827990412712,-0.008212313987314701,-5.653651237487793,-42.72065353393555,-0.8639583587646484,-0.01932084560394287,-0.0707249641418457,-0.11031913757324219,1.8608617782592773,5.735952377319336,8.10153579711914
7_20251106_165723,1762419411323,7,0.04504400119185448,-0.07954180240631104,-0.30029296875,-0.9494568109512329,2.6043121814727783,3.6908111572265625,4.5108561515808105,1.8415409326553345,5.66522741317749,7.991216659545898,0.00412333756685257,-0.065503790974617,0.010724492371082306,-5.711874008178711,-42.68614196777344,-0.94671630859375,-0.01932084560394287,-0.0707249641418457,-0.11031913757324219,1.8608617782592773,5.735952377319336,8.10153579711914
7_20251106_165723,1762419411341,7,0.04492616653442383,-0.08026888221502304,-0.3004577159881592,-0.9493491053581238,2.6052372455596924,3.689321994781494,4.510104179382324,1.8283734321594238,5.807676315307617,7.96368408203125,-0.03436113893985748,-0.06000600382685661,-0.008212313987314701,-5.772000312805176,-42.67742156982422,-0.9624214172363281,-0.02462315559387207,0.05796957015991211,-0.07769107818603516,1.852996587753296,5.749706745147705,8.041375160217285
7_20251106_165723,1762419411361,7,0.044544994831085205,-0.08094172179698944,-0.3004538416862488,-0.9493111371994019,2.6053524017333984,3.688920736312866,4.510159015655518,1.7481712102890015,5.837602615356445,8.228232383728027,-0.03436113893985748,-0.06000600382685661,-0.008212313987314701,-5.770491600036621,-42.65217590332031,-0.9754104614257812,-0.08386027812957764,0.07031679153442383,0.14948558807373047,1.832031488418579,5.7672858238220215,8.078746795654297
7_20251106_165723,1762419411380,7,0.04393043741583824,-0.08109495788812637,-0.3000665009021759,-0.9494492411613464,2.604966878890991,3.6888203620910645,4.510927677154541,1.6536041498184204,5.862740516662598,8.340755462646484,-0.09850193560123444,0.018795544281601906,-0.058303218334913254,-5.733636856079102,-42.64938735961914,-1.0144882202148438,-0.14274179935455322,0.07636356353759766,0.20960712432861328,1.7963459491729736,5.786376953125,8.131148338317871
7_20251106_165723,1762419411399,7,0.04341009259223938,-0.08063022047281265,-0.2993741035461426,-0.9497312903404236,2.6042025089263916,3.6887047290802,4.512190341949463,1.651210069656372,5.778946876525879,8.325193405151367,-0.09850193560123444,0.018795544281601906,-0.058303218334913254,-5.75800895690918,-42.65097427368164,-1.0154685974121094,-0.11610877513885498,-0.005944252014160156,0.15523624420166016,1.767318844795227,5.784891128540039,8.169957160949707
7_20251106_165723,1762419411419,7,0.04315590858459473,-0.08011922985315323,-0.29902416467666626,-0.9498963356018066,2.603055953979492,3.6887362003326416,4.51381254196167,1.614101529121399,5.8364057540893555,8.323995590209961,-0.012370009906589985,-0.04473438858985901,0.0003397921100258827,-5.756203651428223,-42.62532043457031,-1.0690059661865234,-0.1225738525390625,0.041211605072021484,0.1232309341430664,1.7366753816604614,5.795194149017334,8.200764656066895
7_20251106_165723,1762419411437,7,0.043183062225580215,-0.08015993982553482,-0.2989560663700104,-0.9499130845069885,2.603055953979492,3.6887362003326416,4.51381254196167,1.614101529121399,5.8364057540893555,8.323995590209961,-0.004428768530488014,-0.056340817362070084,0.024163514375686646,-5.718841552734375,-42.61024856567383,-1.0807876586914062,-0.1225738525390625,0.041211605072021484,0.1232309341430664,1.7366753816604614,5.795194149017334,8.200764656066895
7_20251106_165723,1762419411458,7,0.04335303232073784,-0.08030213415622711,-0.2990216016769409,-0.9498727321624756,2.6003270149230957,3.6895525455474854,4.518064498901367,1.6978950500488281,5.923789978027344,8.431731224060059,-0.023365575820207596,-0.03434968739748001,0.011335357092320919,-5.682790756225586,-42.62015151977539,-1.1066131591796875,-0.01754128932952881,0.09053707122802734,0.1685037612915039,1.715436339378357,5.833252906799316,8.263227462768555
7_20251106_165723,1762419411476,7,0.04344126582145691,-0.08028489351272583,-0.2989824116230011,-0.949882447719574,2.5989797115325928,3.6900742053985596,4.5206756591796875,1.683530569076538,5.8328142166137695,8.411380767822266,-0.019700385630130768,-0.0007521271472796798,-0.027759987860918045,-5.672818183898926,-42.657161712646484,-1.0933990478515625,-0.025524616241455078,-0.0003509521484375,0.11852264404296875,1.7090551853179932,5.833165168762207,8.292858123779297
7_20251106_165723,1762419411495,7,0.04326695203781128,-0.07990477234125137,-0.29894036054611206,-0.9499357342720032,2.5974292755126953,3.690394878387451,4.523218631744385,1.6105104684829712,5.7693705558776855,8.315616607666016,0.008399389684200287,0.005967384669929743,-0.047307658940553665,-5.613594055175781,-42.6787109375,-1.0509262084960938,-0.07883572578430176,-0.051035404205322266,0.01820659637451172,1.689346194267273,5.820405960083008,8.297410011291504
7_20251106_165723,1762419411514,7,0.04294244572520256,-0.07941985875368118,-0.2990562319755554,-0.949954628944397,2.595543146133423,3.6905364990234375,4.525503635406494,1.5386875867843628,5.760991096496582,8.249778747558594,0.009010253474116325,0.021849868819117546,-0.0405881442129612,-5.57713508605957,-42.67646408081055,-1.0359382629394531,-0.12052690982818604,-0.047532081604003906,-0.038105010986328125,1.6592144966125488,5.808523178100586,8.287883758544922
7_20251106_165723,1762419411534,7,0.042713459581136703,-0.07874777913093567,-0.29916730523109436,-0.949985921382904,2.593414068222046,3.6905274391174316,4.527839183807373,1.5362932682037354,5.7562031745910645,8.347936630249023,-0.008704821579158306,0.03406716138124466,-0.02653825655579567,-5.528291702270508,-42.67314910888672,-1.0474929809570312,-0.09833693504333496,-0.04185628890991211,0.04804229736328125,1.6346302032470703,5.798059463500977,8.299894332885742
