session_id,timestamp,label,quaternion_w,quaternion_x,quaternion_y,quaternion_z,position_x,position_y,position_z,accelerometer_x,accelerometer_y,accelerometer_z,gyroscope_x,gyroscope_y,gyroscope_z,magnetometer_x,magnetometer_y,magnetometer_z,linear_acceleration_x,linear_acceleration_y,linear_acceleration_z,gravity_x,gravity_y,gravity_z
3_20251106_150647,1762412769634,3,0.11841480433940887,0.25869083404541016,0.8278301954269409,0.4834813177585602,0.978905439376831,1.7875291109085083,-2.6386795043945312,0.5966096520423889,8.54293441772461,-5.0039520263671875,0.06538543105125427,0.019181152805685997,0.0005039647221565247,16.167570114135742,-4.669624328613281,34.610591888427734,0.025580942630767822,0.017975807189941406,-0.01765584945678711,0.5710287094116211,8.524958610534668,-4.9862961769104
3_20251106_150647,1762412769654,3,0.11809878796339035,0.2584990859031677,0.8281647562980652,0.48308804631233215,0.9808443188667297,1.7871975898742676,-2.639718532562256,0.6684326529502869,8.564481735229492,-5.063803672790527,0.0635528415441513,0.022846341133117676,0.0011148294433951378,16.1829833984375,-4.606452941894531,34.652950286865234,0.07792317867279053,0.03161907196044922,-0.06200599670410156,0.5905094742774963,8.532862663269043,-5.001797676086426
3_20251106_150647,1762412769674,3,0.11768820136785507,0.2584682106971741,0.8284584879875183,0.482700914144516,0.9829049706459045,1.7870588302612305,-2.6408395767211914,0.6624473929405212,8.590816497802734,-5.045848369598389,0.05194640904664993,0.024068070575594902,-0.023930624127388,16.110782623291016,-4.5867767333984375,34.718116760253906,0.05755037069320679,0.046362876892089844,-0.03524065017700195,0.6048970222473145,8.544453620910645,-5.010607719421387
3_20251106_150647,1762412769691,3,0.11728248000144958,0.2584254741668701,0.8287568688392639,0.4823101758956909,0.9845770597457886,1.786869764328003,-2.6417722702026367,0.6085801124572754,8.509416580200195,-5.023104667663574,0.03911825269460678,0.04972438886761665,-0.05447385832667351,16.100019454956055,-4.55084228515625,34.81303024291992,0.00294649600982666,-0.028029441833496094,-0.009997367858886719,0.6056336164474487,8.537446022033691,-5.0131072998046875
3_20251106_150647,1762412769710,3,0.1168944463133812,0.2580770254135132,0.8290706872940063,0.4820515513420105,0.9863111972808838,1.7863885164260864,-2.6428654193878174,0.5906244516372681,8.435199737548828,-5.050636291503906,0.0305661428719759,0.06316341459751129,-0.06058250740170479,16.06296730041504,-4.553901672363281,34.8791389465332,-0.012007355690002441,-0.08179664611816406,-0.03002309799194336,0.6026318073272705,8.516996383666992,-5.020613193511963
3_20251106_150647,1762412769730,3,0.11646272242069244,0.25736817717552185,0.8294035196304321,0.48196253180503845,0.9878041744232178,1.7855623960494995,-2.6439075469970703,0.5463336110115051,8.382530212402344,-5.021906852722168,0.02751181833446026,0.046670060604810715,-0.048976074904203415,16.006563186645508,-4.482124328613281,34.83772277832031,-0.045038580894470215,-0.10757255554199219,-0.0010352134704589844,0.5913721919059753,8.490102767944336,-5.020871639251709
3_20251106_150647,1762412769748,3,0.11605706810951233,0.25666239857673645,0.8297587037086487,0.4818253815174103,0.9891285300254822,1.7845219373703003,-2.6449759006500244,0.5571070313453674,8.396894454956055,-5.049439430236816,0.03545306622982025,0.029565853998064995,-0.012935061007738113,16.012710571289062,-4.369377136230469,34.867130279541016,-0.027412116527557373,-0.07456684112548828,-0.022854328155517578,0.5845191478729248,8.471461296081543,-5.026585102081299
3_20251106_150647,1762412769768,3,0.11573866754770279,0.2562171220779419,0.8300722241401672,0.4815988540649414,0.9906315207481384,1.7834839820861816,-2.646099328994751,0.643294632434845,8.472309112548828,-5.044651031494141,0.05683332681655884,-0.0028099773917347193,0.013942988589406013,16.014528274536133,-4.3321075439453125,34.908470153808594,0.04702037572860718,0.0006780624389648438,-0.014452457427978516,0.5962742567062378,8.471631050109863,-5.030198574066162
3_20251106_150647,1762412769787,3,0.11540783941745758,0.25615406036376953,0.8303470611572266,0.48123788833618164,0.9923140406608582,1.78262460231781,-2.6469919681549072,0.7151175737380981,8.49984073638916,-4.985995292663574,0.06966148316860199,-0.026633702218532562,0.01821904256939888,15.97947883605957,-4.309242248535156,34.89400863647461,0.09507465362548828,0.0225677490234375,0.03536272048950195,0.6200429201126099,8.477272987365723,-5.021358013153076
3_20251106_150647,1762412769806,3,0.11518760025501251,0.25644853711128235,0.8306067585945129,0.4806852638721466,0.9942455291748047,1.7819653749465942,-2.6477558612823486,0.7414526343345642,8.534555435180664,-4.99078369140625,0.07882446050643921,-0.023579377681016922,-0.002550358884036541,15.953598022460938,-4.336082458496094,34.9060173034668,0.09712773561477661,0.045825958251953125,0.024459362030029297,0.6443248987197876,8.488729476928711,-5.015243053436279
3_20251106_150647,1762412769825,3,0.11501707136631012,0.2568865120410919,0.8308001160621643,0.48015788197517395,0.9962024092674255,1.781320333480835,-2.6484901905059814,0.6887824535369873,8.48188591003418,-5.018316268920898,0.0794353261590004,-0.0003665185649879277,-0.045310888439416885,16.00545883178711,-4.2822723388671875,34.86848449707031,0.03556603193283081,-0.005475044250488281,-0.0024585723876953125,0.6532164216041565,8.487360954284668,-5.015857696533203
3_20251106_150647,1762412769845,3,0.11484614759683609,0.2570062279701233,0.8310553431510925,0.4796927869319916,0.9980309009552002,1.7804731130599976,-2.6495375633239746,0.6109743118286133,8.420835494995117,-5.118868350982666,0.0690506249666214,0.026511529460549355,-0.08013017475605011,16.01764488220215,-4.2814788818359375,34.86897659301758,-0.03379368782043457,-0.05322074890136719,-0.08240842819213867,0.6447679996490479,8.474056243896484,-5.036459922790527
3_20251106_150647,1762412769863,3,0.11464828997850418,0.25669535994529724,0.8314222097396851,0.47927066683769226,0.9993106126785278,1.7794997692108154,-2.6507716178894043,0.5295748710632324,8.372953414916992,-5.173933029174805,0.053779006004333496,0.02467893622815609,-0.09540179371833801,16.03274917602539,-4.230323791503906,34.85700607299805,-0.09215450286865234,-0.08088207244873047,-0.10997819900512695,0.6217293739318848,8.453835487365723,-5.063954830169678
3_20251106_150647,1762412769883,3,0.11454770714044571,0.2560335099697113,0.8318969011306763,0.47882482409477234,1.0000783205032349,1.7782427072525024,-2.6522715091705322,0.4338109493255615,8.35140609741211,-5.159567832946777,0.044616036117076874,0.008796452544629574,-0.0856279581785202,16.04493522644043,-4.229530334472656,34.85749816894531,-0.15033471584320068,-0.08194351196289062,-0.07649040222167969,0.5841456651687622,8.433349609375,-5.083077430725098
3_20251106_150647,1762412769901,3,0.11462598294019699,0.2552967369556427,0.8324153423309326,0.47829824686050415,1.0000783205032349,1.7782427072525024,-2.6522715091705322,0.4338109493255615,8.35140609741211,-5.159567832946777,0.04950295388698578,0.005742128472775221,-0.05691732093691826,16.018856048583984,-4.2566375732421875,34.89653778076172,-0.15033471584320068,-0.08194351196289062,-0.07649040222167969,0.5841456651687622,8.433349609375,-5.083077430725098
3_20251106_150647,1762412769920,3,0.11481627821922302,0.2547481954097748,0.8328927159309387,0.47771361470222473,1.0002094507217407,1.7746955156326294,-2.65541934967041,0.4421902894973755,8.262825012207031,-5.128444671630859,0.05316814035177231,-0.0009773832280188799,-0.021487165242433548,15.995287895202637,-4.245536804199219,34.88230514526367,-0.08491408824920654,-0.11200809478759766,-0.028652191162109375,0.527104377746582,8.374833106994629,-5.09979248046875
3_20251106_150647,1762412769940,3,0.11488658934831619,0.25433146953582764,0.8333464860916138,0.4771270751953125,1.0001269578933716,1.7727994918823242,-2.6569554805755615,0.5259838104248047,8.347816467285156,-5.1128830909729,0.054389871656894684,-0.01747073046863079,0.001725694164633751,15.98431396484375,-4.221488952636719,34.90937423706055,-0.000896453857421875,-0.021613121032714844,-0.010472774505615234,0.5268802642822266,8.369429588317871,-5.102410316467285
3_20251106_150647,1762412769958,3,0.11485812067985535,0.25419294834136963,0.8337302803993225,0.4765368700027466,1.0001578330993652,1.771122932434082,-2.658351421356201,0.5666834712028503,8.414850234985352,-5.0793657302856445,0.05683332681655884,-0.02785542979836464,-0.0013286294415593147,16.01181411743164,-4.15765380859375,34.96574020385742,0.03184252977371216,0.03633689880371094,0.01843547821044922,0.5348409414291382,8.37851333618164,-5.097801208496094
3_20251106_150647,1762412769980,3,0.11484681814908981,0.2543144226074219,0.8340104818344116,0.4759840965270996,1.0002472400665283,1.769249439239502,-2.65983247756958,0.5499247312545776,8.370559692382812,-5.082956790924072,0.06721803545951843,-0.019303323701024055,-0.018432842567563057,15.989359855651855,-4.1218414306640625,34.992584228515625,0.012067019939422607,-0.0063629150390625,0.011875629425048828,0.537857711315155,8.376922607421875,-5.094832420349121
3_20251106_150647,1762412769999,3,0.11487183719873428,0.25444814562797546,0.8342509865760803,0.4754848778247833,1.0002288818359375,1.7676653861999512,-2.6611692905426025,0.5044368505477905,8.359786033630371,-5.139218330383301,0.07271581143140793,-0.007086030673235655,-0.037980515509843826,16.004674911499023,-4.058799743652344,35.048458099365234,-0.026736676692962646,-0.013709068298339844,-0.03550863265991211,0.5311735272407532,8.373495101928711,-5.103709697723389
3_20251106_150647,1762412770016,3,0.1148274689912796,0.25435569882392883,0.8345600962638855,0.4750024080276489,1.0002288818359375,1.7676653861999512,-2.6611692905426025,0.5044368505477905,8.359786033630371,-5.139218330383301,0.06538543105125427,0.002687805099412799,-0.05447385832667351,16.004674911499023,-4.058799743652344,35.048458099365234,-0.026736676692962646,-0.013709068298339844,-0.03550863265991211,0.5311735272407532,8.373495101928711,-5.103709697723389
3_20251106_150647,1762412770035,3,0.11481688171625137,0.25411131978034973,0.8349496126174927,0.474450945854187,0.9988918900489807,1.7650060653686523,-2.6643712520599365,0.26382994651794434,8.40048599243164,-5.2529377937316895,0.04644862562417984,0.023457204923033714,-0.06608028709888458,16.090879440307617,-4.040412902832031,35.025123596191406,-0.18986964225769043,0.01957225799560547,-0.10125160217285156,0.45369958877563477,8.380913734436035,-5.151686191558838
3_20251106_150647,1762412770056,3,0.11486948281526566,0.25353923439979553,0.8354202508926392,0.4739154875278473,0.9970269799232483,1.7636760473251343,-2.6666362285614014,0.1704600751399994,8.382530212402344,-5.299622535705566,0.037896521389484406,0.04850265756249428,-0.05447385832667351,16.105588912963867,-3.9897918701171875,35.06721878051758,-0.22659161686897278,0.001293182373046875,-0.11834907531738281,0.39705169200897217,8.381237030029297,-5.181273460388184
3_20251106_150647,1762412770074,3,0.11492831259965897,0.2527385652065277,0.8358763456344604,0.4735245108604431,0.9946663975715637,1.7624136209487915,-2.669198989868164,0.15011024475097656,8.358589172363281,-5.370248794555664,0.05011381953954697,0.04972438886761665,-0.019043706357479095,16.15623664855957,-3.9608230590820312,35.00212478637695,-0.19755315780639648,-0.018118858337402344,-0.15118026733398438,0.34766340255737305,8.376708030700684,-5.21906852722168
3_20251106_150647,1762412770092,3,0.11479591578245163,0.2518019378185272,0.8364107608795166,0.4731117784976959,0.9946663975715637,1.7624136209487915,-2.669198989868164,0.15011024475097656,8.358589172363281,-5.370248794555664,0.07149408012628555,0.017348559573292732,0.0377667136490345,16.245162963867188,-3.8923416137695312,34.99336242675781,-0.19755315780639648,-0.018118858337402344,-0.15118026733398438,0.34766340255737305,8.376708030700684,-5.21906852722168
3_20251106_150647,1762412770112,3,0.11461500078439713,0.2513585388660431,0.8369348645210266,0.47246411442756653,0.9897496104240417,1.7603516578674316,-2.6754369735717773,0.3895201086997986,8.480688095092773,-5.388204574584961,0.07149408012628555,0.017348559573292732,0.0377667136490345,16.26067543029785,-3.8290328979492188,35.0222053527832,0.05341064929962158,0.0824441909790039,-0.10211801528930664,0.336109459400177,8.39824390411377,-5.286086559295654
3_20251106_150647,1762412770131,3,0.11443724483251572,0.25171974301338196,0.837352454662323,0.4715740978717804,0.988274097442627,1.760231614112854,-2.6785566806793213,0.5942155718803406,8.65186595916748,-5.310396194458008,0.07760272920131683,-0.05717693641781807,0.12267690896987915,16.275272369384766,-3.7901611328125,34.98293685913086,0.20648488402366638,0.2028980255126953,-0.01944732666015625,0.3877306878566742,8.448967933654785,-5.290948867797852
3_20251106_150647,1762412770150,3,0.11425337940454483,0.2527365982532501,0.8375459909439087,0.47073033452033997,0.988274097442627,1.760231614112854,-2.6785566806793213,0.5942155718803406,8.65186595916748,-5.310396194458008,0.08493310213088989,-0.052290018647909164,0.09030108153820038,16.263086318969727,-3.79095458984375,34.98244857788086,0.20648488402366638,0.2028980255126953,-0.01944732666015625,0.3877306878566742,8.448967933654785,-5.290948867797852
3_20251106_150647,1762412770169,3,0.11401566118001938,0.25398626923561096,0.8375412821769714,0.4701233506202698,0.9881574511528015,1.7633163928985596,-2.6841304302215576,0.7342703342437744,8.981054306030273,-5.309199333190918,0.08493310213088989,-0.052290018647909164,0.09030108153820038,16.204368591308594,-3.7571182250976562,34.9672737121582,0.2229345440864563,0.3633270263671875,-0.022214889526367188,0.5113357901573181,8.617727279663086,-5.286984443664551
3_20251106_150647,1762412770188,3,0.11363574117422104,0.2548184096813202,0.8375396728515625,0.4697677791118622,0.9881574511528015,1.7633163928985596,-2.6841304302215576,0.7342703342437744,8.981054306030273,-5.309199333190918,0.10814596712589264,0.025900663807988167,-0.02698494866490364,16.13589096069336,-3.6743850708007812,35.00672912597656,0.2229345440864563,0.3633270263671875,-0.022214889526367188,0.5113357901573181,8.617727279663086,-5.286984443664551
3_20251106_150647,1762412770206,3,0.11305838823318481,0.254831999540329,0.8377426862716675,0.4695377051830292,0.9901325106620789,1.7705405950546265,-2.69053316116333,0.6816002130508423,9.101957321166992,-5.523470878601074,0.10753510147333145,0.02162461169064045,-0.04347829520702362,16.11474609375,-3.6135940551757812,35.04761505126953,0.10513865947723389,0.31527042388916016,-0.1603527069091797,0.5764615535736084,8.786686897277832,-5.3631181716918945
3_20251106_150647,1762412770227,3,0.11252333968877792,0.2545261085033417,0.838105320930481,0.46918487548828125,0.991683840751648,1.776239037513733,-2.694291591644287,0.6756149530410767,9.19293212890625,-5.400175094604492,0.10203731805086136,-0.011972947977483273,-0.022708894684910774,16.080612182617188,-3.5662918090820312,35.10126495361328,0.0793226957321167,0.3249959945678711,-0.029645919799804688,0.59629225730896,8.867936134338379,-5.3705291748046875
3_20251106_150647,1762412770246,3,0.11218108981847763,0.25427770614624023,0.8384873270988464,0.4687187671661377,0.991683840751648,1.776239037513733,-2.694291591644287,0.6756149530410767,9.19293212890625,-5.400175094604492,0.11120028793811798,-0.035796672105789185,0.006001747213304043,16.022911071777344,-3.5078811645507812,35.140682220458984,0.0793226957321167,0.3249959945678711,-0.029645919799804688,0.59629225730896,8.867936134338379,-5.3705291748046875
3_20251106_150647,1762412770264,3,0.11203533411026001,0.2543768882751465,0.8387185335159302,0.4682859182357788,0.9954619407653809,1.788195013999939,-2.698721170425415,0.8575664162635803,9.224056243896484,-5.038665771484375,0.16251292824745178,-0.0504574254155159,0.03532325476408005,15.988368034362793,-3.4727249145507812,35.15351867675781,0.18790048360824585,0.22619342803955078,0.23422718048095703,0.6696659326553345,8.997862815856934,-5.272892951965332
3_20251106_150647,1762412770288,3,0.11183236539363861,0.2546320855617523,0.8388392329216003,0.46797946095466614,0.9997327923774719,1.7968201637268066,-2.7001242637634277,1.040714979171753,9.226449966430664,-5.096124649047852,0.25292089581489563,-0.08405497670173645,0.06281216442584991,15.978704452514648,-3.4236984252929688,35.19463348388672,0.29683923721313477,0.18286991119384766,0.14141464233398438,0.7438757419586182,9.043580055236816,-5.237539291381836
3_20251106_150647,1762412770302,3,0.11141667515039444,0.25531378388404846,0.839017391204834,0.46738743782043457,1.0029268264770508,1.8017867803573608,-2.700996160507202,1.299277663230896,9.168991088867188,-5.3008198738098145,0.25292089581489563,-0.08405497670173645,0.06281216442584991,16.00641632080078,-3.3479843139648438,35.318843841552734,0.44432157278060913,0.10032844543457031,-0.05062437057495117,0.8549560904502869,9.068662643432617,-5.250195503234863
3_20251106_150647,1762412770321,3,0.11095450073480606,0.25673335790634155,0.8394003510475159,0.4660302400588989,1.0029268264770508,1.8017867803573608,-2.700996160507202,1.299277663230896,9.168991088867188,-5.3008198738098145,0.4080805480480194,-0.3235139548778534,0.12206603586673737,16.119009017944336,-3.2904739379882812,35.31079864501953,0.44432157278060913,0.10032844543457031,-0.05062437057495117,0.8549560904502869,9.068662643432617,-5.250195503234863
3_20251106_150647,1762412770340,3,0.11083801090717316,0.25924545526504517,0.8398956656455994,0.4637693762779236,1.0159120559692383,1.8140857219696045,-2.7075724601745605,1.502776026725769,8.959507942199707,-6.1327691078186035,0.46183663606643677,-0.6539918184280396,0.24973678588867188,16.24629783630371,-3.1939544677734375,35.249969482421875,0.4159454107284546,-0.08786201477050781,-0.6349458694458008,1.0868306159973145,9.047369956970215,-5.497823238372803
3_20251106_150647,1762412770360,3,0.11195705831050873,0.2639892101287842,0.8401713371276855,0.4603123068809509,1.0248839855194092,1.8194817304611206,-2.7133333683013916,1.725427269935608,8.906837463378906,-5.979546546936035,0.5375838279724121,-1.079764485359192,0.46231770515441895,16.407325744628906,-3.1452865600585938,35.18955612182617,0.510877251625061,-0.1124258041381836,-0.3853788375854492,1.2145500183105469,9.01926326751709,-5.594167709350586
3_20251106_150647,1762412770379,3,0.11516715586185455,0.2724287211894989,0.8399690985679626,0.45494064688682556,1.035620927810669,1.8250843286514282,-2.718627691268921,2.1767148971557617,9.28630256652832,-5.628811359405518,0.6011137366294861,-1.2233177423477173,0.5686081051826477,16.719816207885742,-2.998779296875,35.0963249206543,0.769731879234314,0.21363162994384766,-0.027715206146240234,1.4069830179214478,9.072670936584473,-5.601096153259277
3_20251106_150647,1762412770397,3,0.12077873945236206,0.282792329788208,0.8395619988441467,0.4478577971458435,1.0483468770980835,1.8308590650558472,-2.7233870029449463,2.6507463455200195,9.370096206665039,-5.5988850593566895,0.6725848913192749,-1.0846513509750366,0.40978333353996277,17.14055824279785,-2.8818511962890625,34.912105560302734,0.9950107336044312,0.23793983459472656,0.0017685890197753906,1.6557356119155884,9.132156372070312,-5.600653648376465
3_20251106_150647,1762412770418,3,0.12596531212329865,0.292766809463501,0.8393532037734985,0.44034823775291443,1.0483468770980835,1.8308590650558472,-2.7233870029449463,2.6507463455200195,9.370096206665039,-5.5988850593566895,0.6719740629196167,-0.8219795823097229,0.08663588762283325,17.601184844970703,-2.7000274658203125,34.75770950317383,0.9950107336044312,0.23793983459472656,0.0017685890197753906,1.6557356119155884,9.132156372070312,-5.600653648376465
3_20251106_150647,1762412770437,3,0.13026520609855652,0.2998617887496948,0.8401124477386475,0.432810515165329,1.085866928100586,1.8427149057388306,-2.7369580268859863,2.894944667816162,8.88888168334961,-6.232124328613281,0.5528554320335388,-0.6039009094238281,-0.2908785045146942,18.11055564880371,-2.5150222778320312,34.60527420043945,0.7789206504821777,-0.2060680389404297,-0.4464688301086426,2.1160240173339844,9.094949722290039,-5.785655498504639
3_20251106_150647,1762412770456,3,0.1341562122106552,0.3030839264392853,0.8418296575546265,0.4259871542453766,1.1045957803726196,1.845606803894043,-2.74501633644104,2.466400623321533,8.384923934936523,-6.27761173248291,0.3830350935459137,-0.45301729440689087,-0.5914239287376404,18.11055564880371,-2.5150222778320312,34.60527420043945,0.2803013324737549,-0.5680208206176758,-0.39356517791748047,2.1860992908477783,8.9529447555542,-5.88404655456543
3_20251106_150647,1762412770474,3,0.13838566839694977,0.3025040626525879,0.8441354632377625,0.4204474091529846,1.120718240737915,1.8454991579055786,-2.7533881664276123,1.8882259130477905,7.852236747741699,-6.3386616706848145,0.294459730386734,-0.43224790692329407,-0.7282576560974121,18.648317337036133,-2.2649688720703125,34.38755798339844,-0.23829877376556396,-0.8805665969848633,-0.3636922836303711,2.1265246868133545,8.732803344726562,-5.974969387054443
3_20251106_150647,1762412770494,3,0.14312492311000824,0.29958605766296387,0.8466130495071411,0.4159443974494934,1.1351597309112549,1.8416422605514526,-2.762432098388672,1.2789278030395508,7.501501083374023,-6.042990207672119,0.3005683720111847,-0.5758011341094971,-0.6995469927787781,19.187389373779297,-1.9899368286132812,34.18388748168945,-0.6780775785446167,-0.985041618347168,-0.054416656494140625,1.9570053815841675,8.486542701721191,-5.9885735511779785
3_20251106_150647,1762412770513,3,0.14885380864143372,0.2964622378349304,0.8489878177642822,0.41130566596984863,1.1448646783828735,1.8347724676132202,-2.770017623901367,0.7438467144966125,7.251317977905273,-5.7784423828125,0.36898520588874817,-0.6863676309585571,-0.5761523842811584,19.736038208007812,-1.7524566650390625,34.0474967956543,-0.9705269932746887,-0.9881801605224609,0.1681046485900879,1.7143737077713013,8.239498138427734,-5.946547031402588
3_20251106_150647,1762412770532,3,0.15534299612045288,0.29460808634757996,0.8510296940803528,0.4059840440750122,1.150463581085205,1.8252809047698975,-2.7764129638671875,0.4409932494163513,6.89579439163208,-5.7712602615356445,0.47894081473350525,-0.7340151071548462,-0.41305142641067505,20.314193725585938,-1.4252166748046875,33.88690185546875,-1.0187044143676758,-1.074963092803955,0.1402297019958496,1.4596976041793823,7.970757484436035,-5.911489963531494
3_20251106_150647,1762412770551,3,0.16168616712093353,0.2942112386226654,0.8528742790222168,0.39987853169441223,1.1529273986816406,1.810982584953308,-2.783275842666626,0.3260765075683594,6.563014984130859,-5.948423385620117,0.5717922449111938,-0.7755538821220398,-0.24200931191444397,20.904335021972656,-1.0974502563476562,33.75382995605469,-0.9068969488143921,-1.1261940002441406,-0.029546737670898438,1.2329734563827515,7.689208984375,-5.918876647949219
3_20251106_150647,1762412770570,3,0.16736043989658356,0.2954026460647583,0.8545680046081543,0.3929901719093323,1.1526561975479126,1.794331669807434,-2.789921760559082,0.32368242740631104,6.323604583740234,-6.083690166473389,0.5791226029396057,-0.8293099403381348,-0.1063973605632782,21.47503662109375,-0.683380126953125,33.62162399291992,-0.7274328470230103,-1.0924835205078125,-0.1318507194519043,1.0511152744293213,7.416088104248047,-5.951839447021484
3_20251106_150647,1762412770589,3,0.17275510728359222,0.2982444167137146,0.8558434247970581,0.3856656551361084,1.1505932807922363,1.7749083042144775,-2.796905994415283,0.3931112587451935,6.1021504402160645,-6.1962127685546875,0.5296425819396973,-0.8671835660934448,-0.029428403824567795,22.058422088623047,-0.2678375244140625,33.422325134277344,-0.5264031887054443,-1.051149845123291,-0.19549846649169922,0.9195144772529602,7.1533002853393555,-6.000714302062988
3_20251106_150647,1762412770608,3,0.178188294172287,0.3021329939365387,0.8565556406974792,0.3785195052623749,1.1472418308258057,1.7528398036956787,-2.804028034210205,0.41226404905319214,5.835208415985107,-6.178256988525391,0.4606149196624756,-0.8940616250038147,-0.023319758474826813,22.640594482421875,0.12285614013671875,33.195465087890625,-0.40580040216445923,-1.054473876953125,-0.14203405380249023,0.8180644512176514,6.889682292938232,-6.0362229347229
3_20251106_150647,1762412770628,3,0.18385961651802063,0.30636754631996155,0.8568049669265747,0.37177926301956177,1.1423873901367188,1.7270199060440063,-2.8117527961730957,0.32368242740631104,5.655651092529297,-6.234518527984619,0.4606149196624756,-0.8940616250038147,-0.023319758474826813,23.309364318847656,0.5324783325195312,32.891204833984375,-0.3955056071281433,-0.9872250556945801,-0.15863656997680664,0.7191880345344543,6.642876148223877,-6.0758819580078125
3_20251106_150647,1762412770647,3,0.18991082906723022,0.31036990880966187,0.8567197322845459,0.3655621409416199,1.1364383697509766,1.700276494026184,-2.819002151489258,0.14771614968776703,5.38870906829834,-6.177060127258301,0.2743012011051178,-0.880011796951294,-0.12350156903266907,24.049842834472656,0.9217529296875,32.589359283447266,-0.4571775197982788,-1.003333568572998,-0.08094215393066406,0.604893684387207,6.392042636871338,-6.096117973327637
3_20251106_150647,1762412770665,3,0.1963711977005005,0.31374603509902954,0.8564020991325378,0.3599684238433838,1.1293189525604248,1.673250436782837,-2.825761079788208,-0.11204357445240021,5.191195487976074,-6.191424369812012,0.18633663654327393,-0.8622967004776001,-0.17114901542663574,24.813678741455078,1.2880401611328125,32.23390197753906,-0.5735498070716858,-0.9606776237487793,-0.07624530792236328,0.4615062177181244,6.1518731117248535,-6.115179061889648
3_20251106_150647,1762412770686,3,0.20310765504837036,0.31648558378219604,0.8558796644210815,0.3550409972667694,1.1186673641204834,1.639222264289856,-2.8333513736724854,-0.3622269034385681,4.936224460601807,-6.144739627838135,0.12708276510238647,-0.8751248121261597,-0.21146610379219055,25.613357543945312,1.632537841796875,31.784774780273438,-0.658986508846283,-0.9725193977355957,-0.023648738861083984,0.29675960540771484,5.908743858337402,-6.121090888977051
3_20251106_150647,1762412770704,3,0.2102154642343521,0.3186717629432678,0.8551957011222839,0.3505682051181793,1.1076432466506958,1.608611822128296,-2.839587450027466,-0.6578980684280396,4.730331897735596,-6.143542289733887,0.08248964697122574,-0.9129984378814697,-0.22551599144935608,26.3270263671875,1.9589157104492188,31.331951141357422,-0.7637261152267456,-0.9427294731140137,-0.01796102523803711,0.10582807660102844,5.673061370849609,-6.12558126449585
3_20251106_150647,1762412770724,3,0.21777784824371338,0.3205849230289459,0.8543286323547363,0.34629571437835693,1.0923784971237183,1.5736132860183716,-2.8465518951416016,-1.0876387357711792,4.788987159729004,-6.251276969909668,0.05072467774152756,-0.9661436676979065,-0.20596832036972046,27.091243743896484,2.3141250610351562,30.827552795410156,-0.9547734260559082,-0.7072596549987793,-0.1005563735961914,-0.1328652799129486,5.496246814727783,-6.150720596313477
3_20251106_150647,1762412770742,3,0.22585256397724152,0.32254210114479065,0.8531836271286011,0.34210360050201416,1.0761802196502686,1.5419155359268188,-2.8529016971588135,-1.4108420610427856,4.775819778442383,-6.311129570007324,0.0305661428719759,-1.027230143547058,-0.1632077842950821,27.863025665283203,2.5942459106445312,30.37612533569336,-1.0223814249038696,-0.5763416290283203,-0.1283273696899414,-0.38846060633659363,5.352161407470703,-6.182802200317383
3_20251106_150647,1762412770761,3,0.23438067734241486,0.3249044716358185,0.8516454100608826,0.33793923258781433,1.0562419891357422,1.5082889795303345,-2.859400987625122,-1.735242486000061,4.681252956390381,-6.230926990509033,0.006131554022431374,-1.0669363737106323,-0.11983639001846313,28.575878143310547,2.8963241577148438,29.8416748046875,-1.077425479888916,-0.5367269515991211,-0.03849983215332031,-0.657817006111145,5.217979907989502,-6.192427158355713
3_20251106_150647,1762412770779,3,0.24319672584533691,0.32740575075149536,0.8498252034187317,0.3338530957698822,1.0562419891357422,1.5082889795303345,-2.859400987625122,-1.735242486000061,4.681252956390381,-6.230926990509033,-0.04212675988674164,-1.057773470878601,-0.08135190606117249,29.29788589477539,3.1370849609375,29.238815307617188,-1.077425479888916,-0.5367269515991211,-0.03849983215332031,-0.657817006111145,5.217979907989502,-6.192427158355713
3_20251106_150647,1762412770799,3,0.2521468997001648,0.33024394512176514,0.8476201295852661,0.3300015330314636,1.0082285404205322,1.4406269788742065,-2.8714656829833984,-2.2739148139953613,4.371216773986816,-6.187833309173584,-0.11543052643537521,-1.0388365983963013,-0.025763217359781265,29.971755981445312,3.3870925903320312,28.64777374267578,-1.0737574100494385,-0.5779356956481934,0.004280567169189453,-1.2001574039459229,4.94915246963501,-6.192113876342773
3_20251106_150647,1762412770818,3,0.26098981499671936,0.33312690258026123,0.8450646996498108,0.326766699552536,0.9823229312896729,1.4084887504577637,-2.876689910888672,-2.4953689575195312,4.299393653869629,-6.171074867248535,-0.21255801618099213,-1.0376149415969849,0.07319687306880951,30.648136138916016,3.6753082275390625,28.003459930419922,-1.0361692905426025,-0.5198068618774414,0.016830921173095703,-1.4591996669769287,4.81920051574707,-6.187905788421631
3_20251106_150647,1762412770838,3,0.2698148787021637,0.3364127576351166,0.8419275283813477,0.324321448802948,0.9497047662734985,1.372238039970398,-2.882375478744507,-2.624650001525879,4.630976676940918,-6.156710147857666,-0.3432830572128296,-1.0498322248458862,0.18926115334033966,31.299339294433594,3.9492416381835938,27.371417999267578,-0.9323604106903076,-0.15057897567749023,0.024956226348876953,-1.6922895908355713,4.781555652618408,-6.181666374206543
3_20251106_150647,1762412770857,3,0.27865931391716003,0.3402721583843231,0.8380046486854553,0.3229737877845764,0.9191204905509949,1.3414711952209473,-2.8863136768341064,-2.621058940887451,4.924253463745117,-5.835900783538818,-0.49966445565223694,-1.0791536569595337,0.23263254761695862,31.966938018798828,4.063140869140625,26.574729919433594,-0.7430155277252197,0.11415815353393555,0.2766122817993164,-1.8780434131622314,4.810095310211182,-6.112513065338135
3_20251106_150647,1762412770875,3,0.2877790033817291,0.3442726135253906,0.8332650065422058,0.3230000436306,0.8896147012710571,1.3127092123031616,-2.8877828121185303,-2.6821084022521973,4.374808311462402,-5.269696235656738,-0.6493263244628906,-1.0675472021102905,0.1874285638332367,31.966938018798828,4.063140869140625,26.574729919433594,-0.643251895904541,-0.34822940826416016,0.6742534637451172,-2.0388565063476562,4.7230377197265625,-5.9439496994018555
3_20251106_150647,1762412770895,3,0.2975333333015442,0.3477136790752411,0.8279227614402771,0.32421138882637024,0.8896147012710571,1.3127092123031616,-2.8877828121185303,-2.6821084022521973,4.374808311462402,-5.269696235656738,-0.7134671211242676,-1.0626603364944458,0.22163698077201843,28.960987091064453,2.5037002563476562,25.206708908081055,-0.643251895904541,-0.34822940826416016,0.6742534637451172,-2.0388565063476562,4.7230377197265625,-5.9439496994018555
3_20251106_150647,1762412770914,3,0.30753976106643677,0.35054534673690796,0.8221888542175293,0.32640889286994934,0.8541266918182373,1.2800252437591553,-2.8853819370269775,-2.8700451850891113,4.482542991638184,-4.74179744720459,-0.8087620139122009,-1.120692491531372,0.18926116824150085,29.573795318603516,2.5018157958984375,24.36513328552246,-0.6649508476257324,-0.19239568710327148,0.9617218971252441,-2.205094337463379,4.674938678741455,-5.703519344329834
3_20251106_150647,1762412770934,3,0.3181171119213104,0.35377970337867737,0.8158518075942993,0.32867491245269775,0.788748025894165,1.2283626794815063,-2.8710811138153076,-3.4769492149353027,4.803351879119873,-4.0247650146484375,-0.929713249206543,-1.0663255453109741,0.11901172995567322,30.208057403564453,2.4511566162109375,23.53700065612793,-0.8720200061798096,0.05537080764770508,1.13128662109375,-2.604929208755493,4.747981071472168,-5.1560516357421875
3_20251106_150647,1762412770953,3,0.32921934127807617,0.35561496019363403,0.8092920780181885,0.3319622874259949,0.7533257603645325,1.2038578987121582,-2.858673334121704,-3.680447578430176,4.727937698364258,-3.779369831085205,-0.9462065696716309,-1.0327279567718506,0.09335540235042572,30.763256072998047,2.2832565307617188,22.649484634399414,-0.8604147434234619,-0.016034603118896484,1.1013455390930176,-2.820032835006714,4.743972301483154,-4.880715370178223
3_20251106_150647,1762412770971,3,0.340341180562973,0.3567160665988922,0.8026174902915955,0.33574795722961426,0.7533257603645325,1.2038578987121582,-2.858673334121704,-3.680447578430176,4.727937698364258,-3.779369831085205,-0.8551877737045288,-0.9887456893920898,0.11717912554740906,31.34241485595703,2.1047897338867188,21.722135543823242,-0.8604147434234619,-0.016034603118896484,1.1013455390930176,-2.820032835006714,4.743972301483154,-4.880715370178223
3_20251106_150647,1762412770991,3,0.35109126567840576,0.3576659858226776,0.796070396900177,0.339237242937088,0.677693784236908,1.1640545129776,-2.823068618774414,-4.378327369689941,5.856755256652832,-2.9546027183532715,-0.7910469770431519,-0.9160527586936951,0.08297070860862732,31.83155059814453,1.8447494506835938,20.857351303100586,-1.059746503829956,0.7949209213256836,1.2982149124145508,-3.3185808658599854,5.061834335327148,-4.252817630767822
3_20251106_150647,1762412771009,3,0.36122363805770874,0.3589830696582794,0.7897107005119324,0.3420608341693878,0.6366260051727295,1.1483750343322754,-2.8012521266937256,-4.926575660705566,5.5658721923828125,-3.070716619491577,-0.7122454047203064,-0.75173020362854,0.05670351907610893,32.342647552490234,1.5482177734375,20.03330421447754,-1.286395788192749,0.4032301902770996,0.9456808567047119,-3.6401798725128174,5.162642002105713,-4.016397476196289
3_20251106_150647,1762412771030,3,0.37022069096565247,0.3592243492603302,0.7841478586196899,0.3449734151363373,0.590348482131958,1.1338121891021729,-2.7781217098236084,-5.3539228439331055,5.529960632324219,-3.5842506885528564,-0.6010680198669434,-0.7022501230239868,0.1764329969882965,32.78456115722656,1.3218612670898438,19.248449325561523,-1.3709945678710938,0.2938547134399414,0.3457174301147461,-3.9829282760620117,5.236105918884277,-3.9299681186676025
3_20251106_150647,1762412771048,3,0.3778810501098633,0.35963502526283264,0.7791621088981628,0.3475269079208374,0.544342041015625,1.1223950386047363,-2.7569942474365234,-5.528692245483398,5.8651347160339355,-3.8380250930786133,-0.6273351907730103,-0.7144674062728882,0.407339870929718,33.12667465209961,1.05120849609375,18.485910415649414,-1.2366113662719727,0.5032229423522949,0.07355451583862305,-4.292080879211426,5.361911773681641,-3.9115796089172363
3_20251106_150647,1762412771069,3,0.3846915662288666,0.3617965579032898,0.7736847400665283,0.35003936290740967,0.544342041015625,1.1223950386047363,-2.7569942474365234,-5.528692245483398,5.8651347160339355,-3.8380250930786133,-0.6273351907730103,-0.7144674062728882,0.407339870929718,33.50534439086914,0.7829360961914062,17.724843978881836,-1.2366113662719727,0.5032229423522949,0.07355451583862305,-4.292080879211426,5.361911773681641,-3.9115796089172363
3_20251106_150647,1762412771086,3,0.39109158515930176,0.36523228883743286,0.766947329044342,0.35418158769607544,0.45001041889190674,1.1095389127731323,-2.715599775314331,-5.1623945236206055,6.8742475509643555,-3.1928157806396484,-0.8069294691085815,-0.7272955775260925,0.6480205655097961,33.78773880004883,0.5331573486328125,16.98741340637207,-0.5106511116027832,1.058870792388916,0.5538575649261475,-4.651743412017822,5.8153767585754395,-3.746673345565796
3_20251106_150647,1762412771106,3,0.39761507511138916,0.3697761297225952,0.7584604024887085,0.36042433977127075,0.4035249650478363,1.1100778579711914,-2.688586950302124,-4.626116752624512,7.459604263305664,-1.7635385990142822,-1.0812076330184937,-0.8629075288772583,0.9833852648735046,34.12251663208008,0.14813995361328125,16.3576602935791,0.020501136779785156,1.3153820037841797,1.586507797241211,-4.646617889404297,6.144222259521484,-3.350046396255493
3_20251106_150647,1762412771125,3,0.40453872084617615,0.3751768171787262,0.7483606338500977,0.36816728115081787,0.3647500276565552,1.1151454448699951,-2.65899920463562,-4.252636909484863,8.015035629272461,-0.7137264609336853,-1.0109583139419556,-0.7340151071548462,0.9400138854980469,34.354366302490234,-0.343414306640625,15.694839477539062,0.3151850700378418,1.4966506958007812,2.109055995941162,-4.567821979522705,6.51838493347168,-2.822782516479492
3_20251106_150647,1762412771143,3,0.4113014340400696,0.38076797127723694,0.7377400398254395,0.37627989053726196,0.3272182047367096,1.1259130239486694,-2.6215033531188965,-4.075473785400391,8.590816497802734,0.029641225934028625,-0.8600746393203735,-0.3638310432434082,0.719491720199585,34.596893310546875,-0.8594284057617188,15.04549789428711,0.3938784599304199,1.6579456329345703,2.2819390296936035,-4.4693522453308105,6.932870864868164,-2.252297878265381
3_20251106_150647,1762412771162,3,0.4162266254425049,0.38483569025993347,0.7287723422050476,0.3841194212436676,0.2923480272293091,1.1402277946472168,-2.5790140628814697,-4.183208465576172,8.422033309936523,0.25109535455703735,-0.7995990514755249,0.15845830738544464,0.34808599948883057,34.80014419555664,-1.42791748046875,14.38011360168457,0.22891521453857422,1.1913299560546875,2.0027146339416504,-4.412123680114746,7.230703353881836,-1.7516192197799683
3_20251106_150647,1762412771181,3,0.4185250401496887,0.38533732295036316,0.7230993509292603,0.3917642831802368,0.25860798358917236,1.1550624370574951,-2.5355191230773926,-4.635693550109863,7.681057929992676,-0.6107801795005798,-0.9309349656105042,0.6282132863998413,0.05731438472867012,34.877227783203125,-2.0565948486328125,13.91151237487793,-0.17885589599609375,0.36028385162353516,0.9126712679862976,-4.4568376541137695,7.320774078369141,-1.5234514474868774
3_20251106_150647,1762412771200,3,0.418496310710907,0.3807823359966278,0.7208237648010254,0.4003483057022095,0.25860798358917236,1.1550624370574951,-2.5355191230773926,-4.635693550109863,7.681057929992676,-0.6107801795005798,-1.1477919816970825,0.6697520017623901,0.06830994784832001,34.96531677246094,-2.68609619140625,13.605596542358398,-0.17885589599609375,0.36028385162353516,0.9126712679862976,-4.4568376541137695,7.320774078369141,-1.5234514474868774
3_20251106_150647,1762412771219,3,0.41779807209968567,0.37338787317276,0.7194067239761353,0.41046348214149475,0.19020770490169525,1.1834681034088135,-2.457578420639038,-5.408987045288086,7.651132583618164,-1.8533174991607666,-1.3053950071334839,0.325224369764328,0.29738423228263855,34.909706115722656,-3.2636947631835938,13.430278778076172,-0.6557250022888184,0.2606525421142578,-0.2019209861755371,-4.753262042999268,7.390480041503906,-1.6513965129852295
3_20251106_150647,1762412771237,3,0.4184229075908661,0.3670836091041565,0.7159879207611084,0.4213469326496124,0.15736742317676544,1.1990633010864258,-2.4224753379821777,-5.527495384216309,8.514204978942871,-1.108752727508545,-1.3377708196640015,0.022235477343201637,0.4910283386707306,34.93547821044922,-3.8990554809570312,13.311140060424805,-0.6193866729736328,0.8989801406860352,0.43411505222320557,-4.908108711242676,7.615224838256836,-1.5428677797317505
3_20251106_150647,1762412771258,3,0.4208443760871887,0.36347031593322754,0.7098381519317627,0.43232983350753784,0.11985904723405838,1.219979166984558,-2.3814167976379395,-5.843515396118164,9.08041000366211,-0.22533026337623596,-1.202158808708191,-0.07672460377216339,0.5179063677787781,34.832645416259766,-4.442970275878906,13.215749740600586,-0.7483253479003906,1.1721482276916504,1.0540300607681274,-5.095190048217773,7.908261775970459,-1.279360294342041
3_20251106_150647,1762412771277,3,0.42408469319343567,0.3615301251411438,0.7025250196456909,0.44261354207992554,0.08118334412574768,1.2446134090423584,-2.339796543121338,-6.09609317779541,9.475435256958008,-0.41925230622291565,-1.0451666116714478,0.13646718859672546,0.5551691055297852,34.74100875854492,-4.987434387207031,13.256011962890625,-0.8007221221923828,1.2537384033203125,0.6880865097045898,-5.295371055603027,8.221696853637695,-1.107338786125183
3_20251106_150647,1762412771296,3,0.4262263774871826,0.3598279058933258,0.6960294842720032,0.452103853225708,0.04447905719280243,1.2715433835983276,-2.301154375076294,-5.951250076293945,9.933905601501465,-0.7137264609336853,-1.0561622381210327,0.2940702736377716,0.6865050196647644,34.61181640625,-5.5472412109375,13.335088729858398,-0.5247030258178711,1.369767189025879,0.3148898482322693,-5.426547050476074,8.564138412475586,-1.0286163091659546
3_20251106_150647,1762412771317,3,0.42618829011917114,0.3578878939151764,0.6904575824737549,0.462112694978714,0.009175378829240799,1.3030098676681519,-2.2625293731689453,-5.584953308105469,10.708396911621094,-0.3306705951690674,-1.1752809286117554,0.33866339921951294,0.839832067489624,34.61181640625,-5.5472412109375,13.335088729858398,-0.1267251968383789,1.7154064178466797,0.5583565831184387,-5.45822811126709,8.992990493774414,-0.8890271782875061
3_20251106_150647,1762412771335,3,0.42506617307662964,0.35625046491622925,0.6842398643493652,0.47351890802383423,-0.02569112554192543,1.3418272733688354,-2.219954490661621,-5.314419746398926,11.411065101623535,0.41030293703079224,-1.112972617149353,0.27146825194358826,0.8734295964241028,34.4069938659668,-6.1500244140625,13.464494705200195,0.11504650115966797,1.9344596862792969,1.0394641160964966,-5.429466247558594,9.476605415344238,-0.6291611790657043
3_20251106_150647,1762412771355,3,0.4236508011817932,0.35513773560523987,0.6772136092185974,0.4855706989765167,-0.05675054341554642,1.3841017484664917,-2.1772007942199707,-5.280902862548828,12.116127014160156,0.948975145816803,-0.949260950088501,0.4089128375053406,0.7524784207344055,34.20680236816406,-6.8898773193359375,13.564455032348633,0.1188507080078125,2.111617088317871,1.2625091075897217,-5.399753570556641,10.004509925842285,-0.3135339617729187
3_20251106_150647,1762412771373,3,0.421893447637558,0.35425999760627747,0.6707939505577087,0.4965292513370514,-0.05675054341554642,1.3841017484664917,-2.1772007942199707,-5.280902862548828,12.116127014160156,0.948975145816803,-0.8881744146347046,0.8304094672203064,0.5673864483833313,33.93086242675781,-7.696067810058594,13.538507461547852,0.1188507080078125,2.111617088317871,1.2625091075897217,-5.399753570556641,10.004509925842285,-0.3135339617729187
3_20251106_150647,1762412771392,3,0.4185140132904053,0.351156085729599,0.6666381359100342,0.5070788860321045,-0.11365827918052673,1.4806619882583618,-2.090898275375366,-5.255764961242676,12.197526931762695,0.42107638716697693,-0.95903480052948,1.144394040107727,0.5337888598442078,33.66359329223633,-8.552635192871094,13.606609344482422,0.1042184829711914,1.3583297729492188,0.42648226022720337,-5.359983444213867,10.839197158813477,-0.00540587306022644
3_20251106_150647,1762412771412,3,0.4130851924419403,0.345010370016098,0.6644342541694641,0.5185128450393677,-0.13944479823112488,1.53352689743042,-2.0443520545959473,-4.794900894165039,11.992830276489258,1.2482373714447021,-1.0274516344070435,1.2286932468414307,0.7029983401298523,33.350799560546875,-9.361610412597656,13.619739532470703,0.45206594467163086,0.9229059219360352,1.0029146671295166,-5.24696683883667,11.069924354553223,0.24532274901866913
3_20251106_150647,1762412771430,3,0.40622901916503906,0.3380770981311798,0.6621788740158081,0.5312259197235107,-0.15896131098270416,1.5812110900878906,-2.0012543201446533,-4.219120025634766,12.079017639160156,1.5858054161071777,-1.0274516344070435,1.2286932468414307,0.7029983401298523,32.89724349975586,-10.269645690917969,13.868919372558594,0.8222775459289551,0.8072738647460938,1.0723861455917358,-5.041397571563721,11.271743774414062,0.5134192705154419
3_20251106_150647,1762412771449,3,0.39805570244789124,0.33218714594841003,0.6592654585838318,0.5445846319198608,-0.1739031970500946,1.6286758184432983,-1.957373023033142,-3.5798957347869873,12.150840759277344,1.7067073583602905,-0.6645979881286621,1.2622908353805542,0.977276623249054,32.3255615234375,-11.110954284667969,14.18235969543457,1.1692016124725342,0.703277587890625,0.9546304941177368,-4.7490973472595215,11.447563171386719,0.7520768642425537
3_20251106_150647,1762412771467,3,0.3882007598876953,0.3276524543762207,0.6567947268486023,0.5572834014892578,-0.18420086801052094,1.6779096126556396,-1.910809874534607,-3.0412232875823975,12.044303894042969,1.6851603984832764,-0.4874471127986908,1.3783551454544067,0.9778875112533569,31.6806640625,-11.957168579101562,14.50637435913086,1.3662993907928467,0.47739219665527344,0.746466875076294,-4.407522678375244,11.566911697387695,0.9386935234069824
3_20251106_150647,1762412771488,3,0.37678608298301697,0.32393932342529297,0.6554207801818848,0.5687875151634216,-0.1892104595899582,1.7302100658416748,-1.8599743843078613,-2.6761231422424316,11.7474365234375,1.5187705755233765,-0.42758241295814514,1.554895043373108,0.9277965426445007,30.97101593017578,-12.87054443359375,14.867166519165039,1.3851194381713867,0.14441967010498047,0.4640616178512573,-4.061242580413818,11.60301685333252,1.0547089576721191
3_20251106_150647,1762412771506,3,0.36417508125305176,0.31958213448524475,0.6550644040107727,0.5797709822654724,-0.18870288133621216,1.7727464437484741,-1.8196536302566528,-2.198500633239746,11.582242965698242,0.6185895204544067,-0.39642828702926636,1.729602336883545,0.9571180939674377,30.20389175415039,-13.702011108398438,15.430097579956055,1.4901936054229736,-0.016618728637695312,-0.3488955497741699,-3.6886942386627197,11.598861694335938,0.9674850702285767
3_20251106_150647,1762412771525,3,0.35021674633026123,0.31406542658805847,0.6554592847824097,0.5908334851264954,-0.181796595454216,1.816051721572876,-1.7811700105667114,-1.3569749593734741,11.836017608642578,0.257080614566803,-0.41780856251716614,1.7748063802719116,1.0737934112548828,29.351783752441406,-14.515403747558594,16.138803482055664,1.8653753995895386,0.18972396850585938,-0.56832355260849,-3.2223503589630127,11.646293640136719,0.825404167175293
3_20251106_150647,1762412771546,3,0.3347631096839905,0.3084435760974884,0.6559179425239563,0.6021361351013184,-0.1650833785533905,1.8628040552139282,-1.7409698963165283,-0.39933544397354126,12.028741836547852,0.763432502746582,-0.44163230061531067,1.758923888206482,1.1141104698181152,28.477916717529297,-15.292045593261719,16.77973747253418,2.2584121227264404,0.30595874786376953,-0.049577295780181885,-2.657747507095337,11.722783088684082,0.8130097985267639
3_20251106_150647,1762412771565,3,0.3186211585998535,0.30330267548561096,0.6556962132453918,0.6136371493339539,-0.14198637008666992,1.9045113325119019,-1.7042769193649292,0.5247867107391357,12.277729034423828,1.5929877758026123,-0.44163230061531067,1.758923888206482,1.1141104698181152,27.464672088623047,-16.165863037109375,17.46749496459961,2.546027421951294,0.4439573287963867,0.6239824295043945,-2.021240711212158,11.833771705627441,0.9690053462982178
3_20251106_150647,1762412771582,3,0.30246084928512573,0.29811400175094604,0.6552344560623169,0.624750554561615,-0.11551031470298767,1.9406299591064453,-1.6715885400772095,1.094582200050354,12.137674331665039,1.6516430377960205,-0.4049803912639618,1.7882453203201294,1.0127068758010864,26.308929443359375,-16.97454071044922,18.218530654907227,2.4926583766937256,0.24312210083007812,0.5461101531982422,-1.3980761766433716,11.894552230834961,1.1055328845977783
3_20251106_150647,1762412771602,3,0.28664612770080566,0.2917749881744385,0.655376136302948,0.6349673271179199,-0.07698075473308563,1.9804850816726685,-1.6343185901641846,1.5422786474227905,11.725889205932617,1.3475925922393799,-0.09954804182052612,1.8584948778152466,0.7146047949790955,25.202438354492188,-17.76775360107422,18.99882698059082,2.3522839546203613,-0.13493061065673828,0.1936478614807129,-0.8100053071975708,11.860819816589355,1.153944730758667
3_20251106_150647,1762412771621,3,0.2707071304321289,0.28436943888664246,0.6568610668182373,0.6437276005744934,-0.03421379253268242,2.0149314403533936,-1.601819634437561,2.1036949157714844,11.30572509765625,0.7394915223121643,0.025068363174796104,1.806571364402771,0.7262112498283386,24.149032592773438,-18.47069549560547,19.864030838012695,2.330960273742676,-0.4440755844116211,-0.3315625786781311,-0.22726526856422424,11.749800682067871,1.0710541009902954
3_20251106_150647,1762412771640,3,0.2546975016593933,0.2773056924343109,0.6590696573257446,0.651043713092804,0.014796998351812363,2.045379638671875,-1.5734710693359375,2.8279099464416504,10.92027473449707,0.150543212890625,0.13441313803195953,1.6123162508010864,0.8257821798324585,23.06500244140625,-19.075164794921875,20.6893253326416,2.4441401958465576,-0.6636199951171875,-0.7364087104797363,0.3837697505950928,11.583894729614258,0.8869519233703613
3_20251106_150647,1762412771658,3,0.23869892954826355,0.27173927426338196,0.6612796187400818,0.6571832299232483,0.014796998351812363,2.045379638671875,-1.5734710693359375,2.8279099464416504,10.92027473449707,0.150543212890625,0.23948189616203308,1.3979028463363647,0.8893120884895325,21.841678619384766,-19.575340270996094,21.43001365661621,2.4441401958465576,-0.6636199951171875,-0.7364087104797363,0.3837697505950928,11.583894729614258,0.8869519233703613
3_20251106_150647,1762412771677,3,0.22320130467414856,0.26870211958885193,0.6632335782051086,0.6618924140930176,0.12728366255760193,2.094693899154663,-1.5284794569015503,4.035732269287109,10.702411651611328,-0.1774483025074005,0.2956814467906952,1.2958883047103882,0.8379994630813599,20.719257354736328,-20.01812744140625,22.094579696655273,2.4190382957458496,-0.5854082107543945,-0.727757453918457,1.6166938543319702,11.287819862365723,0.5503091216087341
3_20251106_150647,1762412771698,3,0.20835965871810913,0.26700401306152344,0.6651641130447388,0.6654711365699768,0.19583770632743835,2.1155099868774414,-1.510670781135559,4.340980052947998,10.362449645996094,-0.5748686790466309,0.275522917509079,1.245186686515808,0.7304872870445251,19.56027603149414,-20.463294982910156,22.75767707824707,2.179429054260254,-0.7402963638305664,-0.900142252445221,2.161550998687744,11.10274600982666,0.3252735733985901
3_20251106_150647,1762412771717,3,0.194287970662117,0.26510635018348694,0.6671878695487976,0.6684542894363403,0.2686630189418793,2.1321723461151123,-1.497267723083496,4.694109916687012,10.07874870300293,-0.8310372829437256,0.20038652420043945,1.1999825239181519,0.6577944159507751,19.56027603149414,-20.463294982910156,22.75767707824707,2.0260472297668457,-0.8191986083984375,-0.9250487089157104,2.668062686920166,10.897947311401367,0.09401141107082367
3_20251106_150647,1762412771736,3,0.18116313219070435,0.2628534734249115,0.6688979864120483,0.6713147163391113,0.34075772762298584,2.1448278427124023,-1.4877915382385254,4.989780902862549,10.029670715332031,-0.8609635233879089,0.12952622771263123,1.0649815797805786,0.5765493512153625,18.46676254272461,-20.81713104248047,23.47913932800293,1.857374668121338,-0.6946210861206055,-0.763979971408844,3.132406234741211,10.724291801452637,-0.09698355942964554
3_20251106_150647,1762412771755,3,0.16920767724514008,0.26059988141059875,0.6700214743614197,0.6741867065429688,0.41473114490509033,2.154885768890381,-1.4802316427230835,5.131032943725586,10.008123397827148,-0.6227506995201111,0.13319140672683716,0.8578983545303345,0.4659828841686249,17.467195510864258,-21.02606964111328,24.085290908813477,1.5989015102386475,-0.5729351043701172,-0.42061370611190796,3.5321314334869385,10.581058502197266,-0.20213699340820312
3_20251106_150647,1762412771775,3,0.1590861976146698,0.25891152024269104,0.670738935470581,0.6765838265419006,0.49300479888916016,2.1632964611053467,-1.4739322662353516,4.946686744689941,10.039246559143066,-0.6167654395103455,0.182671457529068,0.6966301202774048,0.29371902346611023,16.505077362060547,-21.231407165527344,24.57126808166504,1.1316442489624023,-0.43344974517822266,-0.3317027688026428,3.815042495727539,10.472696304321289,-0.28506267070770264
3_20251106_150647,1762412771793,3,0.15085868537425995,0.25751030445098877,0.6716748476028442,0.678072988986969,0.5615274310112,2.1689693927764893,-1.4699938297271729,4.464276313781738,9.856098175048828,-0.8729339838027954,0.1924452930688858,0.6361544728279114,0.10190750658512115,15.55312728881836,-21.473487854003906,25.043428421020508,0.5193870067596436,-0.49327850341796875,-0.47029703855514526,3.9448893070220947,10.349376678466797,-0.40263694524765015
3_20251106_150647,1762412771812,3,0.14464835822582245,0.25573572516441345,0.6731018424034119,0.6786825060844421,0.630378007888794,2.1724443435668945,-1.4679456949234009,3.995032787322998,9.542470932006836,-1.0955851078033447,0.09592866897583008,0.6269915103912354,-0.019654572010040283,14.861863136291504,-22.72028350830078,25.007511138916016,0.0401148796081543,-0.6455249786376953,-0.5543585419654846,3.9549179077148438,10.187995910644531,-0.5412265658378601
3_20251106_150647,1762412771831,3,0.1397741734981537,0.2528701424598694,0.6746402978897095,0.6792498230934143,0.6950454711914062,2.1734652519226074,-1.4674781560897827,3.684997081756592,9.356927871704102,-1.0800235271453857,0.09592866897583008,0.6269915103912354,-0.019654572010040283,14.236000061035156,-22.789947509765625,25.38745880126953,-0.21593666076660156,-0.6648550033569336,-0.4310375452041626,3.9009337425231934,10.021782875061035,-0.6489859819412231
3_20251106_150647,1762412771851,3,0.13578149676322937,0.24942629039287567,0.6755661964416504,0.6804118156433105,0.7586016654968262,2.172232151031494,-1.4677715301513672,3.5353660583496094,9.280317306518555,-0.8992691040039062,-0.10260236263275146,0.4785514175891876,0.02799287624657154,13.612350463867188,-22.821807861328125,25.754680633544922,-0.29245424270629883,-0.5931720733642578,-0.20022648572921753,3.827820301055908,9.873489379882812,-0.6990426182746887
3_20251106_150647,1762412771869,3,0.13232053816318512,0.2464463859796524,0.6756632328033447,0.6820811033248901,0.8120776414871216,2.1698410511016846,-1.4678521156311035,3.476710319519043,9.33059310913086,-0.6299329996109009,-0.10260236263275146,0.4785514175891876,0.02799287624657154,13.050224304199219,-22.848892211914062,26.043258666992188,-0.28088808059692383,-0.43431758880615234,0.05528765916824341,3.757598400115967,9.764910697937012,-0.6852206587791443
3_20251106_150647,1762412771889,3,0.12932418286800385,0.24458225071430206,0.675208568572998,0.6837749481201172,0.8680126667022705,2.1666736602783203,-1.466637372970581,3.589233160018921,9.553243637084961,-0.25765061378479004,-0.10993273556232452,0.2268751561641693,0.1361159384250641,12.64419174194336,-22.915199279785156,26.269573211669922,-0.13469219207763672,-0.16933345794677734,0.3420560359954834,3.7239253520965576,9.722577095031738,-0.5997066497802734
3_20251106_150647,1762412771908,3,0.1267949491739273,0.2438710480928421,0.674384355545044,0.6853143572807312,0.918160617351532,2.1639482975006104,-1.4647241830825806,3.602400779724121,9.77110767364502,-0.301941454410553,-0.010361792519688606,0.1395215094089508,0.130618155002594,12.374504089355469,-22.946441650390625,26.380165100097656,-0.09721946716308594,0.03882408142089844,0.23821216821670532,3.699620246887207,9.732283592224121,-0.5401536226272583
3_20251106_150647,1762412771926,3,0.12481983006000519,0.24406583607196808,0.6736299991607666,0.6863486766815186,0.9628568887710571,2.1620538234710693,-1.4633088111877441,3.52219820022583,9.959043502807617,-0.6646474003791809,0.0947069451212883,0.06866119801998138,0.11901172995567322,12.10894775390625,-22.902481079101562,26.505855560302734,-0.1419377326965332,0.18140792846679688,-0.09959501028060913,3.6641359329223633,9.77763557434082,-0.5650523900985718
3_20251106_150647,1762412771946,3,0.12307608127593994,0.2447512447834015,0.6736164689064026,0.6864327788352966,0.9628568887710571,2.1620538234710693,-1.4633088111877441,3.52219820022583,9.959043502807617,-0.6646474003791809,0.07577013969421387,-0.022357648238539696,0.10129664838314056,11.86865234375,-22.855712890625,26.510883331298828,-0.1419377326965332,0.18140792846679688,-0.09959501028060913,3.6641359329223633,9.77763557434082,-0.5650523900985718
3_20251106_150647,1762412771966,3,0.12178733199834824,0.2459072321653366,0.6738982796669006,0.6859727501869202,1.011594533920288,2.161416530609131,-1.4628883600234985,3.4252374172210693,10.214015007019043,-0.9076484441757202,-0.017692171037197113,-0.059009529650211334,0.04204276576638222,11.64830207824707,-22.882972717285156,26.542339324951172,-0.19111871719360352,0.3491029739379883,-0.27407681941986084,3.616356134414673,9.864912033081055,-0.6335716247558594
3_20251106_150647,1762412771984,3,0.12141407281160355,0.2472926527261734,0.673782229423523,0.6856547594070435,1.089245319366455,2.165891170501709,-1.4618045091629028,3.273212194442749,10.848451614379883,-0.4036906361579895,-0.07572431862354279,-0.049235694110393524,-0.07279980182647705,11.476584434509277,-22.918800354003906,26.494396209716797,-0.23340225219726562,0.68060302734375,0.1873447299003601,3.5066144466400146,10.167848587036133,-0.5910353660583496
3_20251106_150647,1762412772004,3,0.12184727936983109,0.24794402718544006,0.6733005046844482,0.6858158707618713,1.1262998580932617,2.1715681552886963,-1.4600446224212646,3.0721077919006348,10.92027473449707,-0.2947591543197632,-0.04457021504640579,-0.05656607076525688,-0.1882532387971878,11.389167785644531,-22.9620361328125,26.490169525146484,-0.34760546684265137,0.6019401550292969,0.23702096939086914,3.419713258743286,10.318334579467773,-0.5317801237106323
3_20251106_150647,1762412772023,3,0.12310095131397247,0.2477165162563324,0.6729874014854431,0.6859815120697021,1.1578617095947266,2.178044319152832,-1.458167314529419,2.734539747238159,10.811344146728516,-0.42643460631370544,0.034231334924697876,-0.0913853570818901,-0.26949822902679443,11.350086212158203,-23.014244079589844,26.447093963623047,-0.5481388568878174,0.3944072723388672,0.08427640795707703,3.2826786041259766,10.416936874389648,-0.5107110142707825
3_20251106_150647,1762412772041,3,0.12495709955692291,0.24696046113967896,0.6733267307281494,0.6855854392051697,1.1578617095947266,2.178044319152832,-1.458167314529419,2.734539747238159,10.811344146728516,-0.42643460631370544,0.053779006004333496,-0.14453059434890747,-0.311647891998291,11.267814636230469,-22.95769500732422,26.512561798095703,-0.5481388568878174,0.3944072723388672,0.08427640795707703,3.2826786041259766,10.416936874389648,-0.5107110142707825
3_20251106_150647,1762412772060,3,0.1274195909500122,0.24615897238254547,0.6741372346878052,0.6846232414245605,1.206488013267517,2.1906375885009766,-1.4538451433181763,1.7828855514526367,10.457015991210938,-0.2265273481607437,0.01712711900472641,-0.18606938421726227,-0.3085935711860657,11.35683822631836,-22.889076232910156,26.490283966064453,-1.042224645614624,0.0047740936279296875,0.2194170206785202,2.8251101970672607,10.452241897583008,-0.4459443688392639
3_20251106_150647,1762412772079,3,0.13041070103645325,0.24548785388469696,0.6748723387718201,0.6835759282112122,1.2235304117202759,2.196247100830078,-1.4504915475845337,1.511155366897583,10.425893783569336,-0.01105845719575882,-0.007307469844818115,-0.14941750466823578,-0.2652221620082855,11.430561065673828,-22.87188720703125,26.507007598876953,-1.051163911819458,-0.021078109741210938,0.34790873527526855,2.562319278717041,10.446971893310547,-0.3589671850204468
3_20251106_150647,1762412772098,3,0.13333731889724731,0.24476884305477142,0.6753343343734741,0.682812511920929,1.2382694482803345,2.201700210571289,-1.4463889598846436,1.4931997060775757,10.293020248413086,-0.1738571673631668,0.009796742349863052,-0.10604611039161682,-0.17114901542663574,11.567625045776367,-22.812652587890625,26.486427307128906,-0.8552957773208618,-0.12316131591796875,0.1480880230665207,2.3484954833984375,10.416181564331055,-0.3219451904296875
3_20251106_150647,1762412772117,3,0.1355835497379303,0.2440788745880127,0.6756417751312256,0.6823127865791321,1.249497413635254,2.206648349761963,-1.4425888061523438,1.5925546884536743,10.425893783569336,-0.2863798141479492,0.025068363174796104,-0.158580482006073,-0.0703563392162323,11.705096244812012,-22.74126434326172,26.506656646728516,-0.6047526597976685,0.007769584655761719,0.028452306985855103,2.1973073482513428,10.418124198913574,-0.3148321211338043
3_20251106_150647,1762412772137,3,0.13703885674476624,0.24408669769763947,0.6758692860603333,0.6817938089370728,1.2589523792266846,2.212678909301758,-1.4384874105453491,1.6141016483306885,10.774234771728516,-0.21575388312339783,0.011018471792340279,-0.18790197372436523,-0.0495869405567646,11.705096244812012,-22.74126434326172,26.506656646728516,-0.466564416885376,0.28488826751708984,0.0792626142501831,2.0806660652160645,10.489346504211426,-0.29501649737358093
3_20251106_150647,1762412772156,3,0.13846620917320251,0.24496051669120789,0.6758674383163452,0.6811935901641846,1.266359806060791,2.2191855907440186,-1.4340462684631348,1.670362949371338,10.877181053161621,-0.025423042476177216,-0.009750928729772568,-0.15552616119384766,-0.08196276426315308,11.866841316223145,-22.668418884277344,26.541385650634766,-0.32824254035949707,0.31026744842529297,0.2156747579574585,1.998605489730835,10.566913604736328,-0.2410978078842163
3_20251106_150647,1762412772176,3,0.13997285068035126,0.2456510066986084,0.6757820248603821,0.6807215213775635,1.2730448246002197,2.226165533065796,-1.4287625551223755,1.8702702522277832,10.858028411865234,0.1469520628452301,-0.01402698177844286,-0.13475674390792847,-0.10700821876525879,11.993029594421387,-22.584999084472656,26.534358978271484,-0.10266828536987305,0.23289108276367188,0.3104398846626282,1.9729385375976562,10.625137329101562,-0.16348783671855927
3_20251106_150647,1762412772196,3,0.14147648215293884,0.24585039913654327,0.6756911277770996,0.6804289221763611,1.2803899049758911,2.233785629272461,-1.4218090772628784,2.0701775550842285,10.71198844909668,0.2558835446834564,-0.01402698177844286,-0.13475674390792847,-0.10700821876525879,12.16866683959961,-22.48583984375,26.529556274414062,0.07779121398925781,0.06948089599609375,0.335497111082077,1.9923863410949707,10.642507553100586,-0.0796135738492012
3_20251106_150647,1762412772214,3,0.143057718873024,0.24599407613277435,0.6757712960243225,0.6799665689468384,1.2867335081100464,2.2398080825805664,-1.4152648448944092,2.139606237411499,10.568342208862305,0.27862751483917236,0.06721802800893784,-0.18240420520305634,-0.12411244213581085,12.331202507019043,-22.41191864013672,26.456153869628906,0.11777591705322266,-0.059332847595214844,0.28659287095069885,2.0218303203582764,10.62767505645752,-0.007965363562107086
3_20251106_150647,1762412772232,3,0.14488571882247925,0.24681854248046875,0.6766911149024963,0.678364098072052,1.2930734157562256,2.2451651096343994,-1.409061312675476,2.1491827964782715,10.47976016998291,-0.013452552258968353,0.440456360578537,-0.27892085909843445,-0.12411244213581085,12.35789966583252,-22.36077880859375,26.525772094726562,0.1018819808959961,-0.1183319091796875,-0.004389750771224499,2.0473008155822754,10.598092079162598,-0.009062801487743855
3_20251106_150647,1762412772252,3,0.14653818309307098,0.24823568761348724,0.678835928440094,0.6753423810005188,1.300351858139038,2.250274419784546,-1.4033817052841187,2.2401585578918457,10.418710708618164,-0.2947591543197632,0.5039862394332886,-0.3131292760372162,-0.06791287660598755,12.507458686828613,-22.288726806640625,26.560009002685547,0.15428614616394043,-0.14350509643554688,-0.22855708003044128,2.0858724117279053,10.562215805053711,-0.0662020668387413
3_20251106_150647,1762412772272,3,0.1477220058441162,0.25010037422180176,0.6816604137420654,0.6715408563613892,1.308328628540039,2.254761219024658,-1.3988591432571411,2.4352774620056152,10.441454887390137,-0.3534145653247833,0.5198687314987183,-0.38215699791908264,-0.012935057282447815,12.658638000488281,-22.17967987060547,26.662620544433594,0.2795240879058838,-0.09660911560058594,-0.2297700047492981,2.1557533740997314,10.538064002990723,-0.12364456057548523
3_20251106_150647,1762412772290,3,0.148849755525589,0.25288164615631104,0.6844010949134827,0.6674501895904541,1.3159517049789429,2.258080005645752,-1.3955540657043457,2.6938400268554688,10.399558067321777,-0.28159162402153015,0.5760682821273804,-0.4322478771209717,-0.009269870817661285,12.824105262756348,-22.043785095214844,26.671634674072266,0.430469274520874,-0.11080455780029297,-0.12635764479637146,2.2633707523345947,10.51036262512207,-0.1552339792251587
3_20251106_150647,1762412772308,3,0.15014399588108063,0.256375789642334,0.687139093875885,0.6629993319511414,1.3260936737060547,2.2610206604003906,-1.392828345298767,3.0098609924316406,10.297808647155762,-0.44079911708831787,0.6524263620376587,-0.45484986901283264,-0.04775434732437134,13.030767440795898,-21.818008422851562,26.724517822265625,0.5971922874450684,-0.1700429916381836,-0.22845211625099182,2.4126687049865723,10.467851638793945,-0.21234700083732605
3_20251106_150647,1762412772328,3,0.1515371948480606,0.26007986068725586,0.6902529001235962,0.6579862236976624,1.3386114835739136,2.2630767822265625,-1.3914594650268555,3.194206714630127,10.17690658569336,-0.6586621403694153,0.7049607038497925,-0.5208232998847961,-0.14488184452056885,13.298559188842773,-21.587989807128906,26.752819061279297,0.6252303123474121,-0.2327566146850586,-0.35705211758613586,2.568976402282715,10.409663200378418,-0.3016100227832794
3_20251106_150647,1762412772347,3,0.15341755747795105,0.2637937068939209,0.6938038468360901,0.6523129343986511,1.3511085510253906,2.2636501789093018,-1.3916699886322021,3.006269931793213,9.942285537719727,-0.8286432027816772,0.7367256879806519,-0.5776337385177612,-0.2811046540737152,13.493358612060547,-21.339378356933594,26.954418182373047,0.349834680557251,-0.3739023208618164,-0.42162656784057617,2.656435251235962,10.316187858581543,-0.4070166349411011
3_20251106_150647,1762412772366,3,0.15642933547496796,0.2672478258609772,0.6977517008781433,0.6459497213363647,1.3629882335662842,2.2620458602905273,-1.3938872814178467,2.659125804901123,9.532894134521484,-1.1422700881958008,0.7153454422950745,-0.5965704917907715,-0.3525758385658264,13.74374008178711,-20.973899841308594,27.0927734375,0.0021524429321289062,-0.6266355514526367,-0.5882027745246887,2.656973361968994,10.159529685974121,-0.5540673136711121
3_20251106_150647,1762412772386,3,0.16020694375038147,0.27003806829452515,0.7020066976547241,0.6392180919647217,1.3629882335662842,2.2620458602905273,-1.3938872814178467,2.659125804901123,9.532894134521484,-1.1422700881958008,0.6713631749153137,-0.6723177433013916,-0.3226434588432312,14.144977569580078,-20.52301025390625,27.184532165527344,0.0021524429321289062,-0.6266355514526367,-0.5882027745246887,2.656973361968994,10.159529685974121,-0.5540673136711121
3_20251106_150647,1762412772405,3,0.16446305811405182,0.27281415462493896,0.7059388160705566,0.6325936317443848,1.3840439319610596,2.2503066062927246,-1.4061743021011353,2.4280953407287598,8.965493202209473,-1.6270751953125,0.646317720413208,-0.7889928817749023,-0.27316340804100037,14.445711135864258,-20.12897491455078,27.298343658447266,-0.1541430950164795,-0.7908058166503906,-0.7031964659690857,2.5822384357452393,9.756299018859863,-0.9238787293434143
3_20251106_150647,1762412772423,3,0.16929560899734497,0.27663081884384155,0.7093338370323181,0.6258273720741272,1.392187237739563,2.2421324253082275,-1.4150091409683228,2.344301700592041,8.987039566040039,-1.923943281173706,0.6212723255157471,-0.8647401332855225,-0.28415897488594055,14.786118507385254,-19.681922912597656,27.374134063720703,-0.19034957885742188,-0.6154079437255859,-0.8000516891479492,2.534651279449463,9.602447509765625,-1.1238915920257568
3_20251106_150647,1762412772443,3,0.17460444569587708,0.28102660179138184,0.7123456597328186,0.6189514994621277,1.3994837999343872,2.2314260005950928,-1.4267960786819458,2.107285976409912,8.918807983398438,-1.9335198402404785,0.5992811322212219,-0.951482892036438,-0.3330281674861908,15.188766479492188,-19.205917358398438,27.466419219970703,-0.3418922424316406,-0.5469112396240234,-0.6477025747299194,2.4491782188415527,9.465719223022461,-1.285817265510559
3_20251106_150647,1762412772462,3,0.18069002032279968,0.2855854630470276,0.7151079177856445,0.6118927001953125,1.4035836458206177,2.220937728881836,-1.4374973773956299,1.6332544088363647,8.626728057861328,-1.8245882987976074,0.6133310198783875,-1.0095150470733643,-0.39350375533103943,15.65042781829834,-18.763343811035156,27.533336639404297,-0.6527391672134399,-0.6711931228637695,-0.43101680278778076,2.2859935760498047,9.297921180725098,-1.3935714960098267
3_20251106_150647,1762412772480,3,0.18779386579990387,0.29030388593673706,0.7177258133888245,0.6044226884841919,1.4047534465789795,2.207014322280884,-1.4513919353485107,1.1257054805755615,8.281977653503418,-2.316575527191162,0.5950050950050354,-0.9740849137306213,-0.403888463973999,16.179561614990234,-18.203514099121094,27.578044891357422,-0.9282305240631104,-0.8127546310424805,-0.7384033203125,2.053936004638672,9.094732284545898,-1.578172206878662
3_20251106_150647,1762412772499,3,0.19500777125358582,0.2944490313529968,0.7205117344856262,0.5967701077461243,1.4022680521011353,2.1893465518951416,-1.468601107597351,0.8515812158584595,7.863010406494141,-2.6685080528259277,0.5210905075073242,-0.9917999505996704,-0.31409135460853577,16.843318939208984,-17.645751953125,27.45217514038086,-0.9618837833404541,-0.985377311706543,-0.8722686767578125,1.8134649991989136,8.848387718200684,-1.7962393760681152
3_20251106_150647,1762412772519,3,0.2020503729581833,0.2985563278198242,0.722851574420929,0.589512825012207,1.3965206146240234,2.168511152267456,-1.4882019758224487,0.6995558738708496,7.515865802764893,-2.866021156311035,0.47771912813186646,-1.0479995012283325,-0.16565124690532684,17.449382781982422,-17.242530822753906,27.388755798339844,-0.891127347946167,-1.0660176277160645,-0.8558254241943359,1.5906832218170166,8.581883430480957,-2.010195732116699
3_20251106_150647,1762412772537,3,0.208871990442276,0.3036397099494934,0.7243746519088745,0.5826292037963867,1.389061450958252,2.147653341293335,-1.507834553718567,0.5571070313453674,7.345884799957275,-3.1772541999816895,0.44106724858283997,-1.1377967596054077,-0.02759581431746483,18.10588264465332,-16.822219848632812,27.192401885986328,-0.8268609642982483,-0.9887986183166504,-0.9336469173431396,1.3839679956436157,8.334683418273926,-2.24360728263855
3_20251106_150647,1762412772558,3,0.21543310582637787,0.3101027011871338,0.7250832915306091,0.5759158730506897,1.3779828548431396,2.1209771633148193,-1.5321855545043945,0.545136570930481,7.272864818572998,-3.0168495178222656,0.3359985053539276,-1.2807389497756958,0.06708821654319763,18.86126708984375,-16.382057189941406,26.905620574951172,-0.671065092086792,-0.8494553565979004,-0.618593692779541,1.216201663017273,8.122320175170898,-2.3982558250427246
3_20251106_150647,1762412772577,3,0.2223358303308487,0.31782254576683044,0.724764347076416,0.5694490671157837,1.366389513015747,2.0955207347869873,-1.5538079738616943,0.46134307980537415,7.2010416984558105,-2.650552272796631,0.27124685049057007,-1.3625949621200562,0.08663588762283325,18.86126708984375,-16.382057189941406,26.905620574951172,-0.6038869619369507,-0.737022876739502,-0.20183706283569336,1.0652300119400024,7.9380645751953125,-2.4487152099609375
3_20251106_150647,1762412772596,3,0.23016449809074402,0.3265073001384735,0.7232813239097595,0.5632773637771606,1.3538435697555542,2.070497512817383,-1.573791742324829,0.20756861567497253,7.080139636993408,-2.661325693130493,0.24803400039672852,-1.336938500404358,0.05120573565363884,19.585739135742188,-16.05677032470703,26.642513275146484,-0.686129093170166,-0.6863398551940918,-0.1700882911682129,0.8936977386474609,7.7664794921875,-2.4912374019622803
3_20251106_150647,1762412772615,3,0.2382824569940567,0.3350600600242615,0.7214605212211609,0.5571812987327576,1.3373503684997559,2.0411715507507324,-1.5961815118789673,-0.1754871904850006,6.808409690856934,-2.917494297027588,0.16556724905967712,-1.2789064645767212,0.0133321238681674,20.30990219116211,-15.743499755859375,26.325077056884766,-0.8553479909896851,-0.766456127166748,-0.3410055637359619,0.6798607707023621,7.574865818023682,-2.576488733291626
3_20251106_150647,1762412772634,3,0.24635282158851624,0.3427564203739166,0.7195404767990112,0.5514433979988098,1.3373503684997559,2.0411715507507324,-1.5961815118789673,-0.1754871904850006,6.808409690856934,-2.917494297027588,0.051335543394088745,-1.2288154363632202,0.012721259146928787,21.055307388305664,-15.490882873535156,25.95323944091797,-0.8553479909896851,-0.766456127166748,-0.3410055637359619,0.6798607707023621,7.574865818023682,-2.576488733291626
3_20251106_150647,1762412772653,3,0.25451192259788513,0.34967443346977234,0.7171974778175354,0.5464240908622742,1.2985984086990356,1.980800986289978,-1.6395595073699951,-0.6710655689239502,6.2745256423950195,-3.1473278999328613,-0.03601811081171036,-1.2349241971969604,0.06281216442584991,21.69927978515625,-15.3311767578125,25.440467834472656,-0.8860439658164978,-0.8722472190856934,-0.38046765327453613,0.2149784117937088,7.146772861480713,-2.766860246658325
3_20251106_150647,1762412772671,3,0.2627178728580475,0.3563095033168793,0.7142362594604492,0.5421157479286194,1.2775367498397827,1.9507687091827393,-1.6594278812408447,-0.8949138522148132,6.224249839782715,-2.8911590576171875,-0.1160413920879364,-1.2746304273605347,0.171546071767807,22.329343795776367,-15.209396362304688,24.87234878540039,-0.8879138231277466,-0.7380180358886719,-0.09943890571594238,-0.00700002908706665,6.962267875671387,-2.791720151901245
3_20251106_150647,1762412772691,3,0.27105262875556946,0.3634740710258484,0.7104406356811523,0.5382296442985535,1.2775367498397827,1.9507687091827393,-1.6594278812408447,-0.8949138522148132,6.224249839782715,-2.8911590576171875,-0.23027309775352478,-1.2434762716293335,0.2686735689640045,23.045007705688477,-15.081649780273438,24.267112731933594,-0.8879138231277466,-0.7380180358886719,-0.09943890571594238,-0.00700002908706665,6.962267875671387,-2.791720151901245
3_20251106_150647,1762412772711,3,0.2791604995727539,0.3711812496185303,0.70558762550354,0.535200834274292,1.2510007619857788,1.9163293838500977,-1.6808030605316162,-0.9595544934272766,6.618078708648682,-2.599079132080078,-0.3109072148799896,-1.1512356996536255,0.26745185256004333,23.6809024810791,-15.083702087402344,23.602230072021484,-0.7620435953140259,-0.27535104751586914,0.1541128158569336,-0.19751091301441193,6.893429756164551,-2.7531919479370117
3_20251106_150647,1762412772729,3,0.28697144985198975,0.37845638394355774,0.7000569105148315,0.5332340002059937,1.201179027557373,1.8594597578048706,-1.7099659442901611,-1.239664077758789,6.750950813293457,-1.7791004180908203,-0.2858617603778839,-0.9850804805755615,0.27600395679473877,24.277320861816406,-15.138496398925781,22.94833755493164,-0.7027937173843384,-0.10650873184204102,0.6636395454406738,-0.5368703603744507,6.857459545135498,-2.442739963531494
3_20251106_150647,1762412772749,3,0.2941763401031494,0.38481637835502625,0.6946052312850952,0.5318836569786072,1.1739528179168701,1.8320232629776,-1.721114993095398,-1.4335861206054688,6.752148628234863,-1.854514479637146,-0.1722409427165985,-0.8751248121261597,0.3932900130748749,24.95914077758789,-15.187599182128906,22.284358978271484,-0.7173726558685303,-0.08424854278564453,0.47058045864105225,-0.7162134647369385,6.836397171020508,-2.3250949382781982
3_20251106_150647,1762412772767,3,0.2997126579284668,0.3908315896987915,0.6896815299987793,0.5308129191398621,1.1460113525390625,1.8065944910049438,-1.7299917936325073,-1.4730886220932007,7.068169593811035,-1.7000951766967773,-0.1056566834449768,-0.8421381711959839,0.601594865322113,25.5648136138916,-15.303581237792969,21.548538208007812,-0.6055001020431519,0.18541812896728516,0.4999997615814209,-0.8675885200500488,6.88275146484375,-2.2000949382781982
3_20251106_150647,1762412772787,3,0.3035728335380554,0.3979102075099945,0.6848196983337402,0.5296536684036255,1.1460113525390625,1.8065944910049438,-1.7299917936325073,-1.4730886220932007,7.068169593811035,-1.7000951766967773,-0.14108684659004211,-0.853744626045227,0.7750803828239441,26.056682586669922,-15.501914978027344,20.79320526123047,-0.6055001020431519,0.18541812896728516,0.4999997615814209,-0.8675885200500488,6.88275146484375,-2.2000949382781982
3_20251106_150647,1762412772806,3,0.3063138723373413,0.4062723219394684,0.6791518926620483,0.5290248990058899,1.1157265901565552,1.7822530269622803,-1.7372074127197266,-1.1498854160308838,7.586491584777832,-1.57201087474823,-0.2033950388431549,-0.815871000289917,0.8312799334526062,26.54051399230957,-15.827171325683594,20.170394897460938,-0.22583752870559692,0.5629920959472656,0.5024672746658325,-0.9240478873252869,7.023499488830566,-2.0744781494140625
3_20251106_150647,1762412772825,3,0.3087499439716339,0.4153396487236023,0.6725735068321228,0.5289719700813293,1.0688743591308594,1.7529281377792358,-1.740452766418457,-0.2820245623588562,8.951128005981445,-0.4743165969848633,-0.3023551106452942,-0.6423853635787964,0.6822289824485779,26.887380599975586,-16.211524963378906,19.554649353027344,0.47888731956481934,1.3495569229125977,1.1242724657058716,-0.7609118819236755,7.601571083068848,-1.5985890626907349
3_20251106_150647,1762412772844,3,0.3107960820198059,0.42318424582481384,0.6659716367721558,0.5299081206321716,1.0688743591308594,1.7529281377792358,-1.740452766418457,-0.2820245623588562,8.951128005981445,-0.4743165969848633,-0.374437153339386,-0.3650527894496918,0.37496402859687805,27.15921401977539,-16.638046264648438,18.908138275146484,0.47888731956481934,1.3495569229125977,1.1242724657058716,-0.7609118819236755,7.601571083068848,-1.5985890626907349
3_20251106_150647,1762412772863,3,0.31311559677124023,0.42800596356391907,0.6603441834449768,0.531709611415863,1.0474519729614258,1.7457867860794067,-1.7348212003707886,-0.07014681398868561,9.3413667678833,-0.01225549727678299,-0.28341832756996155,-0.2624274790287018,0.05364919826388359,27.357240676879883,-17.070281982421875,18.35329818725586,0.5526121258735657,1.3918366432189941,1.2690668106079102,-0.6227589249610901,7.949530124664307,-1.2813223600387573
3_20251106_150647,1762412772882,3,0.3154010474681854,0.4293748736381531,0.6567010283470154,0.5337632298469543,1.0154786109924316,1.7415603399276733,-1.7222555875778198,-0.9691308736801147,8.327466011047363,-1.2272605895996094,-0.18079304695129395,-0.24410153925418854,-0.1216689944267273,27.543996810913086,-17.478866577148438,17.866077423095703,-0.34195756912231445,0.0882730484008789,-0.08855283260345459,-0.6271733045578003,8.239192962646484,-1.1387077569961548
3_20251106_150647,1762412772901,3,0.3186294734477997,0.4294346868991852,0.6548318266868591,0.5340940356254578,0.9947230219841003,1.7396814823150635,-1.7175706624984741,-1.7232719659805298,8.308313369750977,-1.7324154376983643,-0.20706024765968323,-0.3235139548778534,-0.008048143237829208,27.612106323242188,-17.844627380371094,17.320941925048828,-0.8768789172172546,0.05529594421386719,-0.4749661684036255,-0.8463930487632751,8.25301742553711,-1.2574492692947388
3_20251106_150647,1762412772920,3,0.3217032849788666,0.42930838465690613,0.6534835696220398,0.5340042114257812,0.9947230219841003,1.7396814823150635,-1.7175706624984741,-1.7232719659805298,8.308313369750977,-1.7324154376983643,-0.2852509319782257,-0.35527893900871277,0.20025672018527985,27.740453720092773,-18.207359313964844,16.87287139892578,-0.8768789172172546,0.05529594421386719,-0.4749661684036255,-0.8463930487632751,8.25301742553711,-1.2574492692947388
3_20251106_150647,1762412772938,3,0.32477542757987976,0.43084126710891724,0.6507862210273743,0.5342041254043579,0.9509664177894592,1.744436264038086,-1.7115639448165894,-1.8681150674819946,9.939891815185547,-1.154240608215332,-0.393373966217041,-0.3284008800983429,0.3352578580379486,27.8332462310791,-18.55950927734375,16.383045196533203,-0.636856198310852,1.2098388671875,0.14936816692352295,-1.2312588691711426,8.730052947998047,-1.303608775138855
3_20251106_150647,1762412772958,3,0.3274020552635193,0.43307623267173767,0.6469541192054749,0.5354467630386353,0.9509664177894592,1.744436264038086,-1.7115639448165894,-1.8681150674819946,9.939891815185547,-1.154240608215332,-0.41231074929237366,-0.2703687250614166,0.3877921998500824,27.88263511657715,-18.814788818359375,15.933918952941895,-0.636856198310852,1.2098388671875,0.14936816692352295,-1.2312588691711426,8.730052947998047,-1.303608775138855
3_20251106_150647,1762412772978,3,0.3296925127506256,0.4353927671909332,0.6423071622848511,0.5377522110939026,0.9056218862533569,1.7684433460235596,-1.695030927658081,-1.107988715171814,10.869998931884766,0.1397697627544403,-0.22721877694129944,-0.1378110647201538,0.2992168366909027,27.99164390563965,-19.091079711914062,15.473198890686035,0.1514819860458374,1.417830467224121,0.9614933729171753,-1.2594707012176514,9.452168464660645,-0.8217235803604126
3_20251106_150647,1762412772997,3,0.33109307289123535,0.43724384903907776,0.6383593082427979,0.5400856733322144,0.8856788873672485,1.7853764295578003,-1.6841709613800049,-0.8506230711936951,10.460607528686523,-0.3821437358856201,0.014072798192501068,-0.22638645768165588,0.12206603586673737,28.041948318481445,-19.321922302246094,15.092181205749512,0.3270781636238098,0.8067512512207031,0.35166382789611816,-1.1777012348175049,9.65385627746582,-0.7338075637817383
3_20251106_150647,1762412773017,3,0.33181139826774597,0.43848153948783875,0.6363948583602905,0.5409591197967529,0.867444634437561,1.8006287813186646,-1.6766793727874756,-1.263604998588562,9.643022537231445,-1.5756019353866577,0.08737656474113464,-0.4065915644168854,0.030436336994171143,28.041948318481445,-19.321922302246094,15.092181205749512,-0.06872296333312988,-0.0086669921875,-0.6734354496002197,-1.1948820352554321,9.651689529418945,-0.902166485786438
3_20251106_150647,1762412773034,3,0.3337175250053406,0.440487265586853,0.6353367567062378,0.5393985509872437,0.867444634437561,1.8006287813186646,-1.6766793727874756,-1.263604998588562,9.643022537231445,-1.5756019353866577,-0.11176533997058868,-0.5916836261749268,0.032879795879125595,28.106948852539062,-19.513755798339844,14.658379554748535,-0.06872296333312988,-0.0086669921875,-0.6734354496002197,-1.1948820352554321,9.651689529418945,-0.902166485786438
3_20251106_150647,1762412773054,3,0.3369843065738678,0.4431553781032562,0.6336498260498047,0.5371617674827576,0.8475130796432495,1.8148249387741089,-1.6747831106185913,-1.753198266029358,9.304258346557617,-2.742724895477295,-0.5754116773605347,-0.5202124118804932,0.0133321238681674,28.16187858581543,-19.668716430664062,14.224879264831543,-0.44665300846099854,-0.27794456481933594,-1.4724466800689697,-1.3065452575683594,9.582202911376953,-1.2702782154083252
3_20251106_150647,1762412773073,3,0.3424724042415619,0.44560691714286804,0.6298236846923828,0.5361616015434265,0.82694011926651,1.82914400100708,-1.6760132312774658,-1.845370888710022,9.856098175048828,-2.267496347427368,-0.9645325541496277,-0.16957604885101318,-0.17175987362861633,28.239473342895508,-19.84760284423828,13.832381248474121,-0.43106043338775635,0.2191162109375,-0.7977745532989502,-1.4143104553222656,9.636981964111328,-1.469721794128418
3_20251106_150647,1762412773092,3,0.34886541962623596,0.44460758566856384,0.6248675584793091,0.5386627316474915,0.793861448764801,1.8618196249008179,-1.6711583137512207,-1.0301804542541504,11.150108337402344,0.30735665559768677,-1.0134016275405884,0.10836739838123322,-0.446038156747818,28.254024505615234,-20.068130493164062,13.436638832092285,0.2925760746002197,1.022603988647461,1.3179409503936768,-1.3227565288543701,10.127504348754883,-1.0105843544006348
3_20251106_150647,1762412773112,3,0.3554745614528656,0.4392591714859009,0.6208131313323975,0.5433970093727112,0.7780718207359314,1.8806793689727783,-1.664217233657837,-1.3641571998596191,10.604253768920898,-0.10083715617656708,-0.8215901851654053,0.13158026337623596,-0.5938674211502075,28.286300659179688,-20.187545776367188,13.057015419006348,-0.03312051296234131,0.38139915466308594,0.7277977466583252,-1.3310366868972778,10.222854614257812,-0.8286349177360535
3_20251106_150647,1762412773131,3,0.36154621839523315,0.43166643381118774,0.6187928915023804,0.5477625131607056,0.7610316276550293,1.8983986377716064,-1.6569886207580566,-1.7424248456954956,9.847718238830566,-0.7340763211250305,-0.7324039340019226,0.06438514590263367,-0.5230070948600769,28.344755172729492,-20.27971649169922,12.624835014343262,-0.3291105031967163,-0.3001089096069336,0.07564687728881836,-1.4133143424987793,10.1478271484375,-0.8097231984138489
3_20251106_150647,1762412773150,3,0.36750397086143494,0.42480599880218506,0.6174359321594238,0.5506846308708191,0.7610316276550293,1.8983986377716064,-1.6569886207580566,-1.7424248456954956,9.847718238830566,-0.7340763211250305,-0.7611145973205566,0.056443896144628525,-0.38678425550460815,28.37099266052246,-20.28717803955078,12.274128913879395,-0.3291105031967163,-0.3001089096069336,0.07564687728881836,-1.4133143424987793,10.1478271484375,-0.8097231984138489
3_20251106_150647,1762412773169,3,0.373119056224823,0.4191882610321045,0.6154569387435913,0.553422212600708,0.7292444705963135,1.923714280128479,-1.64437997341156,-1.5269558429718018,9.273134231567383,-0.6502828001976013,-0.8515225648880005,0.09065233170986176,-0.2768286168575287,28.436298370361328,-20.254051208496094,11.871621131896973,-0.044959068298339844,-0.5829792022705078,0.1437949538230896,-1.481996774673462,9.85611343383789,-0.7940777540206909
3_20251106_150647,1762412773187,3,0.3781035542488098,0.41397273540496826,0.6127699017524719,0.5569356083869934,0.7154654860496521,1.9330726861953735,-1.6374205350875854,-1.396477460861206,9.528106689453125,-0.301941454410553,-0.9229937195777893,0.11142173409461975,-0.1839771866798401,28.46243667602539,-20.26165008544922,11.534430503845215,0.06841540336608887,-0.2624053955078125,0.3937090039253235,-1.464892864227295,9.790512084960938,-0.6956504583358765
3_20251106_150647,1762412773207,3,0.38271772861480713,0.408907949924469,0.6092677116394043,0.561350405216217,0.7012854814529419,1.9433140754699707,-1.628138780593872,-1.3450044393539429,9.909964561462402,-0.058940425515174866,-0.9987409710884094,0.07538071274757385,-0.09723439812660217,28.46430206298828,-20.270706176757812,11.182744026184082,0.09591078758239746,0.09556198120117188,0.5093680620193481,-1.4409152269363403,9.81440258026123,-0.5683084726333618
3_20251106_150647,1762412773226,3,0.3870393633842468,0.4040702283382416,0.6049811840057373,0.5665028691291809,0.6890599131584167,1.9539422988891602,-1.6163381338119507,-1.232481837272644,10.319355964660645,0.6796390414237976,-1.0384471416473389,0.015515964478254318,-0.03370445966720581,28.440780639648438,-20.305923461914062,10.775483131408691,0.16674673557281494,0.4039630889892578,0.9983580112457275,-1.399228572845459,9.915392875671387,-0.3187189996242523
3_20251106_150647,1762412773246,3,0.39152100682258606,0.399699330329895,0.5996829271316528,0.5721294283866882,0.6890599131584167,1.9539422988891602,-1.6163381338119507,-1.232481837272644,10.319355964660645,0.6796390414237976,-0.9712520837783813,0.010629046708345413,-0.042256567627191544,28.373350143432617,-20.256553649902344,10.381623268127441,0.16674673557281494,0.4039630889892578,0.9983580112457275,-1.399228572845459,9.915392875671387,-0.3187189996242523
3_20251106_150647,1762412773265,3,0.3959334194660187,0.3957078754901886,0.5941632986068726,0.5776001811027527,0.6768661737442017,1.9664719104766846,-1.600388765335083,-1.2073438167572021,10.32414436340332,0.7430826425552368,-0.9706411361694336,0.08515454828739166,-0.05691732093691826,28.248111724853516,-20.37346649169922,9.968855857849121,0.15350782871246338,0.32700157165527344,0.8494412899017334,-1.3608516454696655,9.997142791748047,-0.10635867714881897
3_20251106_150647,1762412773284,3,0.40002578496932983,0.3915155231952667,0.5890803337097168,0.5828201174736023,0.6561093926429749,1.985729455947876,-1.5729373693466187,-1.586808443069458,9.558032989501953,-0.09724600613117218,-0.9706411361694336,0.08515454828739166,-0.05691732093691826,28.122970581054688,-20.49024200439453,9.542571067810059,-0.17104315757751465,-0.3471078872680664,-0.03956000134348869,-1.4157652854919434,9.90514087677002,-0.05768600478768349
3_20251106_150647,1762412773302,3,0.4038570821285248,0.38664963841438293,0.5839444398880005,0.5885664224624634,0.6463025808334351,1.9936106204986572,-1.5597167015075684,-1.4982267618179321,9.803426742553711,0.319327175617218,-1.2455302476882935,0.29162681102752686,-0.00804814137518406,28.007802963256836,-20.644027709960938,9.129502296447754,-0.06596922874450684,-0.08137130737304688,0.3016105592250824,-1.4322575330734253,9.884798049926758,0.017716627568006516
3_20251106_150647,1762412773322,3,0.4074384868144989,0.3809068500995636,0.5782755613327026,0.5954000353813171,0.6359760165214539,2.0042004585266113,-1.5406888723373413,-1.4240096807479858,10.631786346435547,1.6863576173782349,-1.3444904088974,0.4070802330970764,-0.038591377437114716,27.853652954101562,-20.849891662597656,8.65984058380127,0.006598353385925293,0.5975914001464844,1.3349127769470215,-1.4306080341339111,10.034194946289062,0.351444810628891
3_20251106_150647,1762412773340,3,0.4104691445827484,0.3735208213329315,0.572455644607544,0.6035658717155457,0.6359760165214539,2.0042004585266113,-1.5406888723373413,-1.4240096807479858,10.631786346435547,1.6863576173782349,-1.2772952318191528,0.4809948801994324,-0.03309359401464462,27.708969116210938,-21.105056762695312,8.17609691619873,0.006598353385925293,0.5975914001464844,1.3349127769470215,-1.4306080341339111,10.034194946289062,0.351444810628891
3_20251106_150647,1762412773359,3,0.4134005904197693,0.3654034733772278,0.566651463508606,0.6119529604911804,0.6249958276748657,2.0172674655914307,-1.516239881515503,-1.815444827079773,11.02322006225586,2.447680950164795,-1.1361855268478394,0.48893609642982483,0.089079350233078,27.49177360534668,-21.352561950683594,7.703190803527832,-0.30786943435668945,0.7912197113037109,1.676988959312439,-1.5075753927230835,10.232000350952148,0.770691990852356
3_20251106_150647,1762412773379,3,0.4152517318725586,0.3576628267765045,0.56135493516922,0.6200999021530151,0.6133219599723816,2.0308830738067627,-1.489264965057373,-2.150618553161621,10.896333694458008,2.5602035522460938,-1.0714339017868042,0.5659050345420837,0.23018908500671387,27.200672149658203,-21.605911254882812,7.33547306060791,-0.5144345760345459,0.5314664840698242,1.4316092729568481,-1.6361839771270752,10.364867210388184,1.1285942792892456
3_20251106_150647,1762412773397,3,0.41573366522789,0.35092276334762573,0.5562191009521484,0.6282030344009399,0.5896050930023193,2.0584681034088135,-1.4313143491744995,-1.956696629524231,10.947807312011719,2.6739234924316406,-1.0506645441055298,0.7192320823669434,0.2595106065273285,26.95398712158203,-21.931556701660156,6.9816484451293945,-0.17027008533477783,0.3843822479248047,0.989585280418396,-1.7864265441894531,10.563425064086914,1.6843382120132446
3_20251106_150647,1762412773417,3,0.4147668182849884,0.3439650237560272,0.5514881610870361,0.6368024349212646,0.5766079425811768,2.075014591217041,-1.395912766456604,-1.9626820087432861,11.136940956115723,3.000717878341675,-1.0983119010925293,0.8493462800979614,0.20697623491287231,26.663393020629883,-22.17261505126953,6.641226768493652,-0.14100432395935059,0.4588127136230469,1.0531036853790283,-1.8216776847839355,10.678128242492676,1.9476141929626465
3_20251106_150647,1762412773437,3,0.41303953528404236,0.3357768952846527,0.5473526120185852,0.6457997560501099,0.5639047622680664,2.092088460922241,-1.3571110963821411,-1.9387409687042236,11.123773574829102,3.6483216285705566,-1.095868468284607,0.9238717555999756,0.21552833914756775,26.342885971069336,-22.515586853027344,6.284195899963379,-0.09365057945251465,0.35651683807373047,1.3605659008026123,-1.845090389251709,10.767256736755371,2.2877557277679443
3_20251106_150647,1762412773455,3,0.4110892117023468,0.3266546428203583,0.543328046798706,0.6550549864768982,0.5532049536705017,2.107231378555298,-1.3197866678237915,-1.7795332670211792,10.988506317138672,3.972721815109253,-1.002406120300293,0.9428085684776306,0.283334344625473,26.342885971069336,-22.515586853027344,6.284195899963379,0.05244565010070801,0.17699909210205078,1.3479728698730469,-1.8319789171218872,10.811507225036621,2.624748945236206
3_20251106_150647,1762412773474,3,0.4084082841873169,0.3176789879798889,0.5395455956459045,0.6642087697982788,0.5430824160575867,2.122363328933716,-1.2792251110076904,-1.610749363899231,10.792190551757812,3.766829490661621,-1.002406120300293,0.9428085684776306,0.283334344625473,25.947866439819336,-22.87682342529297,6.018572807312012,0.17698371410369873,-0.015453338623046875,0.9136643409729004,-1.7877330780029297,10.80764389038086,2.8531651496887207
3_20251106_150647,1762412773494,3,0.4048788845539093,0.3091557025909424,0.5361771583557129,0.6730601191520691,0.5430824160575867,2.122363328933716,-1.2792251110076904,-1.610749363899231,10.792190551757812,3.766829490661621,-0.8582420349121094,1.0301622152328491,0.24912592768669128,25.565244674682617,-23.225379943847656,5.821286201477051,0.17698371410369873,-0.015453338623046875,0.9136643409729004,-1.7877330780029297,10.80764389038086,2.8531651496887207
3_20251106_150647,1762412773513,3,0.40086784958839417,0.30045634508132935,0.5334863066673279,0.6814861297607422,0.5269792675971985,2.149517774581909,-1.1964306831359863,-1.256422758102417,10.628194808959961,3.498690128326416,-0.8484682440757751,1.082696557044983,0.17826560139656067,25.103965759277344,-23.67902374267578,5.6054277420043945,0.37144923210144043,-0.1083364486694336,0.4037508964538574,-1.6278719902038574,10.736531257629395,3.0949392318725586
3_20251106_150647,1762412773532,3,0.3968467712402344,0.2911801338195801,0.5312846302986145,0.6895385384559631,0.5218229293823242,2.161562919616699,-1.1579511165618896,-1.0960181951522827,10.739520072937012,3.2880096435546875,-0.8399161100387573,1.1187375783920288,0.09763145446777344,24.6817684173584,-24.080467224121094,5.432644844055176,0.42548298835754395,0.0023908615112304688,0.15445637702941895,-1.5215011835098267,10.737129211425781,3.1335532665252686
3_20251106_150647,1762412773551,3,0.3930455446243286,0.2812883257865906,0.5294275879859924,0.6972076296806335,0.5181705951690674,2.1733505725860596,-1.120452880859375,-1.067288875579834,10.862815856933594,3.4771435260772705,-0.8130381107330322,1.085750937461853,0.05548178777098656,24.357749938964844,-24.474609375,5.169171333312988,0.3633699417114258,0.10054969787597656,0.2748723030090332,-1.4306588172912598,10.762266159057617,3.2022712230682373
3_20251106_150647,1762412773571,3,0.38954174518585205,0.2711675763130188,0.5277811288833618,0.7043951153755188,0.5159539580345154,2.1857411861419678,-1.08296537399292,-0.973919153213501,11.196792602539062,3.881746292114258,-0.7623363137245178,1.091248631477356,0.05792524665594101,24.00847053527832,-24.871551513671875,5.026364326477051,0.36539173126220703,0.3476219177246094,0.5435800552368164,-1.339310884475708,10.849170684814453,3.3381662368774414
3_20251106_150647,1762412773589,3,0.386248916387558,0.26137933135032654,0.526248037815094,0.7110244035720825,0.5154681205749512,2.198856830596924,-1.045552134513855,-0.7488738298416138,11.339241981506348,3.9942688941955566,-0.7623363137245178,1.091248631477356,0.05792524665594101,23.68759536743164,-25.19183349609375,4.913155555725098,0.4723496437072754,0.3920574188232422,0.5248823165893555,-1.2212234735488892,10.947184562683105,3.469386577606201
3_20251106_150647,1762412773608,3,0.3822324573993683,0.25161752104759216,0.5251897573471069,0.7174696326255798,0.5154681205749512,2.198856830596924,-1.045552134513855,-0.7488738298416138,11.339241981506348,3.9942688941955566,-0.5919050574302673,1.1529459953308105,0.14711149036884308,23.426450729370117,-25.521377563476562,4.869715690612793,0.4723496437072754,0.3920574188232422,0.5248823165893555,-1.2212234735488892,10.947184562683105,3.469386577606201
3_20251106_150647,1762412773627,3,0.3775080740451813,0.2424176037311554,0.5245714783668518,0.723564863204956,0.5193936824798584,2.227914810180664,-0.9711761474609375,-0.5717105269432068,11.548725128173828,4.140308856964111,-0.524709939956665,1.2158650159835815,0.10557270050048828,23.170127868652344,-25.774765014648438,4.746762275695801,0.420476496219635,0.38287925720214844,0.43743419647216797,-0.9921870231628418,11.16584587097168,3.7028746604919434
3_20251106_150647,1762412773647,3,0.37232139706611633,0.23315604031085968,0.5245204567909241,0.729310154914856,0.5224642157554626,2.2427918910980225,-0.9344719052314758,-0.7859823703765869,11.469719886779785,4.305501461029053,-0.4611799418926239,1.2433539628982544,0.0634230375289917,22.8890380859375,-26.030288696289062,4.676892280578613,0.1649637222290039,0.24309825897216797,0.4821014404296875,-0.9509460926055908,11.226621627807617,3.8234000205993652
3_20251106_150647,1762412773665,3,0.36708080768585205,0.22356747090816498,0.5251469612121582,0.7344997525215149,0.5250653028488159,2.2570960521698,-0.898181676864624,-1.0660920143127441,11.288966178894043,4.341412544250488,-0.3884870409965515,1.3209338188171387,0.07502946257591248,22.726093292236328,-26.116363525390625,4.709481239318848,-0.09211671352386475,0.04987525939941406,0.4144101142883301,-0.9739753007888794,11.239090919494629,3.927002429962158
3_20251106_150647,1762412773685,3,0.3615033030509949,0.2137213945388794,0.5263551473617554,0.739316463470459,0.5273317694664001,2.271388053894043,-0.8605588674545288,-1.0840476751327515,11.235098838806152,4.365354061126709,-0.3322874903678894,1.3887397050857544,0.17398953437805176,22.59406852722168,-26.300506591796875,4.74143123626709,-0.08805793523788452,-0.0031938552856445312,0.3506813049316406,-0.9959897398948669,11.238292694091797,4.014672756195068
3_20251106_150647,1762412773704,3,0.3550124764442444,0.2037341296672821,0.5281565189361572,0.7439820170402527,0.5299107432365417,2.2852730751037598,-0.8240393996238708,-0.8015440106391907,11.59780502319336,4.949513912200928,-0.25776201486587524,1.4015679359436035,0.29249730706214905,22.389448165893555,-26.46551513671875,4.892611503601074,0.1555565595626831,0.2876100540161133,0.7478728294372559,-0.9571005702018738,11.310194969177246,4.201641082763672
3_20251106_150647,1762412773723,3,0.34731388092041016,0.19428032636642456,0.5301101803779602,0.7487398982048035,0.5331778526306152,2.2985544204711914,-0.7891210317611694,-0.572907567024231,11.628927230834961,5.0345048904418945,-0.10871101915836334,1.453491449356079,0.34930774569511414,22.159046173095703,-26.6572265625,5.042283058166504,0.3073544502258301,0.2549858093261719,0.6662912368774414,-0.880262017250061,11.373941421508789,4.368213653564453
3_20251106_150647,1762412773742,3,0.33854514360427856,0.1854238361120224,0.5326949954032898,0.7531542181968689,0.5382267832756042,2.3128247261047363,-0.7506338953971863,-0.3538475036621094,11.456552505493164,4.904026031494141,-0.10871101915836334,1.453491449356079,0.34930774569511414,22.01195526123047,-26.857688903808594,5.370835304260254,0.42113161087036133,0.06608867645263672,0.42864990234375,-0.7749791145324707,11.390463829040527,4.475376129150391
3_20251106_150647,1762412773760,3,0.32881873846054077,0.1769348531961441,0.5362246036529541,0.7569910883903503,0.5440610647201538,2.32525634765625,-0.7164891362190247,-0.1587284803390503,11.484085083007812,4.978243350982666,0.12647190690040588,1.5005279779434204,0.4329961836338043,21.81814956665039,-27.012176513671875,5.806611061096191,0.49300050735473633,0.07489681243896484,0.40229368209838867,-0.6517289876937866,11.409188270568848,4.575949668884277
3_20251106_150647,1762412773780,3,0.3180243670940399,0.16877883672714233,0.5404381155967712,0.7604609727859497,0.5519729256629944,2.3374345302581787,-0.6802179217338562,-0.07493503391742706,11.098634719848633,4.651449203491211,0.24497967958450317,1.5683339834213257,0.42016804218292236,21.60028076171875,-27.156234741210938,6.2957353591918945,0.4614351987838745,-0.2484426498413086,0.060399532318115234,-0.5363702178001404,11.347077369689941,4.591049671173096
3_20251106_150647,1762412773799,3,0.3071742653846741,0.16090241074562073,0.5454400181770325,0.7630528211593628,0.5600388646125793,2.3470346927642822,-0.6495525240898132,-0.00790027529001236,11.017234802246094,4.450344085693359,0.29323798418045044,1.5652797222137451,0.4091724753379822,21.42280387878418,-27.223106384277344,6.841980934143066,0.4227759838104248,-0.2638740539550781,-0.1125645637512207,-0.43067625164985657,11.281108856201172,4.56290864944458
3_20251106_150647,1762412773818,3,0.29601746797561646,0.15308396518230438,0.5510655045509338,0.7650266289710999,0.569635272026062,2.3559277057647705,-0.6192519664764404,0.11898695677518845,11.01364517211914,4.398871421813965,0.32927900552749634,1.5762752294540405,0.32853832840919495,21.0933837890625,-27.376876831054688,7.583500862121582,0.43973058462142944,-0.21397113800048828,-0.13122987747192383,-0.3207436203956604,11.227616310119629,4.530101299285889
3_20251106_150647,1762412773838,3,0.28509318828582764,0.14511433243751526,0.5568146109580994,0.7665645480155945,0.569635272026062,2.3559277057647705,-0.6192519664764404,0.11898695677518845,11.01364517211914,4.398871421813965,0.32927900552749634,1.5762752294540405,0.32853832840919495,20.76830291748047,-27.443557739257812,8.407965660095215,0.43973058462142944,-0.21397113800048828,-0.13122987747192383,-0.3207436203956604,11.227616310119629,4.530101299285889
3_20251106_150647,1762412773856,3,0.27469485998153687,0.13682477176189423,0.5630184412002563,0.767353892326355,0.5913000106811523,2.369332790374756,-0.5670883059501648,-0.04500880837440491,10.729944229125977,3.7309179306030273,0.4093022644519806,1.553673267364502,0.2601214647293091,20.429840087890625,-27.524261474609375,9.2992582321167,0.14640040695667267,-0.3317251205444336,-0.534843921661377,-0.19140921533107758,11.06166934967041,4.265761852264404
3_20251106_150647,1762412773875,3,0.2646244168281555,0.1290976107120514,0.5695937871932983,0.7673790454864502,0.601399838924408,2.374274492263794,-0.5458672642707825,-0.14915208518505096,10.869998931884766,3.78239107131958,0.5278099775314331,1.3545314073562622,0.23996293544769287,20.429840087890625,-27.524261474609375,9.2992582321167,0.03380569815635681,-0.1533365249633789,-0.38669681549072266,-0.18295778334140778,11.023335456848145,4.169087886810303
3_20251106_150647,1762412773895,3,0.2550933063030243,0.12239571660757065,0.5762200951576233,0.7667574882507324,0.601399838924408,2.374274492263794,-0.5458672642707825,-0.14915208518505096,10.869998931884766,3.78239107131958,0.5711813569068909,1.3227664232254028,0.15505273640155792,20.083925247192383,-27.51812744140625,10.218939781188965,0.03380569815635681,-0.1533365249633789,-0.38669681549072266,-0.18295778334140778,11.023335456848145,4.169087886810303
3_20251106_150647,1762412773914,3,0.24609270691871643,0.1157258152961731,0.5829648971557617,0.7656355500221252,0.6201844215393066,2.381521701812744,-0.5087695717811584,-0.3670150935649872,10.649742126464844,3.516646146774292,0.6188288331031799,1.3026078939437866,0.06647735834121704,19.630464553833008,-27.469863891601562,11.229878425598145,-0.1451851725578308,-0.26227474212646484,-0.4694669246673584,-0.22182992100715637,10.912016868591309,3.9861130714416504
3_20251106_150647,1762412773933,3,0.23776941001415253,0.10877840220928192,0.5899938344955444,0.7638980746269226,0.6272857189178467,2.3828041553497314,-0.4951608180999756,-0.6219866275787354,10.352872848510742,3.156334400177002,0.6402090787887573,1.2738972902297974,0.0011148294433951378,19.156253814697266,-27.360267639160156,12.227639198303223,-0.32012537121772766,-0.4473152160644531,-0.6638228893280029,-0.3018612563610077,10.800188064575195,3.820157289505005
3_20251106_150647,1762412773952,3,0.22996880114078522,0.10152722895145416,0.5972104072570801,0.7616733312606812,0.6323785781860352,2.3820858001708984,-0.4841687083244324,-0.9044902920722961,10.094310760498047,3.1144375801086426,0.636543869972229,1.2317475080490112,0.006001747213304043,18.7047119140625,-27.27459716796875,13.266402244567871,-0.48210322856903076,-0.564702033996582,-0.5645756721496582,-0.4223870635032654,10.659012794494629,3.679013252258301
3_20251106_150647,1762412773972,3,0.2226005494594574,0.09429808706045151,0.6043714880943298,0.7591390013694763,0.6323785781860352,2.3820858001708984,-0.4841687083244324,-0.9044902920722961,10.094310760498047,3.1144375801086426,0.6676980257034302,1.1822675466537476,0.06525562703609467,18.254873275756836,-27.163414001464844,14.265143394470215,-0.48210322856903076,-0.564702033996582,-0.5645756721496582,-0.4223870635032654,10.659012794494629,3.679013252258301
3_20251106_150647,1762412773990,3,0.2151212841272354,0.08750046789646149,0.6113712787628174,0.7564995884895325,0.6361062526702881,2.3792383670806885,-0.4746195375919342,-0.9056872725486755,10.03445816040039,3.0845112800598145,0.6854130625724792,1.1260679960250854,0.12084431946277618,17.801109313964844,-26.902603149414062,15.293595314025879,-0.38664013147354126,-0.49964332580566406,-0.4756016731262207,-0.5190471410751343,10.534101486206055,3.560112953186035
3_20251106_150647,1762412774010,3,0.20750990509986877,0.0815630778670311,0.6183319687843323,0.7536263465881348,0.6384629607200623,2.3754398822784424,-0.4684129059314728,-0.8278791308403015,10.041640281677246,2.8307368755340576,0.6854130625724792,1.1260679960250854,0.12084431946277618,17.324581146240234,-26.617996215820312,16.294559478759766,-0.24706560373306274,-0.3939695358276367,-0.583500862121582,-0.5808135271072388,10.435609817504883,3.4142377376556396
3_20251106_150647,1762412774028,3,0.19977368414402008,0.07616307586431503,0.6250754594802856,0.7507132291793823,0.6418225765228271,2.365887403488159,-0.4638713002204895,-0.6555039882659912,9.962635040283203,2.2956557273864746,0.6591458916664124,1.0191667079925537,0.11351394653320312,16.825895309448242,-26.29717254638672,17.281818389892578,-0.03841698169708252,-0.31496143341064453,-0.759943962097168,-0.6170870065689087,10.277596473693848,3.0555996894836426
3_20251106_150647,1762412774047,3,0.19242116808891296,0.0712980180978775,0.6315701603889465,0.7476696372032166,0.6418225765228271,2.365887403488159,-0.4638713002204895,-0.6555039882659912,9.962635040283203,2.2956557273864746,0.5950050950050354,1.0191665887832642,0.02188423089683056,16.34050750732422,-25.950851440429688,18.310646057128906,-0.03841698169708252,-0.31496143341064453,-0.759943962097168,-0.6170870065689087,10.277596473693848,3.0555996894836426
3_20251106_150647,1762412774067,3,0.18561331927776337,0.06608501821756363,0.6376988887786865,0.7446613907814026,0.6441499590873718,2.3537075519561768,-0.46884211897850037,-0.7967557907104492,10.033260345458984,2.1986947059631348,0.5143709182739258,1.0289405584335327,-0.07951931655406952,15.86115550994873,-25.50353240966797,19.287521362304688,-0.13241708278656006,-0.16001415252685547,-0.5451631546020508,-0.6643387079238892,10.19327449798584,2.7438578605651855
3_20251106_150647,1762412774090,3,0.17944051325321198,0.05997492000460625,0.6432725787162781,0.7418925166130066,0.6441499590873718,2.3537075519561768,-0.46884211897850037,-0.7967557907104492,10.033260345458984,2.1986947059631348,0.5143709182739258,1.0289405584335327,-0.07951931655406952,15.443437576293945,-25.039688110351562,20.267112731933594,-0.13241708278656006,-0.16001415252685547,-0.5451631546020508,-0.6643387079238892,10.19327449798584,2.7438578605651855
3_20251106_150647,1762412774107,3,0.17387627065181732,0.05321161821484566,0.6484418511390686,0.7392284274101257,0.6433882117271423,2.3407881259918213,-0.4810480773448944,-1.1187621355056763,9.966226577758789,1.9365408420562744,0.5088732242584229,1.0668140649795532,-0.21513128280639648,14.963873863220215,-24.604248046875,21.17613983154297,-0.32568907737731934,-0.1671457290649414,-0.5494341850280762,-0.7930730581283569,10.13337230682373,2.4859750270843506
3_20251106_150647,1762412774124,3,0.16870512068271637,0.04582091420888901,0.6535586714744568,0.7364102602005005,0.6433882117271423,2.3407881259918213,-0.4810480773448944,-1.1187621355056763,9.966226577758789,1.9365408420562744,0.5088732242584229,1.0668140649795532,-0.21513128280639648,14.435171127319336,-24.172531127929688,22.137271881103516,-0.32568907737731934,-0.1671457290649414,-0.5494341850280762,-0.7930730581283569,10.13337230682373,2.4859750270843506
3_20251106_150647,1762412774143,3,0.16329005360603333,0.03812170401215553,0.6589352488517761,0.7332717180252075,0.6413458585739136,2.3339056968688965,-0.4902791976928711,-1.2217082977294922,9.781881332397461,1.393080472946167,0.5223121643066406,1.0374926328659058,0.0011148285120725632,13.932744026184082,-23.71343231201172,23.032329559326172,-0.3429081439971924,-0.2811927795410156,-0.8743155002593994,-0.8788001537322998,10.063074111938477,2.2673959732055664
3_20251106_150647,1762412774162,3,0.15706057846546173,0.0312517024576664,0.664315938949585,0.730095624923706,0.637877881526947,2.31974458694458,-0.5145204067230225,-0.6650803089141846,9.88123607635498,1.1752173900604248,0.5223121643066406,1.0374926328659058,0.0011148285120725632,13.417426109313965,-23.267684936523438,23.9266357421875,0.18619489669799805,-0.08477497100830078,-0.6750533580780029,-0.8512752056121826,9.966011047363281,1.8502707481384277
3_20251106_150647,1762412774182,3,0.15020355582237244,0.02566278725862503,0.6689091920852661,0.7275580763816833,0.637877881526947,2.31974458694458,-0.5145204067230225,-0.6650803089141846,9.88123607635498,1.1752173900604248,0.3622656762599945,0.9611344933509827,0.12084430456161499,12.890416145324707,-22.822059631347656,24.75286865234375,0.18619489669799805,-0.08477497100830078,-0.6750533580780029,-0.8512752056121826,9.966011047363281,1.8502707481384277
3_20251106_150647,1762412774200,3,0.1430782526731491,0.02087187021970749,0.672297477722168,0.7260227799415588,0.639528751373291,2.3056983947753906,-0.5439324378967285,-0.2078075408935547,9.98298454284668,1.2302815914154053,0.31828343868255615,0.890274167060852,0.15505273640155792,12.326637268066406,-22.390701293945312,25.509784698486328,0.42809921503067017,0.02216339111328125,-0.4142221212387085,-0.6359067559242249,9.960821151733398,1.6445037126541138
3_20251106_150647,1762412774219,3,0.13671039044857025,0.016607683151960373,0.6757069230079651,0.7241923809051514,0.6418817043304443,2.2977850437164307,-0.5602567195892334,-0.3131478726863861,9.42635726928711,0.8915167450904846,0.37509384751319885,0.9183740019798279,-0.01721111312508583,11.700716972351074,-21.9881591796875,26.236690521240234,0.2582071125507355,-0.42757129669189453,-0.6023896336555481,-0.5713549852371216,9.853928565979004,1.4939063787460327
3_20251106_150647,1762412774237,3,0.13082343339920044,0.011570560745894909,0.6792334318161011,0.7220757007598877,0.6442578434944153,2.2885372638702393,-0.5776345729827881,-0.466370165348053,8.990631103515625,0.40312063694000244,0.37509384751319885,0.9031023979187012,-0.03492618724703789,10.952540397644043,-21.594093322753906,27.01275634765625,0.08398789167404175,-0.6906375885009766,-0.8726285696029663,-0.5503580570220947,9.681268692016602,1.2757492065429688
3_20251106_150647,1762412774258,3,0.12512966990470886,0.00599253224208951,0.6829354763031006,0.7196567058563232,0.6469402313232422,2.2751986980438232,-0.5999440550804138,-0.5357990264892578,8.759600639343262,0.3660120964050293,0.28285327553749084,0.8420158624649048,0.015775583684444427,10.258846282958984,-21.09626007080078,27.779376983642578,0.011647224426269531,-0.7373342514038086,-0.7277896404266357,-0.5474462509155273,9.49693489074707,1.093801736831665
3_20251106_150647,1762412774277,3,0.1194775328040123,0.0006166656385175884,0.6862417459487915,0.7174935340881348,0.6493992805480957,2.2611887454986572,-0.6212739944458008,-0.49150821566581726,8.569269180297852,0.3085537254810333,0.23703841865062714,0.7790968418121338,0.10007491707801819,9.431217193603516,-20.595413208007812,28.621963500976562,0.04475042223930359,-0.7421321868896484,-0.6281983852386475,-0.5362586379051208,9.3114013671875,0.9367521405220032
3_20251106_150647,1762412774296,3,0.11365437507629395,-0.004100179765373468,0.6888549327850342,0.7159222960472107,0.6493992805480957,2.2611887454986572,-0.6212739944458008,-0.49150821566581726,8.569269180297852,0.3085537254810333,0.23703841865062714,0.7790968418121338,0.10007491707801819,9.431217193603516,-20.595413208007812,28.621963500976562,0.04475042223930359,-0.7421321868896484,-0.6281983852386475,-0.5362586379051208,9.3114013671875,0.9367521405220032
3_20251106_150647,1762412774317,3,0.10766103863716125,-0.007612360175698996,0.6913085579872131,0.714453399181366,0.6553964018821716,2.226980209350586,-0.6690691709518433,-0.20301932096481323,8.5441312789917,0.31453898549079895,0.20099739730358124,0.5946156978607178,0.3358686864376068,8.627142906188965,-20.117286682128906,29.383907318115234,0.2586652636528015,-0.4801359176635742,-0.37274327874183655,-0.46168458461761475,9.024267196655273,0.6872822642326355
3_20251106_150647,1762412774336,3,0.1011478453874588,-0.009898565709590912,0.6934878826141357,0.7132641077041626,0.6599921584129333,2.2110531330108643,-0.6898579597473145,0.21714501082897186,8.659048080444336,0.5707075595855713,0.23948189616203308,0.49932077527046204,0.3462534248828888,7.674524307250977,-19.686630249023438,30.16620635986328,0.5430637001991272,-0.29217529296875,-0.09325981140136719,-0.32591867446899414,8.951223373413086,0.6639673709869385
3_20251106_150647,1762412774355,3,0.09486614167690277,-0.010998264886438847,0.6954516172409058,0.7121983766555786,0.6599921584129333,2.2110531330108643,-0.6898579597473145,0.21714501082897186,8.659048080444336,0.5707075595855713,0.3207269012928009,0.4657232463359833,0.24668243527412415,6.750507354736328,-19.179046630859375,30.951068878173828,0.5430637001991272,-0.29217529296875,-0.09325981140136719,-0.32591867446899414,8.951223373413086,0.6639673709869385
3_20251106_150647,1762412774372,3,0.08914997428655624,-0.012012393213808537,0.6978112459182739,0.710610568523407,0.673686146736145,2.179271936416626,-0.7349579334259033,0.24467715620994568,8.68777847290039,-0.3785526156425476,0.27246859669685364,0.40402594208717346,0.1355050802230835,5.613597393035889,-18.560997009277344,31.810840606689453,0.34353870153427124,-0.18584251403808594,-0.7344390749931335,-0.09886154532432556,8.873620986938477,0.35588645935058594
3_20251106_150647,1762412774392,3,0.08450314402580261,-0.013458926230669022,0.7003003358840942,0.7087012529373169,0.6813917756080627,2.1621668338775635,-0.7613454461097717,0.00047907233238220215,8.562087059020996,-0.5221985578536987,0.15579339861869812,0.3203374445438385,0.0994640588760376,4.527743816375732,-17.901824951171875,32.64633560180664,0.07947249710559845,-0.24922752380371094,-0.7024680376052856,-0.07899342477321625,8.811314582824707,0.18026947975158691
3_20251106_150647,1762412774411,3,0.08054906874895096,-0.015279692597687244,0.70209801197052,0.7073448300361633,0.6881109476089478,2.1457762718200684,-0.7868280410766602,-0.16471374034881592,8.463930130004883,-0.4276316165924072,0.15579339861869812,0.3203374445438385,0.0994640588760376,3.4312984943389893,-17.22968292236328,33.35995864868164,-0.06857624650001526,-0.2779073715209961,-0.4863208830356598,-0.09613749384880066,8.741837501525879,0.058689266443252563
3_20251106_150647,1762412774430,3,0.07717180252075195,-0.016877856105566025,0.703143298625946,0.7066464424133301,0.6939447522163391,2.129347562789917,-0.8129783272743225,-0.2963891625404358,8.429214477539062,-0.6490857601165771,0.07149408757686615,0.2580292522907257,0.08480329811573029,2.2756295204162598,-16.535995483398438,34.031105041503906,-0.16020134091377258,-0.25009822845458984,-0.5662200450897217,-0.1361878216266632,8.679312705993652,-0.08286572992801666
3_20251106_150647,1762412774449,3,0.0740843266248703,-0.018550358712673187,0.7037569880485535,0.7063239812850952,0.6993429064750671,2.1133201122283936,-0.8394632339477539,-0.18865473568439484,8.526176452636719,-0.6814061403274536,-0.04823540151119232,0.18961241841316223,0.08602502942085266,1.1127943992614746,-15.766677856445312,34.59521484375,-0.0419735312461853,-0.12250900268554688,-0.47883233428001404,-0.14668120443820953,8.648685455322266,-0.20257380604743958
3_20251106_150647,1762412774468,3,0.07101496309041977,-0.02016053907573223,0.7039579749107361,0.7063947916030884,0.7045267820358276,2.0986218452453613,-0.8652939200401306,-0.1264081448316574,8.840999603271484,-0.44678443670272827,-0.10260236263275146,0.14379756152629852,0.05120573565363884,-0.01580810546875,-15.044532775878906,35.092159271240234,0.016218453645706177,0.15385150909423828,-0.19536849856376648,-0.1426265984773636,8.687148094177246,-0.2514159381389618
3_20251106_150647,1762412774487,3,0.06816285103559494,-0.021760407835245132,0.703632652759552,0.7069522142410278,0.7090066075325012,2.085707902908325,-0.8904282450675964,-0.30476853251457214,9.069636344909668,-0.46833130717277527,-0.1111544668674469,0.0784350335597992,-0.002550358884036541,-1.0192365646362305,-14.263542175292969,35.52748489379883,-0.12971355020999908,0.30599117279052734,-0.17353227734565735,-0.17505498230457306,8.76364517211914,-0.2947990298271179
3_20251106_150647,1762412774507,3,0.06599536538124084,-0.02331196330487728,0.7030851244926453,0.707652747631073,0.7122924327850342,2.0747125148773193,-0.9145947098731995,-0.528616726398468,9.227646827697754,-0.4000994861125946,-0.17040835320949554,0.049113523215055466,-0.05569558963179588,-2.014115333557129,-13.556289672851562,35.880619049072266,-0.28284940123558044,0.3712015151977539,-0.08424034714698792,-0.24576732516288757,8.8564453125,-0.3158591389656067
3_20251106_150647,1762412774527,3,0.06451793760061264,-0.02486516162753105,0.7022712826728821,0.7085437178611755,0.7141686677932739,2.0646884441375732,-0.9395337104797363,-0.7153564691543579,9.310243606567383,-0.18582764267921448,-0.17040835320949554,0.049113523215055466,-0.05569558963179588,-2.7259292602539062,-13.028327941894531,35.98448944091797,-0.3756713271141052,0.3630390167236328,0.10402518510818481,-0.3396851420402527,8.94720458984375,-0.2898528277873993
3_20251106_150647,1762412774545,3,0.06335382908582687,-0.026959380134940147,0.700954020023346,0.7098752856254578,0.7143704891204834,2.057549476623535,-0.959405243396759,-0.8781551718711853,9.362913131713867,-0.11280763894319534,-0.23821434378623962,0.07599157094955444,-0.10456477105617523,-3.332508087158203,-12.5804443359375,36.023345947265625,-0.43077602982521057,0.3325662612915039,0.14163616299629211,-0.44737914204597473,9.030346870422363,-0.25444379448890686
3_20251106_150647,1762412774564,3,0.062233489006757736,-0.029472552239894867,0.6992586851119995,0.7115445733070374,0.7126520872116089,2.0517466068267822,-0.9786707758903503,-1.1474913358688354,9.524515151977539,-0.013452552258968353,-0.24859903752803802,-0.006475166883319616,-0.045310888439416885,-3.8127946853637695,-12.261947631835938,36.064693450927734,-0.5600897669792175,0.39533424377441406,0.19279298186302185,-0.5874015688896179,9.129180908203125,-0.2062455415725708
3_20251106_150647,1762412774583,3,0.06132587045431137,-0.03143106773495674,0.6975144147872925,0.7132495045661926,0.7091873288154602,2.0479063987731934,-0.9960565567016602,-1.2552257776260376,9.738786697387695,0.12779927253723145,-0.24859903752803802,-0.006475166883319616,-0.045310888439416885,-4.153192520141602,-12.04693603515625,36.10955047607422,-0.5342593789100647,0.4876842498779297,0.2672358453273773,-0.7209663987159729,9.251102447509766,-0.13943657279014587
