session_id,timestamp,label,quaternion_w,quaternion_x,quaternion_y,quaternion_z,position_x,position_y,position_z,accelerometer_x,accelerometer_y,accelerometer_z,gyroscope_x,gyroscope_y,gyroscope_z,magnetometer_x,magnetometer_y,magnetometer_z,linear_acceleration_x,linear_acceleration_y,linear_acceleration_z,gravity_x,gravity_y,gravity_z
7_20251106_170909,1762420112227,7,0.07901415228843689,0.11550041288137436,0.8079880475997925,0.572338879108429,2.1238574981689453,4.664426326751709,1.2386691570281982,0.09624303132295609,9.159414291381836,-3.3280820846557617,0.014786743558943272,0.05382100120186806,0.014534762129187584,7.366359710693359,-3.550630569458008,29.33562469482422,0.04833683371543884,-0.14873313903808594,0.010423660278320312,0.04790619760751724,9.308147430419922,-3.338505744934082
7_20251106_170909,1762420112246,7,0.07850915193557739,0.11521423608064651,0.8081527352333069,0.5722334384918213,2.121936082839966,4.6637983322143555,1.2372045516967773,0.19679516553878784,9.106744766235352,-3.373569965362549,0.014786743558943272,0.05382100120186806,0.014534762129187584,7.283468723297119,-3.5181140899658203,29.292434692382812,0.11911118030548096,-0.16112232208251953,-0.028051376342773438,0.07768398523330688,9.267867088317871,-3.3455185890197754
7_20251106_170909,1762420112265,7,0.07762967050075531,0.11507962644100189,0.8084307909011841,0.5719877481460571,2.1206412315368652,4.662900924682617,1.2357953786849976,0.27101224660873413,9.158218383789062,-3.352023124694824,0.03189095854759216,0.01716911606490612,0.05179750919342041,7.259406089782715,-3.5076847076416016,29.345779418945312,0.1546626091003418,-0.08771896362304688,-0.0052034854888916016,0.11634963750839233,9.24593734741211,-3.3468196392059326
7_20251106_170909,1762420112284,7,0.07715094834566116,0.11607374250888824,0.8087437748908997,0.5714088678359985,2.1201999187469482,4.6619391441345215,1.2341992855072021,0.4038847088813782,9.206100463867188,-3.4406046867370605,0.06671024113893509,-0.030478332191705704,0.0933363139629364,7.210661888122559,-3.510862350463867,29.34381866455078,0.23002806305885315,-0.03186988830566406,-0.0750281810760498,0.17385664582252502,9.237970352172852,-3.3655765056610107
7_20251106_170909,1762420112302,7,0.0765984058380127,0.11726565659046173,0.8090183734893799,0.5708508491516113,2.1205520629882812,4.661224842071533,1.2322627305984497,0.47810178995132446,9.299469947814941,-3.5686888694763184,0.05143862962722778,-0.03780870512127876,0.07012344896793365,7.220239162445068,-3.5484142303466797,29.411102294921875,0.2433961182832718,0.04919910430908203,-0.1624898910522461,0.23470567166805267,9.25027084350586,-3.4061989784240723
7_20251106_170909,1762420112322,7,0.07611136138439178,0.1184709295630455,0.8092575669288635,0.5703278183937073,2.121392250061035,4.660765171051025,1.2299176454544067,0.41226404905319214,9.34376049041748,-3.5531272888183594,0.016619335860013962,-0.027424007654190063,0.02186513878405094,7.16071891784668,-3.527271270751953,29.4091796875,0.14204668998718262,0.07479190826416016,-0.11754274368286133,0.2702173590660095,9.26896858215332,-3.435584545135498
7_20251106_170909,1762420112340,7,0.07581697404384613,0.11938702315092087,0.8094221353530884,0.5699423551559448,2.1222944259643555,4.660638809204102,1.2276825904846191,0.3081207871437073,9.38206672668457,-3.438210964202881,-0.017589088529348373,0.008006146177649498,-0.0172302033752203,7.135345458984375,-3.541820526123047,29.448486328125,0.030322730541229248,0.09047889709472656,-0.0021011829376220703,0.277798056602478,9.291587829589844,-3.436109781265259
7_20251106_170909,1762420112361,7,0.0755370631814003,0.11960506439208984,0.8094645142555237,0.5698736310005188,2.1222944259643555,4.660638809204102,1.2276825904846191,0.3081207871437073,9.38206672668457,-3.438210964202881,-0.03469330072402954,0.05626445636153221,-0.031280092895030975,7.098787307739258,-3.5442028045654297,29.44701385498047,0.030322730541229248,0.09047889709472656,-0.0021011829376220703,0.277798056602478,9.291587829589844,-3.436109781265259
7_20251106_170909,1762420112379,7,0.07510484009981155,0.11924836039543152,0.8093768954277039,0.5701299905776978,2.123687982559204,4.660767555236816,1.2241499423980713,0.2506623864173889,9.322214126586914,-3.421452045440674,-0.029195517301559448,0.05565359443426132,-0.015397610142827034,7.095572471618652,-3.594970703125,29.500022888183594,-0.0144939124584198,0.01634502410888672,-0.007090568542480469,0.2651562988758087,9.305869102478027,-3.4143614768981934
7_20251106_170909,1762420112397,7,0.07462630420923233,0.1188112124800682,0.8092391490936279,0.5704794526100159,2.1241841316223145,4.660873889923096,1.2226581573486328,0.23510074615478516,9.316228866577148,-3.404693365097046,-0.0023174695670604706,-0.018261035904288292,0.014534762129187584,7.079974174499512,-3.6468029022216797,29.579574584960938,-0.024044454097747803,0.008287429809570312,0.007734537124633789,0.25914520025253296,9.307941436767578,-3.4124279022216797
7_20251106_170909,1762420112417,7,0.07453154027462006,0.11911696940660477,0.8092496991157532,0.5704130530357361,2.1246092319488525,4.661075592041016,1.2216203212738037,0.23270665109157562,9.34256362915039,-3.245485782623291,0.034334417432546616,-0.0665193572640419,0.03530416265130043,7.1279144287109375,-3.6563186645507812,29.59478759765625,-0.021150842308998108,0.02769756317138672,0.13355374336242676,0.25385749340057373,9.314866065979004,-3.3790395259857178
7_20251106_170909,1762420112437,7,0.07465355843305588,0.1198015883564949,0.8093901872634888,0.5700543522834778,2.1250569820404053,4.661528587341309,1.2206090688705444,0.2542535364627838,9.38685417175293,-3.355614185333252,0.06182332709431648,-0.046360813081264496,0.0316389724612236,7.1886467933654785,-3.652616500854492,29.62427520751953,0.00031682848930358887,0.057590484619140625,0.018740177154541016,0.2539367079734802,9.329263687133789,-3.374354362487793
7_20251106_170909,1762420112456,7,0.07472236454486847,0.1204385757446289,0.8095213174819946,0.5697247982025146,2.1250569820404053,4.661528587341309,1.2206090688705444,0.2542535364627838,9.38685417175293,-3.355614185333252,0.04655170813202858,-0.033532653003931046,0.005371790379285812,7.166290283203125,-3.616668701171875,29.637603759765625,0.00031682848930358887,0.057590484619140625,0.018740177154541016,0.2539367079734802,9.329263687133789,-3.374354362487793
7_20251106_170909,1762420112475,7,0.07480968534946442,0.1208198145031929,0.8096851706504822,0.5693997144699097,2.1260647773742676,4.662939071655273,1.218322515487671,0.26981520652770996,9.392839431762695,-3.4226489067077637,0.007456365041434765,-0.026202278211712837,-0.02944749779999256,7.1766581535339355,-3.6531410217285156,29.596755981445312,0.0059486329555511475,0.03551673889160156,-0.024013280868530273,0.2638665735721588,9.357322692871094,-3.3986356258392334
7_20251106_170909,1762420112495,7,0.0749702975153923,0.12088029086589813,0.8097663521766663,0.569250226020813,2.1260647773742676,4.662939071655273,1.218322515487671,0.26981520652770996,9.392839431762695,-3.4226489067077637,-0.018199952319264412,-0.0029894192703068256,-0.05632554739713669,7.202637672424316,-3.626169204711914,29.57123565673828,0.0059486329555511475,0.03551673889160156,-0.024013280868530273,0.2638665735721588,9.357322692871094,-3.3986356258392334
7_20251106_170909,1762420112514,7,0.07517268508672714,0.12058456987142563,0.8097296357154846,0.5693385004997253,2.1262309551239014,4.664806842803955,1.216417670249939,0.13694271445274353,9.396430969238281,-3.3604025840759277,-0.024308599531650543,0.017779981717467308,-0.07342976331710815,7.202637672424316,-3.626169204711914,29.57123565673828,-0.08793474733829498,0.021390914916992188,0.024852275848388672,0.2248774617910385,9.375040054321289,-3.3852548599243164
7_20251106_170909,1762420112531,7,0.07541358470916748,0.11991702020168304,0.8096534013748169,0.5695560574531555,2.1262309551239014,4.664806842803955,1.216417670249939,0.13694271445274353,9.396430969238281,-3.3604025840759277,-0.024308599531650543,0.017779981717467308,-0.07342976331710815,7.214019775390625,-3.6380672454833984,29.584976196289062,-0.08793474733829498,0.021390914916992188,0.024852275848388672,0.2248774617910385,9.375040054321289,-3.3852548599243164
7_20251106_170909,1762420112550,7,0.07564767450094223,0.11909878998994827,0.8095972537994385,0.5697764754295349,2.1249871253967285,4.66622257232666,1.215778112411499,0.018434815108776093,9.356927871704102,-3.216756582260132,-0.01209130510687828,0.018390845507383347,-0.056936413049697876,7.205654621124268,-3.575672149658203,29.545257568359375,-0.1426573395729065,-0.008718490600585938,0.11760687828063965,0.161092147231102,9.365646362304688,-3.3343634605407715
7_20251106_170909,1762420112570,7,0.0757918730378151,0.11835458129644394,0.8095576763153076,0.5699685215950012,2.1236491203308105,4.666769981384277,1.215885877609253,0.008858412504196167,9.311439514160156,-3.2550621032714844,0.03555614873766899,0.004951822105795145,-0.022117121145129204,7.25590705871582,-3.5472450256347656,29.53423309326172,-0.12178699672222137,-0.043365478515625,0.06344103813171387,0.13064540922641754,9.354804992675781,-3.3185031414031982
7_20251106_170909,1762420112589,7,0.07589548826217651,0.11792563647031784,0.809671938419342,0.5698813796043396,2.122182846069336,4.6670989990234375,1.215753197669983,0.036390550434589386,9.294681549072266,-3.402299165725708,0.0868687778711319,-0.017650172114372253,0.024308597669005394,7.220857620239258,-3.5243778228759766,29.519775390625,-0.07540388405323029,-0.04809856414794922,-0.06703686714172363,0.11179443448781967,9.342780113220215,-3.3352622985839844
7_20251106_170909,1762420112607,7,0.07588288933038712,0.11803339421749115,0.810032844543457,0.5693475604057312,2.1208956241607666,4.667303562164307,1.2152564525604248,0.12497220933437347,9.305455207824707,-3.4884867668151855,0.10275125503540039,-0.043306492269039154,0.06401480734348297,7.223677158355713,-3.474149703979492,29.520828247070312,0.010542221367359161,-0.029859542846679688,-0.12257957458496094,0.11442998796701431,9.335314750671387,-3.3659071922302246
7_20251106_170909,1762420112628,7,0.07583101838827133,0.1187092587351799,0.8105241656303406,0.5685141086578369,2.119945764541626,4.667446136474609,1.2141225337982178,0.25664764642715454,9.310243606567383,-3.5399599075317383,0.08076013624668121,-0.0359761118888855,0.08478420972824097,7.259221076965332,-3.4963417053222656,29.46770477294922,0.1137741208076477,-0.020056724548339844,-0.13924217224121094,0.14287352561950684,9.330300331115723,-3.4007177352905273
7_20251106_170909,1762420112647,7,0.07554972171783447,0.11961937695741653,0.8109166026115417,0.5678008198738098,2.119835615158081,4.667565822601318,1.2129064798355103,0.41226404905319214,9.33178997039795,-3.5196099281311035,0.05876900628209114,-0.036586977541446686,0.07928642630577087,7.236357688903809,-3.4726810455322266,29.4537353515625,0.21551242470741272,0.0011911392211914062,-0.09511375427246094,0.19675162434577942,9.330598831176758,-3.4244961738586426
7_20251106_170909,1762420112666,7,0.07521791011095047,0.12067577987909317,0.8111953735351562,0.5672227740287781,2.120680093765259,4.667568206787109,1.2112646102905273,0.5128161907196045,9.28989315032959,-3.542354106903076,0.06304505467414856,-0.05063686519861221,0.06340394169092178,7.223875045776367,-3.473878860473633,29.493789672851562,0.252851665019989,-0.03256416320800781,-0.09428620338439941,0.2599645256996155,9.322457313537598,-3.4480679035186768
7_20251106_170909,1762420112686,7,0.07489358633756638,0.12182420492172241,0.8114420175552368,0.5666671395301819,2.1223397254943848,4.667320251464844,1.2092941999435425,0.5870332717895508,9.231237411499023,-3.626147508621216,0.06976456940174103,-0.060410697013139725,0.05179750919342041,7.23978328704834,-3.4100284576416016,29.46856689453125,0.2616550028324127,-0.07297611236572266,-0.14246368408203125,0.32537826895713806,9.304213523864746,-3.4836838245391846
7_20251106_170909,1762420112705,7,0.07463541626930237,0.12310849130153656,0.8117232322692871,0.5660205483436584,2.1223397254943848,4.667320251464844,1.2092941999435425,0.5870332717895508,9.231237411499023,-3.626147508621216,0.0349452830851078,-0.05796724185347557,0.06218220666050911,7.286116600036621,-3.444927215576172,29.510284423828125,0.2616550028324127,-0.07297611236572266,-0.14246368408203125,0.32537826895713806,9.304213523864746,-3.4836838245391846
7_20251106_170909,1762420112723,7,0.07426093518733978,0.1245175451040268,0.8118765950202942,0.5655413866043091,2.1293513774871826,4.667325496673584,1.2035980224609375,1.026350498199463,9.456283569335938,-3.7255024909973145,0.0349452830851078,-0.05796724185347557,0.06218220666050911,7.3233795166015625,-3.4299869537353516,29.51202392578125,0.4911414384841919,0.11781883239746094,-0.14959263801574707,0.535209059715271,9.338464736938477,-3.5759098529815674
7_20251106_170909,1762420112742,7,0.07393994182348251,0.12638086080551147,0.8119054436683655,0.5651286244392395,2.1293513774871826,4.667325496673584,1.2035980224609375,1.026350498199463,9.456283569335938,-3.7255024909973145,0.0196736641228199,-0.12699495255947113,0.06096047908067703,7.326805114746094,-3.3673362731933594,29.52686309814453,0.4911414384841919,0.11781883239746094,-0.14959263801574707,0.535209059715271,9.338464736938477,-3.5759098529815674
7_20251106_170909,1762420112761,7,0.07381857186555862,0.1288328617811203,0.8118033409118652,0.5647373199462891,2.1443030834198,4.670316219329834,1.196055293083191,1.642830729484558,9.859688758850098,-3.782960891723633,0.037999603897333145,-0.22412243485450745,0.005982655566185713,7.311700820922852,-3.4184932708740234,29.538833618164062,0.7517801523208618,0.37437915802001953,-0.12293624877929688,0.8910505771636963,9.485309600830078,-3.660024642944336
7_20251106_170909,1762420112779,7,0.07437219470739365,0.13186131417751312,0.8117547631263733,0.5640350580215454,2.154081106185913,4.67344856262207,1.1925570964813232,1.7302154302597046,9.988969802856445,-3.6632561683654785,0.05204949527978897,-0.2717699110507965,-0.11619029939174652,7.313716411590576,-3.3809566497802734,29.553138732910156,0.6713318824768066,0.40292835235595703,-0.002585172653198242,1.058883547782898,9.586041450500488,-3.6606709957122803
7_20251106_170909,1762420112798,7,0.07569558173418045,0.1345462054014206,0.8116767406463623,0.5633367896080017,2.1651010513305664,4.677718162536621,1.1890190839767456,1.5015789270401,9.99734878540039,-3.671635389328003,0.05449295416474342,-0.26016348600387573,-0.27501511573791504,7.39075231552124,-3.3128662109375,29.503334045410156,0.3541562557220459,0.32904624938964844,-0.008771419525146484,1.1474226713180542,9.668302536010742,-3.6628639698028564
7_20251106_170909,1762420112818,7,0.07767564058303833,0.13601252436637878,0.8116416931152344,0.56276535987854,2.1651010513305664,4.677718162536621,1.1890190839767456,1.5015789270401,9.99734878540039,-3.671635389328003,0.05449295416474342,-0.26016348600387573,-0.27501511573791504,7.478452682495117,-3.280843734741211,29.37213134765625,0.3541562557220459,0.32904624938964844,-0.008771419525146484,1.1474226713180542,9.668302536010742,-3.6628639698028564
7_20251106_170909,1762420112837,7,0.08114581555128098,0.13439027965068817,0.8121346831321716,0.561953604221344,2.184130907058716,4.686889171600342,1.1815130710601807,0.7019500732421875,9.713648796081543,-3.8799219131469727,0.028836634010076523,-0.1850270926952362,-0.42284438014030457,7.636153221130371,-3.294689178466797,29.283363342285156,-0.34658288955688477,0.0008668899536132812,-0.16094279289245605,1.0485329627990723,9.71278190612793,-3.7189791202545166
7_20251106_170909,1762420112856,7,0.08466513454914093,0.13232901692390442,0.8126441240310669,0.5611865520477295,2.1909279823303223,4.690794944763184,1.176835298538208,0.438599169254303,9.529302597045898,-3.9637153148651123,0.030669227242469788,-0.1948009431362152,-0.36175790429115295,7.77631950378418,-3.1964340209960938,29.12841033935547,-0.4879470467567444,-0.14678382873535156,-0.19578909873962402,0.9265462160110474,9.67608642578125,-3.7679262161254883
7_20251106_170909,1762420112876,7,0.08799944818019867,0.1307753026485443,0.8130951523780823,0.5603839159011841,2.195909261703491,4.693782329559326,1.171697974205017,0.4409932494163513,9.43832778930664,-3.9960360527038574,0.05815814062952995,-0.26505038142204285,-0.1943809688091278,7.916782379150391,-3.0977745056152344,28.932907104492188,-0.38844239711761475,-0.19020652770996094,-0.18248772621154785,0.8294356465339661,9.628534317016602,-3.8135483264923096
7_20251106_170909,1762420112895,7,0.09097397327423096,0.130875363945961,0.8134411573410034,0.5593825578689575,2.1999073028564453,4.696168899536133,1.1665496826171875,0.7234969139099121,9.560426712036133,-4.1205291748046875,0.05815814062952995,-0.26505038142204285,-0.1943809688091278,8.137415885925293,-3.081724166870117,28.766021728515625,-0.08475100994110107,-0.05448627471923828,-0.24558472633361816,0.8082479238510132,9.614912986755371,-3.8749444484710693
7_20251106_170909,1762420112914,7,0.0940604880452156,0.1336902230978012,0.8138262033462524,0.5576436519622803,2.205157995223999,4.698991775512695,1.1606380939483643,1.1472523212432861,9.714845657348633,-4.031947612762451,0.24996967613697052,-0.6547820568084717,0.18557687103748322,8.428241729736328,-2.898326873779297,28.591506958007812,0.27120351791381836,0.07994651794433594,-0.12560272216796875,0.8760488033294678,9.634899139404297,-3.9063448905944824
7_20251106_170909,1762420112933,7,0.09778624027967453,0.13912658393383026,0.8143138289451599,0.5549545884132385,2.2110815048217773,4.702103614807129,1.1556428670883179,1.4584852457046509,9.918343544006348,-3.8823161125183105,0.3116670250892639,-0.7836745381355286,0.2167309820652008,8.73991584777832,-2.7761268615722656,28.416648864746094,0.4659491777420044,0.22675514221191406,0.01922321319580078,0.9925360679626465,9.691588401794434,-3.9015393257141113
7_20251106_170909,1762420112951,7,0.10221811383962631,0.14565111696720123,0.8148684501647949,0.5516580939292908,2.2186119556427,4.706111907958984,1.15081787109375,1.572204828262329,10.015304565429688,-3.8344340324401855,0.3061692416667938,-0.7806202173233032,0.1251012682914734,8.73991584777832,-2.7761268615722656,28.416648864746094,0.4637349843978882,0.2589731216430664,0.053684234619140625,1.108469843864441,9.756331443786621,-3.888118267059326
7_20251106_170909,1762420112970,7,0.10704248398542404,0.15146055817604065,0.8154228925704956,0.5483494400978088,2.2186119556427,4.706111907958984,1.15081787109375,1.572204828262329,10.015304565429688,-3.8344340324401855,0.25363487005233765,-0.7140359878540039,-0.034334417432546616,9.086736679077148,-2.676656723022461,28.24273681640625,0.4637349843978882,0.2589731216430664,0.053684234619140625,1.108469843864441,9.756331443786621,-3.888118267059326
7_20251106_170909,1762420112989,7,0.11225537210702896,0.15568464994430542,0.8159211874008179,0.5453747510910034,2.2347447872161865,4.7150044441223145,1.1422357559204102,1.1280995607376099,9.871659278869629,-3.8057048320770264,0.18827231228351593,-0.657225489616394,-0.19743530452251434,9.448057174682617,-2.5384521484375,28.043075561523438,-0.050066590309143066,0.05580615997314453,0.060788869857788086,1.178166151046753,9.815853118896484,-3.8664937019348145
7_20251106_170909,1762420113009,7,0.11798357963562012,0.15830302238464355,0.8163347840309143,0.5427867770195007,2.2347447872161865,4.7150044441223145,1.1422357559204102,1.1280995607376099,9.871659278869629,-3.8057048320770264,0.16811378300189972,-0.6169084310531616,-0.28478893637657166,9.860743522644043,-2.3471107482910156,27.87346649169922,-0.050066590309143066,0.05580615997314453,0.060788869857788086,1.178166151046753,9.815853118896484,-3.8664937019348145
7_20251106_170909,1762420113027,7,0.12394587695598602,0.1599738448858261,0.8167861104011536,0.5402835011482239,2.2439093589782715,4.721485614776611,1.1350740194320679,0.18362762033939362,9.453889846801758,-3.8392224311828613,0.20232219994068146,-0.6266822814941406,-0.2725716531276703,10.270004272460938,-2.2184200286865234,27.68901824951172,-0.7090937495231628,-0.263641357421875,0.011899232864379883,0.8927213549613953,9.717531204223633,-3.851121664047241
7_20251106_170909,1762420113048,7,0.12978647649288177,0.16153521835803986,0.8174104690551758,0.537496030330658,2.2439093589782715,4.721485614776611,1.1350740194320679,0.18362762033939362,9.453889846801758,-3.8392224311828613,0.26401957869529724,-0.7079273462295532,-0.14490093290805817,10.755609512329102,-2.0225830078125,27.54937744140625,-0.7090937495231628,-0.263641357421875,0.011899232864379883,0.8927213549613953,9.717531204223633,-3.851121664047241
7_20251106_170909,1762420113067,7,0.13562695682048798,0.1646018922328949,0.8180169463157654,0.534190833568573,2.242159843444824,4.722565174102783,1.126882553100586,-0.07852619886398315,9.124700546264648,-4.0487060546875,0.34159937500953674,-0.8728607892990112,0.0291955154389143,11.218461990356445,-1.7913379669189453,27.477134704589844,-0.6275358200073242,-0.4022035598754883,-0.13334894180297852,0.5490096211433411,9.526904106140137,-3.9153571128845215
7_20251106_170909,1762420113087,7,0.1418018490076065,0.17000320553779602,0.8184899687767029,0.5301558971405029,2.242159843444824,4.722565174102783,1.126882553100586,-0.07852619886398315,9.124700546264648,-4.0487060546875,0.38619253039360046,-1.0200791358947754,0.17397043108940125,11.705674171447754,-1.5701179504394531,27.310997009277344,-0.6275358200073242,-0.4022035598754883,-0.13334894180297852,0.5490096211433411,9.526904106140137,-3.9153571128845215
7_20251106_170909,1762420113105,7,0.1482294797897339,0.17721067368984222,0.8187030553817749,0.5256897211074829,2.234989643096924,4.719672203063965,1.1208268404006958,0.22791846096515656,9.30784797668457,-3.6321327686309814,0.3953554928302765,-1.0512332916259766,0.2478850781917572,12.179587364196777,-1.3744010925292969,27.103286743164062,-0.1742793172597885,-0.11778736114501953,0.20328927040100098,0.40219777822494507,9.42563533782959,-3.8354220390319824
7_20251106_170909,1762420113124,7,0.1545325666666031,0.18523085117340088,0.8186314702033997,0.5212021470069885,2.2316339015960693,4.718075752258301,1.119019627571106,0.49007225036621094,9.40121841430664,-3.5974183082580566,0.400242418050766,-1.0689483880996704,0.24360902607440948,12.701242446899414,-1.1884689331054688,26.937828063964844,0.07029956579208374,-0.019533157348632812,0.19040298461914062,0.4197726845741272,9.420751571655273,-3.7878212928771973
7_20251106_170909,1762420113143,7,0.16090615093708038,0.19327464699745178,0.8184345364570618,0.5166420936584473,2.2316339015960693,4.718075752258301,1.119019627571106,0.49007225036621094,9.40121841430664,-3.5974183082580566,0.40268585085868835,-1.108654499053955,0.1550336480140686,13.26267147064209,-0.9493865966796875,26.7208251953125,0.07029956579208374,-0.019533157348632812,0.19040298461914062,0.4197726845741272,9.420751571655273,-3.7878212928771973
7_20251106_170909,1762420113162,7,0.167986661195755,0.2009093165397644,0.8182049989700317,0.5118169188499451,2.228625774383545,4.7166008949279785,1.1181339025497437,0.48528406023979187,9.435934066772461,-3.484895706176758,0.3947446048259735,-1.093993902206421,0.03347156569361687,13.807770729064941,-0.7979202270507812,26.393356323242188,0.05240911245346069,0.01214599609375,0.2423403263092041,0.4328749477863312,9.423788070678711,-3.727236032485962
7_20251106_170909,1762420113181,7,0.1755780130624771,0.20755766332149506,0.8180474042892456,0.5068438053131104,2.224944829940796,4.714824199676514,1.1187503337860107,0.27699747681617737,9.355731964111328,-3.265835762023926,0.40207499265670776,-1.038405179977417,-0.07831667363643646,14.413107872009277,-0.6434268951416016,26.16295623779297,-0.12470200657844543,-0.05444526672363281,0.36912012100219727,0.4016994833946228,9.410177230834961,-3.634955883026123
7_20251106_170909,1762420113200,7,0.18330539762973785,0.21307456493377686,0.8181053996086121,0.5016990303993225,2.2149136066436768,4.709807872772217,1.1206597089767456,-0.46637019515037537,8.90085220336914,-3.5866448879241943,0.41184884309768677,-1.0133596658706665,-0.1479552686214447,15.006853103637695,-0.4889183044433594,25.850967407226562,-0.6183857917785645,-0.3725099563598633,0.008510351181030273,0.1520155668258667,9.273362159729004,-3.5951552391052246
7_20251106_170909,1762420113220,7,0.19112034142017365,0.2178170382976532,0.8183537125587463,0.49631232023239136,2.2056186199188232,4.7048563957214355,1.1210376024246216,-0.8697758316993713,8.69735336303711,-3.798522472381592,0.39169028401374817,-1.002364158630371,-0.16078341007232666,15.627663612365723,-0.3059539794921875,25.364776611328125,-0.8174331188201904,-0.46080684661865234,-0.16269397735595703,-0.05234270542860031,9.158160209655762,-3.6358284950256348
7_20251106_170909,1762420113238,7,0.19901427626609802,0.22237633168697357,0.8184805512428284,0.49094974994659424,2.2056186199188232,4.7048563957214355,1.1210376024246216,-0.8697758316993713,8.69735336303711,-3.798522472381592,0.39169028401374817,-1.002364158630371,-0.16078341007232666,16.28131103515625,-0.18366241455078125,24.90576934814453,-0.8174331188201904,-0.46080684661865234,-0.16269397735595703,-0.05234270542860031,9.158160209655762,-3.6358284950256348
7_20251106_170909,1762420113257,7,0.20711757242679596,0.22706569731235504,0.8183859586715698,0.4855799674987793,2.1795694828033447,4.690944194793701,1.1198538541793823,-1.7101043462753296,8.271203994750977,-3.845207691192627,0.37214264273643494,-1.0280203819274902,-0.1485661268234253,16.963348388671875,0.0036773681640625,24.38147735595703,-1.121873378753662,-0.5998287200927734,-0.1228940486907959,-0.5882310271263123,8.87103271484375,-3.722313642501831
7_20251106_170909,1762420113277,7,0.215247243642807,0.23205213248729706,0.8180183172225952,0.4802774488925934,2.1795694828033447,4.690944194793701,1.1198538541793823,-1.7101043462753296,8.271203994750977,-3.845207691192627,0.3519841134548187,-1.0341291427612305,-0.11374683678150177,17.649417877197266,0.26609039306640625,23.88580322265625,-1.121873378753662,-0.5998287200927734,-0.1228940486907959,-0.5882310271263123,8.87103271484375,-3.722313642501831
7_20251106_170909,1762420113296,7,0.22312124073505402,0.23728740215301514,0.8173666000366211,0.4752088785171509,2.1582086086273193,4.679464817047119,1.1180484294891357,-1.9267703294754028,8.137134552001953,-3.9732918739318848,0.30433663725852966,-1.0671157836914062,-0.006234637927263975,18.34575653076172,0.4918956756591797,23.36279296875,-1.0708314180374146,-0.5871181488037109,-0.20078277587890625,-0.8559389114379883,8.724252700805664,-3.7725090980529785
7_20251106_170909,1762420113316,7,0.23115359246730804,0.24307361245155334,0.8163062334060669,0.47024181485176086,2.1387946605682373,4.668896198272705,1.1162892580032349,-1.9973962306976318,8.05573558807373,-3.9170305728912354,0.25363487005233765,-1.0848308801651,0.04446713253855705,19.005834579467773,0.7157230377197266,22.797767639160156,-0.913165807723999,-0.5348138809204102,-0.11561727523803711,-1.0842304229736328,8.59054946899414,-3.8014132976531982
7_20251106_170909,1762420113335,7,0.23925699293613434,0.24931661784648895,0.8147204518318176,0.46564778685569763,2.093251943588257,4.644876003265381,1.1150802373886108,-2.0955543518066406,8.237687110900879,-3.3975110054016113,0.25363487005233765,-1.0848308801651,0.04446713253855705,19.664897918701172,0.9149761199951172,22.178146362304688,-0.6524186134338379,-0.20591259002685547,0.2845454216003418,-1.4431357383728027,8.443599700927734,-3.682056427001953
7_20251106_170909,1762420113355,7,0.2471729815006256,0.25525933504104614,0.8128457069396973,0.46155181527137756,2.0678300857543945,4.631980895996094,1.1163685321807861,-2.1410422325134277,8.164667129516602,-3.228727340698242,0.20171134173870087,-1.041459560394287,0.04446713253855705,19.664897918701172,0.9149761199951172,22.178146362304688,-0.5583252906799316,-0.2231464385986328,0.36266326904296875,-1.582716941833496,8.387813568115234,-3.591390609741211
7_20251106_170909,1762420113373,7,0.2549886703491211,0.2607836127281189,0.8109413385391235,0.45754438638687134,2.0678300857543945,4.631980895996094,1.1163685321807861,-2.1410422325134277,8.164667129516602,-3.228727340698242,0.21759383380413055,-0.9687665700912476,-0.009899826720356941,20.272396087646484,1.0608234405517578,21.555511474609375,-0.5583252906799316,-0.2231464385986328,0.36266326904296875,-1.582716941833496,8.387813568115234,-3.591390609741211
7_20251106_170909,1762420113391,7,0.26248401403427124,0.26595214009284973,0.8092320561408997,0.45333772897720337,2.0429840087890625,4.619596481323242,1.1190056800842285,-2.276308536529541,8.11558723449707,-3.05395770072937,0.27868032455444336,-0.9327255487442017,-0.04166479408740997,20.894493103027344,1.2455406188964844,20.89360809326172,-0.5548732280731201,-0.21778106689453125,0.4299461841583252,-1.721435308456421,8.333368301391602,-3.4839038848876953
7_20251106_170909,1762420113411,7,0.2697088122367859,0.2708822190761566,0.807845950126648,0.4486255347728729,1.9925189018249512,4.594415664672852,1.1245901584625244,-2.656970500946045,7.731334686279297,-3.5028514862060547,0.3238843083381653,-0.9382233023643494,-0.07342976331710815,21.491313934326172,1.415842056274414,20.257492065429688,-0.6360905170440674,-0.43605613708496094,-0.044686317443847656,-2.0208799839019775,8.167390823364258,-3.458165168762207
7_20251106_170909,1762420113430,7,0.2769981622695923,0.2757667303085327,0.8066434264183044,0.44334086775779724,1.9651026725769043,4.579804420471191,1.126505732536316,-2.8999714851379395,7.459604263305664,-3.700364589691162,0.3018932044506073,-0.9382233023643494,-0.07465149462223053,22.10102653503418,1.5994949340820312,19.62213134765625,-0.7032732963562012,-0.5662288665771484,-0.19375944137573242,-2.1966981887817383,8.025833129882812,-3.5066051483154297
7_20251106_170909,1762420113449,7,0.2843623459339142,0.28061583638191223,0.805288553237915,0.4380674660205841,1.9651026725769043,4.579804420471191,1.126505732536316,-2.8999714851379395,7.459604263305664,-3.700364589691162,0.23530890047550201,-0.9296712279319763,-0.07587321847677231,22.634902954101562,1.7282886505126953,18.969253540039062,-0.7032732963562012,-0.5662288665771484,-0.19375944137573242,-2.1966981887817383,8.025833129882812,-3.5066051483154297
7_20251106_170909,1762420113468,7,0.29178646206855774,0.2851424813270569,0.8036636114120483,0.4332196116447449,1.9068623781204224,4.5489654541015625,1.1291223764419556,-3.694812297821045,7.348278999328613,-3.498063087463379,0.23530890047550201,-0.9296712279319763,-0.07587321847677231,23.19183921813965,1.8336906433105469,18.303314208984375,-1.0277433395385742,-0.4489574432373047,0.03419613838195801,-2.6670689582824707,7.797236442565918,-3.532259225845337
7_20251106_170909,1762420113488,7,0.298435240983963,0.2879575192928314,0.8022852540016174,0.4293661117553711,1.869715929031372,4.5299506187438965,1.1307460069656372,-4.0934295654296875,7.1866774559021,-3.4753191471099854,0.06548851728439331,-0.6572255492210388,-0.1430683434009552,23.740028381347656,2.012563705444336,17.746597290039062,-1.1410884857177734,-0.4884471893310547,0.04555201530456543,-2.952341079711914,7.675124645233154,-3.520871162414551
7_20251106_170909,1762420113507,7,0.3046230971813202,0.29028916358947754,0.8007850050926208,0.4262397289276123,1.8339245319366455,4.512207508087158,1.1313403844833374,-4.3603715896606445,7.165130615234375,-3.812887191772461,0.06548851728439331,-0.6572255492210388,-0.1430683434009552,24.232009887695312,2.2634811401367188,17.121429443359375,-1.1264243125915527,-0.40799522399902344,-0.2336130142211914,-3.233947277069092,7.573125839233398,-3.5792741775512695
7_20251106_170909,1762420113525,7,0.30989739298820496,0.2918890416622162,0.7993426322937012,0.42404690384864807,1.8339245319366455,4.512207508087158,1.1313403844833374,-4.3603715896606445,7.165130615234375,-3.812887191772461,-0.07012345641851425,-0.48618340492248535,-0.0764840841293335,24.733470916748047,2.476713180541992,16.577056884765625,-1.1264243125915527,-0.40799522399902344,-0.2336130142211914,-3.233947277069092,7.573125839233398,-3.5792741775512695
7_20251106_170909,1762420113545,7,0.31490451097488403,0.29354149103164673,0.7976206541061401,0.4224569499492645,1.796063780784607,4.4945244789123535,1.1314972639083862,-4.640480995178223,7.27166748046875,-3.7278966903686523,-0.14281636476516724,-0.3945537209510803,-0.017841067165136337,25.206146240234375,2.624357223510742,16.15203094482422,-1.1252269744873047,-0.2411665916442871,-0.11889815330505371,-3.515254020690918,7.512834072113037,-3.6089985370635986
7_20251106_170909,1762420113564,7,0.3192219138145447,0.29501450061798096,0.795690655708313,0.4218295216560364,1.7540545463562012,4.476487159729004,1.1319440603256226,-4.8798909187316895,7.396161079406738,-3.513624668121338,-0.1648074984550476,-0.2815437316894531,0.07195604592561722,25.619598388671875,2.793548583984375,15.684532165527344,-1.0917096138000488,-0.0933380126953125,0.07629919052124023,-3.7881813049316406,7.489499092102051,-3.589923858642578
7_20251106_170909,1762420113583,7,0.32240432500839233,0.296548992395401,0.7937502861022949,0.42198890447616577,1.673759937286377,4.445390224456787,1.1332064867019653,-4.778141975402832,7.5625505447387695,-3.6943793296813965,-0.1648074984550476,-0.2815437316894531,0.07195604592561722,25.989356994628906,2.8462657928466797,15.321319580078125,-0.6025476455688477,0.06743812561035156,-0.10649776458740234,-4.175594329833984,7.495112419128418,-3.587881565093994
7_20251106_170909,1762420113602,7,0.3248112201690674,0.29919108748435974,0.7916242480278015,0.4222716689109802,1.673759937286377,4.445390224456787,1.1332064867019653,-4.778141975402832,7.5625505447387695,-3.6943793296813965,-0.1244904175400734,-0.25527656078338623,0.20451368391513824,26.331417083740234,2.834878921508789,14.92877197265625,-0.6025476455688477,0.06743812561035156,-0.10649776458740234,-4.175594329833984,7.495112419128418,-3.587881565093994
7_20251106_170909,1762420113621,7,0.32709649205207825,0.3031010031700134,0.7890776991844177,0.4224855303764343,1.5956146717071533,4.4193315505981445,1.1330335140228271,-4.219119548797607,7.924059867858887,-3.671635389328003,-0.09394717216491699,-0.3389649987220764,0.4018230140209198,26.51235008239746,2.7746849060058594,14.610153198242188,0.020217418670654297,0.2973184585571289,-0.04211068153381348,-4.239336967468262,7.626741409301758,-3.6295247077941895
7_20251106_170909,1762420113640,7,0.32915621995925903,0.30776938796043396,0.7861943244934082,0.4228861331939697,1.5622363090515137,4.409236907958984,1.1329232454299927,-3.911478281021118,7.9707441329956055,-3.6165711879730225,-0.08050815761089325,-0.32552599906921387,0.45741167664527893,26.679080963134766,2.6761608123779297,14.2767333984375,0.262286901473999,0.27520227432250977,0.010362863540649414,-4.173765182495117,7.695541858673096,-3.626934051513672
7_20251106_170909,1762420113660,7,0.33080923557281494,0.31287291646003723,0.7831889986991882,0.42342743277549744,1.5272163152694702,4.399600982666016,1.1326351165771484,-3.584683895111084,8.158681869506836,-3.6764235496520996,-0.0884493961930275,-0.2974262237548828,0.4928418695926666,26.853572845458984,2.502819061279297,13.969253540039062,0.4712648391723633,0.3705120086669922,-0.03959178924560547,-4.055948734283447,7.788169860839844,-3.636831760406494
7_20251106_170909,1762420113678,7,0.33209776878356934,0.3181473910808563,0.7800775170326233,0.42423146963119507,1.5272163152694702,4.399600982666016,1.1326351165771484,-3.584683895111084,8.158681869506836,-3.6764235496520996,-0.13243165612220764,-0.25038963556289673,0.47573763132095337,26.98858642578125,2.276731491088867,13.672767639160156,0.4712648391723633,0.3705120086669922,-0.03959178924560547,-4.055948734283447,7.788169860839844,-3.636831760406494
7_20251106_170909,1762420113697,7,0.3331923186779022,0.3230228126049042,0.7769341468811035,0.42545562982559204,1.4773157835006714,4.38844108581543,1.1328957080841064,-3.0065088272094727,8.450761795043945,-3.4561667442321777,-0.16602922976016998,-0.1489860713481903,0.4018230140209198,27.072038650512695,1.9972381591796875,13.373260498046875,0.7162675857543945,0.43669986724853516,0.13267159461975098,-3.722776412963867,8.01406192779541,-3.5888383388519287
7_20251106_170909,1762420113717,7,0.333901971578598,0.32684725522994995,0.7741481065750122,0.42705395817756653,1.4545161724090576,4.384463787078857,1.1335046291351318,-2.877227544784546,8.395696640014648,-3.5172157287597656,-0.16847267746925354,-0.06896280497312546,0.30774983763694763,27.127803802490234,1.6652545928955078,13.139297485351562,0.6764390468597412,0.30530738830566406,0.05729794502258301,-3.553666591644287,8.090389251708984,-3.5745136737823486
7_20251106_170909,1762420113736,7,0.33435630798339844,0.3296193480491638,0.7718787789344788,0.4286724328994751,1.4367029666900635,4.382172107696533,1.1341655254364014,-2.903562545776367,8.50103759765625,-3.5243983268737793,-0.20512457191944122,-0.016428442671895027,0.2222287505865097,27.186176300048828,1.3716163635253906,12.838546752929688,0.5200834274291992,0.3285188674926758,0.04009246826171875,-3.4236459732055664,8.172518730163574,-3.564490795135498
7_20251106_170909,1762420113754,7,0.33489108085632324,0.33149197697639465,0.7698735594749451,0.4304133951663971,1.422110915184021,4.380661964416504,1.1352274417877197,-2.8389220237731934,8.396894454956055,-3.374767303466797,-0.24483077228069305,0.048323217779397964,0.15930968523025513,27.242351531982422,1.0517845153808594,12.645401000976562,0.46777915954589844,0.17950057983398438,0.1517789363861084,-3.306701183319092,8.21739387512207,-3.5265462398529053
7_20251106_170909,1762420113775,7,0.3353908061981201,0.33258679509162903,0.7680670619010925,0.4324025809764862,1.4078269004821777,4.379132270812988,1.136820912361145,-2.7431581020355225,8.260431289672852,-3.402299404144287,-0.24483077228069305,0.048323217779397964,0.15930968523025513,27.242351531982422,1.0517845153808594,12.645401000976562,0.4508345127105713,0.034430503845214844,0.09939765930175781,-3.1939926147460938,8.226000785827637,-3.501697063446045
7_20251106_170909,1762420113794,7,0.33572569489479065,0.3330647945404053,0.7664964199066162,0.4345565438270569,1.3972114324569702,4.377806663513184,1.1385164260864258,-2.781463623046875,8.193395614624023,-3.340052604675293,-0.2888129949569702,0.09535980224609375,0.09028198570013046,27.27859115600586,0.8175907135009766,12.520698547363281,0.33002328872680664,-0.026083946228027344,0.12931561470031738,-3.1114869117736816,8.21947956085205,-3.4693682193756104
7_20251106_170909,1762420113812,7,0.33621945977211,0.33318620920181274,0.7649295926094055,0.4368365406990051,1.3869726657867432,4.376819610595703,1.1413497924804688,-2.9634151458740234,8.34422492980957,-3.056352138519287,-0.2888129949569702,0.09535980224609375,0.09028198570013046,27.26387596130371,0.5424137115478516,12.406761169433594,0.11845755577087402,0.09979629516601562,0.3304128646850586,-3.0818727016448975,8.244428634643555,-3.3867650032043457
7_20251106_170909,1762420113831,7,0.3367357552051544,0.3328315317630768,0.7633731365203857,0.4394242465496063,1.3777724504470825,4.376038551330566,1.1448785066604614,-3.0759377479553223,8.287962913513184,-2.9893171787261963,-0.3248540163040161,0.23463696241378784,0.0420236736536026,27.211910247802734,0.26391029357910156,12.385971069335938,0.004747867584228516,0.034827232360839844,0.31795835494995117,-3.080685615539551,8.253135681152344,-3.3072755336761475
7_20251106_170909,1762420113851,7,0.3365620970726013,0.3317594826221466,0.7622573375701904,0.44229549169540405,1.3777724504470825,4.376038551330566,1.1448785066604614,-3.0759377479553223,8.287962913513184,-2.9893171787261963,-0.2741522490978241,0.3024429380893707,0.08967112004756927,27.1784725189209,0.09921455383300781,12.3680419921875,0.004747867584228516,0.034827232360839844,0.31795835494995117,-3.080685615539551,8.253135681152344,-3.3072755336761475
7_20251106_170909,1762420113870,7,0.33557480573654175,0.3309057950973511,0.7614113092422485,0.44513335824012756,1.3604000806808472,4.373305320739746,1.15047287940979,-2.814980983734131,8.035385131835938,-3.5471420288085938,-0.25643718242645264,0.2163110226392746,0.18924206495285034,27.108985900878906,-0.055576324462890625,12.375938415527344,0.19724798202514648,-0.15583229064941406,-0.1653892993927002,-3.0122289657592773,8.191217422485352,-3.3817527294158936
7_20251106_170909,1762420113889,7,0.3346574902534485,0.33121201395988464,0.7601168751716614,0.44780054688453674,1.3604000806808472,4.373305320739746,1.15047287940979,-2.814980983734131,8.035385131835938,-3.5471420288085938,-0.2790391743183136,0.16683098673820496,0.28209349513053894,27.048988342285156,-0.23644065856933594,12.55950927734375,0.19724798202514648,-0.15583229064941406,-0.1653892993927002,-3.0122289657592773,8.191217422485352,-3.3817527294158936
7_20251106_170909,1762420113907,7,0.33324262499809265,0.33150652050971985,0.7586453557014465,0.4511208236217499,1.349195122718811,4.370384216308594,1.156298041343689,-2.4594573974609375,8.398091316223145,-3.138948440551758,-0.2936999201774597,0.20287200808525085,0.31202587485313416,26.953731536865234,-0.40632057189941406,12.660774230957031,0.3780977725982666,0.1789407730102539,0.16746115684509277,-2.837555170059204,8.21915054321289,-3.3064095973968506
7_20251106_170909,1762420113927,7,0.331922709941864,0.33253854513168335,0.7567551136016846,0.4544965922832489,1.3458727598190308,4.370208740234375,1.1598478555679321,-2.355314016342163,8.526176452636719,-3.165283203125,-0.2936999201774597,0.20287200808525085,0.31202587485313416,26.81215476989746,-0.5296878814697266,12.815200805664062,0.38579297065734863,0.2456207275390625,0.11290121078491211,-2.7411069869995117,8.280555725097656,-3.278184413909912
7_20251106_170909,1762420113946,7,0.3306005299091339,0.33306407928466797,0.7549947500228882,0.4579896330833435,1.343716025352478,4.370737552642822,1.1635714769363403,-2.434319257736206,8.530963897705078,-3.088672161102295,-0.3150801956653595,0.2572389543056488,0.25949153304100037,26.678634643554688,-0.7274703979492188,12.95501708984375,0.24543023109436035,0.20032691955566406,0.1516098976135254,-2.6797494888305664,8.330636978149414,-3.2402820587158203
7_20251106_170909,1762420113966,7,0.3290218710899353,0.33256959915161133,0.7536157965660095,0.4617416560649872,1.3421343564987183,4.371489524841309,1.1676467657089233,-2.4905805587768555,8.40407657623291,-3.1245837211608887,-0.36272764205932617,0.39895957708358765,0.18802033364772797,26.593265533447266,-0.9228839874267578,13.177894592285156,0.1513350009918213,0.05875110626220703,0.0925588607788086,-2.6419155597686768,8.345325469970703,-3.2171425819396973
7_20251106_170909,1762420113984,7,0.3270513117313385,0.3316121995449066,0.7523643374443054,0.46585264801979065,1.3412047624588013,4.372247695922852,1.1712087392807007,-2.4702305793762207,8.392106056213379,-3.1856331825256348,-0.3877730965614319,0.4386657774448395,0.2539937198162079,26.49810791015625,-1.092630386352539,13.265640258789062,0.13734817504882812,0.03742408752441406,0.02520751953125,-2.607578754425049,8.354681968688965,-3.2108407020568848
7_20251106_170909,1762420114004,7,0.3245861530303955,0.3308441638946533,0.7509222626686096,0.4704272150993347,1.3412047624588013,4.372247695922852,1.1712087392807007,-2.4702305793762207,8.392106056213379,-3.1856331825256348,-0.3969360589981079,0.43377885222435,0.3670037090778351,26.310810089111328,-1.3816242218017578,13.4151611328125,0.13734817504882812,0.03742408752441406,0.02520751953125,-2.607578754425049,8.354681968688965,-3.2108407020568848
7_20251106_170909,1762420114022,7,0.32173633575439453,0.33096545934677124,0.7490133047103882,0.47531741857528687,1.3414453268051147,4.373470306396484,1.1754778623580933,-2.228426694869995,8.468717575073242,-3.1150074005126953,-0.3969360589981079,0.43377885222435,0.3670037090778351,26.072467803955078,-1.7001228332519531,13.683837890625,0.30332183837890625,0.09122848510742188,0.07666683197021484,-2.5317485332489014,8.37748908996582,-3.19167423248291
7_20251106_170909,1762420114042,7,0.31874382495880127,0.3320216238498688,0.7466694712638855,0.4802590012550354,1.3473830223083496,4.377254009246826,1.1838347911834717,-1.5520938634872437,8.65306282043457,-2.8289127349853516,-0.34928861260414124,0.2938908338546753,0.5166656374931335,25.83572006225586,-2.004850387573242,13.831130981445312,0.6775423288345337,0.1828784942626953,0.27353739738464355,-2.2296361923217773,8.470184326171875,-3.102450132369995
7_20251106_170909,1762420114060,7,0.3158007860183716,0.33373692631721497,0.7441075444221497,0.48496755957603455,1.3473830223083496,4.377254009246826,1.1838347911834717,-1.5520938634872437,8.65306282043457,-2.8289127349853516,-0.3358495831489563,0.29572343826293945,0.5136112570762634,25.55911636352539,-2.3512496948242188,14.138359069824219,0.6775423288345337,0.1828784942626953,0.27353739738464355,-2.2296361923217773,8.470184326171875,-3.102450132369995
7_20251106_170909,1762420114079,7,0.3128092885017395,0.33548420667648315,0.7415413856506348,0.48960909247398376,1.3620190620422363,4.384670257568359,1.195832371711731,-1.18340265750885,9.19293212890625,-2.536832571029663,-0.35478639602661133,0.3543664216995239,0.43053364753723145,25.293373107910156,-2.733448028564453,14.337158203125,0.6826132535934448,0.5198259353637695,0.37789177894592285,-1.866015911102295,8.67310619354248,-2.914724349975586
7_20251106_170909,1762420114098,7,0.30980804562568665,0.33628368377685547,0.739272952079773,0.49437612295150757,1.3714656829833984,4.390869617462158,1.203852653503418,-1.3545807600021362,9.34495735168457,-2.287846326828003,-0.37311235070228577,0.46554380655288696,0.2851478159427643,24.999126434326172,-3.192441940307617,14.519874572753906,0.40914809703826904,0.5374813079833984,0.501502275466919,-1.7637288570404053,8.807476043701172,-2.789348602294922
7_20251106_170909,1762420114117,7,0.30676016211509705,0.33544495701789856,0.7376680374145508,0.4992201328277588,1.3714656829833984,4.390869617462158,1.203852653503418,-1.3545807600021362,9.34495735168457,-2.287846326828003,-0.3602841794490814,0.6158165335655212,0.18863119184970856,24.735103607177734,-3.537508010864258,14.773529052734375,0.40914809703826904,0.5374813079833984,0.501502275466919,-1.7637288570404053,8.807476043701172,-2.789348602294922
7_20251106_170909,1762420114136,7,0.30312806367874146,0.3331848084926605,0.7368249893188477,0.5041727423667908,1.390899658203125,4.403077602386475,1.222074031829834,-1.4754829406738281,8.647077560424805,-2.505709171295166,-0.3602841794490814,0.6158165335655212,0.18863119184970856,24.418922424316406,-3.936788558959961,15.105262756347656,0.19405364990234375,-0.15877342224121094,0.14820337295532227,-1.6695365905761719,8.805850982666016,-2.6539125442504883
7_20251106_170909,1762420114156,7,0.29870909452438354,0.33109143376350403,0.7361198663711548,0.5091943144798279,1.390899658203125,4.403077602386475,1.222074031829834,-1.4754829406738281,8.647077560424805,-2.505709171295166,-0.2900347411632538,0.5382367372512817,0.43542054295539856,24.102642059326172,-4.336202621459961,15.450515747070312,0.19405364990234375,-0.15877342224121094,0.14820337295532227,-1.6695365905761719,8.805850982666016,-2.6539125442504883
7_20251106_170909,1762420114176,7,0.2941553294658661,0.3310368061065674,0.7346615791320801,0.5139646530151367,1.4139692783355713,4.409849643707275,1.241628646850586,-0.8925197124481201,8.46153450012207,-2.2124321460723877,-0.2698762118816376,0.3616968095302582,0.5997431874275208,23.79822540283203,-4.758455276489258,15.647048950195312,0.5486202239990234,-0.18761157989501953,0.3206617832183838,-1.4411399364471436,8.64914608001709,-2.5330939292907715
7_20251106_170909,1762420114195,7,0.2898893654346466,0.33300507068634033,0.7322836518287659,0.5184904932975769,1.428359866142273,4.413479804992676,1.253070592880249,-0.6171984672546387,8.898458480834961,-1.9993574619293213,-0.26682189106941223,0.2633475959300995,0.6162365078926086,23.505897521972656,-5.180047988891602,15.857589721679688,0.6591532230377197,0.19945049285888672,0.4269893169403076,-1.2763516902923584,8.699007987976074,-2.426346778869629
7_20251106_170909,1762420114214,7,0.2861654460430145,0.33554065227508545,0.729529619216919,0.5227890014648438,1.4433035850524902,4.417999267578125,1.2651103734970093,-0.563331127166748,9.152233123779297,-1.8018443584442139,-0.2625458240509033,0.30610811710357666,0.49772876501083374,23.203903198242188,-5.552610397338867,16.10924530029297,0.5704164505004883,0.3625802993774414,0.4996020793914795,-1.1337475776672363,8.789652824401855,-2.3014464378356934
7_20251106_170909,1762420114232,7,0.2827160358428955,0.33705615997314453,0.7272019982337952,0.5269175171852112,1.4578214883804321,4.4231367111206055,1.2770613431930542,-0.6997947692871094,9.224055290222168,-1.8485292196273804,-0.29614338278770447,0.5058609247207642,0.3413473665714264,22.93896484375,-5.922117233276367,16.29479217529297,0.34716224670410156,0.3475217819213867,0.36233389377593994,-1.046957015991211,8.876533508300781,-2.2108631134033203
7_20251106_170909,1762420114251,7,0.27871274948120117,0.33625173568725586,0.7257390022277832,0.5315608382225037,1.4731416702270508,4.428591728210449,1.289005160331726,-0.769223690032959,8.987039566040039,-2.225599765777588,-0.37433406710624695,0.6927855014801025,0.24421989917755127,22.93896484375,-5.922117233276367,16.29479217529297,0.2221866250038147,0.08840465545654297,-0.011789321899414062,-0.9914103150367737,8.898634910583496,-2.213810443878174
7_20251106_170909,1762420114270,7,0.27425748109817505,0.3336852490901947,0.7246264219284058,0.5369855761528015,1.4879376888275146,4.433132648468018,1.3005690574645996,-0.9032931923866272,8.665033340454102,-2.1346240043640137,-0.37433406710624695,0.6927855014801025,0.24421989917755127,22.60334587097168,-6.235086441040039,16.627395629882812,0.07049369812011719,-0.18688106536865234,0.06334924697875977,-0.9737868905067444,8.851914405822754,-2.1979732513427734
7_20251106_170909,1762420114289,7,0.2697293162345886,0.3304199278354645,0.7231345772743225,0.5432726740837097,1.5020263195037842,4.437456130981445,1.3119419813156128,-0.961948573589325,8.855363845825195,-2.0568156242370605,-0.6162365078926086,0.7764739394187927,0.32729750871658325,22.177576065063477,-6.652994155883789,16.84632110595703,0.009470641613006592,0.0027599334716796875,0.11292600631713867,-0.9714192152023315,8.852603912353516,-2.169741630554199
7_20251106_170909,1762420114309,7,0.2648882567882538,0.3271353244781494,0.7208053469657898,0.5506871938705444,1.5161525011062622,4.442415237426758,1.3230725526809692,-0.7009918689727783,9.163005828857422,-2.050830602645874,-0.6919837594032288,0.7996867895126343,0.4653529226779938,21.825429916381836,-7.0538482666015625,17.095489501953125,0.21634185314178467,0.248321533203125,0.09512877464294434,-0.917333722114563,8.914684295654297,-2.1459593772888184
7_20251106_170909,1762420114328,7,0.25920405983924866,0.32417118549346924,0.7177534699440002,0.5590673089027405,1.532293677330017,4.447910785675049,1.3351109027862549,-0.2544924318790436,9.091182708740234,-1.847332239151001,-0.6376168131828308,0.7001159191131592,0.6040192246437073,21.484468460083008,-7.466869354248047,17.38542938232422,0.5302730798721313,0.14119815826416016,0.23890185356140137,-0.7847654819488525,8.949984550476074,-2.0862340927124023
7_20251106_170909,1762420114348,7,0.25349605083465576,0.32313722372055054,0.7140812277793884,0.5669304132461548,1.5507391691207886,4.453993797302246,1.3474446535110474,0.23869191110134125,9.23363208770752,-1.7910709381103516,-0.5423219203948975,0.5718343257904053,0.7096988558769226,21.09345245361328,-7.908046722412109,17.65936279296875,0.8187659382820129,0.22691822052001953,0.2361304759979248,-0.5800740122795105,9.0067138671875,-2.0272014141082764
7_20251106_170909,1762420114366,7,0.2476600557565689,0.3236690163612366,0.7102172374725342,0.5740159749984741,1.5693397521972656,4.461165428161621,1.358742356300354,0.5690775513648987,9.807018280029297,-1.721642017364502,-0.5246068239212036,0.4875349700450897,0.712142288684845,20.616626739501953,-8.367071151733398,17.902565002441406,0.9193212389945984,0.6402435302734375,0.24444758892059326,-0.3502436876296997,9.16677474975586,-1.9660896062850952
7_20251106_170909,1762420114387,7,0.2422211766242981,0.32471051812171936,0.7061648964881897,0.5807090997695923,1.592755675315857,4.473001003265381,1.3737562894821167,0.4852840304374695,10.3265380859375,-1.2224724292755127,-0.5429328083992004,0.5040283203125,0.5172764658927917,20.112201690673828,-8.890066146850586,18.102920532226562,0.6684222221374512,0.9278106689453125,0.5948936939239502,-0.1831381618976593,9.398727416992188,-1.817366123199463
7_20251106_170909,1762420114405,7,0.23776964843273163,0.32430362701416016,0.7025641202926636,0.5871084928512573,1.6123310327529907,4.484684467315674,1.3887821435928345,0.023223020136356354,10.22957706451416,-0.6802091002464294,-0.5429328083992004,0.5040283203125,0.5172764658927917,19.556224822998047,-9.454853057861328,18.39513397216797,0.165088951587677,0.6646795272827148,0.9097256064414978,-0.14186592400074005,9.564897537231445,-1.5899347066879272
7_20251106_170909,1762420114424,7,0.2332419455051422,0.32038551568984985,0.700133204460144,0.593940019607544,1.6312347650527954,4.4965949058532715,1.4058693647384644,-0.40651771426200867,9.635841369628906,-0.8537812829017639,-0.575308620929718,0.7575371265411377,0.2423872947692871,19.025312423706055,-10.017107009887695,18.593719482421875,-0.21172143518924713,0.05675506591796875,0.5889226794242859,-0.19479627907276154,9.579086303710938,-1.4427039623260498
7_20251106_170909,1762420114443,7,0.22720329463481903,0.31350037455558777,0.6985705494880676,0.6017435789108276,1.6486977338790894,4.506590843200684,1.4224470853805542,-0.37539440393447876,9.098365783691406,-1.3170394897460938,-0.5936345458030701,1.2083553075790405,0.34317997097969055,18.518474578857422,-10.578176498413086,18.833831787109375,-0.14447849988937378,-0.38457679748535156,0.10053157806396484,-0.23091590404510498,9.482942581176758,-1.4175710678100586
7_20251106_170909,1762420114462,7,0.21913324296474457,0.30727994441986084,0.6966790556907654,0.6100803017616272,1.6667895317077637,4.514634609222412,1.437637448310852,0.31650012731552124,8.953521728515625,-1.6210899353027344,-0.527661144733429,0.9664528965950012,0.8300392031669617,17.93893051147461,-11.131860733032227,19.11181640625,0.4379328191280365,-0.4235363006591797,-0.16281509399414062,-0.12143269926309586,9.377058029174805,-1.4582748413085938
7_20251106_170909,1762420114481,7,0.20962120592594147,0.3058788478374481,0.6932011246681213,0.6180366277694702,1.6667895317077637,4.514634609222412,1.437637448310852,0.31650012731552124,8.953521728515625,-1.6210899353027344,-0.45741167664527893,0.5712233781814575,1.2570335865020752,17.35796356201172,-11.722272872924805,19.294395446777344,0.4379328191280365,-0.4235363006591797,-0.16281509399414062,-0.12143269926309586,9.377058029174805,-1.4582748413085938
7_20251106_170909,1762420114500,7,0.1998482346534729,0.30982276797294617,0.6880072355270386,0.625073254108429,1.6908764839172363,4.522543907165527,1.4548230171203613,1.3974356651306152,9.216873168945312,-1.0896000862121582,-0.45741167664527893,0.5712233781814575,1.2570335865020752,16.689876556396484,-12.355512619018555,19.43219757080078,1.2150946855545044,-0.12814807891845703,0.2949397563934326,0.18234094977378845,9.34502124786377,-1.3845398426055908
7_20251106_170909,1762420114519,7,0.1908656805753708,0.3160592317581177,0.6822157502174377,0.6310772895812988,1.7451099157333374,4.539427757263184,1.4912481307983398,2.799180507659912,10.61622428894043,0.24750420451164246,-0.31324759125709534,0.35680991411209106,1.08171546459198,16.00678253173828,-13.039773941040039,19.568450927734375,1.7420035600662231,0.9646854400634766,1.1153736114501953,1.057176947593689,9.651538848876953,-0.8678694367408752
7_20251106_170909,1762420114538,7,0.18284495174884796,0.32039353251457214,0.6774614453315735,0.6363660097122192,1.7786840200424194,4.552701473236084,1.513707160949707,2.6507463455200195,10.933442115783691,0.20081928372383118,-0.31324759125709534,0.35680991411209106,1.08171546459198,15.274847030639648,-13.727346420288086,19.716262817382812,1.274855613708496,1.0255231857299805,0.854951024055481,1.3758907318115234,9.907918930053711,-0.6541317105293274
7_20251106_170909,1762420114558,7,0.17572365701198578,0.3196428120136261,0.6748064756393433,0.6415495872497559,1.8149983882904053,4.567007541656494,1.5373824834823608,2.2772669792175293,10.247532844543457,-0.25405949354171753,-0.32241055369377136,0.9884440302848816,0.15625537931919098,14.633442878723145,-14.321054458618164,19.82880401611328,0.721100926399231,0.27169132232666016,0.32005774974823,1.5561660528182983,9.975841522216797,-0.5741172432899475
7_20251106_170909,1762420114576,7,0.16920551657676697,0.31391435861587524,0.6737698912620544,0.647195041179657,1.8465994596481323,4.578053951263428,1.5578175783157349,1.7804914712905884,9.494588851928711,-0.49586349725723267,-0.40976420044898987,1.0971779823303223,0.008426113985478878,13.992744445800781,-14.902204513549805,19.941612243652344,0.1794602870941162,-0.38500213623046875,0.06260299682617188,1.6010311841964722,9.87959098815918,-0.5584664940834045
7_20251106_170909,1762420114595,7,0.16327056288719177,0.30650731921195984,0.6728014349937439,0.6532489657402039,1.8465994596481323,4.578053951263428,1.5578175783157349,1.7804914712905884,9.494588851928711,-0.49586349725723267,-0.4635203182697296,1.0550282001495361,0.14098376035690308,13.276506423950195,-15.537809371948242,19.996353149414062,0.1794602870941162,-0.38500213623046875,0.06260299682617188,1.6010311841964722,9.87959098815918,-0.5584664940834045
7_20251106_170909,1762420114614,7,0.1569313108921051,0.30002671480178833,0.6710745692253113,0.6595569849014282,1.9078139066696167,4.593447685241699,1.5961674451828003,1.5674166679382324,9.087593078613281,-0.8418107628822327,-0.4635203182697296,1.0550282001495361,0.14098376035690308,12.562777519226074,-16.13520622253418,19.997825622558594,-0.008872509002685547,-0.5003662109375,-0.19666260480880737,1.576289176940918,9.587959289550781,-0.6451481580734253
7_20251106_170909,1762420114635,7,0.1500384509563446,0.2962757349014282,0.6684122085571289,0.6655330657958984,1.93887460231781,4.598361492156982,1.6150076389312744,2.0019454956054688,9.028936386108398,-0.47192245721817017,-0.41526201367378235,0.6793464422225952,0.6284538507461548,11.792953491210938,-16.6488094329834,20.01220703125,0.3405250310897827,-0.4472188949584961,0.1385805606842041,1.661420464515686,9.476155281066895,-0.6105030179023743
7_20251106_170909,1762420114653,7,0.14282342791557312,0.29523035883903503,0.6650528311729431,0.6709286570549011,1.9694634675979614,4.6016316413879395,1.6334552764892578,2.593287944793701,9.051679611206055,-0.08407847583293915,-0.4232032299041748,0.6084861755371094,0.750015914440155,11.171279907226562,-17.115480422973633,20.060302734375,0.74549400806427,-0.3395805358886719,0.421139657497406,1.8477939367294312,9.391260147094727,-0.5052181482315063
7_20251106_170909,1762420114671,7,0.13517895340919495,0.29533931612968445,0.6610996127128601,0.6763495206832886,1.9694634675979614,4.6016316413879395,1.6334552764892578,2.593287944793701,9.051679611206055,-0.08407847583293915,-0.4940635859966278,0.6365859508514404,0.702368438243866,11.171279907226562,-17.115480422973633,20.060302734375,0.74549400806427,-0.3395805358886719,0.421139657497406,1.8477939367294312,9.391260147094727,-0.5052181482315063
7_20251106_170909,1762420114691,7,0.12782396376132965,0.2949386239051819,0.656693696975708,0.6822211146354675,2.035414457321167,4.609652996063232,1.6712896823883057,3.177448272705078,9.880038261413574,-0.008664354681968689,-0.5685890913009644,0.7056136131286621,0.5062808990478516,10.513751983642578,-17.57197380065918,20.10718536376953,0.8758776187896729,0.37027645111083984,0.3206673264503479,2.3015706539154053,9.509761810302734,-0.3293316960334778
7_20251106_170909,1762420114710,7,0.12146332114934921,0.29276853799819946,0.6523670554161072,0.6884406208992004,2.0691933631896973,4.614691257476807,1.6903603076934814,2.95479679107666,9.767516136169434,0.04400581866502762,-0.5838606953620911,0.7752522230148315,0.27048709988594055,9.944234848022461,-17.98443031311035,20.077194213867188,0.5225811004638672,0.20620346069335938,0.2986700236797333,2.432215690612793,9.561312675476074,-0.25466421246528625
7_20251106_170909,1762420114730,7,0.11629774421453476,0.2886851727962494,0.6486137509346008,0.6945760846138,2.0691933631896973,4.614691257476807,1.6903603076934814,2.95479679107666,9.767516136169434,0.04400581866502762,-0.5856932997703552,0.8174018859863281,0.13792942464351654,9.300796508789062,-18.414342880249023,20.057518005371094,0.5225811004638672,0.20620346069335938,0.2986700236797333,2.432215690612793,9.561312675476074,-0.25466421246528625
7_20251106_170909,1762420114748,7,0.11177138239145279,0.2834371030330658,0.6452339887619019,0.7006024122238159,2.1294102668762207,4.623755931854248,1.728517770767212,1.8762553930282593,9.49937629699707,0.2750363349914551,-0.5881367921829224,0.8418364524841309,0.13731856644153595,8.704680442810059,-18.877805709838867,19.94439697265625,-0.4494715929031372,-0.051514625549316406,0.346286416053772,2.3257269859313965,9.550890922546387,-0.0712500810623169
7_20251106_170909,1762420114768,7,0.10725618898868561,0.2779899537563324,0.6417970061302185,0.7066217660903931,2.1579456329345703,4.627841472625732,1.7503451108932495,1.669165849685669,9.380868911743164,0.2989773452281952,-0.5881367921829224,0.8418364524841309,0.13731856644153595,8.173624992370605,-19.2620906829834,19.84882354736328,-0.5252490043640137,-0.1360177993774414,0.29618194699287415,2.1944148540496826,9.516886711120605,0.002795398235321045
7_20251106_170909,1762420114787,7,0.1009802594780922,0.27325084805488586,0.6380149722099304,0.7127929925918579,2.1822004318237305,4.630838394165039,1.7697151899337769,2.095315456390381,9.329395294189453,0.2247602790594101,-0.5710325837135315,0.8943708539009094,0.34256914258003235,7.614165782928467,-19.72303581237793,19.723655700683594,-0.07927942276000977,-0.1499929428100586,0.17757190763950348,2.1745948791503906,9.479388236999512,0.047188371419906616
7_20251106_170909,1762420114807,7,0.09232917428016663,0.27080583572387695,0.6335662007331848,0.7188417315483093,2.2054941654205322,4.633841514587402,1.7888176441192627,2.769254446029663,9.603520393371582,0.7251269221305847,-0.45191389322280884,0.6927855014801025,0.998637855052948,7.103549480438232,-20.1806697845459,19.586936950683594,0.47572779655456543,0.0993051528930664,0.5423508882522583,2.2935266494750977,9.504215240478516,0.1827760636806488
7_20251106_170909,1762420114826,7,0.08244170993566513,0.2714860737323761,0.6286006569862366,0.7241269946098328,2.233431339263916,4.638339519500732,1.8135740756988525,3.3953113555908203,9.94108772277832,1.6935398578643799,-0.3505103290081024,0.6158165335655212,1.0841587781906128,6.431893348693848,-20.69858741760254,19.415748596191406,0.8814277648925781,0.34949779510498047,1.208611011505127,2.513883590698242,9.59158992767334,0.48492878675460815
7_20251106_170909,1762420114844,7,0.07211530953645706,0.27330610156059265,0.6238599419593811,0.7286301851272583,2.2624027729034424,4.643975257873535,1.839577555656433,3.883707284927368,10.166133880615234,1.8192299604415894,-0.23933298885822296,0.7453198432922363,0.9851987957954407,5.852897644042969,-21.0733585357666,19.304962158203125,1.0958588123321533,0.45963478088378906,1.0674409866333008,2.787848472595215,9.706499099731445,0.7517889738082886
7_20251106_170909,1762420114863,7,0.06125073879957199,0.2735636830329895,0.6200228929519653,0.7327911853790283,2.293704032897949,4.6499924659729,1.8666019439697266,4.165013790130615,9.948270797729492,1.597775936126709,-0.15808798372745514,0.8528320789337158,0.8538629412651062,5.173284530639648,-21.5167293548584,19.134872436523438,1.1017322540283203,0.19341754913330078,0.6767895817756653,3.063281536102295,9.754853248596191,0.9209863543510437
7_20251106_170909,1762420114882,7,0.05045922100543976,0.2723831832408905,0.6170372366905212,0.7365638613700867,2.3266797065734863,4.6557536125183105,1.893754243850708,4.244019031524658,9.771106719970703,1.4601151943206787,-0.0982232317328453,0.8326735496520996,0.7622331976890564,4.480582237243652,-21.973718643188477,18.991058349609375,0.9445900917053223,0.013002395629882812,0.4313030242919922,3.299428939819336,9.75810432434082,1.0288121700286865
7_20251106_170909,1762420114902,7,0.0402933731675148,0.27090802788734436,0.6146358847618103,0.7397351264953613,2.362483263015747,4.660928249359131,1.9218828678131104,4.229654312133789,9.565215110778809,1.3499866724014282,0.008067232556641102,0.6549118757247925,0.722527027130127,3.6946210861206055,-22.361719131469727,18.84490203857422,0.7441802024841309,-0.1543111801147461,0.2569396495819092,3.485474109649658,9.719526290893555,1.093047022819519
7_20251106_170909,1762420114920,7,0.03121287003159523,0.2705160975456238,0.612972617149353,0.7416949272155762,2.362483263015747,4.660928249359131,1.9218828678131104,4.229654312133789,9.565215110778809,1.3499866724014282,0.008067232556641102,0.6549118757247925,0.722527027130127,2.893667221069336,-22.78912925720215,18.792076110839844,0.7441802024841309,-0.1543111801147461,0.2569396495819092,3.485474109649658,9.719526290893555,1.093047022819519
7_20251106_170909,1762420114938,7,0.022467181086540222,0.27188965678215027,0.6123515367507935,0.7420221567153931,2.4274418354034424,4.6660003662109375,1.9683282375335693,4.258383750915527,9.063650131225586,0.6832301616668701,0.1839962750673294,0.44538527727127075,0.7762830853462219,2.120511054992676,-23.152299880981445,18.75507354736328,0.5025146007537842,-0.4504051208496094,-0.33468031883239746,3.755869150161743,9.514055252075195,1.0179104804992676
7_20251106_170909,1762420114959,7,0.012761562131345272,0.27429264783859253,0.6124124526977539,0.7413175702095032,2.4642465114593506,4.667581081390381,1.989315390586853,4.6342573165893555,9.421568870544434,0.2678540349006653,0.2860107123851776,0.45576995611190796,0.9699272513389587,1.2971019744873047,-23.54389762878418,18.729095458984375,0.7027106285095215,-0.0739889144897461,-0.6000451445579529,3.931546688079834,9.49555778503418,0.8678991794586182
7_20251106_170909,1762420114977,7,0.00234998925589025,0.27673622965812683,0.6119898557662964,0.7408643364906311,2.4642465114593506,4.667581081390381,1.989315390586853,4.6342573165893555,9.421568870544434,0.2678540349006653,0.2860107123851776,0.45576995611190796,0.9699272513389587,0.5686664581298828,-23.75440788269043,18.737274169921875,0.7027106285095215,-0.0739889144897461,-0.6000451445579529,3.931546688079834,9.49555778503418,0.8678991794586182
7_20251106_170909,1762420114997,7,0.00746332760900259,-0.2783900499343872,-0.6101574301719666,-0.7417217493057251,2.502868175506592,4.670447826385498,2.007967710494995,5.134624004364014,9.944679260253906,0.44501736760139465,-0.19412900507450104,0.6072643995285034,0.7518485188484192,-0.24890518188476562,-24.045278549194336,18.686370849609375,0.9624619483947754,0.3592967987060547,-0.33830544352531433,4.172162055969238,9.585382461547852,0.783322811126709
7_20251106_170909,1762420115016,7,0.01599426567554474,-0.2784731388092041,-0.6068702936172485,-0.7442481517791748,2.5454938411712646,4.675362586975098,2.027204751968384,5.395580291748047,10.198453903198242,0.9717190861701965,-0.32363227009773254,0.6677400469779968,0.575308620929718,-0.98760986328125,-24.219179153442383,18.721885681152344,0.9787344932556152,0.49045753479003906,0.15071702003479004,4.416845798492432,9.707996368408203,0.8210020661354065
7_20251106_170909,1762420115035,7,0.023308800533413887,-0.27704697847366333,-0.603020966053009,-0.7477080821990967,2.6201436519622803,4.684791088104248,2.061337471008301,5.424309730529785,9.781881332397461,1.2159171104431152,-0.32363227009773254,0.6677400469779968,0.575308620929718,-1.7514057159423828,-24.418840408325195,18.661277770996094,0.6394143104553223,0.0055332183837890625,0.21884524822235107,4.784895420074463,9.776348114013672,0.9970718622207642
7_20251106_170909,1762420115055,7,0.03040151670575142,-0.2752959430217743,-0.5993523001670837,-0.7510424256324768,2.661741256713867,4.689396381378174,2.0785844326019287,5.490147590637207,9.69329833984375,0.7766000032424927,-0.17458133399486542,0.5107477903366089,0.5991323590278625,-2.467754364013672,-24.628690719604492,18.68346405029297,0.564201831817627,-0.06643962860107422,-0.17637747526168823,4.92594575881958,9.759737968444824,0.9529774785041809
7_20251106_170909,1762420115076,7,0.03735322505235672,-0.27506327629089355,-0.5964470505714417,-0.7531240582466125,2.7034363746643066,4.694319248199463,2.094229221343994,5.642172813415527,9.939891815185547,0.709565281867981,-0.11105139553546906,0.38307708501815796,0.6315081715583801,-3.219573974609375,-24.839441299438477,18.555503845214844,0.5729818344116211,0.14412307739257812,-0.194729745388031,5.069190979003906,9.795768737792969,0.904295027256012
7_20251106_170909,1762420115093,7,0.043711528182029724,-0.27613314986228943,-0.5939183831214905,-0.7543876767158508,2.7034363746643066,4.694319248199463,2.094229221343994,5.642172813415527,9.939891815185547,0.709565281867981,-0.21001148223876953,0.4362223148345947,0.527661144733429,-3.219573974609375,-24.839441299438477,18.555503845214844,0.5729818344116211,0.14412307739257812,-0.194729745388031,5.069190979003906,9.795768737792969,0.904295027256012
7_20251106_170909,1762420115112,7,0.04932745173573494,-0.2762698829174042,-0.5909325480461121,-0.756333589553833,2.780517339706421,4.704875946044922,2.1210575103759766,5.885173797607422,10.006925582885742,0.9202460050582886,-0.21001148223876953,0.4362223148345947,0.527661144733429,-2.4560718536376953,-25.702617645263672,18.29492950439453,0.531613826751709,0.1148386001586914,0.014039158821105957,5.353559970855713,9.89208698272705,0.9062068462371826
7_20251106_170909,1762420115131,7,0.0538521371781826,-0.2751738727092743,-0.5871122479438782,-0.7593935132026672,2.8194987773895264,4.710207939147949,2.1354124546051025,5.901932716369629,9.939891815185547,1.4852532148361206,-0.4635203182697296,0.4313353896141052,0.28575870394706726,-3.074859619140625,-25.929203033447266,18.117767333984375,0.43869829177856445,0.03824424743652344,0.46323704719543457,5.4632344245910645,9.901647567749023,1.022016167640686
7_20251106_170909,1762420115149,7,0.056923847645521164,-0.27417388558387756,-0.5828539133071899,-0.762803852558136,2.8556830883026123,4.714770793914795,2.150212526321411,5.910311698913574,9.805822372436523,1.7857125997543335,-0.4073207676410675,0.3653619885444641,0.23322433233261108,-3.6344356536865234,-26.188949584960938,17.888198852539062,0.35766172409057617,-0.07666015625,0.610957145690918,5.552649974822998,9.882482528686523,1.1747554540634155
7_20251106_170909,1762420115169,7,0.05944134667515755,-0.2732454538345337,-0.5790960192680359,-0.765801191329956,2.8948557376861572,4.719310760498047,2.1672916412353516,5.8744001388549805,9.791458129882812,1.6540372371673584,-0.31813451647758484,0.2993886172771454,0.19290724396705627,-4.203886032104492,-26.41155242919922,17.63190460205078,0.2574000358581543,-0.07281970977783203,0.3834254741668701,5.617000102996826,9.864277839660645,1.2706117630004883
7_20251106_170909,1762420115189,7,0.06166989728808403,-0.272405207157135,-0.5761242508888245,-0.7681621313095093,2.8948557376861572,4.719310760498047,2.1672916412353516,5.8744001388549805,9.791458129882812,1.6540372371673584,-0.31813451647758484,0.2993886172771454,0.19290724396705627,-4.666679382324219,-26.677505493164062,17.40599822998047,0.2574000358581543,-0.07281970977783203,0.3834254741668701,5.617000102996826,9.864277839660645,1.2706117630004883
7_20251106_170909,1762420115207,7,0.06296870857477188,-0.2717321813106537,-0.5736324787139893,-0.7701573371887207,2.9643936157226562,4.725539207458496,2.2028706073760986,5.451841831207275,9.528106689453125,2.008363723754883,-0.25643718242645264,0.24318906664848328,-0.0050129094161093235,-5.104394912719727,-26.929309844970703,17.18133544921875,-0.15473270416259766,-0.23851585388183594,0.47886478900909424,5.606574535369873,9.766622543334961,1.5294989347457886
7_20251106_170909,1762420115227,7,0.06348564475774765,-0.2702198028564453,-0.5716086030006409,-0.7721492052078247,2.9962146282196045,4.726724624633789,2.2226147651672363,5.048436164855957,9.297076225280762,2.0646252632141113,-0.2741522490978241,0.2737323045730591,-0.10519473254680634,-5.417839050292969,-27.13509750366211,16.92182159423828,-0.44651031494140625,-0.3756370544433594,0.4281010627746582,5.494946479797363,9.672713279724121,1.6365242004394531
7_20251106_170909,1762420115246,7,0.06337708979845047,-0.26789596676826477,-0.5697048306465149,-0.7743716835975647,2.9962146282196045,4.726724624633789,2.2226147651672363,5.048436164855957,9.297076225280762,2.0646252632141113,-0.3566189706325531,0.2938908338546753,-0.13940316438674927,-5.672060012817383,-27.362430572509766,16.70478057861328,-0.44651031494140625,-0.3756370544433594,0.4281010627746582,5.494946479797363,9.672713279724121,1.6365242004394531
7_20251106_170909,1762420115264,7,0.06290635466575623,-0.26522359251976013,-0.5672745704650879,-0.7771092653274536,3.044994354248047,4.724950790405273,2.2611918449401855,4.52891731262207,9.055272102355957,2.494365930557251,-0.3566189706325531,0.2938908338546753,-0.13940316438674927,-5.800006866455078,-27.517822265625,16.37232208251953,-0.6523504257202148,-0.41642189025878906,0.5984330177307129,5.181267738342285,9.471693992614746,1.895932912826538
7_20251106_170909,1762420115283,7,0.06247908994555473,-0.2626343369483948,-0.5646485090255737,-0.7799305319786072,3.0647733211517334,4.721861839294434,2.281737804412842,4.346965789794922,8.893669128417969,2.3770551681518555,-0.37799927592277527,0.28717130422592163,-0.1222989410161972,-5.987066268920898,-27.63991928100586,16.078750610351562,-0.6674413681030273,-0.4624195098876953,0.38489770889282227,5.014407157897949,9.356088638305664,1.9921574592590332
7_20251106_170909,1762420115303,7,0.06288335472345352,-0.26031067967414856,-0.5622844099998474,-0.7823811769485474,3.0824978351593018,4.71730899810791,2.3027734756469727,4.33858585357666,8.874517440795898,2.1532068252563477,-0.3046954870223999,0.3042755126953125,-0.03922133520245552,-6.113292694091797,-27.7581787109375,15.8011474609375,-0.5406570434570312,-0.3852567672729492,0.12883949279785156,4.879242897033691,9.259774208068848,2.024367332458496
7_20251106_170909,1762420115322,7,0.06433969736099243,-0.25919443368911743,-0.5601919889450073,-0.7841323614120483,3.0824978351593018,4.71730899810791,2.3027734756469727,4.33858585357666,8.874517440795898,2.1532068252563477,-0.2271156907081604,0.24135646224021912,0.11593830585479736,-6.154514312744141,-27.87128448486328,15.567527770996094,-0.5406570434570312,-0.3852567672729492,0.12883949279785156,4.879242897033691,9.259774208068848,2.024367332458496
7_20251106_170909,1762420115341,7,0.06662251055240631,-0.25942450761795044,-0.5581981539726257,-0.7852867245674133,3.111572027206421,4.705966472625732,2.339998722076416,4.859302520751953,8.660245895385742,2.087369203567505,-0.11227312684059143,0.092916339635849,0.3407365381717682,-6.279937744140625,-27.976852416992188,15.27667236328125,0.025734901428222656,-0.4097461700439453,0.019827604293823242,4.8335676193237305,9.069992065429688,2.0675415992736816
7_20251106_170909,1762420115360,7,0.06923796236515045,-0.2606222629547119,-0.55650794506073,-0.7858632206916809,3.126669406890869,4.698325157165527,2.358872413635254,5.010130882263184,8.648275375366211,2.150812864303589,-0.10738620162010193,0.05076667666435242,0.3101933002471924,-6.402528762817383,-28.020580291748047,15.081748962402344,0.1412506103515625,-0.3373737335205078,0.06661701202392578,4.868880271911621,8.985649108886719,2.084195852279663
7_20251106_170909,1762420115378,7,0.07140076905488968,-0.2620525658130646,-0.5549432039260864,-0.7863004803657532,3.140167236328125,4.691067218780518,2.3753414154052734,5.108288764953613,8.69136905670166,2.2190446853637695,-0.1916855424642563,0.10146845132112503,0.20940059423446655,-6.563694000244141,-28.104225158691406,14.871047973632812,0.1915268898010254,-0.23542404174804688,0.1078791618347168,4.916761875152588,8.926793098449707,2.1111655235290527
7_20251106_170909,1762420115398,7,0.07292657345533371,-0.2626054286956787,-0.552964448928833,-0.7873693108558655,3.1547861099243164,4.6822829246521,2.3931806087493896,5.038860321044922,8.55729866027832,2.260941505432129,-0.2882021367549896,0.15705713629722595,0.08661679923534393,-6.682773590087891,-28.096778869628906,14.582565307617188,0.09767913818359375,-0.2955951690673828,0.11982083320617676,4.941181182861328,8.852893829345703,2.141120672225952
7_20251106_170909,1762420115418,7,0.07356788218021393,-0.26217833161354065,-0.5505176782608032,-0.7891644835472107,3.167722225189209,4.6727986335754395,2.409642219543457,4.847332000732422,8.285569190979004,2.27291202545166,-0.3242431581020355,0.17171789705753326,0.01942167989909649,-6.919170379638672,-28.222862243652344,14.368125915527344,-0.07507944107055664,-0.4538593292236328,0.10543298721313477,4.9224114418029785,8.739428520202637,2.1674790382385254
7_20251106_170909,1762420115437,7,0.07363711297512054,-0.26134493947029114,-0.5479318499565125,-0.7912313938140869,3.1801280975341797,4.661574363708496,2.42690110206604,4.747977256774902,8.167060852050781,2.429725408554077,-0.3364604413509369,0.1283465027809143,0.024308597669005394,-7.1153717041015625,-28.272029876708984,14.237838745117188,-0.13954734802246094,-0.45789432525634766,0.20979714393615723,4.887524604797363,8.624955177307129,2.21992826461792
7_20251106_170909,1762420115456,7,0.07351873815059662,-0.2608342468738556,-0.5452756881713867,-0.7932432889938354,3.190652370452881,4.650073051452637,2.443607807159424,4.642636299133301,8.125164031982422,2.6320266723632812,-0.3364604413509369,0.1283465027809143,0.024308597669005394,-7.325788497924805,-28.371139526367188,13.997879028320312,-0.19591045379638672,-0.39983272552490234,0.3296787738800049,4.8385467529296875,8.524996757507324,2.3023478984832764
7_20251106_170909,1762420115474,7,0.0735916942358017,-0.26065579056739807,-0.542633593082428,-0.7951048016548157,3.1996655464172363,4.638693332672119,2.459585428237915,4.652213096618652,8.107208251953125,2.684696674346924,-0.30591723322868347,0.1081879585981369,0.10494273900985718,-7.475076675415039,-28.46601104736328,13.73333740234375,-0.14906692504882812,-0.3342304229736328,0.3058791160583496,4.8012800216674805,8.441438674926758,2.378817558288574
7_20251106_170909,1762420115494,7,0.07407323271036148,-0.2606154680252075,-0.5399808883666992,-0.7968772649765015,3.2089810371398926,4.625799655914307,2.4772493839263916,4.736006736755371,8.151498794555664,2.6416029930114746,-0.2943107783794403,0.09352720528841019,0.14892499148845673,-7.589809417724609,-28.58441925048828,13.550834655761719,-0.05221891403198242,-0.23195171356201172,0.21022844314575195,4.7882256507873535,8.383450508117676,2.4313745498657227
7_20251106_170909,1762420115513,7,0.0747872143983841,-0.2609359323978424,-0.5372956991195679,-0.7985190749168396,3.217790126800537,4.614104747772217,2.4946908950805664,4.934717178344727,8.362180709838867,2.9779739379882812,-0.32363227009773254,0.08069904893636703,0.15136845409870148,-7.589809417724609,-28.58441925048828,13.550834655761719,0.11719322204589844,-0.017015457153320312,0.43727946281433105,4.817523956298828,8.379196166992188,2.54069447517395
7_20251106_170909,1762420115532,7,0.07537365704774857,-0.26140260696411133,-0.53440260887146,-0.8002508282661438,3.2265591621398926,4.602944850921631,2.5126242637634277,4.963445663452148,8.360982894897461,3.0378262996673584,-0.3352387249469757,0.13323341310024261,0.07562123239040375,-7.656108856201172,-28.711669921875,13.315963745117188,0.11673736572265625,-0.014571189880371094,0.3977055549621582,4.846708297729492,8.375554084777832,2.6401207447052
7_20251106_170909,1762420115551,7,0.07561422139406204,-0.26108619570732117,-0.5315265655517578,-0.8022443652153015,3.2346582412719727,4.591958045959473,2.5307421684265137,4.762341499328613,8.235292434692383,3.0342352390289307,-0.3651711046695709,0.16866357624530792,0.009036978706717491,-7.756961822509766,-28.815380096435547,12.999053955078125,-0.06749343872070312,-0.11220932006835938,0.3152916431427002,4.829834938049316,8.347501754760742,2.7189435958862305
7_20251106_170909,1762420115570,7,0.07547851651906967,-0.26016512513160706,-0.5285663604736328,-0.8045089840888977,3.242114543914795,4.581239223480225,2.549738883972168,4.743188858032227,8.244869232177734,3.3694090843200684,-0.3828861713409424,0.15705713629722595,0.01086957287043333,-7.886205673217773,-28.98413848876953,12.747428894042969,-0.06931686401367188,-0.08210563659667969,0.5203723907470703,4.812505722045898,8.326974868774414,2.849036693572998
7_20251106_170909,1762420115589,7,0.07524578273296356,-0.2593252658843994,-0.5254819393157959,-0.8068192005157471,3.248971700668335,4.570686340332031,2.569495916366577,4.7300214767456055,8.19219970703125,3.472355365753174,-0.31691280007362366,0.1442289799451828,0.06218220666050911,-7.936805725097656,-29.05942153930664,12.41949462890625,-0.06598758697509766,-0.10782051086425781,0.498654842376709,4.796009063720703,8.300020217895508,2.973700523376465
7_20251106_170909,1762420115608,7,0.07546629756689072,-0.2587856948375702,-0.5227264165878296,-0.8087595105171204,3.2551965713500977,4.560194492340088,2.5891404151916504,4.690518379211426,8.129953384399414,3.2927980422973633,-0.31691280007362366,0.1442289799451828,0.06218220666050911,-8.01661491394043,-29.22406005859375,12.075210571289062,-0.08439254760742188,-0.13605308532714844,0.2552781105041504,4.774910926818848,8.266006469726562,3.037519931793213
7_20251106_170909,1762420115627,7,0.07641246169805527,-0.2587586045265198,-0.5206894278526306,-0.8099923729896545,3.2608754634857178,4.550152778625488,2.608499765396118,4.689321517944336,8.238883972167969,3.2916007041931152,-0.16847269237041473,0.05992965027689934,0.186187744140625,-8.093294143676758,-29.32645034790039,11.78631591796875,-0.06847143173217773,-0.021697998046875,0.20326447486877441,4.757792949676514,8.260581970214844,3.088336229324341
7_20251106_170909,1762420115647,7,0.07758832722902298,-0.25934088230133057,-0.5188711285591125,-0.8108606934547424,3.2608754634857178,4.550152778625488,2.608499765396118,4.689321517944336,8.238883972167969,3.2916007041931152,-0.20329196751117706,0.10269017517566681,0.1758030354976654,-8.14992904663086,-29.502731323242188,11.510334014892578,-0.06847143173217773,-0.021697998046875,0.20326447486877441,4.757792949676514,8.260581970214844,3.088336229324341
7_20251106_170909,1762420115666,7,0.07876090705394745,-0.2595759928226471,-0.5167844891548157,-0.8120042085647583,3.272322416305542,4.532461643218994,2.646613121032715,4.923943519592285,8.548919677734375,3.3969411849975586,-0.31202587485313416,0.17721568048000336,0.12632299959659576,-8.238090515136719,-29.593360900878906,11.221210479736328,0.12663841247558594,0.20981788635253906,0.2333228588104248,4.797305107116699,8.339101791381836,3.163618326187134
7_20251106_170909,1762420115685,7,0.0794864371418953,-0.259185254573822,-0.5139120817184448,-0.813879132270813,3.2781388759613037,4.5252251625061035,2.6651222705841064,4.961051940917969,8.473505973815918,3.513054847717285,-0.35478636622428894,0.23036091029644012,0.10311014950275421,-8.355051040649414,-29.761192321777344,10.956558227539062,0.1309976577758789,0.10752391815185547,0.27954912185668945,4.83005428314209,8.365982055664062,3.2335057258605957
7_20251106_170909,1762420115704,7,0.08029422163963318,-0.25822123885154724,-0.5107399821281433,-0.8161000609397888,3.284152030944824,4.518711090087891,2.6836469173431396,5.007737159729004,8.49744701385498,3.576498508453369,-0.33829304575920105,0.18760037422180176,0.13365337252616882,-8.434141159057617,-29.901660919189453,10.707420349121094,0.14214611053466797,0.10517215728759766,0.27439427375793457,4.865591049194336,8.392274856567383,3.3021042346954346
7_20251106_170909,1762420115723,7,0.08116689324378967,-0.2577325403690338,-0.507629930973053,-0.8181061744689941,3.2903892993927,4.512857437133789,2.702408790588379,5.0568156242370605,8.514205932617188,3.7261295318603516,-0.33829304575920105,0.18760037422180176,0.13365337252616882,-8.522302627563477,-29.992290496826172,10.418296813964844,0.15297937393188477,0.09754467010498047,0.3392202854156494,4.903836250305176,8.416661262512207,3.386909246444702
7_20251106_170909,1762420115743,7,0.08209895342588425,-0.2577810287475586,-0.5048417448997498,-0.8197215795516968,3.2971580028533936,4.508076190948486,2.721113920211792,5.211235046386719,8.700944900512695,3.708174228668213,-0.2930890619754791,0.13201168179512024,0.16236400604248047,-8.658601760864258,-30.073673248291016,10.1409912109375,0.24591922760009766,0.22742652893066406,0.25701189041137695,4.965315818786621,8.473518371582031,3.451162338256836
7_20251106_170909,1762420115761,7,0.08308826386928558,-0.2576199471950531,-0.5022830963134766,-0.8212429881095886,3.304699659347534,4.504486560821533,2.739326238632202,5.3704423904418945,8.820650100708008,3.612410068511963,-0.2637675702571869,0.14728331565856934,0.1507575809955597,-8.771232604980469,-30.16602325439453,9.864402770996094,0.32410144805908203,0.27770519256591797,0.1289982795715332,5.0463409423828125,8.54294490814209,3.4834117889404297
7_20251106_170909,1762420115780,7,0.08396089822053909,-0.2573067545890808,-0.4998367428779602,-0.8227435946464539,3.312530040740967,4.5021491050720215,2.7558109760284424,5.4697980880737305,8.9056396484375,3.5214343070983887,-0.23383520543575287,0.07703385502099991,0.12815560400485992,-8.835317611694336,-30.25546646118164,9.616809844970703,0.33876609802246094,0.29015636444091797,0.030417919158935547,5.1310319900512695,8.615483283996582,3.491016387939453
7_20251106_170909,1762420115799,7,0.08449957519769669,-0.2576085329055786,-0.49767768383026123,-0.8239020705223083,3.312530040740967,4.5021491050720215,2.7558109760284424,5.4697980880737305,8.9056396484375,3.5214343070983887,-0.21001148223876953,0.004340957384556532,0.09211458265781403,-9.005849838256836,-30.289676666259766,9.406669616699219,0.33876609802246094,0.29015636444091797,0.030417919158935547,5.1310319900512695,8.615483283996582,3.491016387939453
7_20251106_170909,1762420115818,7,0.08436678349971771,-0.2583673596382141,-0.49584880471229553,-0.824780285358429,3.3315727710723877,4.500716209411621,2.791354179382324,5.509300708770752,8.98464584350586,3.848228931427002,-0.1904638111591339,0.054431866854429245,0.007204385008662939,-9.164617538452148,-30.34686279296875,9.061332702636719,0.23672962188720703,0.22898578643798828,0.24355530738830566,5.272571086883545,8.755660057067871,3.6046736240386963
7_20251106_170909,1762420115838,7,0.08395135402679443,-0.258235901594162,-0.494351327419281,-0.825762152671814,3.341248035430908,4.500582695007324,2.8084614276885986,5.353683948516846,8.801497459411621,3.5585427284240723,-0.17274872958660126,0.11612919718027115,-0.06243419647216797,-9.273427963256836,-30.376026153564453,8.74551773071289,0.06488990783691406,0.03666973114013672,-0.03690481185913086,5.288794040679932,8.764827728271484,3.595447540283203
7_20251106_170909,1762420115856,7,0.08332331478595734,-0.2572685480117798,-0.4931010901927948,-0.8268744945526123,3.349641799926758,4.5002522468566895,2.822829246520996,5.338122367858887,8.677003860473633,3.4903111457824707,-0.18679861724376678,0.08925115317106247,-0.053882088512182236,-9.382732391357422,-30.405860900878906,8.497283935546875,0.03946256637573242,-0.07025909423828125,-0.08410906791687012,5.298659801483154,8.747262954711914,3.574420213699341
7_20251106_170909,1762420115876,7,0.08255194872617722,-0.2566066086292267,-0.491767019033432,-0.8279513120651245,3.349641799926758,4.5002522468566895,2.822829246520996,5.338122367858887,8.677003860473633,3.4903111457824707,-0.17946824431419373,0.019001711159944534,-0.03555614501237869,-9.469074249267578,-30.45922088623047,8.249504089355469,0.03946256637573242,-0.07025909423828125,-0.08410906791687012,5.298659801483154,8.747262954711914,3.574420213699341
7_20251106_170909,1762420115895,7,0.08166356384754181,-0.25656864047050476,-0.49051693081855774,-0.8287923336029053,3.366802453994751,4.499453544616699,2.8532285690307617,5.265102386474609,8.730871200561523,3.830273151397705,-0.1507575958967209,0.0037300926633179188,-0.03983220085501671,-9.509986877441406,-30.560306549072266,8.070209503173828,-0.03584146499633789,-0.01049041748046875,0.18021726608276367,5.300943851470947,8.741361618041992,3.6500558853149414
7_20251106_170909,1762420115914,7,0.08071819692850113,-0.2566017806529999,-0.4894779324531555,-0.8294886946678162,3.3739335536956787,4.4987101554870605,2.86722993850708,5.110682964324951,8.607574462890625,3.6626861095428467,-0.1293773353099823,0.008006146177649498,-0.03616701066493988,-9.550800323486328,-30.661258697509766,7.877399444580078,-0.15220880508422852,-0.10702991485595703,0.01010441780090332,5.26289176940918,8.714604377746582,3.6525816917419434
7_20251106_170909,1762420115933,7,0.07984621822834015,-0.25658953189849854,-0.48857906460762024,-0.8301065564155579,3.380277395248413,4.497785568237305,2.881002426147461,5.105895042419434,8.635107040405273,3.8242876529693604,-0.12754473090171814,0.004340957384556532,-0.008067233487963676,-9.550800323486328,-30.661258697509766,7.877399444580078,-0.1255970001220703,-0.0635976791381836,0.13736462593078613,5.231492042541504,8.698704719543457,3.686923027038574
7_20251106_170909,1762420115952,7,0.07899557054042816,-0.2564620077610016,-0.48853904008865356,-0.8302509188652039,3.3861303329467773,4.4966278076171875,2.894784927368164,5.1681413650512695,8.5968017578125,3.941598653793335,-0.11349485069513321,0.006784416269510984,0.014534762129187584,-9.55374526977539,-30.734848022460938,7.700103759765625,-0.05068016052246094,-0.08152198791503906,0.20374035835266113,5.2188215255737305,8.678323745727539,3.737858295440674
7_20251106_170909,1762420115971,7,0.0783362090587616,-0.2563285529613495,-0.48837506771087646,-0.8304510116577148,3.3916499614715576,4.495123386383057,2.90883469581604,5.204052925109863,8.530963897705078,4.086441516876221,-0.11349485069513321,0.006784416269510984,0.014534762129187584,-9.494560241699219,-30.791236877441406,7.457942962646484,-0.011815071105957031,-0.11788749694824219,0.2788667678833008,5.21586799621582,8.64885139465332,3.80757474899292
7_20251106_170909,1762420115990,7,0.07772108912467957,-0.256481796503067,-0.4883020222187042,-0.8305044770240784,3.3916499614715576,4.495123386383057,2.90883469581604,5.204052925109863,8.530963897705078,4.086441516876221,-0.037136755883693695,-0.019482767209410667,-0.009899826720356941,-9.42548942565918,-30.873157501220703,7.337390899658203,-0.011815071105957031,-0.11788749694824219,0.2788667678833008,5.21586799621582,8.64885139465332,3.80757474899292
7_20251106_170909,1762420116009,7,0.077062226831913,-0.2564319670200348,-0.488384485244751,-0.8305327296257019,3.3973658084869385,4.4929962158203125,2.9245498180389404,5.192082405090332,8.48547649383545,4.094820976257324,-0.02491946518421173,-0.023147955536842346,-0.05327122285962105,-9.415529251098633,-30.921783447265625,7.255729675292969,-0.019028663635253906,-0.13070011138916016,0.2297968864440918,5.211111068725586,8.61617660522461,3.8650240898132324
7_20251106_170909,1762420116029,7,0.07618396729230881,-0.2561745047569275,-0.48864051699638367,-0.8305426239967346,3.4054758548736572,4.487804412841797,2.951655864715576,4.943096160888672,8.295145034790039,4.127140998840332,-0.02491946518421173,-0.023147955536842346,-0.05327122285962105,-9.392282485961914,-30.956520080566406,7.120758056640625,-0.19527912139892578,-0.22537899017333984,0.1826939582824707,5.138375282287598,8.520524024963379,3.9444470405578613
7_20251106_170909,1762420116048,7,0.07534512132406235,-0.25567707419395447,-0.4890126883983612,-0.830553412437439,3.408169746398926,4.484104156494141,2.9654080867767334,4.831769943237305,8.204170227050781,4.15587043762207,0.00928895827382803,-0.02864573709666729,-0.06304506212472916,-9.321491241455078,-31.00130844116211,7.055065155029297,-0.2452840805053711,-0.2530832290649414,0.16913890838623047,5.077054023742676,8.457253456115723,3.98673152923584
7_20251106_170909,1762420116066,7,0.07455384731292725,-0.25512370467185974,-0.4894651174545288,-0.8305284380912781,3.4097604751586914,4.47974967956543,2.977482318878174,4.738400459289551,8.041370391845703,3.863790273666382,0.00928895827382803,-0.02864573709666729,-0.06304506212472916,-9.311630249023438,-31.050067901611328,6.986919403076172,-0.2709226608276367,-0.3327064514160156,-0.09835290908813477,5.0093231201171875,8.374076843261719,3.9621431827545166
7_20251106_170909,1762420116085,7,0.07416301965713501,-0.25452619791030884,-0.4902733862400055,-0.830269992351532,3.4105727672576904,4.474279880523682,2.9889557361602783,4.72403621673584,7.9719414710998535,3.7309179306030273,0.05815814062952995,-0.0255914144217968,0.013923896476626396,-9.261884689331055,-31.03392791748047,6.948596954345703,-0.22822952270507812,-0.32170820236206055,-0.1849803924560547,4.952265739440918,8.293649673461914,3.915898323059082
7_20251106_170909,1762420116105,7,0.07404153048992157,-0.25436022877693176,-0.49102193117141724,-0.8298892378807068,3.4105727672576904,4.474279880523682,2.9889557361602783,4.72403621673584,7.9719414710998535,3.7309179306030273,0.019673660397529602,-0.020093629136681557,0.03896934911608696,-9.251306533813477,-31.058517456054688,6.975593566894531,-0.22822952270507812,-0.32170820236206055,-0.1849803924560547,4.952265739440918,8.293649673461914,3.915898323059082
7_20251106_170909,1762420116124,7,0.07400617748498917,-0.254423588514328,-0.4914713203907013,-0.8296069502830505,3.41192364692688,4.461918354034424,3.0114896297454834,5.016115665435791,8.068902969360352,4.021800994873047,0.05449295416474342,-0.03170005977153778,0.01636735536158085,-9.25330924987793,-31.084442138671875,7.056163787841797,0.06020832061767578,-0.14115619659423828,0.07352352142333984,4.955907344818115,8.21005916595459,3.948277473449707
7_20251106_170909,1762420116144,7,0.0738559439778328,-0.2545071542263031,-0.49193623661994934,-0.8293190598487854,3.4125611782073975,4.455201625823975,3.0219335556030273,4.920351982116699,8.006656646728516,3.833864212036133,0.07831667363643646,-0.04819340631365776,-0.02028452791273594,-9.23930549621582,-31.04637908935547,7.097995758056641,-0.028444290161132812,-0.1627216339111328,-0.09153056144714355,4.948796272277832,8.169378280639648,3.9253947734832764
7_20251106_170909,1762420116163,7,0.07340626418590546,-0.2546956539154053,-0.49257612228393555,-0.8289211988449097,3.41266131401062,4.4484405517578125,3.031055450439453,4.775508880615234,7.914483070373535,3.814711332321167,0.034334417432546616,-0.04880427196621895,-0.037999607622623444,-9.176359176635742,-31.004871368408203,7.114757537841797,-0.13862991333007812,-0.2039165496826172,-0.0885465145111084,4.9141387939453125,8.118399620056152,3.9032578468322754
7_20251106_170909,1762420116181,7,0.07267442345619202,-0.25485900044441223,-0.49309042096138,-0.8286296725273132,3.4124011993408203,4.441529273986816,3.038985252380371,4.771918296813965,7.782807350158691,3.7895734310150146,0.031280092895030975,-0.02192622609436512,-0.01661933772265911,-9.104751586914062,-31.025352478027344,7.130687713623047,-0.11377620697021484,-0.26847362518310547,-0.09094738960266113,4.88569450378418,8.051280975341797,3.880520820617676
7_20251106_170909,1762420116201,7,0.07227596640586853,-0.254740446805954,-0.4935193955898285,-0.8284456133842468,3.4117698669433594,4.433228492736816,3.0460128784179688,4.768326759338379,7.7205610275268555,3.438838005065918,0.047773439437150955,-0.0359761118888855,0.017589084804058075,-9.078054428100586,-30.97420883178711,7.200305938720703,-0.09389448165893555,-0.2645759582519531,-0.3533461093902588,4.8622212409973145,7.985136985778809,3.7921841144561768
7_20251106_170909,1762420116220,7,0.07206086069345474,-0.2550240159034729,-0.49388328194618225,-0.8281601667404175,3.411172389984131,4.425539970397949,3.051957368850708,4.852120399475098,7.913286209106445,3.6471245288848877,0.016619335860013962,-0.06102156639099121,0.04507799446582794,-9.028295516967773,-30.946456909179688,7.256858825683594,-0.008080482482910156,-0.057480812072753906,-0.11604762077331543,4.860200881958008,7.970767021179199,3.763172149658203
7_20251106_170909,1762420116238,7,0.07177502661943436,-0.25592538714408875,-0.49426525831222534,-0.827678918838501,3.4111011028289795,4.419053554534912,3.0575993061065674,5.049633026123047,8.146711349487305,3.881746292114258,-0.024308599531650543,-0.00909806601703167,0.007204385008662939,-9.015602111816406,-30.93337631225586,7.284645080566406,0.15154552459716797,0.14075565338134766,0.09485912322998047,4.898087501525879,8.005955696105957,3.7868871688842773
7_20251106_170909,1762420116258,7,0.07138054072856903,-0.2561127841472626,-0.49427536129951477,-0.8276490569114685,3.4115846157073975,4.41264533996582,3.0635993480682373,5.081954002380371,8.15030288696289,3.801543951034546,-0.010869575664401054,-0.023147951811552048,-0.05021689832210541,-9.013486862182617,-30.895706176757812,7.285438537597656,0.1470932960510254,0.1154775619506836,0.011725425720214844,4.934860706329346,8.034825325012207,3.789818525314331
7_20251106_170909,1762420116277,7,0.07058625668287277,-0.25611060857772827,-0.49438655376434326,-0.8276514410972595,3.4121782779693604,4.407270908355713,3.0695981979370117,4.992175102233887,8.183819770812988,4.00264835357666,-0.018199952319264412,-0.07384973019361496,-0.07709494233131409,-8.999595642089844,-30.86939239501953,7.245906829833984,0.045851707458496094,0.11919593811035156,0.17026376724243164,4.946323394775391,8.064623832702637,3.8323845863342285
7_20251106_170909,1762420116297,7,0.06925450265407562,-0.2565361559391022,-0.49457767605781555,-0.8275179266929626,3.412511110305786,4.402011394500732,3.0761873722076416,4.860499382019043,8.102420806884766,4.0265889167785645,-0.010869575664401054,-0.0665193572640419,-0.09664261341094971,-8.964433670043945,-30.880508422851562,7.341728210449219,-0.06865930557250977,0.030237197875976562,0.1553635597229004,4.929158687591553,8.072183609008789,3.871225357055664
7_20251106_170909,1762420116315,7,0.06792738288640976,-0.2564851939678192,-0.4947240650653839,-0.8275562524795532,3.4121432304382324,4.397418022155762,3.0817408561706543,4.664183616638184,8.032991409301758,3.8386523723602295,-0.0004848754033446312,-0.05491291731595993,-0.11069250106811523,-8.952655792236328,-30.891868591308594,7.3014068603515625,-0.21197986602783203,-0.03135395050048828,-0.026058435440063477,4.876163482666016,8.064345359802246,3.864710807800293
7_20251106_170909,1762420116335,7,0.06669589132070541,-0.2560648024082184,-0.49496498703956604,-0.8276425004005432,3.4106483459472656,4.392470359802246,3.0875346660614014,4.512158393859863,8.031794548034668,3.8422436714172363,-0.05179750919342041,-0.0005459593376144767,-0.11924462020397186,-8.928777694702148,-30.890953063964844,7.369968414306641,-0.29120397567749023,-0.026041030883789062,-0.017973899841308594,4.8033623695373535,8.057835578918457,3.860217571258545
7_20251106_170909,1762420116354,7,0.06544700264930725,-0.25514376163482666,-0.4950103759765625,-0.827999472618103,3.4084115028381348,4.387930393218994,3.093407154083252,4.4798383712768555,8.030597686767578,4.094820976257324,-0.07562123984098434,0.03732765093445778,-0.09664261341094971,-8.93220329284668,-30.95360565185547,7.355133056640625,-0.2588191032409668,-0.021790504455566406,0.1876826286315918,4.738657474517822,8.052388191223145,3.9071383476257324
7_20251106_170909,1762420116373,7,0.06454899162054062,-0.2538224756717682,-0.4948744773864746,-0.8285570740699768,3.4057257175445557,4.38337516784668,3.099095582962036,4.465473175048828,7.861812591552734,4.070879936218262,-0.012091306038200855,0.038549382239580154,-0.02944749779999256,-8.93220329284668,-30.95360565185547,7.355133056640625,-0.21854734420776367,-0.15246009826660156,0.13099336624145508,4.684020519256592,8.014272689819336,3.9398865699768066
7_20251106_170909,1762420116392,7,0.06451033055782318,-0.2525211274623871,-0.4948454201221466,-0.8289749622344971,3.402470111846924,4.377979755401611,3.1045522689819336,4.545675754547119,7.821113109588623,3.7596471309661865,-0.012091306038200855,0.038549382239580154,-0.02944749779999256,-8.906124114990234,-30.926498413085938,7.316093444824219,-0.11067581176757812,-0.15452814102172852,-0.14419150352478027,4.656351566314697,7.975641250610352,3.903838634490967
7_20251106_170909,1762420116412,7,0.06532099843025208,-0.25206515192985535,-0.49501654505729675,-0.8289480805397034,3.402470111846924,4.377979755401611,3.1045522689819336,4.545675754547119,7.821113109588623,3.7596471309661865,0.05693640932440758,-0.03964129835367203,0.15320104360580444,-8.854362487792969,-30.872821807861328,7.292079925537109,-0.11067581176757812,-0.15452814102172852,-0.14419150352478027,4.656351566314697,7.975641250610352,3.903838634490967
7_20251106_170909,1762420116429,7,0.06635192036628723,-0.2527168393135071,-0.49526506662368774,-0.8285192251205444,3.3985190391540527,4.36965799331665,3.1130475997924805,5.06998348236084,8.218534469604492,3.876958131790161,0.03983220085501671,-0.010319795459508896,0.12571214139461517,-8.865942001342773,-30.861194610595703,7.305370330810547,0.30590295791625977,0.17996788024902344,0.003289937973022461,4.76408052444458,8.038566589355469,3.8736681938171387
7_20251106_170909,1762420116448,7,0.06721752136945724,-0.25327250361442566,-0.49550339579582214,-0.828137218952179,3.397930860519409,4.366194248199463,3.1163339614868164,5.054421424865723,8.108406066894531,3.6028337478637695,0.03983220085501671,-0.010319795459508896,0.12571214139461517,-8.852853775024414,-30.847572326660156,7.279090881347656,0.23227262496948242,0.05587196350097656,-0.21666765213012695,4.82214879989624,8.052534103393555,3.8195013999938965
7_20251106_170909,1762420116468,7,0.06762228906154633,-0.25343817472457886,-0.4955386221408844,-0.8280324935913086,3.3978922367095947,4.362648963928223,3.1187214851379395,5.002948760986328,8.025809288024902,3.5238285064697266,-0.0065935226157307625,0.03305159881711006,0.027973785996437073,-8.876224517822266,-30.836196899414062,7.237823486328125,0.1446399688720703,-0.02138042449951172,-0.23653841018676758,4.858308792114258,8.047189712524414,3.760366916656494
7_20251106_170909,1762420116488,7,0.06780507415533066,-0.25364553928375244,-0.4956987202167511,-0.8278582096099854,3.398590087890625,4.359445571899414,3.1209728717803955,5.09990930557251,8.10122299194336,3.75485897064209,-0.03958021476864815,0.019612576812505722,0.018199950456619263,-8.900089263916016,-30.825496673583984,7.264137268066406,0.19328069686889648,0.04322624206542969,-0.004406452178955078,4.906628608703613,8.05799674987793,3.759265422821045
7_20251106_170909,1762420116506,7,0.06756347417831421,-0.2540678381919861,-0.4956143796443939,-0.8277989625930786,3.398590087890625,4.359445571899414,3.1209728717803955,5.09990930557251,8.10122299194336,3.75485897064209,-0.030417244881391525,0.001286633894778788,0.002928331959992647,-8.946409225463867,-30.77898406982422,7.317295074462891,0.19328069686889648,0.04322624206542969,-0.004406452178955078,4.906628608703613,8.05799674987793,3.759265422821045
7_20251106_170909,1762420116525,7,0.06721509993076324,-0.25447878241539,-0.49542078375816345,-0.8278169631958008,3.3999669551849365,4.356929302215576,3.1232948303222656,5.178915023803711,8.19459342956543,3.864987373352051,-0.023697733879089355,-0.020704496651887894,-0.02944749779999256,-9.004222869873047,-30.732322692871094,7.275348663330078,0.21782922744750977,0.10927772521972656,0.08457756042480469,4.961085796356201,8.085315704345703,3.780409812927246
7_20251106_170909,1762420116546,7,0.06662701815366745,-0.25484222173690796,-0.4953138530254364,-0.8278166651725769,3.403651714324951,4.35343599319458,3.128441572189331,5.038860321044922,8.191001892089844,3.9487810134887695,-0.040191080421209335,-0.03903043642640114,-0.06365592777729034,-9.040668487548828,-30.722957611083984,7.3552398681640625,0.03617715835571289,0.053849220275878906,0.1265273094177246,5.002683162689209,8.137152671813965,3.822253704071045
7_20251106_170909,1762420116564,7,0.06561105698347092,-0.2550935745239258,-0.49529528617858887,-0.827831506729126,3.405071973800659,4.351896286010742,3.1310880184173584,4.91676139831543,8.082070350646973,3.9212489128112793,-0.020032547414302826,-0.04269562289118767,-0.08014927804470062,-9.04178237915039,-30.747669219970703,7.3141632080078125,-0.06873750686645508,-0.04406547546386719,0.07919621467590332,4.985498905181885,8.12613582611084,3.842052698135376
7_20251106_170909,1762420116583,7,0.06460507214069366,-0.2550981044769287,-0.4953291416168213,-0.8278889656066895,3.405071973800659,4.351896286010742,3.1310880184173584,4.91676139831543,8.082070350646973,3.9212489128112793,-0.010869575664401054,-0.026202276349067688,-0.07953840494155884,-9.055179595947266,-30.77330780029297,7.286113739013672,-0.06873750686645508,-0.04406547546386719,0.07919621467590332,4.985498905181885,8.12613582611084,3.842052698135376
7_20251106_170909,1762420116602,7,0.06360281258821487,-0.25495079159736633,-0.4953800439834595,-0.8279815316200256,3.4059154987335205,4.347750186920166,3.1361820697784424,4.641439437866211,7.9084978103637695,3.8075289726257324,-0.029806382954120636,0.008006146177649498,-0.06121246516704559,-9.064842224121094,-30.72427749633789,7.327228546142578,-0.2406916618347168,-0.15518569946289062,-0.027074813842773438,4.882131099700928,8.06368350982666,3.834603786468506
7_20251106_170909,1762420116621,7,0.06298382580280304,-0.2544446289539337,-0.49535760283470154,-0.8281978964805603,3.405264377593994,4.3450236320495605,3.1386051177978516,4.647424697875977,7.8606157302856445,3.876958131790161,-0.026752058416604996,0.02022344060242176,-0.028225770220160484,-9.077350616455078,-30.748703002929688,7.177532196044922,-0.18776512145996094,-0.16245365142822266,0.03388357162475586,4.8351898193359375,8.023069381713867,3.8430745601654053
7_20251106_170909,1762420116640,7,0.0627211406826973,-0.2538810670375824,-0.4952966272830963,-0.828427255153656,3.4042751789093018,4.342243671417236,3.140582799911499,4.700094699859619,7.953986167907715,3.7249326705932617,-0.009036981500685215,0.031219005584716797,0.0059826551005244255,-9.041807174682617,-30.770896911621094,7.124412536621094,-0.10807609558105469,-0.055266380310058594,-0.0945136547088623,4.808170795440674,8.009252548217773,3.819446325302124
7_20251106_170909,1762420116659,7,0.06278783828020096,-0.25342467427253723,-0.49515220522880554,-0.8286482095718384,3.4042751789093018,4.342243671417236,3.140582799911499,4.700094699859619,7.953986167907715,3.7249326705932617,-0.023086870089173317,0.011060469783842564,0.04324540123343468,-8.9822998046875,-30.803653717041016,7.031459808349609,-0.10807609558105469,-0.055266380310058594,-0.0945136547088623,4.808170795440674,8.009252548217773,3.819446325302124
7_20251106_170909,1762420116678,7,0.06289330869913101,-0.25348588824272156,-0.49502038955688477,-0.8287002444267273,3.40252685546875,4.336902618408203,3.143596887588501,4.9335198402404785,8.108406066894531,3.9499778747558594,-0.046910591423511505,-0.0255914144217968,0.06951258331537247,-8.933246612548828,-30.78845977783203,7.087749481201172,0.10569620132446289,0.09084701538085938,0.13199710845947266,4.827823638916016,8.017559051513672,3.8179807662963867
7_20251106_170909,1762420116697,7,0.06290288269519806,-0.2541755735874176,-0.4946841299533844,-0.8286890983581543,3.402514934539795,4.3352155685424805,3.1456375122070312,5.066391944885254,8.223322868347168,4.0277862548828125,-0.008426116779446602,-0.013984983786940575,0.0420236736536026,-8.89761734008789,-30.822132110595703,6.926235198974609,0.19085454940795898,0.1646108627319336,0.16784429550170898,4.875537395477295,8.058712005615234,3.8599419593811035
7_20251106_170909,1762420116717,7,0.06306587904691696,-0.2544422447681427,-0.4944993853569031,-0.8287051320075989,3.403057098388672,4.333889484405518,3.1478800773620605,5.041254043579102,8.220928192138672,3.8542141914367676,0.009288960136473179,-0.008487201295793056,-0.0050129094161093235,-8.935386657714844,-30.84935760498047,6.8972015380859375,0.13257312774658203,0.12977313995361328,-0.00458216667175293,4.9086809158325195,8.091155052185059,3.8587963581085205
7_20251106_170909,1762420116735,7,0.06274246424436569,-0.25463324785232544,-0.49444809556007385,-0.8287016153335571,3.403057098388672,4.333889484405518,3.1478800773620605,5.041254043579102,8.220928192138672,3.8542141914367676,-0.007815252058207989,-0.005432878155261278,-0.037999603897333145,-8.946670532226562,-30.837326049804688,6.869941711425781,0.13257312774658203,0.12977313995361328,-0.00458216667175293,4.9086809158325195,8.091155052185059,3.8587963581085205
7_20251106_170909,1762420116755,7,0.062122561037540436,-0.2547259032726288,-0.4945433735847473,-0.8286629915237427,3.403670310974121,4.332854747772217,3.149942398071289,4.9490814208984375,8.145514488220215,3.8697755336761475,-0.02491946518421173,0.014725659042596817,-0.05937987565994263,-8.962182998657227,-30.900634765625,6.841098785400391,0.032320499420166016,0.043487548828125,0.008783340454101562,4.9167609214782715,8.10202693939209,3.860992193222046
7_20251106_170909,1762420116774,7,0.06152503564953804,-0.2544037699699402,-0.4945427477359772,-0.8288068771362305,3.403984785079956,4.330749988555908,3.1534438133239746,4.734809875488281,7.968350410461426,3.7811942100524902,-0.012702169828116894,0.018390845507383347,-0.056936413049697876,-8.99702262878418,-30.865886688232422,6.8944854736328125,-0.13483524322509766,-0.10585498809814453,-0.06811666488647461,4.869645118713379,8.07420539855957,3.849310874938965
7_20251106_170909,1762420116794,7,0.0609932467341423,-0.25394612550735474,-0.49460986256599426,-0.8289464712142944,3.403467893600464,4.329182147979736,3.1547060012817383,4.706079959869385,7.928847789764404,3.7440853118896484,-0.023086870089173317,0.01716911792755127,-0.02394971437752247,-9.022903442382812,-30.892723083496094,6.906494140625,-0.13085222244262695,-0.11628580093383789,-0.08418035507202148,4.836932182312012,8.045133590698242,3.82826566696167
7_20251106_170909,1762420116811,7,0.06077238917350769,-0.2535909414291382,-0.49461108446121216,-0.8290706872940063,3.402801275253296,4.327617645263672,3.155714273452759,4.755159378051758,7.982715129852295,3.7764058113098145,-0.05179751291871071,0.0025083632208406925,0.013923896476626396,-9.022903442382812,-30.892723083496094,6.906494140625,-0.06541824340820312,-0.04993486404418945,-0.041487693786621094,4.820577621459961,8.032649993896484,3.8178935050964355
7_20251106_170909,1762420116831,7,0.06059645116329193,-0.2536214590072632,-0.4942985475063324,-0.8292605876922607,3.4023354053497314,4.326229095458984,3.1571109294891357,4.898805141448975,8.119178771972656,3.927234172821045,-0.04813232272863388,-0.0255914144217968,0.02614119090139866,-9.049192428588867,-30.931713104248047,6.877689361572266,0.06258201599121094,0.06922245025634766,0.08747243881225586,4.836223125457764,8.049956321716309,3.839761734008789
7_20251106_170909,1762420116851,7,0.06035361811518669,-0.25397059321403503,-0.49398165941238403,-0.82936030626297,3.402487277984619,4.325484275817871,3.1589694023132324,5.0448455810546875,8.2352933883667,4.057712078094482,-0.0420236773788929,-0.010930659249424934,0.012091303244233131,-9.037105560302734,-30.931053161621094,6.891696929931641,0.16689777374267578,0.1482696533203125,0.1743602752685547,4.877947807312012,8.087023735046387,3.8833518028259277
7_20251106_170909,1762420116869,7,0.060222238302230835,-0.2541027069091797,-0.4936586320400238,-0.8295217156410217,3.403263568878174,4.324855327606201,3.160369396209717,5.108288764953613,8.115588188171387,3.750070810317993,-0.0420236773788929,-0.010930659249424934,0.012091303244233131,-9.050392150878906,-30.944942474365234,6.94500732421875,0.18427276611328125,0.022850990295410156,-0.10662484169006348,4.924015998840332,8.092737197875977,3.8566956520080566
7_20251106_170909,1762420116888,7,0.05994618311524391,-0.2541874647140503,-0.4935093820095062,-0.8296045064926147,3.404864549636841,4.324234962463379,3.1610324382781982,5.238767147064209,8.084465026855469,3.6136069297790527,0.004402042366564274,-0.05246945843100548,-0.01356501504778862,-9.051406860351562,-30.96951675415039,6.890415191650391,0.2518010139465332,-0.006617546081542969,-0.19447088241577148,4.986966133117676,8.091082572937012,3.808077812194824
7_20251106_170909,1762420116907,7,0.05942409485578537,-0.2549997866153717,-0.49368974566459656,-0.8292854428291321,3.4075229167938232,4.324005126953125,3.1614112854003906,5.4015655517578125,8.222125053405762,3.7165534496307373,0.004402042366564274,-0.05246945843100548,-0.01356501504778862,-9.04043197631836,-30.993568420410156,6.863346099853516,0.3316793441772461,0.10483455657958984,-0.07321953773498535,5.069886207580566,8.117290496826172,3.7897729873657227
7_20251106_170909,1762420116927,7,0.05809943377971649,-0.25627633929252625,-0.4936765134334564,-0.8289936184883118,3.411160469055176,4.324275970458984,3.1612327098846436,5.391989707946777,8.281977653503418,3.6064248085021973,-0.02553032711148262,-0.06835194677114487,-0.05266036093235016,-9.005184173583984,-31.01616668701172,6.850772857666016,0.25768280029296875,0.13174915313720703,-0.14667844772338867,5.134306907653809,8.150228500366211,3.753103256225586
7_20251106_170909,1762420116947,7,0.056110307574272156,-0.25709137320518494,-0.4935663342475891,-0.8289438486099243,3.411160469055176,4.324275970458984,3.1612327098846436,5.391989707946777,8.281977653503418,3.6064248085021973,-0.0933363139629364,-0.06774108111858368,-0.2505805194377899,-8.946565628051758,-31.05013656616211,6.879467010498047,0.25768280029296875,0.13174915313720703,-0.14667844772338867,5.134306907653809,8.150228500366211,3.753103256225586
7_20251106_170909,1762420116966,7,0.053001414984464645,-0.2576676607131958,-0.4935298562049866,-0.8289912939071655,3.417463541030884,4.325720310211182,3.1602187156677246,4.872469902038574,8.2508544921875,3.78358793258667,-0.1452598124742508,-0.05613464489579201,-0.3281603157520294,-8.896820068359375,-31.03399658203125,6.841144561767578,-0.21718168258666992,0.060761451721191406,0.04479169845581055,5.089651584625244,8.190093040466309,3.7387962341308594
7_20251106_170909,1762420116984,7,0.04939884692430496,-0.2574249505996704,-0.4933765232563019,-0.8293803334236145,3.417463541030884,4.325720310211182,3.1602187156677246,4.872469902038574,8.2508544921875,3.78358793258667,-0.1550336629152298,-0.05796724185347557,-0.3489297330379486,-8.797428131103516,-31.001853942871094,6.77801513671875,-0.21718168258666992,0.060761451721191406,0.04479169845581055,5.089651584625244,8.190093040466309,3.7387962341308594
7_20251106_170909,1762420117003,7,0.045753639191389084,-0.25652340054512024,-0.4931778907775879,-0.8299866914749146,3.4185242652893066,4.32673978805542,3.160332679748535,4.583981037139893,8.265218734741211,3.9080810546875,-0.11960349977016449,-0.06285416334867477,-0.30494746565818787,-8.690290451049805,-31.05614471435547,6.645946502685547,-0.40453672409057617,0.060100555419921875,0.13542771339416504,4.988517761230469,8.205118179321289,3.772653341293335
7_20251106_170909,1762420117022,7,0.04262767732143402,-0.25532716512680054,-0.4931785762310028,-0.8305214047431946,3.415562152862549,4.327824115753174,3.1625821590423584,4.165013790130615,8.01982307434082,4.040953636169434,-0.07439950853586197,-0.07995837181806564,-0.19804617762565613,-8.541845321655273,-31.008808135986328,6.639106750488281,-0.5584530830383301,-0.14233875274658203,0.16271066665649414,4.723466873168945,8.162161827087402,3.8782429695129395
7_20251106_170909,1762420117041,7,0.04062797501683235,-0.25426560640335083,-0.49315401911735535,-0.8309617638587952,3.415562152862549,4.327824115753174,3.1625821590423584,4.165013790130615,8.01982307434082,4.040953636169434,-0.01575649343430996,-0.11905372142791748,-0.07037544250488281,-8.382722854614258,-30.985923767089844,6.645744323730469,-0.5584530830383301,-0.14233875274658203,0.16271066665649414,4.723466873168945,8.162161827087402,3.8782429695129395
7_20251106_170909,1762420117060,7,0.03967873379588127,-0.25388282537460327,-0.49334922432899475,-0.831008791923523,3.407536268234253,4.327857971191406,3.1673171520233154,4.375694274902344,8.193395614624023,4.141505718231201,0.022117119282484055,-0.09645172208547592,0.002928331959992647,-8.198831558227539,-30.960914611816406,6.599300384521484,-0.19939947128295898,0.04335594177246094,0.1667642593383789,4.575093746185303,8.150039672851562,3.9747414588928223
7_20251106_170909,1762420117079,7,0.03950456157326698,-0.25369173288345337,-0.4935062825679779,-0.8309822082519531,3.407536268234253,4.327857971191406,3.1673171520233154,4.375694274902344,8.193395614624023,4.141505718231201,0.009899823926389217,-0.03841957077383995,0.020643409341573715,-8.025829315185547,-30.92333221435547,6.471530914306641,-0.19939947128295898,0.04335594177246094,0.1667642593383789,4.575093746185303,8.150039672851562,3.9747414588928223
7_20251106_170909,1762420117100,7,0.03964347019791603,-0.25332826375961304,-0.4935395121574402,-0.8310667276382446,3.398664951324463,4.328304767608643,3.1721038818359375,4.528916835784912,8.182622909545898,3.9822983741760254,-0.009036981500685215,-0.006043742876499891,0.02186513878405094,-7.854730606079102,-30.911537170410156,6.410816192626953,-0.016529083251953125,0.020470619201660156,0.010965347290039062,4.545445919036865,8.162152290344238,3.9713330268859863
7_20251106_170909,1762420117117,7,0.039615143090486526,-0.2531357407569885,-0.49350443482398987,-0.8311476111412048,3.3949365615844727,4.328540802001953,3.1741480827331543,4.580389976501465,8.167060852050781,3.9643425941467285,-0.009036981500685215,-0.006043742876499891,0.02186513878405094,-7.756847381591797,-30.904644012451172,6.360675811767578,0.027955055236816406,0.0039272308349609375,-0.00559234619140625,4.552434921264648,8.16313362121582,3.9699349403381348
7_20251106_170909,1762420117137,7,0.03966180607676506,-0.2530432641506195,-0.4934532046318054,-0.8312039375305176,3.3912789821624756,4.328925609588623,3.1768457889556885,4.643833160400391,8.20776081085205,4.147490978240967,0.0300583615899086,-0.050026003271341324,0.03835848346352577,-7.720697402954102,-30.914413452148438,6.3213348388671875,0.07311868667602539,0.035701751708984375,0.1420450210571289,4.570714473724365,8.172059059143066,4.005445957183838
7_20251106_170909,1762420117156,7,0.039736464619636536,-0.2534252405166626,-0.4936143159866333,-0.8309882879257202,3.3882081508636475,4.329236030578613,3.1792924404144287,4.654606819152832,8.158681869506836,4.009830474853516,0.07953840494155884,-0.03903043642640114,0.03530416265130043,-7.722501754760742,-30.940067291259766,6.374870300292969,0.06711387634277344,-0.010702133178710938,0.0035076141357421875,4.587492942810059,8.169384002685547,4.006322860717773
7_20251106_170909,1762420117175,7,0.04001101106405258,-0.2536174952983856,-0.4939640760421753,-0.8307085633277893,3.385432243347168,4.329383373260498,3.181255340576172,4.639045238494873,8.115588188171387,3.874563694000244,0.08259272575378418,-0.02498054876923561,0.027362922206521034,-7.6999359130859375,-30.964130401611328,6.429389953613281,0.041242122650146484,-0.043036460876464844,-0.1054072380065918,4.597803115844727,8.158624649047852,3.979970932006836
7_20251106_170909,1762420117195,7,0.040331289172172546,-0.2537580132484436,-0.49446040391921997,-0.8303548097610474,3.385432243347168,4.329383373260498,3.181255340576172,4.639045238494873,8.115588188171387,3.874563694000244,0.03677787631750107,0.004951822105795145,0.006593519821763039,-7.6999359130859375,-30.964130401611328,6.429389953613281,0.041242122650146484,-0.043036460876464844,-0.1054072380065918,4.597803115844727,8.158624649047852,3.979970932006836
