session_id,timestamp,label,quaternion_w,quaternion_x,quaternion_y,quaternion_z,position_x,position_y,position_z,accelerometer_x,accelerometer_y,accelerometer_z,gyroscope_x,gyroscope_y,gyroscope_z,magnetometer_x,magnetometer_y,magnetometer_z,linear_acceleration_x,linear_acceleration_y,linear_acceleration_z,gravity_x,gravity_y,gravity_z
4_20251106_214346,1762436589237,4,0.31635528802871704,0.43776464462280273,0.7227547764778137,0.431169331073761,-0.20244206488132477,2.8401451110839844,0.8424044251441956,-0.5142521858215332,8.680595397949219,-4.11693811416626,-0.3543320596218109,0.2526765465736389,-0.18474841117858887,30.222187042236328,-3.24365234375,28.426246643066406,-0.11502966284751892,0.940765380859375,0.16744279861450195,-0.3992225229740143,7.739830017089844,-4.284380912780762
4_20251106_214346,1762436589255,4,0.31584417819976807,0.43296095728874207,0.723734438419342,0.43473634123802185,-0.20244206488132477,2.8401451110839844,0.8424044251441956,-0.5142521858215332,8.680595397949219,-4.11693811416626,-0.3543320596218109,0.2526765465736389,-0.18474841117858887,30.156646728515625,-3.3118896484375,28.571151733398438,-0.11502966284751892,0.940765380859375,0.16744279861450195,-0.3992225229740143,7.739830017089844,-4.284380912780762
4_20251106_214346,1762436589275,4,0.315509170293808,0.4282087981700897,0.7248271107673645,0.4378548562526703,-0.19637833535671234,2.861521005630493,0.7487729787826538,-0.6519128680229187,9.201312065124512,-4.058282375335693,-0.3127932548522949,0.20930516719818115,-0.17497457563877106,30.102684020996094,-3.391754150390625,28.702770233154297,-0.1532946228981018,0.9761438369750977,0.15447092056274414,-0.4986182451248169,8.225168228149414,-4.2127532958984375
4_20251106_214346,1762436589294,4,0.31520330905914307,0.4238128960132599,0.7256650924682617,0.4409531056880951,-0.19637833535671234,2.861521005630493,0.7487729787826538,-0.6519128680229187,9.201312065124512,-4.058282375335693,-0.309128075838089,0.1867031753063202,-0.14443133771419525,30.03411102294922,-3.5221099853515625,28.778778076171875,-0.1532946228981018,0.9761438369750977,0.15447092056274414,-0.4986182451248169,8.225168228149414,-4.2127532958984375
4_20251106_214346,1762436589314,4,0.3149283528327942,0.41978761553764343,0.7262519001960754,0.4440232515335083,-0.1900385618209839,2.8921077251434326,0.6686593890190125,-0.14915210008621216,9.32939624786377,-3.543550968170166,-0.309128075838089,0.1867031753063202,-0.14443133771419525,29.97943115234375,-3.6261444091796875,28.81525421142578,0.2623469829559326,0.7181978225708008,0.46161508560180664,-0.4114990830421448,8.611198425292969,-4.005166053771973
4_20251106_214346,1762436589332,4,0.31476351618766785,0.41586679220199585,0.7269279956817627,0.4467151463031769,-0.1851588487625122,2.909626007080078,0.6345160603523254,0.14292794466018677,9.419174194335938,-3.2490768432617188,-0.21261146664619446,0.22396591305732727,-0.2611064910888672,29.950336456298828,-3.7037506103515625,28.880271911621094,0.44354164600372314,0.6463804244995117,0.6048712730407715,-0.3006137013435364,8.772793769836426,-3.8539481163024902
4_20251106_214346,1762436589351,4,0.3150867223739624,0.412505179643631,0.7276240587234497,0.448467493057251,-0.17950327694416046,2.9276444911956787,0.6036146283149719,0.071104995906353,9.274332046508789,-3.294564723968506,-0.21261146664619446,0.22396591305732727,-0.2611064910888672,29.922142028808594,-3.768524169921875,28.91851806640625,0.297374963760376,0.4012308120727539,0.4475066661834717,-0.22626996040344238,8.873101234436035,-3.7420713901519775
4_20251106_214346,1762436589371,4,0.31381797790527344,0.40630611777305603,0.730542778968811,0.4502675533294678,-0.17462491989135742,2.945692777633667,0.5733348727226257,-0.4819318354129791,8.882896423339844,-3.5375657081604004,-0.05806268751621246,0.4597597122192383,-0.5757017731666565,29.921859741210938,-3.7573165893554688,29.053943634033203,-0.20452949404716492,0.007836341857910156,0.1636044979095459,-0.2774023413658142,8.875060081481934,-3.7011702060699463
4_20251106_214346,1762436589389,4,0.312415212392807,0.39894360303878784,0.7344313263893127,0.45149898529052734,-0.1724637895822525,2.961007595062256,0.547200083732605,-1.0936239957809448,8.827832221984863,-3.8009166717529297,-0.09899062663316727,0.42494040727615356,-0.5818104147911072,29.827190399169922,-3.71343994140625,29.051074981689453,-0.6529773473739624,-0.037781715393066406,-0.07979702949523926,-0.4406466484069824,8.86561393737793,-3.7211196422576904
4_20251106_214346,1762436589410,4,0.3114737570285797,0.39150291681289673,0.7380787134170532,0.45271337032318115,-0.1741788238286972,2.9778871536254883,0.5179625749588013,-1.6670106649398804,8.837409019470215,-3.8021135330200195,-0.1839008331298828,0.258174329996109,-0.4266508221626282,29.799102783203125,-3.55352783203125,29.147647857666016,-0.9810912013053894,-0.022563934326171875,-0.06479501724243164,-0.685919463634491,8.859972953796387,-3.737318515777588
4_20251106_214346,1762436589428,4,0.31145045161247253,0.3856234848499298,0.7402642369270325,0.454204797744751,-0.17900221049785614,2.991523265838623,0.49388039112091064,-2.0775985717773438,8.815861701965332,-3.8487987518310547,-0.22238530218601227,0.02176969312131405,-0.2042960673570633,29.743331909179688,-3.44610595703125,29.309768676757812,-1.113343358039856,-0.03528881072998047,-0.08918428421020508,-0.9642552137374878,8.851150512695312,-3.7596144676208496
4_20251106_214346,1762436589447,4,0.31235942244529724,0.382154643535614,0.7407684326171875,0.4556879997253418,-0.18776388466358185,3.0054025650024414,0.4689677059650421,-2.3948166370391846,8.925990104675293,-4.037932395935059,-0.2504850924015045,-0.1223943829536438,-0.046692971140146255,29.694103240966797,-3.2253952026367188,29.44723129272461,-1.1444491147994995,0.059871673583984375,-0.2226543426513672,-1.250367522239685,8.866118431091309,-3.8152780532836914
4_20251106_214346,1762436589466,4,0.3137205243110657,0.38024163246154785,0.7401970624923706,0.4572789669036865,-0.2002258002758026,3.01838755607605,0.4447357654571533,-2.7587196826934814,8.79311752319336,-4.02117395401001,-0.29691076278686523,-0.10467930883169174,-0.0008781170472502708,29.69009017944336,-3.0642929077148438,29.58533477783203,-1.206681728363037,-0.05840110778808594,-0.1647167205810547,-1.5520379543304443,8.851518630981445,-3.856457233428955
4_20251106_214346,1762436589485,4,0.3149510324001312,0.3784179985523224,0.7393361330032349,0.45933401584625244,-0.2170206606388092,3.0295746326446533,0.4214441180229187,-3.3584413528442383,8.432806015014648,-3.955336093902588,-0.3189018964767456,-0.008162681013345718,-0.03508654236793518,29.684852600097656,-2.9396514892578125,29.601001739501953,-1.4451227188110352,-0.33497047424316406,-0.07910323143005371,-1.9133186340332031,8.767776489257812,-3.876232862472534
4_20251106_214346,1762436589504,4,0.3157768249511719,0.3758254647254944,0.7388118505477905,0.4617328941822052,-0.2170206606388092,3.0295746326446533,0.4214441180229187,-3.3584413528442383,8.432806015014648,-3.955336093902588,-0.3537212014198303,0.16654464602470398,-0.07173842191696167,29.6666259765625,-2.8284988403320312,29.62942886352539,-1.4451227188110352,-0.33497047424316406,-0.07910323143005371,-1.9133186340332031,8.767776489257812,-3.876232862472534
4_20251106_214346,1762436589523,4,0.31577980518341064,0.37208235263824463,0.7387980818748474,0.46477439999580383,-0.26322031021118164,3.042771816253662,0.3795619606971741,-4.331643104553223,7.569732666015625,-3.681211471557617,-0.4105316400527954,0.34247368574142456,-0.09189696609973907,29.653339385986328,-2.8423919677734375,29.6827392578125,-1.6051859855651855,-0.8182687759399414,0.15909743309020996,-2.726457118988037,8.388001441955566,-3.840308904647827
4_20251106_214346,1762436589543,4,0.3149143159389496,0.36716440320014954,0.7391714453697205,0.4686627984046936,-0.2940400540828705,3.0458321571350098,0.35971277952194214,-4.402268409729004,7.681058883666992,-3.5878419876098633,-0.38731876015663147,0.48297256231307983,-0.060131993144750595,29.592914581298828,-2.834075927734375,29.707584381103516,-1.340649127960205,-0.5655536651611328,0.20197367668151855,-3.061619281768799,8.246612548828125,-3.789815664291382
4_20251106_214346,1762436589561,4,0.3128605782985687,0.36180123686790466,0.7399641275405884,0.4729389250278473,-0.32507985830307007,3.0464742183685303,0.34167975187301636,-4.237075328826904,7.473969459533691,-3.8332369327545166,-0.3134041428565979,0.5788782835006714,0.005841394886374474,29.491111755371094,-2.904296875,29.810470581054688,-0.9403648376464844,-0.6181144714355469,-0.03473711013793945,-3.29671049118042,8.092083930969238,-3.798499822616577
4_20251106_214346,1762436589581,4,0.3095954954624176,0.3566919267177582,0.7410871386528015,0.47719115018844604,-0.35640212893486023,3.0443835258483887,0.32343167066574097,-3.9653453826904297,7.107671737670898,-4.205519676208496,-0.3134041428565979,0.5788782835006714,0.005841394886374474,29.339141845703125,-3.0144195556640625,29.815990447998047,-0.5349078178405762,-0.7875299453735352,-0.32561588287353516,-3.4304375648498535,7.895201683044434,-3.879903793334961
4_20251106_214346,1762436589600,4,0.30565381050109863,0.3513716161251068,0.7425026297569275,0.4814597964286804,-0.38901573419570923,3.038719654083252,0.3037242889404297,-3.8552169799804688,6.719828128814697,-4.359938621520996,-0.36227330565452576,0.7676354646682739,-0.06318631768226624,29.162006378173828,-3.1272125244140625,29.92865753173828,-0.33982348442077637,-0.9402990341186523,-0.38402795791625977,-3.5153934955596924,7.66012716293335,-3.9759106636047363
4_20251106_214346,1762436589620,4,0.3014097809791565,0.3449447453022003,0.7441198229789734,0.4862622022628784,-0.4192636013031006,3.0304863452911377,0.2849602997303009,-3.8121230602264404,6.52231502532959,-4.332406997680664,-0.49666357040405273,0.9405102133750916,-0.14870738983154297,28.83745574951172,-3.2511520385742188,30.197635650634766,-0.23738360404968262,-0.9102497100830078,-0.28519678115844727,-3.574739456176758,7.432564735412598,-4.047210216522217
4_20251106_214346,1762436589639,4,0.2966955304145813,0.33671319484710693,0.7458534836769104,0.4922383427619934,-0.4192636013031006,3.0304863452911377,0.2849602997303009,-3.8121230602264404,6.52231502532959,-4.332406997680664,-0.6554883718490601,1.0730679035186768,-0.18230494856834412,28.474441528320312,-3.40325927734375,30.532196044921875,-0.23738360404968262,-0.9102497100830078,-0.28519678115844727,-3.574739456176758,7.432564735412598,-4.047210216522217
4_20251106_214346,1762436589658,4,0.2915624976158142,0.3270147442817688,0.747277021408081,0.49962958693504333,-0.45331257581710815,3.01784348487854,0.26367154717445374,-3.785788059234619,6.457674026489258,-4.223475456237793,-0.8106480836868286,1.082230806350708,-0.14076614379882812,28.474441528320312,-3.40325927734375,30.532196044921875,-0.1688389778137207,-0.7799129486083984,-0.14101219177246094,-3.6169490814208984,7.237586975097656,-4.082463264465332
4_20251106_214346,1762436589676,4,0.28664663434028625,0.317182332277298,0.7476763129234314,0.5081429481506348,-0.5043670535087585,2.993598222732544,0.23358730971813202,-3.676856517791748,6.57977294921875,-3.744655132293701,-0.8106480836868286,1.082230806350708,-0.14076614379882812,28.02322006225586,-3.5996780395507812,30.970661163330078,-0.024933815002441406,-0.3752260208129883,0.24569272994995117,-3.6519227027893066,6.954998970031738,-3.9903478622436523
4_20251106_214346,1762436589695,4,0.2819114029407501,0.3075147569179535,0.7471067905426025,0.5174863338470459,-0.5296446681022644,2.980612277984619,0.21955855190753937,-3.521240234375,6.861079692840576,-3.7422614097595215,-0.924879789352417,1.0498549938201904,-0.07906879484653473,27.504409790039062,-3.712158203125,31.326934814453125,0.10454583168029785,-0.0751352310180664,0.1984691619873047,-3.625786066055298,6.936214923858643,-3.940730571746826
4_20251106_214346,1762436589714,4,0.2769891023635864,0.2977542579174042,0.7458422183990479,0.5275782942771912,-0.5296446681022644,2.980612277984619,0.21955855190753937,-3.521240234375,6.861079692840576,-3.7422614097595215,-1.1551756858825684,1.1653084754943848,-0.06562978029251099,26.91592788696289,-3.96807861328125,31.81301498413086,0.10454583168029785,-0.0751352310180664,0.1984691619873047,-3.625786066055298,6.936214923858643,-3.940730571746826
4_20251106_214346,1762436589734,4,0.27181825041770935,0.286889910697937,0.7440224885940552,0.5387389063835144,-0.5756859183311462,2.957798719406128,0.1967027634382248,-3.4003381729125977,7.337505340576172,-3.214362621307373,-1.3249962329864502,1.2654902935028076,-0.12915971875190735,26.27345848083496,-4.327095031738281,32.2409553527832,0.1366255283355713,0.29685497283935547,0.5248239040374756,-3.536963701248169,7.040650367736816,-3.7391865253448486
4_20251106_214346,1762436589752,4,0.266629695892334,0.27461668848991394,0.7415013909339905,0.5510625243186951,-0.5950852632522583,2.950164556503296,0.19116955995559692,-3.52243709564209,7.700211524963379,-2.3692455291748047,-1.4789340496063232,1.4127087593078613,-0.15970295667648315,25.654260635375977,-4.697624206542969,32.72367858886719,0.011621236801147461,0.52764892578125,1.0959527492523193,-3.5340583324432373,7.172562599182129,-3.465198278427124
4_20251106_214346,1762436589772,4,0.2615952789783478,0.2618105709552765,0.7379747629165649,0.5642839670181274,-0.5950852632522583,2.950164556503296,0.19116955995559692,-3.52243709564209,7.700211524963379,-2.3692455291748047,-1.5601789951324463,1.6723260879516602,-0.16520074009895325,24.906055450439453,-5.2017974853515625,33.21237564086914,0.011621236801147461,0.52764892578125,1.0959527492523193,-3.5340583324432373,7.172562599182129,-3.465198278427124
4_20251106_214346,1762436589790,4,0.2542537450790405,0.24634043872356415,0.7345483303070068,0.5788870453834534,-0.6161019206047058,2.944904088973999,0.19199195504188538,-3.3895647525787354,8.127558708190918,-1.3900593519210815,-1.5815593004226685,1.9356088638305664,-0.16336815059185028,24.018657684326172,-5.814491271972656,33.62598419189453,0.11559486389160156,0.7639970779418945,1.6601110696792603,-3.505159616470337,7.363561630249023,-3.050170421600342
4_20251106_214346,1762436589810,4,0.2448912411928177,0.22913765907287598,0.73111492395401,0.5941339731216431,-0.6332677602767944,2.943641185760498,0.19992686808109283,-3.177686929702759,8.551313400268555,-0.415661096572876,-1.5394096374511719,2.1335291862487793,-0.1474856734275818,23.056833267211914,-6.456932067871094,34.022605895996094,0.2619781494140625,0.9502010345458984,2.10760760307312,-3.4396650791168213,7.601112365722656,-2.523268699645996
4_20251106_214346,1762436589830,4,0.2336786389350891,0.21075573563575745,0.7277613282203674,0.6093765497207642,-0.6586654782295227,2.9536643028259277,0.23707979917526245,-2.421151876449585,9.67654037475586,1.0100246667861938,-1.506422996520996,2.283801794052124,-0.10289253294467926,21.997013092041016,-7.118011474609375,34.38800811767578,0.7104558944702148,1.4165678024291992,2.347686767578125,-3.1316077709198,8.25997257232666,-1.3376622200012207
4_20251106_214346,1762436589848,4,0.22095748782157898,0.19189727306365967,0.7241440415382385,0.6244747042655945,-0.6663911938667297,2.9657163619995117,0.2658329904079437,-1.9710612297058105,10.07874870300293,1.3200604915618896,-1.506422996520996,2.283801794052124,-0.10289253294467926,20.856027603149414,-7.922393798828125,34.78811264038086,0.9284372329711914,1.4550209045410156,2.12617826461792,-2.899498462677002,8.623727798461914,-0.8061176538467407
4_20251106_214346,1762436589868,4,0.2073119431734085,0.17479419708251953,0.7191497087478638,0.6397596597671509,-0.6689690947532654,2.98392391204834,0.30427756905555725,-1.2061467170715332,10.648544311523438,2.381843328475952,-1.5436856746673584,2.2098870277404785,0.10846665501594543,19.614225387573242,-8.795639038085938,35.155941009521484,1.3546814918518066,1.6198530197143555,2.5503687858581543,-2.56082820892334,9.028691291809082,-0.16852548718452454
4_20251106_214346,1762436589886,4,0.19357560575008392,0.1614823341369629,0.7119816541671753,0.6553885340690613,-0.6651374101638794,3.0049126148223877,0.3465286195278168,-0.10964946448802948,11.230310440063477,3.641139507293701,-1.6249306201934814,1.7621233463287354,0.7333813309669495,18.2342472076416,-9.752830505371094,35.503273010253906,1.9609432220458984,1.7612953186035156,3.04773211479187,-2.0705926418304443,9.469015121459961,0.5934074521064758
4_20251106_214346,1762436589905,4,0.17881953716278076,0.15124855935573578,0.7034820318222046,0.6710144877433777,-0.6516915559768677,3.0323257446289062,0.39977777004241943,1.4297560453414917,11.78933334350586,4.5592756271362305,-1.4398386478424072,1.6698827743530273,0.8860974907875061,16.767854690551758,-10.74029541015625,35.806095123291016,2.800279140472412,1.8562545776367188,3.172694683074951,-1.3705229759216309,9.93307876586914,1.3865809440612793
4_20251106_214346,1762436589925,4,0.1632101684808731,0.14303606748580933,0.6951621174812317,0.6853121519088745,-0.6279837489128113,3.0641801357269287,0.46045830845832825,2.614835023880005,12.05148696899414,5.0656280517578125,-1.4398386478424072,1.6698827743530273,0.8860974907875061,15.28593635559082,-11.802680969238281,35.985198974609375,3.188286304473877,1.6947269439697266,2.943237781524658,-0.5734513998031616,10.356760025024414,2.1223902702331543
4_20251106_214346,1762436589943,4,0.14765435457229614,0.1352480947971344,0.6887198090553284,0.6968293786048889,-0.5951277017593384,3.0990259647369385,0.524396538734436,3.193009853363037,12.027545928955078,4.415630340576172,-1.081261157989502,1.6503350734710693,0.7981329560279846,13.683158874511719,-12.86004638671875,36.11911392211914,3.013169050216675,1.3366289138793945,1.8345921039581299,0.1798408329486847,10.690917015075684,2.581038236618042
4_20251106_214346,1762436589963,4,0.13249571621418,0.12629130482673645,0.6851490139961243,0.7050292491912842,-0.5528095364570618,3.1363556385040283,0.5899308323860168,3.292365074157715,11.508026123046875,3.106058120727539,-0.6493797302246094,1.7181410789489746,0.5635609030723572,12.15672492980957,-13.850265502929688,36.2978401184082,2.4900193214416504,0.6536874771118164,0.4200160503387451,0.8023456335067749,10.854338645935059,2.686042070388794
4_20251106_214346,1762436589981,4,0.11836753785610199,0.11687548458576202,0.6832332611083984,0.711000382900238,-0.5105521082878113,3.168614625930786,0.6452460289001465,3.269620895385742,10.993294715881348,2.3950109481811523,-0.40930989384651184,1.6527783870697021,0.3870209753513336,10.707016944885254,-14.784416198730469,36.372432708740234,1.9738202095031738,0.11116504669189453,-0.23282504081726074,1.2958006858825684,10.882129669189453,2.627835988998413
4_20251106_214346,1762436590002,4,0.1066071167588234,0.10964737087488174,0.6805561780929565,0.7165582180023193,-0.4567241966724396,3.2037580013275146,0.7056208848953247,3.382143497467041,10.700017929077148,2.3495230674743652,-0.6322755813598633,1.0315290689468384,0.4646008014678955,9.211878776550293,-15.67083740234375,36.3785400390625,1.669074296951294,-0.1456890106201172,-0.22265052795410156,1.713069200515747,10.845706939697266,2.572173595428467
4_20251106_214346,1762436590020,4,0.09634899348020554,0.10496358573436737,0.6764227151870728,0.7226007580757141,-0.4567241966724396,3.2037580013275146,0.7056208848953247,3.382143497467041,10.700017929077148,2.3495230674743652,-0.7593353986740112,0.7236531972885132,0.5684478282928467,7.79448127746582,-16.47661590576172,36.335105895996094,1.669074296951294,-0.1456890106201172,-0.22265052795410156,1.713069200515747,10.845706939697266,2.572173595428467
4_20251106_214346,1762436590039,4,0.08742234855890274,0.10291241854429245,0.6709569692611694,0.7290974855422974,-0.35293927788734436,3.260451316833496,0.8044648766517639,4.210501670837402,10.820919036865234,2.8810129165649414,-0.8405804634094238,0.5251222252845764,0.6093757748603821,6.567008972167969,-17.156387329101562,36.193275451660156,1.672861099243164,0.0030965805053710938,0.2650747299194336,2.5376405715942383,10.817822456359863,2.615938186645508
4_20251106_214346,1762436590060,4,0.0794290080666542,0.10240958631038666,0.6646391153335571,0.7358383536338806,-0.28823375701904297,3.290001392364502,0.8591395616531372,4.719247817993164,10.764657974243164,3.326315402984619,-0.8167567253112793,0.4402120113372803,0.5489001870155334,5.376898765563965,-17.821083068847656,36.03966522216797,1.7452857494354248,-0.04253101348876953,0.5683016777038574,2.9739620685577393,10.807188987731934,2.7580137252807617
4_20251106_214346,1762436590079,4,0.07244103401899338,0.1023099347949028,0.6583274602890015,0.7422195672988892,-0.2266799807548523,3.3152639865875244,0.9088654518127441,5.138215065002441,10.757475852966309,3.753662109375,-0.7147423028945923,0.4267730116844177,0.39007529616355896,4.386995315551758,-18.384765625,35.85519790649414,1.7314023971557617,-0.03977012634277344,0.7965185642242432,3.4068126678466797,10.797245979309082,2.957143545150757
4_20251106_214346,1762436590096,4,0.06650419533252716,0.10146141052246094,0.6527474522590637,0.7477990984916687,-0.17030927538871765,3.3359689712524414,0.9532447457313538,5.250738143920898,10.447440147399902,3.9188547134399414,-0.5473653078079224,0.4041709899902344,0.18299216032028198,4.386995315551758,-18.384765625,35.85519790649414,1.4751403331756592,-0.2798452377319336,0.7693691253662109,3.7755978107452393,10.727285385131836,3.1494855880737305
4_20251106_214346,1762436590116,4,0.06207478418946266,0.09974927455186844,0.6484212279319763,0.7521613836288452,-0.10302607715129852,3.356847047805786,1.0044708251953125,5.1837029457092285,9.98298454284668,3.6842329502105713,-0.3903730809688568,0.33331069350242615,-0.01920405775308609,3.620051145553589,-18.882843017578125,35.572486877441406,1.1264843940734863,-0.5954399108886719,0.4277980327606201,4.057218551635742,10.578424453735352,3.256434917449951
4_20251106_214346,1762436590135,4,0.059286925941705704,0.0973416343331337,0.6453306078910828,0.7553529739379883,-0.03913683444261551,3.372840642929077,1.0513964891433716,5.211235046386719,9.54007625579834,3.5094637870788574,-0.31523674726486206,0.19769874215126038,-0.1566486358642578,2.8259150981903076,-19.4327392578125,35.28773880004883,0.923213005065918,-0.8306789398193359,0.202423095703125,4.288022041320801,10.370755195617676,3.3070406913757324
4_20251106_214346,1762436590154,4,0.05821292847394943,0.09507784247398376,0.642866849899292,0.7578216791152954,0.024301066994667053,3.3849411010742188,1.096166729927063,5.287846088409424,9.243208885192871,3.376591205596924,-0.2419329732656479,0.018715372309088707,-0.2953149080276489,2.191706418991089,-19.947059631347656,34.996376037597656,0.7998590469360352,-0.9020366668701172,0.055640459060668945,4.487987041473389,10.145245552062988,3.320950746536255
4_20251106_214346,1762436590172,4,0.05924009531736374,0.09339313954114914,0.640965461730957,0.7595601677894592,0.0830405056476593,3.393162250518799,1.1356241703033447,5.156170845031738,9.061256408691406,2.981564998626709,-0.15824450552463531,-0.10223584622144699,-0.5103392601013184,1.7947700023651123,-20.34569549560547,34.70292663574219,0.5345468521118164,-0.8671913146972656,-0.27150869369506836,4.621623992919922,9.928447723388672,3.2530736923217773
4_20251106_214346,1762436590192,4,0.06333111971616745,0.09208168089389801,0.6396963596343994,0.7604595422744751,0.14541280269622803,3.3983705043792725,1.1753202676773071,4.743188858032227,8.787132263183594,2.6104798316955566,-0.15824450552463531,-0.10223584622144699,-0.5103392601013184,1.6688449382781982,-20.676498413085938,34.407806396484375,0.09725189208984375,-0.9130525588989258,-0.5140750408172607,4.645936965942383,9.70018482208252,3.1245548725128174
4_20251106_214346,1762436590211,4,0.06890781968832016,0.08959469199180603,0.6388363242149353,0.7609944939613342,0.1978575587272644,3.4002864360809326,1.207720398902893,4.287113189697266,8.669821739196777,2.4991540908813477,-0.16007709503173828,-0.3429165482521057,-0.920840322971344,1.6070644855499268,-20.952560424804688,34.062129974365234,-0.28705883026123047,-0.8242902755737305,-0.5003206729888916,4.574172019958496,9.494112014770508,2.9994747638702393
4_20251106_214346,1762436590230,4,0.07670389115810394,0.08682425320148468,0.6379386782646179,0.7613227367401123,0.25081849098205566,3.3998429775238037,1.240410566329956,3.7855491638183594,8.682989120483398,2.5027451515197754,-0.2052810788154602,-0.40278130769729614,-1.079054355621338,1.668060064315796,-21.196243286132812,33.789466857910156,-0.6308984756469727,-0.6488981246948242,-0.3973836898803711,4.416447639465332,9.331887245178223,2.9001288414001465
4_20251106_214346,1762436590250,4,0.08610328286886215,0.08343947678804398,0.6367690563201904,0.7616752982139587,0.2976013422012329,3.3976709842681885,1.2707384824752808,3.255256175994873,8.756009101867676,2.6607556343078613,-0.2052810788154602,-0.40278130769729614,-1.079054355621338,1.7850592136383057,-21.299293518066406,33.58925247192383,-0.9289531707763672,-0.46070289611816406,-0.1914987564086914,4.18420934677124,9.21671199798584,2.8522543907165527
4_20251106_214346,1762436590269,4,0.09633538872003555,0.08001154661178589,0.6344214081764221,0.7627759575843811,0.2976013422012329,3.3976709842681885,1.2707384824752808,3.255256175994873,8.756009101867676,2.6607556343078613,-0.5290393829345703,-0.7833499908447266,-1.0100266933441162,2.320612668991089,-21.29999542236328,33.40729522705078,-0.9289531707763672,-0.46070289611816406,-0.1914987564086914,4.18420934677124,9.21671199798584,2.8522543907165527
4_20251106_214346,1762436590288,4,0.10773107409477234,0.07924818247556686,0.6303547024726868,0.7647004127502441,0.36928367614746094,3.3936846256256104,1.330363154411316,2.5705442428588867,9.379672050476074,4.244451522827148,-0.5815737247467041,-1.2017923593521118,-0.8145498633384705,3.0285627841949463,-21.275535583496094,33.08378982543945,-1.077371597290039,0.1452808380126953,1.0248839855194092,3.647915840148926,9.234391212463379,3.2195675373077393
4_20251106_214346,1762436590307,4,0.12045755237340927,0.0827149972319603,0.6250882744789124,0.7667547464370728,0.36928367614746094,3.3936846256256104,1.330363154411316,2.5705442428588867,9.379672050476074,4.244451522827148,-0.6047866344451904,-1.592134952545166,-0.6373991370201111,3.8696439266204834,-21.26677703857422,32.69757080078125,-1.077371597290039,0.1452808380126953,1.0248839855194092,3.647915840148926,9.234391212463379,3.2195675373077393
4_20251106_214346,1762436590326,4,0.13421855866909027,0.08996299654245377,0.6187915802001953,0.7687581181526184,0.42074349522590637,3.396575927734375,1.4023337364196777,2.3478927612304688,10.322946548461914,5.728793144226074,-0.6047866344451904,-1.592134952545166,-0.6373991370201111,4.731868743896484,-21.318817138671875,32.27046203613281,-0.8387184143066406,0.7650508880615234,1.7349944114685059,3.1866111755371094,9.55789566040039,3.9937987327575684
4_20251106_214346,1762436590345,4,0.14851753413677216,0.09980464726686478,0.6117870211601257,0.7705181837081909,0.4408358633518219,3.4026002883911133,1.4459182024002075,2.3562722206115723,10.807751655578613,6.729526519775391,-0.47222900390625,-1.8987889289855957,-0.47429826855659485,5.802949905395508,-21.34344482421875,31.716793060302734,-0.6642711162567139,0.9998846054077148,2.188582420349121,3.020543336868286,9.807867050170898,4.5409440994262695
4_20251106_214346,1762436590364,4,0.16298876702785492,0.11054573208093643,0.6052913665771484,0.7712565064430237,0.45868900418281555,3.411752939224243,1.4925694465637207,2.5705442428588867,11.05793571472168,6.45300817489624,-0.23276999592781067,-1.7992180585861206,-0.5573758482933044,6.9952850341796875,-21.37255096435547,31.154247283935547,-0.359999418258667,1.0000553131103516,1.529651165008545,2.9305436611175537,10.057880401611328,4.923357009887695
4_20251106_214346,1762436590383,4,0.17700397968292236,0.12023039907217026,0.6004787087440491,0.7704800963401794,0.47439903020858765,3.42325758934021,1.5406217575073242,2.4747800827026367,11.081876754760742,6.284224033355713,-0.23276999592781067,-1.7992180585861206,-0.5573758482933044,8.214404106140137,-21.36199951171875,30.55292510986328,-0.3646109104156494,0.8191967010498047,1.088693618774414,2.839390993118286,10.262680053710938,5.195530414581299
4_20251106_214346,1762436590402,4,0.1929456740617752,0.1294804811477661,0.5966969132423401,0.7680882811546326,0.47439903020858765,3.42325758934021,1.5406217575073242,2.4747800827026367,11.081876754760742,6.284224033355713,0.05922333151102066,-2.0038576126098633,-1.0900499820709229,9.563623428344727,-21.42926025390625,29.819988250732422,-0.3646109104156494,0.8191967010498047,1.088693618774414,2.839390993118286,10.262680053710938,5.195530414581299
4_20251106_214346,1762436590422,4,0.21145857870578766,0.13810016214847565,0.5939681529998779,0.7638163566589355,0.4885364770889282,3.4489340782165527,1.6375172138214111,-0.19823113083839417,10.542007446289062,5.475018501281738,0.17712023854255676,-2.0906004905700684,-1.2971330881118774,11.083020210266113,-21.296218872070312,28.935192108154297,-2.203407049179077,0.13107872009277344,0.07966089248657227,2.005175828933716,10.410928726196289,5.395357608795166
4_20251106_214346,1762436590439,4,0.23186779022216797,0.14619123935699463,0.591972827911377,0.7579140067100525,0.4885364770889282,3.4489340782165527,1.6375172138214111,-0.19823113083839417,10.542007446289062,5.475018501281738,0.20277655124664307,-2.1767325401306152,-1.284915804862976,14.244598388671875,-25.736343383789062,28.67776107788086,-2.203407049179077,0.13107872009277344,0.07966089248657227,2.005175828933716,10.410928726196289,5.395357608795166
4_20251106_214346,1762436590460,4,0.2529376745223999,0.15486861765384674,0.589762270450592,0.7511449456214905,0.4654350280761719,3.4711291790008545,1.715220332145691,-2.6306354999542236,10.294218063354492,4.2779693603515625,0.1960570216178894,-2.32395076751709,-1.1566342115402222,15.921110153198242,-25.393394470214844,27.857139587402344,-3.1452317237854004,-0.0957632064819336,-0.7999749183654785,0.5145962834358215,10.389981269836426,5.077944278717041
4_20251106_214346,1762436590480,4,0.2738293707370758,0.16494683921337128,0.5868160724639893,0.7439468502998352,0.4654350280761719,3.4711291790008545,1.715220332145691,-2.6306354999542236,10.294218063354492,4.2779693603515625,0.1960570216178894,-2.32395076751709,-1.1566342115402222,17.66327476501465,-24.970458984375,26.972972869873047,-3.1452317237854004,-0.0957632064819336,-0.7999749183654785,0.5145962834358215,10.389981269836426,5.077944278717041
4_20251106_214346,1762436590500,4,0.2948404848575592,0.1765676587820053,0.5828142166137695,0.736356258392334,0.3877136707305908,3.4932491779327393,1.7769955396652222,-5.491583347320557,10.410331726074219,3.248507022857666,0.16673552989959717,-2.4962148666381836,-1.0381264686584473,19.52336311340332,-24.401573181152344,26.028541564941406,-4.093324661254883,0.011875152587890625,-1.2484087944030762,-1.398258924484253,10.398456573486328,4.496915817260742
4_20251106_214346,1762436590518,4,0.31533142924308777,0.1895536184310913,0.5775215029716492,0.7287691235542297,0.3360031843185425,3.5029103755950928,1.797743320465088,-6.777214527130127,10.67009162902832,3.6064248085021973,-0.007360920310020447,-2.6855826377868652,-0.5537106394767761,21.385255813598633,-23.807037353515625,25.03057098388672,-4.303164482116699,0.21730804443359375,-0.7123928070068359,-2.4740500450134277,10.452783584594727,4.318817615509033
4_20251106_214346,1762436590536,4,0.33431708812713623,0.20404458045959473,0.5705030560493469,0.721889317035675,0.2795880138874054,3.5133442878723145,1.8169236183166504,-7.0357770919799805,11.256645202636719,4.5760345458984375,0.006078105419874191,-2.3062357902526855,-0.2757672369480133,21.385255813598633,-23.807037353515625,25.03057098388672,-3.649381637573242,0.6430892944335938,0.20577383041381836,-3.3863954544067383,10.613555908203125,4.370260715484619
4_20251106_214346,1762436590556,4,0.3492414951324463,0.217073455452919,0.5639906525611877,0.7161173224449158,0.2795880138874054,3.5133442878723145,1.8169236183166504,-7.0357770919799805,11.256645202636719,4.5760345458984375,0.21926990151405334,-1.673379898071289,-0.19513310492038727,23.332820892333984,-23.229629516601562,23.792213439941406,-3.649381637573242,0.6430892944335938,0.20577383041381836,-3.3863954544067383,10.613555908203125,4.370260715484619
4_20251106_214346,1762436590575,4,0.3597252666950226,0.2267528623342514,0.5605478882789612,0.7106102108955383,0.19804394245147705,3.529761552810669,1.8419743776321411,-6.699406147003174,11.589425086975098,4.769956588745117,0.47644394636154175,-1.2543267011642456,-0.2348393201828003,25.13636589050293,-22.623947143554688,22.535247802734375,-2.6504082679748535,0.780695915222168,0.31975650787353516,-4.04899787902832,10.80872917175293,4.450200080871582
4_20251106_214346,1762436590593,4,0.3675314784049988,0.23423884809017181,0.5602113604545593,0.7044259905815125,0.05506950616836548,3.560936212539673,1.8761367797851562,-6.993880271911621,11.734268188476562,3.3718032836914062,0.47644394636154175,-1.2543267011642456,-0.2348393201828003,26.68846321105957,-22.1490478515625,21.455326080322266,-1.9270524978637695,0.5978994369506836,-0.8041329383850098,-5.066827774047852,11.136368751525879,4.175936222076416
4_20251106_214346,1762436590613,4,0.3739480674266815,0.2409759908914566,0.5611976385116577,0.6979617476463318,0.05506950616836548,3.560936212539673,1.8761367797851562,-6.993880271911621,11.734268188476562,3.3718032836914062,0.578458309173584,-0.9690529108047485,-0.08578832447528839,28.057348251342773,-21.70983123779297,20.232357025146484,-1.9270524978637695,0.5978994369506836,-0.8041329383850098,-5.066827774047852,11.136368751525879,4.175936222076416
4_20251106_214346,1762436590633,4,0.37889230251312256,0.24769972264766693,0.5622883439064026,0.6920384764671326,-0.10661677271127701,3.59733247756958,1.8991823196411133,-6.918466567993164,11.57266616821289,3.232945442199707,0.5815126895904541,-0.9110207557678223,0.10052542388439178,29.23822593688965,-21.359214782714844,19.135608673095703,-1.153829574584961,0.26314258575439453,-0.597193717956543,-5.764636993408203,11.309523582458496,3.83013916015625
4_20251106_214346,1762436590654,4,0.3823462724685669,0.25506195425987244,0.5631037950515747,0.6867814660072327,-0.10661677271127701,3.59733247756958,1.8991823196411133,-6.918466567993164,11.57266616821289,3.232945442199707,0.6493186354637146,-0.7747979164123535,0.26179370284080505,30.329586029052734,-21.07788848876953,18.12872314453125,-1.153829574584961,0.26314258575439453,-0.597193717956543,-5.764636993408203,11.309523582458496,3.83013916015625
4_20251106_214346,1762436590670,4,0.38387829065322876,0.2626843750476837,0.5643463134765625,0.6820173263549805,-0.2578396201133728,3.6309258937835693,1.9132475852966309,-5.793239593505859,11.203975677490234,3.297585964202881,0.7464461326599121,-0.5554974675178528,0.38579925894737244,31.08489990234375,-20.92035675048828,17.295711517333984,0.09795188903808594,-0.10470771789550781,-0.3387274742126465,-5.891191482543945,11.308683395385742,3.6363134384155273
4_20251106_214346,1762436590690,4,0.38316255807876587,0.2699449956417084,0.5665839314460754,0.6777158379554749,-0.2578396201133728,3.6309258937835693,1.9132475852966309,-5.793239593505859,11.203975677490234,3.297585964202881,0.8704516887664795,-0.3545229732990265,0.45299437642097473,31.566097259521484,-20.86968231201172,16.598739624023438,0.09795188903808594,-0.10470771789550781,-0.3387274742126465,-5.891191482543945,11.308683395385742,3.6363134384155273
4_20251106_214346,1762436590708,4,0.3805857002735138,0.2768498659133911,0.5700138211250305,0.6734930872917175,-0.38242653012275696,3.657892942428589,1.9199990034103394,-3.648127317428589,10.840072631835938,2.7565197944641113,0.9718551635742188,-0.20302852988243103,0.4499400556087494,31.927898406982422,-20.742416381835938,16.236618041992188,1.6110002994537354,-0.3190641403198242,-0.6186108589172363,-5.259127616882324,11.159136772155762,3.3751306533813477
4_20251106_214346,1762436590727,4,0.37682393193244934,0.2833014726638794,0.5744922757148743,0.6691058874130249,-0.430312842130661,3.6688897609710693,1.9202476739883423,-2.720414161682129,10.82211685180664,2.701455593109131,0.9914028644561768,-0.1016249805688858,0.3967948257923126,32.22587585449219,-20.646255493164062,16.074260711669922,2.030970573425293,-0.26961612701416016,-0.5389399528503418,-4.751384735107422,11.0917329788208,3.2403955459594727
4_20251106_214346,1762436590747,4,0.372644305229187,0.2890698313713074,0.5794668793678284,0.6646751165390015,-0.4692993760108948,3.6800241470336914,1.9198331832885742,-1.8238240480422974,11.136940002441406,3.0222647190093994,0.9914028644561768,-0.1016249805688858,0.3967948257923126,32.263832092285156,-20.63037109375,15.981382369995117,2.3420486450195312,0.03616523742675781,-0.17450451850891113,-4.165872573852539,11.100774765014648,3.1967692375183105
4_20251106_214346,1762436590766,4,0.3686103820800781,0.2942894995212555,0.5846387147903442,0.6600891351699829,-0.49661731719970703,3.690681219100952,1.9211643934249878,-1.2983194589614868,11.32248306274414,3.8183021545410156,1.0683717727661133,-0.06863828748464584,0.20376154780387878,32.258514404296875,-20.707199096679688,16.128477096557617,2.2940425872802734,0.1773662567138672,0.4972262382507324,-3.5923619270324707,11.145116806030273,3.321075916290283
4_20251106_214346,1762436590784,4,0.36496415734291077,0.2992001473903656,0.5904017090797424,0.6547566652297974,-0.5149444341659546,3.7006001472473145,1.9245035648345947,-1.0505303144454956,11.278192520141602,4.190584659576416,1.3121068477630615,-0.005108355078846216,0.09075158834457397,32.21776580810547,-20.750083923339844,16.41005516052246,2.0334653854370117,0.1064605712890625,0.6956069469451904,-3.083995819091797,11.171731948852539,3.4949777126312256
4_20251106_214346,1762436590804,4,0.36083984375,0.303798109292984,0.597990870475769,0.6480032801628113,-0.5271292924880981,3.71077299118042,1.9287620782852173,-0.8266820311546326,11.254251480102539,3.8266818523406982,1.5882177352905273,0.1353905349969864,-0.0289778932929039,32.1218376159668,-20.684738159179688,16.772655487060547,1.8058509826660156,0.06601524353027344,0.2653634548187256,-2.632533073425293,11.188236236572266,3.5613183975219727
4_20251106_214346,1762436590822,4,0.35575640201568604,0.30767008662223816,0.6079077124595642,0.6397067308425903,-0.5271292924880981,3.71077299118042,1.9287620782852173,-0.8266820311546326,11.254251480102539,3.8266818523406982,1.5882177352905273,0.1353905349969864,-0.0289778932929039,31.881622314453125,-20.56829071044922,17.34695053100586,1.8058509826660156,0.06601524353027344,0.2653634548187256,-2.632533073425293,11.188236236572266,3.5613183975219727
4_20251106_214346,1762436590841,4,0.34999850392341614,0.31068965792655945,0.6195565462112427,0.6301767230033875,-0.5372442603111267,3.726247787475586,1.934516191482544,-1.1714322566986084,10.336114883422852,2.903756856918335,1.943740963935852,0.3449171185493469,-0.1621464192867279,31.736289978027344,-20.25927734375,18.063800811767578,0.8975651264190674,-0.6365251541137695,-0.5053033828735352,-2.068997383117676,10.972640037536621,3.40906023979187
4_20251106_214346,1762436590860,4,0.3432057499885559,0.3135125935077667,0.6324111819267273,0.6196578145027161,-0.5372442603111267,3.726247787475586,1.934516191482544,-1.1714322566986084,10.336114883422852,2.903756856918335,2.121502637863159,0.3815690279006958,-0.07723620533943176,31.493484497070312,-19.94500732421875,18.871604919433594,0.8975651264190674,-0.6365251541137695,-0.5053033828735352,-2.068997383117676,10.972640037536621,3.40906023979187
4_20251106_214346,1762436590880,4,0.3351053297519684,0.31709933280944824,0.6459774374961853,0.6081657409667969,-0.5377213954925537,3.7280492782592773,1.9317084550857544,-1.1594617366790771,9.500574111938477,1.9700582027435303,2.235123634338379,0.39622974395751953,-0.0008781170472502708,31.24173355102539,-19.557533264160156,19.81566619873047,0.7276285886764526,-1.1776533126831055,-1.1512014865875244,-1.8870903253555298,10.678227424621582,3.1212596893310547
4_20251106_214346,1762436590901,4,0.3259081542491913,0.32128608226776123,0.6598665118217468,0.5959323048591614,-0.529797375202179,3.712491035461426,1.9050545692443848,-0.4651730954647064,7.5625505447387695,-0.6885883808135986,2.2613909244537354,0.42982733249664307,0.018669553101062775,30.95505142211914,-18.910888671875,20.898468017578125,0.9751465320587158,-2.1533851623535156,-2.6574108600616455,-1.4403196573257446,9.715935707092285,1.9688224792480469
4_20251106_214346,1762436590920,4,0.3160713315010071,0.3254665732383728,0.6737715601921082,0.5832686424255371,-0.5204764604568481,3.6919217109680176,1.875649333000183,-0.2042163610458374,6.680325508117676,-1.9071846008300781,2.198471784591675,0.4402120113372803,-0.0442495122551918,30.71661376953125,-18.048789978027344,22.02777862548828,0.9888826608657837,-2.428487777709961,-3.1008057594299316,-1.193099021911621,9.108813285827637,1.1936211585998535
4_20251106_214346,1762436590940,4,0.3063877522945404,0.32893359661102295,0.6874107718467712,0.5704346299171448,-0.5204764604568481,3.6919217109680176,1.875649333000183,-0.2042163610458374,6.680325508117676,-1.9071846008300781,2.090959310531616,0.5092397332191467,-0.12854884564876556,30.428939819335938,-17.19054412841797,23.22270965576172,0.9888826608657837,-2.428487777709961,-3.1008057594299316,-1.193099021911621,9.108813285827637,1.1936211585998535
4_20251106_214346,1762436590957,4,0.2968609929084778,0.33119356632232666,0.7007259130477905,0.5578239560127258,-0.49518895149230957,3.633528232574463,1.7904881238937378,0.13335154950618744,5.720291614532471,-4.376697540283203,1.8686046600341797,0.5617741346359253,-0.1987982988357544,30.428939819335938,-17.19054412841797,23.22270965576172,0.8661658763885498,-2.2301340103149414,-3.756723403930664,-0.7328143119812012,7.950425624847412,-0.6199740171432495
4_20251106_214346,1762436590975,4,0.28784340620040894,0.3320773243904114,0.7130768895149231,0.5462528467178345,-0.49518895149230957,3.633528232574463,1.7904881238937378,0.13335154950618744,5.720291614532471,-4.376697540283203,1.4965879917144775,0.49824416637420654,-0.209183007478714,30.094436645507812,-16.298072814941406,24.443504333496094,0.8661658763885498,-2.2301340103149414,-3.756723403930664,-0.7328143119812012,7.950425624847412,-0.6199740171432495
4_20251106_214346,1762436590995,4,0.2803717255592346,0.3322693407535553,0.7232207655906677,0.5366008281707764,-0.46390873193740845,3.557647228240967,1.6701184511184692,0.07349909096956253,5.606571674346924,-5.203858375549316,1.1074671745300293,0.3656865358352661,-0.14687480032444,29.707660675048828,-15.258621215820312,25.637981414794922,0.509528636932373,-1.5017905235290527,-2.941730260848999,-0.4360295534133911,7.108362197875977,-2.2621281147003174
4_20251106_214346,1762436591014,4,0.2745485007762909,0.33239176869392395,0.7308095693588257,0.5292033553123474,-0.44587382674217224,3.5129590034484863,1.5962769985198975,0.06511974334716797,5.733458995819092,-5.099715232849121,0.791039228439331,0.18303799629211426,-0.06379717588424683,29.356229782104492,-14.241630554199219,26.80636978149414,0.40091943740844727,-1.0999226570129395,-2.2700695991516113,-0.3357996940612793,6.833381652832031,-2.8296456336975098
4_20251106_214346,1762436591033,4,0.27059808373451233,0.33317601680755615,0.7359530329704285,0.5235872268676758,-0.42868128418922424,3.47043776512146,1.5242148637771606,-0.0019150227308273315,6.035115718841553,-4.805241584777832,0.5460824966430664,0.0370413102209568,0.028443390503525734,29.029850006103516,-13.233718872070312,27.78624725341797,0.2671077251434326,-0.6386127471923828,-1.5804767608642578,-0.26902276277542114,6.6737284660339355,-3.224764823913574
4_20251106_214346,1762436591052,4,0.26826906204223633,0.33505576848983765,0.7389578223228455,0.5193367600440979,-0.4115728437900543,3.4294333457946777,1.4528186321258545,0.013646617531776428,6.451688766479492,-4.2952985763549805,0.3811490535736084,0.03459785133600235,0.10357974469661713,28.703767776489258,-12.22540283203125,28.725574493408203,0.2261355072259903,-0.17763185501098633,-0.8564271926879883,-0.21248888969421387,6.6293206214904785,-3.438871383666992
4_20251106_214346,1762436591071,4,0.26600509881973267,0.33679887652397156,0.7409189939498901,0.5165722370147705,-0.3942888677120209,3.3911380767822266,1.3831746578216553,0.1632777899503708,6.86945915222168,-4.101376533508301,0.33289074897766113,0.13783399760723114,0.1365664303302765,28.486831665039062,-11.458396911621094,29.475299835205078,0.3006133437156677,0.19211053848266602,-0.5300040245056152,-0.13733556866645813,6.677348613739014,-3.5713725090026855
4_20251106_214346,1762436591092,4,0.26281169056892395,0.33774319291114807,0.7428568601608276,0.5148041248321533,-0.3766239583492279,3.3561582565307617,1.3152368068695068,0.31650009751319885,7.187873840332031,-4.218687057495117,0.33289074897766113,0.13783399760723114,0.1365664303302765,28.16241455078125,-10.89691162109375,30.04116439819336,0.363068550825119,0.4084205627441406,-0.5178515911102295,-0.04656844586133957,6.779453277587891,-3.7008354663848877
4_20251106_214346,1762436591111,4,0.2590411603450775,0.3379196226596832,0.7449285387992859,0.5136044025421143,-0.3574877679347992,3.3229622840881348,1.2456446886062622,0.43740206956863403,7.366234302520752,-4.245022773742676,0.23454152047634125,0.3149847388267517,0.08036689460277557,27.912212371826172,-10.317558288574219,30.556171417236328,0.38717642426490784,0.4694247245788574,-0.4353499412536621,0.05022565275430679,6.8968095779418945,-3.8096728324890137
4_20251106_214346,1762436591129,4,0.2551899552345276,0.33738377690315247,0.7468942403793335,0.5130295157432556,-0.3574877679347992,3.3229622840881348,1.2456446886062622,0.43740206956863403,7.366234302520752,-4.245022773742676,0.18689405918121338,0.3253694474697113,0.04860192537307739,27.622114181518555,-9.814720153808594,30.946475982666016,0.38717642426490784,0.4694247245788574,-0.4353499412536621,0.05022565275430679,6.8968095779418945,-3.8096728324890137
4_20251106_214346,1762436591148,4,0.25153207778930664,0.33641713857650757,0.7487438321113586,0.5127745866775513,-0.31964609026908875,3.2686805725097656,1.1161977052688599,0.6289299726486206,7.506289005279541,-4.991981029510498,0.09098830074071884,0.2587851881980896,0.02050214819610119,27.427776336669922,-9.567222595214844,31.214008331298828,0.3812878727912903,0.4013667106628418,-0.8279252052307129,0.24764209985733032,7.104922294616699,-4.164055824279785
4_20251106_214346,1762436591167,4,0.2487819790840149,0.335411012172699,0.7500500082969666,0.5128664374351501,-0.30079394578933716,3.245434045791626,1.0524808168411255,0.5235896706581116,7.523047924041748,-5.1128830909729,-0.06722565740346909,0.16165772080421448,-0.02225838229060173,27.20564079284668,-9.383964538574219,31.465721130371094,0.2207580804824829,0.3345003128051758,-0.7590618133544922,0.30283159017562866,7.188547611236572,-4.353821277618408
4_20251106_214346,1762436591186,4,0.24741847813129425,0.3342604339122772,0.750515341758728,0.5135959386825562,-0.28316548466682434,3.2245237827301025,0.9903598427772522,0.20038631558418274,7.61641788482666,-4.93332576751709,-0.20283763110637665,0.15738166868686676,-0.0705166906118393,27.01403045654297,-9.29931640625,31.770858764648438,-0.08195620775222778,0.34229612350463867,-0.46360349655151367,0.2823425233364105,7.2741217613220215,-4.469722270965576
4_20251106_214346,1762436591205,4,0.24675613641738892,0.33244776725769043,0.7504827380180359,0.5151364207267761,-0.2671589255332947,3.2054240703582764,0.9297051429748535,0.012449562549591064,7.552973747253418,-5.067395210266113,-0.26392409205436707,0.2587851881980896,-0.07784707844257355,26.809106826782227,-9.251785278320312,31.939552307128906,-0.21591436862945557,0.2230815887451172,-0.47813844680786133,0.22836393117904663,7.329892158508301,-4.589256763458252
4_20251106_214346,1762436591225,4,0.24563279747962952,0.32983049750328064,0.7504251599311829,0.5174345374107361,-0.2671589255332947,3.2054240703582764,0.9297051429748535,0.012449562549591064,7.552973747253418,-5.067395210266113,-0.3543320596218109,0.300324022769928,-0.050358161330223083,26.60175895690918,-9.253944396972656,32.053123474121094,-0.21591436862945557,0.2230815887451172,-0.47813844680786133,0.22836393117904663,7.329892158508301,-4.589256763458252
4_20251106_214346,1762436591243,4,0.24436600506305695,0.3269605040550232,0.7499617338180542,0.52051842212677,-0.2511438727378845,3.185908317565918,0.863195538520813,-0.007900282740592957,7.490727424621582,-5.43129825592041,-0.5180438160896301,0.25023311376571655,-0.02225838229060173,26.443267822265625,-9.241180419921875,32.25001907348633,-0.1890113651752472,0.12866783142089844,-0.6736330986022949,0.18111108243465424,7.362059593200684,-4.757665157318115
4_20251106_214346,1762436591262,4,0.24385479092597961,0.32426851987838745,0.7484812140464783,0.5245575904846191,-0.22822359204292297,3.1549160480499268,0.7530174255371094,-0.3287094831466675,7.272864818572998,-5.246952533721924,-0.5180438160896301,0.25023311376571655,-0.02225838229060173,26.25263786315918,-9.379745483398438,32.34815216064453,-0.35865339636802673,-0.07949304580688477,-0.2759876251220703,0.029943905770778656,7.352357864379883,-4.9709649085998535
4_20251106_214346,1762436591281,4,0.2439381182193756,0.32135361433029175,0.7461643815040588,0.5295892357826233,-0.22822359204292297,3.1549160480499268,0.7530174255371094,-0.3287094831466675,7.272864818572998,-5.246952533721924,-0.671981692314148,0.22518765926361084,-0.014317139983177185,26.135334014892578,-9.501663208007812,32.51707458496094,-0.35865339636802673,-0.07949304580688477,-0.2759876251220703,0.029943905770778656,7.352357864379883,-4.9709649085998535
4_20251106_214346,1762436591300,4,0.24429646134376526,0.3181517422199249,0.7430070638656616,0.5357604026794434,-0.21174615621566772,3.122951030731201,0.6462470293045044,-0.5346020460128784,7.002331733703613,-4.911778450012207,-1.0207855701446533,0.20808345079421997,0.06814959645271301,26.04962921142578,-9.732322692871094,32.49586486816406,-0.3630331754684448,-0.2395305633544922,0.07522726058959961,-0.1715688705444336,7.2418622970581055,-4.987005710601807
4_20251106_214346,1762436591320,4,0.24514946341514587,0.3149624764919281,0.7385823130607605,0.5433198809623718,-0.20600083470344543,3.107072591781616,0.5993770956993103,-0.6315630078315735,6.975996494293213,-4.152849197387695,-1.2022123336791992,0.19953133165836334,0.0840320736169815,25.93048858642578,-10.127677917480469,32.45672607421875,-0.36799532175064087,-0.2126927375793457,0.667325496673584,-0.2635676860809326,7.188689231872559,-4.820174694061279
4_20251106_214346,1762436591340,4,0.24661006033420563,0.311614453792572,0.7330080270767212,0.5520681142807007,-0.20166301727294922,3.0894386768341064,0.5545948147773743,-0.7692236304283142,6.9017791748046875,-3.498063087463379,-1.2846790552139282,0.3247585892677307,0.05654316768050194,25.799753189086914,-10.523017883300781,32.33599853515625,-0.4045247435569763,-0.22952795028686523,1.0576891899108887,-0.3646988868713379,7.131307125091553,-4.555752277374268
4_20251106_214346,1762436591359,4,0.24756161868572235,0.307059645652771,0.7272365093231201,0.5617425441741943,-0.20166301727294922,3.0894386768341064,0.5545948147773743,-0.7692236304283142,6.9017791748046875,-3.498063087463379,-1.3378243446350098,0.5098506212234497,-0.0027107112109661102,25.799753189086914,-10.523017883300781,32.33599853515625,-0.4045247435569763,-0.22952795028686523,1.0576891899108887,-0.3646988868713379,7.131307125091553,-4.555752277374268
4_20251106_214346,1762436591378,4,0.24768897891044617,0.30084189772605896,0.7216351628303528,0.5721774697303772,-0.19722391664981842,3.0578901767730713,0.49089157581329346,-0.697400689125061,6.698281288146973,-3.289776563644409,-1.4435038566589355,0.6485168933868408,-0.056466806679964066,25.519535064697266,-11.663948059082031,31.95199203491211,-0.2052680253982544,-0.29073524475097656,0.7991158962249756,-0.49213266372680664,6.989016532897949,-4.088892459869385
4_20251106_214346,1762436591395,4,0.2474164068698883,0.2932073175907135,0.7157765626907349,0.5835053324699402,-0.19620144367218018,3.0422582626342773,0.466396689414978,-0.7596473097801208,6.57857608795166,-2.9067208766937256,-1.651197910308838,0.6240823268890381,-0.03203221783041954,25.519535064697266,-11.663948059082031,31.95199203491211,-0.21401172876358032,-0.3283524513244629,0.945737361907959,-0.5456355810165405,6.906928539276123,-3.8524582386016846
4_20251106_214346,1762436591415,4,0.24774505198001862,0.28545403480529785,0.7084550857543945,0.5960115194320679,-0.19620144367218018,3.0422582626342773,0.466396689414978,-0.7596473097801208,6.57857608795166,-2.9067208766937256,-1.8558375835418701,0.45181846618652344,0.07181477546691895,25.348005294799805,-12.361572265625,31.756366729736328,-0.21401172876358032,-0.3283524513244629,0.945737361907959,-0.5456355810165405,6.906928539276123,-3.8524582386016846
4_20251106_214346,1762436591433,4,0.24907706677913666,0.27872198820114136,0.6990864872932434,0.6095513105392456,-0.19461843371391296,3.0079689025878906,0.4340440630912781,-0.49869051575660706,6.438521385192871,-1.0536885261535645,-2.065364122390747,0.29177188873291016,0.14511853456497192,25.150779724121094,-13.097381591796875,31.45083999633789,0.05417737364768982,-0.2961416244506836,1.9679927825927734,-0.5528678894042969,6.734663009643555,-3.021681308746338
4_20251106_214346,1762436591453,4,0.2515415847301483,0.2728204131126404,0.6875922679901123,0.6241095662117004,-0.19461843371391296,3.0079689025878906,0.4340440630912781,-0.49869051575660706,6.438521385192871,-1.0536885261535645,-2.2706146240234375,0.24595704674720764,0.11885136365890503,24.991500854492188,-14.041862487792969,30.980594635009766,0.05417737364768982,-0.2961416244506836,1.9679927825927734,-0.5528678894042969,6.734663009643555,-3.021681308746338
4_20251106_214346,1762436591472,4,0.25497421622276306,0.26644188165664673,0.6743732690811157,0.6397011280059814,-0.19366873800754547,2.9915049076080322,0.4331809878349304,-0.5250256061553955,6.977193832397461,0.7382944822311401,-2.2706146240234375,0.24595704674720764,0.11885136365890503,24.801111221313477,-15.101486206054688,30.561054229736328,0.02227383852005005,0.19402456283569336,3.0079808235168457,-0.5472994446754456,6.783169269561768,-2.269686222076416
4_20251106_214346,1762436591491,4,0.25807493925094604,0.2577514052391052,0.6607524752616882,0.656024158000946,-0.1924426555633545,2.9749257564544678,0.4756428897380829,-0.5788928270339966,9.13906478881836,4.5772318840026855,-2.361633539199829,0.4432663321495056,0.008895719423890114,24.615543365478516,-16.0849609375,30.062000274658203,-0.013324737548828125,1.6870431900024414,4.637908935546875,-0.5655680894851685,7.452021598815918,-0.06067711114883423
4_20251106_214346,1762436591510,4,0.25988906621932983,0.24647913873195648,0.648181140422821,0.6719872951507568,-0.1924426555633545,2.9749257564544678,0.4756428897380829,-0.5788928270339966,9.13906478881836,4.5772318840026855,-2.2486236095428467,0.6821144819259644,-0.11877501010894775,24.451107025146484,-17.140838623046875,29.427181243896484,-0.013324737548828125,1.6870431900024414,4.637908935546875,-0.5655680894851685,7.452021598815918,-0.06067711114883423
4_20251106_214346,1762436591529,4,0.26127851009368896,0.2356863170862198,0.637164831161499,0.6857160329818726,-0.19011712074279785,2.983768939971924,0.5673348903656006,-0.28082752227783203,10.008123397827148,4.507802963256836,-1.5253597497940063,0.44143372774124146,-0.11755329370498657,24.273780822753906,-18.210067749023438,28.791606903076172,0.21038854122161865,1.670954704284668,2.81733775138855,-0.4912160634994507,8.33716869354248,1.6904652118682861
4_20251106_214346,1762436591549,4,0.26272961497306824,0.22761750221252441,0.6278621554374695,0.6963853240013123,-0.18756277859210968,2.99627423286438,0.6209392547607422,-0.1443638801574707,10.072763442993164,3.0258560180664062,-1.2590227127075195,0.2575634717941284,-0.04180605337023735,24.101375579833984,-19.20301055908203,28.063003540039062,0.2774817645549774,1.3884754180908203,1.068312644958496,-0.4218456447124481,8.684288024902344,1.9575433731079102
4_20251106_214346,1762436591569,4,0.26408955454826355,0.22198757529258728,0.6197090148925781,0.7049390077590942,-0.1839505285024643,3.011920213699341,0.6720761060714722,-0.03184126317501068,9.923131942749023,2.0275166034698486,-1.2590227127075195,0.2575634717941284,-0.04180605337023735,23.95292091369629,-20.21813201904297,27.199691772460938,0.312003493309021,0.9910755157470703,0.05597865581512451,-0.34384477138519287,8.932056427001953,1.9715379476547241
4_20251106_214346,1762436591587,4,0.2654087543487549,0.21781358122825623,0.6110846400260925,0.713225781917572,-0.18002496659755707,3.0263185501098633,0.7137155532836914,0.11539582163095474,9.735196113586426,2.129265785217285,-1.4722145795822144,0.10851248353719711,0.1817704290151596,23.889881134033203,-21.2159423828125,26.421173095703125,0.36739248037338257,0.642512321472168,0.12618231773376465,-0.2519966661930084,9.092683792114258,2.0030834674835205
4_20251106_214346,1762436591606,4,0.26654499769210815,0.21436496078968048,0.6008630394935608,0.7224714756011963,-0.18002496659755707,3.0263185501098633,0.7137155532836914,0.11539582163095474,9.735196113586426,2.129265785217285,-1.6047720909118652,0.14211004972457886,0.25751766562461853,23.685344696044922,-22.135658264160156,25.6656494140625,0.36739248037338257,0.642512321472168,0.12618231773376465,-0.2519966661930084,9.092683792114258,2.0030834674835205
4_20251106_214346,1762436591625,4,0.2671736478805542,0.21077986061573029,0.5895408391952515,0.7325514554977417,-0.17366552352905273,3.0442328453063965,0.7625041604042053,0.3967024087905884,9.692102432250977,2.743352174758911,-1.6469218730926514,0.19830960035324097,0.22208750247955322,23.489364624023438,-22.90454864501953,24.899776458740234,0.5189592838287354,0.4795351028442383,0.592214822769165,-0.12225685268640518,9.212567329406738,2.151137351989746
4_20251106_214346,1762436591644,4,0.26769575476646423,0.20644167065620422,0.5779297947883606,0.7427772283554077,-0.1582043319940567,3.079171895980835,0.8579305410385132,0.3392440676689148,9.694496154785156,3.6938095092773438,-1.6108808517456055,0.22091159224510193,0.11701877415180206,23.30636215209961,-23.67156982421875,24.026264190673828,0.26912128925323486,0.3159036636352539,1.0564517974853516,0.07012278586626053,9.378592491149902,2.637357711791992
4_20251106_214346,1762436591663,4,0.268711119890213,0.20142105221748352,0.5666436553001404,0.752422034740448,-0.1582043319940567,3.079171895980835,0.8579305410385132,0.3392440676689148,9.694496154785156,3.6938095092773438,-1.6108808517456055,0.22091159224510193,0.11701877415180206,23.125289916992188,-24.38957977294922,23.275455474853516,0.26912128925323486,0.3159036636352539,1.0564517974853516,0.07012278586626053,9.378592491149902,2.637357711791992
4_20251106_214346,1762436591682,4,0.26972314715385437,0.19589057564735413,0.5561167597770691,0.761321485042572,-0.1500355452299118,3.0975019931793213,0.9093480110168457,0.12377515435218811,9.626264572143555,3.6471242904663086,-1.5186402797698975,0.2734459638595581,0.05654316768050194,22.96092987060547,-25.031044006347656,22.48617172241211,0.042921893298625946,0.19813823699951172,0.8078131675720215,0.08085326105356216,9.428126335144043,2.839311122894287
4_20251106_214346,1762436591701,4,0.27062445878982544,0.19023695588111877,0.5453142523765564,0.7701978087425232,-0.14272280037403107,3.114315986633301,0.9580638408660889,0.05913449078798294,9.526908874511719,3.6818389892578125,-1.659749984741211,0.16349031031131744,0.14817287027835846,22.820322036743164,-25.69495391845703,21.589210510253906,-0.01737501472234726,0.0790262222290039,0.6740224361419678,0.0765095055103302,9.447882652282715,3.0078165531158447
4_20251106_214346,1762436591720,4,0.2716737985610962,0.1855207234621048,0.5331796407699585,0.7794195413589478,-0.12886494398117065,3.1440117359161377,1.0591518878936768,0.2973473072052002,9.366504669189453,5.479806900024414,-1.6353154182434082,0.03459785133600235,0.20192895829677582,22.679615020751953,-26.35900115966797,20.705764770507812,0.17408746480941772,-0.050932884216308594,1.7404675483703613,0.12325984239578247,9.417437553405762,3.7393393516540527
4_20251106_214346,1762436591739,4,0.2729952931404114,0.1820884346961975,0.5205397605895996,0.7882611751556396,-0.12114467471837997,3.158081531524658,1.1157383918762207,0.4314168393611908,9.427553176879883,5.806601524353027,-1.5210837125778198,0.039484769105911255,0.16894227266311646,22.49518394470215,-26.949806213378906,19.713809967041016,0.2465256005525589,0.008091926574707031,1.6538095474243164,0.1848912388086319,9.419461250305176,4.152791976928711
4_20251106_214346,1762436591759,4,0.2742252051830292,0.17865994572639465,0.5085921883583069,0.7963762283325195,-0.11267496645450592,3.1716666221618652,1.1775016784667969,0.4314168691635132,9.259966850280762,5.855680465698242,-1.4270105361938477,0.09690605849027634,0.0944167822599411,22.38568687438965,-27.498573303222656,18.76613998413086,0.19722050428390503,-0.1275959014892578,1.3623108863830566,0.23419636487960815,9.38756275177002,4.4933695793151855
4_20251106_214346,1762436591778,4,0.27555134892463684,0.17469197511672974,0.4975213408470154,0.8037578463554382,-0.10456221550703049,3.183117151260376,1.236964225769043,0.40508174896240234,9.09238052368164,5.849695205688477,-1.3683675527572632,0.1549382209777832,0.012560906819999218,22.290279388427734,-28.02075958251953,17.751907348632812,0.1367083191871643,-0.2361459732055664,1.0850605964660645,0.26837342977523804,9.328526496887207,4.764634609222412
4_20251106_214346,1762436591798,4,0.2770680785179138,0.17001980543136597,0.4871349632740021,0.8105714321136475,-0.10456221550703049,3.183117151260376,1.236964225769043,0.40508174896240234,9.09238052368164,5.849695205688477,-1.3683675527572632,0.1549382209777832,0.012560906819999218,22.290279388427734,-28.02075958251953,17.751907348632812,0.1367083191871643,-0.2361459732055664,1.0850605964660645,0.26837342977523804,9.328526496887207,4.764634609222412
4_20251106_214346,1762436591817,4,0.2792791724205017,0.16512969136238098,0.4769785702228546,0.8168395161628723,-0.09073428064584732,3.20194149017334,1.3619389533996582,-0.2257632613182068,8.761995315551758,6.312952995300293,-1.3072810173034668,0.08896481245756149,-0.09128609299659729,22.19972038269043,-28.443565368652344,16.847915649414062,-0.37734490633010864,-0.40375804901123047,1.0252070426940918,0.15158163011074066,9.165753364562988,5.287745952606201
4_20251106_214346,1762436591836,4,0.2817831337451935,0.16058966517448425,0.4669508934020996,0.8226579427719116,-0.08677031099796295,3.2082061767578125,1.423040747642517,-0.43883806467056274,8.612363815307617,6.493707656860352,-1.2883442640304565,0.00833066739141941,-0.00943022221326828,22.10885238647461,-28.878395080566406,15.889595031738281,-0.4723357558250427,-0.44271183013916016,0.9647693634033203,0.03349769860506058,9.055075645446777,5.528938293457031
4_20251106_214346,1762436591854,4,0.2839186489582062,0.1569536328315735,0.4566850960254669,0.8283685445785522,-0.08392956852912903,3.2126305103302,1.4810800552368164,-0.261674702167511,8.562088012695312,6.766634941101074,-1.2565792798995972,-0.03381899744272232,0.10296888649463654,22.1154727935791,-29.306869506835938,14.935197830200195,-0.23613792657852173,-0.3943901062011719,0.9901576042175293,-0.025536779314279556,8.956478118896484,5.776477336883545
4_20251106_214346,1762436591874,4,0.28532522916793823,0.15417584776878357,0.44633567333221436,0.8340286612510681,-0.08094289153814316,3.2159342765808105,1.5455358028411865,-0.029447168111801147,8.507022857666016,6.8264875411987305,-1.2565792798995972,-0.03381899744272232,0.10296888649463654,22.053627014160156,-29.64099884033203,14.115133285522461,-0.0031283125281333923,-0.35956382751464844,0.8400082588195801,-0.026318855583667755,8.866586685180664,5.98647928237915
4_20251106_214346,1762436591892,4,0.2863914966583252,0.1520722508430481,0.4361112415790558,0.8394408226013184,-0.07838225364685059,3.217855930328369,1.6031619310379028,-0.023461923003196716,8.499841690063477,7.008439064025879,-1.20832097530365,-0.0759686604142189,0.1512271761894226,21.9835147857666,-29.91259765625,13.241832733154297,0.0022855475544929504,-0.29339599609375,0.8175678253173828,-0.025747470557689667,8.793237686157227,6.190871238708496
4_20251106_214346,1762436591912,4,0.28706440329551697,0.15004490315914154,0.42620742321014404,0.8446465730667114,-0.07838225364685059,3.217855930328369,1.6031619310379028,-0.023461923003196716,8.499841690063477,7.008439064025879,-1.1252434253692627,-0.0020540333352983,0.17077486217021942,21.915729522705078,-30.1346435546875,12.437170028686523,0.0022855475544929504,-0.29339599609375,0.8175678253173828,-0.025747470557689667,8.793237686157227,6.190871238708496
4_20251106_214346,1762436591931,4,0.28745460510253906,0.1476660817861557,0.41675591468811035,0.8496346473693848,-0.07175439596176147,3.2183680534362793,1.7291920185089111,0.3081207871437073,8.375347137451172,7.484864711761475,-1.1252434253692627,-0.0020540333352983,0.17077486217021942,21.89295196533203,-30.428176879882812,11.565303802490234,0.24719306826591492,-0.2685985565185547,0.8423285484313965,0.06092771142721176,8.643945693969727,6.642536163330078
4_20251106_214346,1762436591951,4,0.2875446081161499,0.1451234370470047,0.40795642137527466,0.8543002009391785,-0.06673096865415573,3.2176859378814697,1.7929449081420898,0.5379542112350464,8.49625015258789,7.508805751800537,-0.9798575639724731,0.03581957891583443,0.162222757935524,21.852554321289062,-30.59813690185547,10.735645294189453,0.38162118196487427,-0.11815643310546875,0.6930155754089355,0.15633301436901093,8.61440658569336,6.815790176391602
4_20251106_214346,1762436591970,4,0.2876311242580414,0.14286041259765625,0.3996829390525818,0.8585526943206787,-0.06136050075292587,3.2165558338165283,1.8527051210403442,0.46134310960769653,8.426820755004883,7.6261162757873535,-0.9798575639724731,0.03581957891583443,0.162222757935524,21.76129913330078,-30.808944702148438,9.90323257446289,0.24400807917118073,-0.1500682830810547,0.6482605934143066,0.2173350304365158,8.576889038085938,6.977855682373047
4_20251106_214346,1762436591989,4,0.2882952392101288,0.14092081785202026,0.39202678203582764,0.8621729612350464,-0.056032463908195496,3.2150802612304688,1.9113478660583496,0.2997414171695709,8.430412292480469,7.659633636474609,-0.9034994840621948,0.003443750087171793,0.09869283437728882,21.659576416015625,-30.983413696289062,9.125186920166016,0.06592510640621185,-0.11718177795410156,0.5454225540161133,0.23381631076335907,8.54759407043457,7.114211082458496
4_20251106_214346,1762436592008,4,0.28913354873657227,0.13902191817760468,0.3848498463630676,0.8654277920722961,-0.050839222967624664,3.2130022048950195,1.9690672159194946,0.28178566694259644,8.301130294799805,7.846373558044434,-0.8479107618331909,-0.0038866265676915646,0.06570613384246826,21.498939514160156,-31.12432098388672,8.358997344970703,0.038375481963157654,-0.19717121124267578,0.5857295989990234,0.24341018497943878,8.49830150604248,7.26064395904541
4_20251106_214346,1762436592026,4,0.2895658612251282,0.13759317994117737,0.377887099981308,0.8685741424560547,-0.04541349038481712,3.210519790649414,2.0227723121643066,0.5487276911735535,8.24965763092041,7.974457740783691,-0.7538375854492188,-0.09795979410409927,0.16588793694972992,21.386144638061523,-31.274879455566406,7.6215362548828125,0.2442539930343628,-0.1989145278930664,0.5710511207580566,0.3044736981391907,8.448572158813477,7.403406620025635
4_20251106_214346,1762436592046,4,0.2897557318210602,0.13701669871807098,0.371095210313797,0.8715253472328186,-0.04541349038481712,3.210519790649414,2.0227723121643066,0.5487276911735535,8.24965763092041,7.974457740783691,-0.6787012815475464,-0.13155734539031982,0.12923605740070343,21.323305130004883,-31.39740753173828,6.913599014282227,0.2442539930343628,-0.1989145278930664,0.5710511207580566,0.3044736981391907,8.448572158813477,7.403406620025635
4_20251106_214346,1762436592065,4,0.2902734577655792,0.1368544101715088,0.36484768986701965,0.8740127682685852,-0.0315590538084507,3.2036190032958984,2.13767409324646,0.5571070909500122,8.240080833435059,8.273719787597656,-0.5669130086898804,-0.11506400257349014,0.03516290336847305,21.272552490234375,-31.51927947998047,6.219667434692383,0.13812744617462158,-0.12788009643554688,0.5654277801513672,0.4189796447753906,8.367960929870605,7.708292007446289
4_20251106_214346,1762436592084,4,0.2914191484451294,0.13657604157924652,0.3596504330635071,0.8758273124694824,-0.02581574022769928,3.1999409198760986,2.1886465549468994,0.2662240266799927,8.15030288696289,8.173168182373047,-0.4783375859260559,-0.06497309356927872,0.0003436123952269554,21.15312385559082,-31.558692932128906,5.592222213745117,-0.1222044825553894,-0.17412662506103516,0.3719010353088379,0.3884285092353821,8.324429512023926,7.801267147064209
4_20251106_214346,1762436592103,4,0.2925730347633362,0.1359689086675644,0.3554039001464844,0.8772693872451782,-0.02581574022769928,3.1999409198760986,2.1886465549468994,0.2662240266799927,8.15030288696289,8.173168182373047,-0.43863141536712646,-0.06986001878976822,0.05593230202794075,21.055063247680664,-31.635398864746094,5.086612701416016,-0.1222044825553894,-0.17412662506103516,0.3719010353088379,0.3884285092353821,8.324429512023926,7.801267147064209
4_20251106_214346,1762436592122,4,0.2931855618953705,0.135612353682518,0.3514529764652252,0.8787106275558472,-0.01730283349752426,3.190185546875,2.2907464504241943,0.044769905507564545,7.924059867858887,8.0067777633667,-0.41969460248947144,-0.08879682421684265,0.15367065370082855,20.934040069580078,-31.688583374023438,4.5805511474609375,-0.21745166182518005,-0.27213287353515625,0.1198430061340332,0.2622215747833252,8.196192741394043,7.886934757232666
4_20251106_214346,1762436592142,4,0.29299789667129517,0.13572250306606293,0.34751588106155396,0.8803206086158752,-0.013742538169026375,3.1841344833374023,2.3404810428619385,0.19679518043994904,7.915679931640625,7.883481979370117,-0.39831432700157166,-0.12544870376586914,0.24468949437141418,20.875864028930664,-31.700393676757812,4.104764938354492,-0.052341118454933167,-0.2244100570678711,-0.002762317657470703,0.2491362988948822,8.140089988708496,7.886244297027588
4_20251106_214346,1762436592160,4,0.2921070456504822,0.13648495078086853,0.3435516357421875,0.8820530772209167,-0.009960297495126724,3.1780381202697754,2.3850502967834473,0.4565548896789551,7.9084978103637695,7.770959377288818,-0.39831432700157166,-0.12544870376586914,0.24468949437141418,20.790695190429688,-31.763748168945312,3.5999107360839844,0.16593489050865173,-0.1852741241455078,-0.09222841262817383,0.29061999917030334,8.093771934509277,7.863187789916992
4_20251106_214346,1762436592180,4,0.2908024787902832,0.1377599984407425,0.3395799994468689,0.8838220834732056,-0.004800247959792614,3.17158579826355,2.4300341606140137,0.7438467144966125,7.976729869842529,7.999595642089844,-0.360440731048584,-0.13400080800056458,0.2886717617511749,20.632015228271484,-31.832412719726562,3.14617919921875,0.36258137226104736,-0.09363317489624023,0.10912609100341797,0.3812653422355652,8.07036304473877,7.890469551086426
4_20251106_214346,1762436592199,4,0.28960439562797546,0.13897179067134857,0.3358629643917084,0.8854446411132812,-0.004800247959792614,3.17158579826355,2.4300341606140137,0.7438467144966125,7.976729869842529,7.999595642089844,-0.28408265113830566,-0.03442986309528351,0.1927659809589386,20.48391342163086,-31.92566680908203,2.719442367553711,0.36258137226104736,-0.09363317489624023,0.10912609100341797,0.3812653422355652,8.07036304473877,7.890469551086426
4_20251106_214346,1762436592219,4,0.28872033953666687,0.1392701268196106,0.33316901326179504,0.8867033123970032,0.008102313615381718,3.158156394958496,2.5135443210601807,0.7450438141822815,7.791187286376953,8.05585765838623,-0.194896399974823,0.04437168315052986,0.08158862590789795,20.337234497070312,-31.982192993164062,2.388111114501953,0.21462303400039673,-0.19284629821777344,0.08382320404052734,0.5304207801818848,7.984033584594727,7.972034454345703
4_20251106_214346,1762436592238,4,0.2884668707847595,0.1388256847858429,0.3315396010875702,0.8874659538269043,0.01348353736102581,3.1519393920898438,2.5472586154937744,0.4661312699317932,7.749290466308594,7.952910900115967,-0.1588553786277771,0.03520871326327324,0.03210857883095741,20.337234497070312,-31.982192993164062,2.388111114501953,-0.05143159627914429,-0.18779468536376953,-0.015299320220947266,0.5175628662109375,7.937085151672363,7.968210220336914
4_20251106_214346,1762436592256,4,0.28861311078071594,0.13837842643260956,0.33027809858322144,0.8879584670066833,0.01348353736102581,3.1519393920898438,2.5472586154937744,0.4661312699317932,7.749290466308594,7.952910900115967,-0.12709039449691772,-0.012438732199370861,0.06570613384246826,20.23819923400879,-32.04863739013672,2.1125431060791016,-0.05143159627914429,-0.18779468536376953,-0.015299320220947266,0.5175628662109375,7.937085151672363,7.968210220336914
4_20251106_214346,1762436592275,4,0.28857362270355225,0.13845790922641754,0.32915037870407104,0.8883775472640991,0.023778434842824936,3.1360292434692383,2.6183884143829346,0.42303749918937683,7.5302300453186035,7.903831481933594,-0.09837976098060608,-0.06863828748464584,0.11824050545692444,20.103113174438477,-32.10517883300781,1.8628005981445312,-0.049004584550857544,-0.27762460708618164,-0.03737163543701172,0.4720420837402344,7.807854652404785,7.9412031173706055
4_20251106_214346,1762436592294,4,0.2881757318973541,0.1392037719488144,0.3280576467514038,0.8887942433357239,0.023778434842824936,3.1360292434692383,2.6183884143829346,0.42303749918937683,7.5302300453186035,7.903831481933594,-0.0666147917509079,-0.11078795045614243,0.13717728853225708,20.038026809692383,-32.20758819580078,1.6554927825927734,-0.049004584550857544,-0.27762460708618164,-0.03737163543701172,0.4720420837402344,7.807854652404785,7.9412031173706055
4_20251106_214346,1762436592313,4,0.2877069413661957,0.14045678079128265,0.32706984877586365,0.8891130089759827,0.029048364609479904,3.126209020614624,2.6535515785217285,0.543939471244812,7.394964218139648,7.896649360656738,-0.040958479046821594,-0.11995092034339905,0.1261817365884781,19.901134490966797,-32.28977966308594,1.4592866897583008,0.05751791596412659,-0.33031272888183594,-0.03564262390136719,0.4864215552806854,7.725276947021484,7.9322919845581055
4_20251106_214346,1762436592333,4,0.28730887174606323,0.1418323665857315,0.3262626826763153,0.889319896697998,0.03892047330737114,3.1068837642669678,2.7104125022888184,0.7043441534042358,7.2321648597717285,7.895452499389648,-0.023854266852140427,-0.11628573387861252,0.09136246144771576,19.77644157409668,-32.35956573486328,1.3584489822387695,0.14962148666381836,-0.32421064376831055,-0.013425827026367188,0.5547226667404175,7.556375503540039,7.908878326416016
4_20251106_214346,1762436592351,4,0.2869396507740021,0.14304570853710175,0.32567939162254333,0.8894585371017456,0.04394098371267319,3.096742868423462,2.7357900142669678,0.6959648132324219,7.1723127365112305,7.8320088386535645,0.01646280474960804,-0.08940768986940384,0.051045384258031845,19.763748168945312,-32.372650146484375,1.3306617736816406,0.11299371719360352,-0.3072504997253418,-0.061495304107666016,0.5829710960388184,7.479563236236572,7.8935041427612305
4_20251106_214346,1762436592371,4,0.28699082136154175,0.1440979689359665,0.32550904154777527,0.889334499835968,0.04932554066181183,3.084824323654175,2.7620227336883545,0.6109743118286133,7.080139636993408,7.71110725402832,0.01646280474960804,-0.08940768986940384,0.051045384258031845,19.6414794921875,-32.39274597167969,1.2849445343017578,0.022402584552764893,-0.31953859329223633,-0.1459178924560547,0.5885717272758484,7.3996782302856445,7.857025146484375
4_20251106_214346,1762436592390,4,0.28708186745643616,0.14487314224243164,0.32584092020988464,0.8890576362609863,0.05433852598071098,3.073099136352539,2.7854092121124268,0.6444916129112244,7.046622276306152,7.751806259155273,0.03356701880693436,-0.045425429940223694,0.0736473798751831,19.53290557861328,-32.38679504394531,1.226729393005371,0.04473590850830078,-0.28244495391845703,-0.08417510986328125,0.5997557044029236,7.329067230224609,7.835981369018555
4_20251106_214346,1762436592409,4,0.28680160641670227,0.14552246034145355,0.3261831998825073,0.8889164924621582,0.05963412672281265,3.0609586238861084,2.807316541671753,0.7941228151321411,6.96402645111084,7.723077774047852,0.06838630884885788,-0.038705918937921524,0.0791451632976532,19.43722152709961,-32.36749267578125,1.1692686080932617,0.15549367666244507,-0.29203271865844727,-0.09032249450683594,0.638629138469696,7.256059169769287,7.8134002685546875
4_20251106_214346,1762436592429,4,0.2864230275154114,0.14623010158538818,0.3267129957675934,0.8887278437614441,0.06544609367847443,3.047846794128418,2.8281049728393555,0.8084874153137207,6.936493873596191,7.445362091064453,0.10992510616779327,-0.009995275177061558,0.02050214633345604,19.363189697265625,-32.396697998046875,1.0982170104980469,0.13588666915893555,-0.25565195083618164,-0.2944307327270508,0.6726007461547852,7.192145824432373,7.739792823791504
4_20251106_214346,1762436592448,4,0.28640326857566833,0.14684836566448212,0.32756277918815613,0.8883193731307983,0.07037559151649475,3.0358266830444336,2.8447651863098145,0.6564621329307556,6.863473892211914,7.287351608276367,0.10992510616779327,-0.009995275177061558,0.02050214633345604,19.290271759033203,-32.40119171142578,1.068242073059082,-0.012910902500152588,-0.2629375457763672,-0.3619527816772461,0.6693730354309082,7.126411437988281,7.649304389953613
4_20251106_214346,1762436592465,4,0.28668925166130066,0.14695847034454346,0.3286794126033783,0.8877963423728943,0.07503566145896912,3.0237159729003906,2.8596832752227783,0.6600532531738281,6.845518112182617,7.2801690101623535,0.09404262155294418,0.04376082122325897,-0.03142135217785835,19.23780632019043,-32.46742248535156,1.0919933319091797,-0.0074558258056640625,-0.2247147560119629,-0.29530811309814453,0.6675090789794922,7.07023286819458,7.575477123260498
4_20251106_214346,1762436592485,4,0.28675931692123413,0.14642541110515594,0.3296565115451813,0.8874994516372681,0.08041959255933762,3.0101256370544434,2.8740594387054443,0.8204578757286072,6.804818153381348,7.1245527267456055,0.09648608416318893,0.09446259588003159,-0.007597628980875015,19.213632583618164,-32.46874237060547,1.0639801025390625,0.12235903739929199,-0.21233177185058594,-0.36073970794677734,0.6980988383293152,7.017149925231934,7.485292434692383
4_20251106_214346,1762436592505,4,0.28655382990837097,0.14593151211738586,0.3307580351829529,0.8872373104095459,0.08623016625642776,2.9965219497680664,2.885754108428955,0.9269952774047852,6.789256572723389,6.839654922485352,0.10015127062797546,0.049258604645729065,-0.021647516638040543,19.117454528808594,-32.45011901855469,1.0741004943847656,0.18311715126037598,-0.18231439590454102,-0.516510009765625,0.7438781261444092,6.97157096862793,7.356164932250977
4_20251106_214346,1762436592523,4,0.286690890789032,0.14586849510669708,0.33176717162132263,0.8868265151977539,0.08623016625642776,2.9965219497680664,2.885754108428955,0.9269952774047852,6.789256572723389,6.839654922485352,0.10015127062797546,0.049258604645729065,-0.021647516638040543,19.117467880249023,-32.438507080078125,1.1689786911010742,0.18311715126037598,-0.18231439590454102,-0.516510009765625,0.7438781261444092,6.97157096862793,7.356164932250977
4_20251106_214346,1762436592542,4,0.2872832119464874,0.14604304730892181,0.3322785496711731,0.8864145278930664,0.09633024781942368,2.9715147018432617,2.9018092155456543,0.6708267331123352,6.700675010681152,7.004847526550293,-0.017745619639754295,-0.006330085452646017,-0.0650189071893692,19.114463806152344,-32.477394104003906,1.2898330688476562,-0.06916165351867676,-0.1823749542236328,-0.17485427856445312,0.739988386631012,6.883049964904785,7.179701805114746
4_20251106_214346,1762436592562,4,0.2880726456642151,0.14599740505218506,0.3322560787200928,0.8861742615699768,0.10086838155984879,2.959092617034912,2.9092857837677,0.686388373374939,6.792847633361816,7.228695869445801,-0.021410807967185974,0.015050179325044155,-0.06257545948028564,19.123336791992188,-32.527503967285156,1.3568487167358398,-0.04287999868392944,-0.07216215133666992,0.03919506072998047,0.7292683720588684,6.865009784698486,7.18950080871582
4_20251106_214346,1762436592581,4,0.2887418866157532,0.14569725096225739,0.33222344517707825,0.8860180377960205,0.10532709956169128,2.9465930461883545,2.9172563552856445,0.7031470537185669,6.839532852172852,7.351992130279541,-0.005528325214982033,0.05231292545795441,-0.09800560772418976,19.160106658935547,-32.51323699951172,1.4261655807495117,-0.020897090435028076,-0.020381450653076172,0.12999296188354492,0.724044144153595,6.859914302825928,7.221999168395996
4_20251106_214346,1762436592599,4,0.28961363434791565,0.14502719044685364,0.3324505388736725,0.8857582807540894,0.10889920592308044,2.935779094696045,2.9239578247070312,0.6265358924865723,6.808409690856934,7.176025867462158,0.024404047057032585,0.08285617083311081,-0.13587923347949982,19.22034454345703,-32.51020812988281,1.5232315063476562,-0.07800662517547607,-0.041203975677490234,-0.03677845001220703,0.7045425176620483,6.849613666534424,7.212804317474365
4_20251106_214346,1762436592619,4,0.29067376255989075,0.14406847953796387,0.33305150270462036,0.8853415846824646,0.11219972372055054,2.9240899085998535,2.9307706356048584,0.5499247312545776,6.759330749511719,7.126946449279785,0.0134084802120924,0.06025416776537895,-0.14626392722129822,19.308368682861328,-32.454551696777344,1.5412368774414062,-0.12369424104690552,-0.07222652435302734,-0.06868648529052734,0.6736189723014832,6.831557273864746,7.1956329345703125
4_20251106_214346,1762436592641,4,0.2918913960456848,0.1432289332151413,0.33353665471076965,0.8848944306373596,0.1146802231669426,2.9117305278778076,2.937171697616577,0.4314168393611908,6.622866630554199,7.0778679847717285,0.0072998348623514175,0.0003894263645634055,-0.1212184727191925,19.3597469329834,-32.389801025390625,1.6661643981933594,-0.19376173615455627,-0.16695213317871094,-0.09421205520629883,0.6251785755157471,6.78981876373291,7.172080039978027
4_20251106_214346,1762436592659,4,0.293122798204422,0.14295345544815063,0.3337680399417877,0.8844445943832397,0.11624125391244888,2.9005343914031982,2.942250967025757,0.4170522689819336,6.58096981048584,7.018015384674072,-0.0030848663300275803,-0.035040728747844696,-0.07296015322208405,19.3597469329834,-32.389801025390625,1.6661643981933594,-0.16650104522705078,-0.16707944869995117,-0.12325191497802734,0.5835533142089844,6.748049259185791,7.1412672996521
4_20251106_214346,1762436592677,4,0.2940322756767273,0.14305417239665985,0.33374807238578796,0.8841338753700256,0.11724186688661575,2.890634775161743,2.9462897777557373,0.4350079894065857,6.573787689208984,7.0144243240356445,-0.05256491154432297,-0.05703185871243477,-0.03569740429520607,19.45956039428711,-32.333892822265625,1.7387256622314453,-0.11883622407913208,-0.13940906524658203,-0.10147476196289062,0.5538442134857178,6.713196754455566,7.115899085998535
4_20251106_214346,1762436592695,4,0.29477041959762573,0.14332076907157898,0.33320116996765137,0.8840512037277222,0.11724186688661575,2.890634775161743,2.9462897777557373,0.4350079894065857,6.573787689208984,7.0144243240356445,-0.10937532782554626,-0.03442986309528351,-0.010041087865829468,19.560869216918945,-32.26435089111328,1.703420639038086,-0.11883622407913208,-0.13940906524658203,-0.10147476196289062,0.5538442134857178,6.713196754455566,7.115899085998535
4_20251106_214346,1762436592715,4,0.29539841413497925,0.14326345920562744,0.3324182331562042,0.8841456174850464,0.11890524625778198,2.8694045543670654,2.955927848815918,0.5188014507293701,6.630049228668213,7.512396812438965,-0.1338099092245102,0.004054614808410406,-0.01248454675078392,19.612024307250977,-32.22309875488281,1.6656246185302734,-0.018213748931884766,-0.05206489562988281,0.3060455322265625,0.5370151996612549,6.682114124298096,7.206351280212402
4_20251106_214346,1762436592734,4,0.2958490550518036,0.14281922578811646,0.3314412832260132,0.8844335079193115,0.11951365321874619,2.8586881160736084,2.962584972381592,0.481692910194397,6.57977294921875,7.681180953979492,-0.10082321614027023,0.029710935428738594,-0.01248454675078392,19.666011810302734,-32.12000274658203,1.7237625122070312,-0.04425781965255737,-0.08187294006347656,0.3798637390136719,0.5259507298469543,6.661645889282227,7.30131721496582
4_20251106_214346,1762436592754,4,0.29613396525382996,0.14215557277202606,0.33052685856819153,0.8847872614860535,0.11951365321874619,2.8586881160736084,2.962584972381592,0.481692910194397,6.57977294921875,7.681180953979492,-0.06722565740346909,0.013828449882566929,-0.00454330537468195,19.74163818359375,-32.0770263671875,1.673431396484375,-0.04425781965255737,-0.08187294006347656,0.3798637390136719,0.5259507298469543,6.661645889282227,7.30131721496582
4_20251106_214346,1762436592772,4,0.2961294651031494,0.14152047038078308,0.329708993434906,0.8851956129074097,0.12002436071634293,2.8478362560272217,2.969864845275879,0.49725455045700073,6.613290786743164,7.49204683303833,-0.07394517213106155,-0.02771035209298134,0.015615230426192284,19.769916534423828,-32.02372741699219,1.5267887115478516,-0.0229569673538208,-0.03868389129638672,0.15258359909057617,0.5202115178108215,6.651974678039551,7.339463233947754
4_20251106_214346,1762436592792,4,0.296398401260376,0.14152653515338898,0.32887783646583557,0.8854138255119324,0.12039706110954285,2.838632583618164,2.9762942790985107,0.49605751037597656,6.697083950042725,7.402268409729004,-0.08921679109334946,-0.03076467290520668,0.034552037715911865,19.70948028564453,-32.02702331542969,1.4567546844482422,-0.019323229789733887,0.0360875129699707,0.05024433135986328,0.5153807401657104,6.660996437072754,7.352024078369141
4_20251106_214346,1762436592810,4,0.2965870797634125,0.14166276156902313,0.3280828595161438,0.8856237530708313,0.12138102948665619,2.8234362602233887,2.9879016876220703,0.6325211524963379,6.82756233215332,7.395086288452148,-0.08555160462856293,-0.018547378480434418,0.04554760083556175,19.721752166748047,-32.03770446777344,1.348851203918457,0.09048360586166382,0.1113901138305664,0.02775096893310547,0.5420375466346741,6.716172218322754,7.367335319519043
4_20251106_214346,1762436592829,4,0.29653769731521606,0.14180722832679749,0.32747262716293335,0.8858429789543152,0.12138102948665619,2.8234362602233887,2.9879016876220703,0.6325211524963379,6.82756233215332,7.395086288452148,-0.0763886347413063,-0.031986404210329056,0.05593230202794075,19.769779205322266,-32.05870056152344,1.255671501159668,0.09048360586166382,0.1113901138305664,0.02775096893310547,0.5420375466346741,6.716172218322754,7.367335319519043
4_20251106_214346,1762436592849,4,0.2965231239795685,0.14231817424297333,0.32686471939086914,0.8859904408454895,0.12400272488594055,2.8101274967193604,2.9995436668395996,0.7222998738288879,6.9185380935668945,7.517185211181641,-0.0715017169713974,-0.06436223536729813,0.05532143637537956,19.758989334106445,-32.045997619628906,1.1608314514160156,0.11747473478317261,0.14215517044067383,0.12424993515014648,0.6048251390457153,6.776382923126221,7.392935276031494
4_20251106_214346,1762436592868,4,0.29667121171951294,0.1432695835828781,0.32623472809791565,0.8860197067260742,0.12588544189929962,2.804943561553955,3.0059168338775635,0.7881375551223755,6.9819817543029785,7.729063034057617,-0.0715017169713974,-0.06436223536729813,0.05532143637537956,19.73430824279785,-32.059608459472656,1.1055212020874023,0.14664995670318604,0.16447925567626953,0.2689023017883301,0.6414875984191895,6.817502498626709,7.460160732269287
4_20251106_214346,1762436592886,4,0.29701942205429077,0.1440931260585785,0.3259432315826416,0.8858767747879028,0.12588544189929962,2.804943561553955,3.0059168338775635,0.7881375551223755,6.9819817543029785,7.729063034057617,0.026847505941987038,-0.019158244132995605,-0.04486037790775299,19.632169723510742,-32.165069580078125,0.9643230438232422,0.14664995670318604,0.16447925567626953,0.2689023017883301,0.6414875984191895,6.817502498626709,7.460160732269287
4_20251106_214346,1762436592906,4,0.2975738048553467,0.14453820884227753,0.3261728286743164,0.8855336308479309,0.12815575301647186,2.8004307746887207,3.013282060623169,0.7689847946166992,7.038243293762207,7.786520957946777,0.026847505941987038,-0.019158244132995605,-0.04486037790775299,19.570125579833984,-32.193748474121094,0.9207944869995117,0.1019977331161499,0.17659282684326172,0.26108837127685547,0.6669870615005493,6.861650466918945,7.525432586669922
4_20251106_214346,1762436592925,4,0.2984316945075989,0.14457891881465912,0.32709893584251404,0.884896457195282,0.13022233545780182,2.796738624572754,3.021207332611084,0.6373093724250793,7.057395935058594,7.830811977386475,0.08671224862337112,0.01810450293123722,-0.1114446371793747,19.546062469482422,-32.183319091796875,0.9741430282592773,-0.02374213933944702,0.15659666061401367,0.24430322647094727,0.6610515117645264,6.90079927444458,7.586508750915527
4_20251106_214346,1762436592944,4,0.29954102635383606,0.14452803134918213,0.3286837339401245,0.883942186832428,0.13255204260349274,2.790982246398926,3.0350759029388428,0.4589489996433258,6.904173374176025,7.542323112487793,0.2058308720588684,-0.021601703017950058,-0.1517617106437683,19.59984016418457,-32.09210968017578,0.9644365310668945,-0.13873043656349182,-0.011822223663330078,-0.06371116638183594,0.5976794362068176,6.9159955978393555,7.606034278869629
4_20251106_214346,1762436592964,4,0.30074694752693176,0.14472359418869019,0.33054158091545105,0.8828072547912598,0.13280607759952545,2.7879483699798584,3.0418243408203125,0.3631850481033325,6.89818811416626,7.5147905349731445,0.2058308720588684,-0.021601703017950058,-0.1517617106437683,19.59067153930664,-32.04240417480469,0.9379692077636719,-0.18759548664093018,-0.014245986938476562,-0.07299518585205078,0.5507805347442627,6.912434101104736,7.587785720825195
4_20251106_214346,1762436592984,4,0.3020257353782654,0.14530302584171295,0.33228856325149536,0.881618857383728,0.13222602009773254,2.7850263118743896,3.047776937484741,0.28058862686157227,6.899385452270508,7.43698263168335,0.2009439468383789,-0.0655839666724205,-0.13832268118858337,19.61776351928711,-31.99072265625,0.953521728515625,-0.21615353226661682,-0.010438919067382812,-0.12064218521118164,0.4967421591281891,6.909824371337891,7.557624816894531
4_20251106_214346,1762436593001,4,0.3030439615249634,0.1459650695323944,0.3339075744152069,0.8805477023124695,0.13119085133075714,2.7827200889587402,3.0520713329315186,0.23869189620018005,6.9340996742248535,7.324460029602051,0.17223331332206726,-0.10834449529647827,-0.056466806679964066,19.63125991821289,-31.964950561523438,0.9680566787719727,-0.20644021034240723,0.019420146942138672,-0.18653202056884766,0.4451321065425873,6.914679527282715,7.510992050170898
4_20251106_214346,1762436593020,4,0.30382832884788513,0.1468047946691513,0.3352658450603485,0.8796212077140808,0.1295187771320343,2.780111312866211,3.056349277496338,0.23629780113697052,6.856291770935059,7.4082536697387695,0.1447443962097168,-0.11567487567663193,-0.006375899538397789,19.72834014892578,-31.970748901367188,0.9311676025390625,-0.16706745326519012,-0.04671001434326172,-0.08219051361083984,0.40336525440216064,6.90300178527832,7.490444183349609
4_20251106_214346,1762436593040,4,0.30427810549736023,0.14776559174060822,0.33642736077308655,0.8788610696792603,0.12768541276454926,2.7776920795440674,3.060171365737915,0.3141060173511505,6.92452335357666,7.402267932891846,0.14107921719551086,-0.10956622660160065,0.01989128440618515,19.843765258789062,-31.851394653320312,1.0190544128417969,-0.07140740752220154,0.017217636108398438,-0.0705409049987793,0.38551342487335205,6.907305717468262,7.472808837890625
4_20251106_214346,1762436593059,4,0.3044053316116333,0.14861243963241577,0.33735546469688416,0.8783183097839355,0.12560223042964935,2.7753870487213135,3.0636188983917236,0.3033325672149658,6.944872856140137,7.349597930908203,0.1453552544116974,-0.08329903334379196,0.019280418753623962,19.944185256958008,-31.783065795898438,1.1053953170776367,-0.06574466824531555,0.03005361557006836,-0.09856891632080078,0.36907723546028137,6.914819240570068,7.448166847229004
4_20251106_214346,1762436593079,4,0.3044315576553345,0.1493796557188034,0.33839181065559387,0.8777801990509033,0.123237743973732,2.7732157707214355,3.066263198852539,0.24228304624557495,6.920931816101074,7.240666389465332,0.14230093359947205,-0.04970147833228111,0.03699549660086632,19.981460571289062,-31.756507873535156,1.2020082473754883,-0.10143536329269409,0.004889965057373047,-0.1660003662109375,0.34371840953826904,6.916041851043701,7.4066667556762695
4_20251106_214346,1762436593097,4,0.3042757213115692,0.1499347984790802,0.33950480818748474,0.8773096799850464,0.12125225365161896,2.771430253982544,3.068035840988159,0.35839682817459106,6.944873332977295,7.208346366882324,0.11969893425703049,-0.02099083736538887,0.07486911118030548,19.981460571289062,-31.756507873535156,1.2020082473754883,0.011742740869522095,0.02306509017944336,-0.15865612030029297,0.34665408730506897,6.921808242797852,7.367002487182617
4_20251106_214346,1762436593115,4,0.3036689758300781,0.150201216340065,0.34055694937705994,0.8770665526390076,0.12125225365161896,2.771430253982544,3.068035840988159,0.35839682817459106,6.944873332977295,7.208346366882324,0.09954040497541428,-0.0032757618464529514,0.09380590915679932,19.97875213623047,-31.79499053955078,1.2823143005371094,0.011742740869522095,0.02306509017944336,-0.15865612030029297,0.34665408730506897,6.921808242797852,7.367002487182617
4_20251106_214346,1762436593135,4,0.30286580324172974,0.15052123367786407,0.34142184257507324,0.876953125,0.11892446130514145,2.7687673568725586,3.071316719055176,0.6253388524055481,7.041833877563477,7.31129264831543,0.1453552544116974,0.015050179325044155,0.09014073014259338,20.01361656188965,-31.80651092529297,1.4186840057373047,0.19578731060028076,0.07930660247802734,-0.04293203353881836,0.42955154180526733,6.962527275085449,7.354224681854248
4_20251106_214346,1762436593155,4,0.30197545886039734,0.15101076662540436,0.3425328731536865,0.8767427206039429,0.11882102489471436,2.7678773403167725,3.071542739868164,0.6552650928497314,7.050213813781738,6.928236484527588,0.1453552544116974,0.015050179325044155,0.09014073014259338,19.96196746826172,-31.848434448242188,1.5240602493286133,0.1805708408355713,0.07014894485473633,-0.3407907485961914,0.47469425201416016,6.980064868927002,7.269027233123779
4_20251106_214346,1762436593175,4,0.30112284421920776,0.15205641090869904,0.34380385279655457,0.8763576745986938,0.11934083700180054,2.767084836959839,3.070244789123535,0.678009033203125,6.9975433349609375,6.77142333984375,0.1447443962097168,-0.07963385432958603,0.11152099072933197,19.915054321289062,-31.802734375,1.6583175659179688,0.16265183687210083,0.013982772827148438,-0.3980832099914551,0.5153571963310242,6.983560562133789,7.169506549835205
4_20251106_214346,1762436593192,4,0.3004972040653229,0.15380755066871643,0.344863623380661,0.8758503198623657,0.12025455385446548,2.766486167907715,3.0686352252960205,0.74025559425354,7.002331733703613,6.913871765136719,0.08487965166568756,-0.10223584622144699,0.1304577887058258,19.92887306213379,-31.753326416015625,1.8220596313476562,0.17991870641708374,0.015016555786132812,-0.20450782775878906,0.5603368878364563,6.9873151779174805,7.118379592895508
4_20251106_214346,1762436593213,4,0.29971617460250854,0.15560537576675415,0.3454238176345825,0.8755795359611511,0.12210258096456528,2.7660231590270996,3.066756010055542,0.8803103566169739,7.05021333694458,7.056320667266846,0.06349939107894897,-0.0759686604142189,0.12679260969161987,19.865741729736328,-31.783493041992188,1.9272098541259766,0.2559787631034851,0.050318241119384766,-0.049646854400634766,0.6243315935134888,6.999895095825195,7.1059675216674805
4_20251106_214346,1762436593230,4,0.2990870475769043,0.15715549886226654,0.3456716239452362,0.8754200339317322,0.12475099414587021,2.7658395767211914,3.0650808811187744,0.9497392177581787,7.0933074951171875,7.146100044250488,0.047006040811538696,-0.016714785248041153,0.07242564857006073,19.756179809570312,-31.778892517089844,2.0041580200195312,0.260326087474823,0.07472991943359375,0.03210639953613281,0.6894131302833557,7.018577575683594,7.1139936447143555
4_20251106_214346,1762436593250,4,0.29860416054725647,0.15807609260082245,0.34586966037750244,0.8753408789634705,0.12795062363147736,2.7658467292785645,3.064074754714966,0.8707339763641357,7.081336498260498,7.334036350250244,0.047006040811538696,-0.016714785248041153,0.07242564857006073,19.707237243652344,-31.78234100341797,2.0292282104492188,0.14505666494369507,0.05020761489868164,0.17603445053100586,0.7256773114204407,7.031128883361816,7.158001899719238
4_20251106_214346,1762436593270,4,0.2984126806259155,0.15810956060886383,0.34627458453178406,0.8752400875091553,0.13132494688034058,2.7660467624664307,3.063610076904297,0.9030543565750122,7.101686477661133,7.319671630859375,0.0671645775437355,0.11645372211933136,-0.029588758945465088,19.667970657348633,-31.823204040527344,2.108062744140625,0.14190161228179932,0.056446075439453125,0.1293354034423828,0.7611527442932129,7.04524040222168,7.190336227416992
4_20251106_214346,1762436593288,4,0.29830455780029297,0.15750034153461456,0.34690749645233154,0.875136137008667,0.13477864861488342,2.766486883163452,3.063185214996338,0.8515812158584595,7.136401176452637,7.196375846862793,0.08365792781114578,0.06391935795545578,-0.030810486525297165,19.617408752441406,-31.8636474609375,2.064760208129883,0.07234281301498413,0.07292842864990234,0.0048313140869140625,0.7792384028434753,7.063472747802734,7.191544532775879
4_20251106_214346,1762436593307,4,0.2982853651046753,0.15741844475269318,0.3475356996059418,0.8749081492424011,0.13812020421028137,2.76705265045166,3.0625782012939453,0.8013051152229309,7.117248058319092,7.11737060546875,0.083047054708004,-0.032597266137599945,-0.0008781170472502708,19.545108795166016,-31.84410858154297,2.143444061279297,0.017653346061706543,0.04302024841308594,-0.05933952331542969,0.7836517691612244,7.074227809906006,7.17671012878418
4_20251106_214346,1762436593326,4,0.2984550893306732,0.15824879705905914,0.3479926884174347,0.8745186924934387,0.14147120714187622,2.767721176147461,3.061342716217041,0.8479900360107422,7.122036457061768,6.936615943908691,0.0775492712855339,-0.11811832338571548,0.027221661061048508,19.516521453857422,-31.909423828125,2.235757827758789,0.05147063732147217,0.03824663162231445,-0.1920757293701172,0.79651939868927,7.083789825439453,7.128691673278809
4_20251106_214346,1762436593345,4,0.29858124256134033,0.1597297042608261,0.34821727871894836,0.8741168975830078,0.14496994018554688,2.7686779499053955,3.0597143173217773,0.9114336371421814,7.2010416984558105,6.962950706481934,0.04578431695699692,-0.16515490412712097,0.014393500983715057,19.458324432373047,-31.85169219970703,2.3427562713623047,0.09193140268325806,0.09380197525024414,-0.13259267807006836,0.8195022344589233,7.107239723205566,7.095543384552002
4_20251106_214346,1762436593364,4,0.29909747838974,0.16162090003490448,0.3481954038143158,0.8736013770103455,0.14833247661590576,2.769949436187744,3.0584800243377686,0.8336254358291626,7.239347457885742,7.209543228149414,0.04578431695699692,-0.16515490412712097,0.014393500983715057,19.47041130065918,-31.851036071777344,2.356761932373047,0.011298537254333496,0.10568618774414062,0.09119987487792969,0.8223268985748291,7.133661270141602,7.118343353271484
4_20251106_214346,1762436593383,4,0.2998589277267456,0.16308382153511047,0.34821510314941406,0.8730604648590088,0.15118615329265594,2.7712242603302,3.057478904724121,0.7522261142730713,7.1866774559021,7.162858486175537,0.057390742003917694,-0.03626245632767677,-0.050358161330223083,19.482202529907227,-31.850784301757812,2.411317825317383,-0.056080639362335205,0.042412757873535156,0.035611629486083984,0.8083067536354065,7.1442646980285645,7.127246856689453
4_20251106_214346,1762436593402,4,0.3004262447357178,0.16352412104606628,0.3486059904098511,0.8726269602775574,0.15394781529903412,2.7727243900299072,3.0562901496887207,0.7258909940719604,7.195056438446045,7.083853244781494,0.044562578201293945,0.0022220206446945667,-0.04852556437253952,19.48190689086914,-31.85118865966797,2.4518661499023438,-0.06593263149261475,0.0406336784362793,-0.034714698791503906,0.7918236255645752,7.154422760009766,7.118567943572998
4_20251106_214346,1762436593421,4,0.30087924003601074,0.16349050402641296,0.3490237593650818,0.8723101019859314,0.15635128319263458,2.774416208267212,3.0553882122039795,0.7594083547592163,7.277652740478516,7.180814266204834,0.021349722519516945,0.004665479529649019,-0.04241691902279854,19.499534606933594,-31.750205993652344,2.4815006256103516,-0.0259321928024292,0.09858417510986328,0.04979753494262695,0.7853405475616455,7.179068565368652,7.131016731262207
4_20251106_214346,1762436593440,4,0.3013257086277008,0.16340585052967072,0.3493332266807556,0.8720479607582092,0.15850430727005005,2.7765207290649414,3.0546810626983643,0.7378615140914917,7.3602495193481445,7.185602188110352,0.02318231575191021,-0.02037997357547283,-0.04913643002510071,19.476993560791016,-31.702911376953125,2.6167373657226562,-0.037983238697052,0.1449446678161621,0.043668270111083984,0.7758447527885437,7.215304851531982,7.141933917999268
4_20251106_214346,1762436593460,4,0.3019041121006012,0.16354870796203613,0.3495539724826813,0.8717325925827026,0.16018888354301453,2.7793824672698975,3.054339647293091,0.6217477321624756,7.46439266204834,7.262213706970215,0.041508257389068604,-0.04114937409758568,-0.05768853798508644,19.490478515625,-31.688751220703125,2.5363941192626953,-0.12327760457992554,0.19927024841308594,0.09622383117675781,0.7450253367424011,7.265122413635254,7.165989875793457
4_20251106_214346,1762436593480,4,0.3025414049625397,0.1638554036617279,0.34996819496154785,0.8712877631187439,0.16117064654827118,2.7826812267303467,3.054307699203491,0.5415453910827637,7.4560136795043945,7.262213706970215,0.041508257389068604,-0.04114937409758568,-0.05768853798508644,19.51827621459961,-31.62451171875,2.5522117614746094,-0.16278398036956787,0.15271282196044922,0.07697916030883789,0.7043293714523315,7.303300857543945,7.185234546661377
4_20251106_214346,1762436593499,4,0.3030588924884796,0.1639619618654251,0.35080382227897644,0.870751678943634,0.16156409680843353,2.7859690189361572,3.053823471069336,0.5247867107391357,7.416510581970215,7.01921272277832,0.10625991970300674,-0.0142713263630867,-0.02592356875538826,19.44414520263672,-31.653854370117188,2.4946765899658203,-0.1436341404914856,0.09056758880615234,-0.13281726837158203,0.6684208512306213,7.3259429931640625,7.152029991149902
4_20251106_214346,1762436593518,4,0.3032844662666321,0.16401664912700653,0.35186120867729187,0.8702360391616821,0.16174137592315674,2.7891008853912354,3.0528955459594727,0.5966096520423889,7.396161079406738,6.95217752456665,0.0775492787361145,-0.041760239750146866,0.004619665443897247,19.456443786621094,-31.641311645507812,2.576528549194336,-0.05744898319244385,0.056174278259277344,-0.1598820686340332,0.6540586352348328,7.339986801147461,7.112059593200684
4_20251106_214346,1762436593537,4,0.3033691346645355,0.16438592970371246,0.35273560881614685,0.8697827458381653,0.1617385447025299,2.792323350906372,3.05194354057312,0.588230311870575,7.369825839996338,7.104202747344971,0.06288852542638779,-0.0503123439848423,0.024167336523532867,19.456443786621094,-31.641311645507812,2.576528549194336,-0.052662670612335205,0.02387094497680664,-0.006285190582275391,0.6408929824829102,7.345954895019531,7.110487937927246
4_20251106_214346,1762436593556,4,0.30335479974746704,0.16498567163944244,0.3534032106399536,0.8694031238555908,0.16163383424282074,2.795407295227051,3.0507140159606934,0.607383131980896,7.300396919250488,7.01921272277832,0.09159916639328003,-0.029542943462729454,0.03760635852813721,19.481830596923828,-31.615150451660156,2.6321029663085938,-0.02680790424346924,-0.03644609451293945,-0.07301998138427734,0.6341910362243652,7.336843013763428,7.092232704162598
4_20251106_214346,1762436593575,4,0.3031215965747833,0.1654207408428192,0.3541499972343445,0.8690978288650513,0.16163383424282074,2.795407295227051,3.0507140159606934,0.607383131980896,7.300396919250488,7.01921272277832,0.08243619650602341,-0.03381899744272232,0.038217224180698395,19.466428756713867,-31.666709899902344,2.684621810913086,-0.02680790424346924,-0.03644609451293945,-0.07301998138427734,0.6341910362243652,7.336843013763428,7.092232704162598
4_20251106_214346,1762436593594,4,0.3028314709663391,0.16586889326572418,0.35480132699012756,0.8688479065895081,0.16189102828502655,2.800506353378296,3.046337366104126,0.7318762540817261,7.289623260498047,6.910281181335449,0.03234528750181198,-0.028321215882897377,0.01989128440618515,19.477317810058594,-31.679283142089844,2.7659454345703125,0.07152032852172852,-0.03079509735107422,-0.09289121627807617,0.6603559255599976,7.320418357849121,7.003172397613525
4_20251106_214346,1762436593613,4,0.30286064743995667,0.16634570062160492,0.3552459478378296,0.8685648441314697,0.1622811257839203,2.8025636672973633,3.044116258621216,0.7163145542144775,7.2309675216674805,6.985694885253906,0.03234528750181198,-0.028321215882897377,0.01989128440618515,19.526357650756836,-31.675697326660156,2.727357864379883,0.044766902923583984,-0.07156085968017578,-0.013982295989990234,0.6715476512908936,7.302528381347656,6.9996771812438965
4_20251106_214346,1762436593632,4,0.3028596043586731,0.16620126366615295,0.355707049369812,0.8684040904045105,0.16257092356681824,2.8044040203094482,3.0419251918792725,0.642097532749176,7.260893821716309,6.970133304595947,0.03234528750181198,0.05048033222556114,-0.03264308348298073,19.598880767822266,-31.671737670898438,2.8113975524902344,-0.02356010675430298,-0.03330802917480469,-0.023635387420654297,0.665657639503479,7.294201850891113,6.993768692016602
4_20251106_214346,1762436593651,4,0.30304890871047974,0.16579151153564453,0.3561208248138428,0.8682467937469482,0.16257092356681824,2.8044040203094482,3.0419251918792725,0.642097532749176,7.260893821716309,6.970133304595947,0.03234528750181198,0.05048033222556114,-0.03264308348298073,19.630517959594727,-31.745643615722656,2.9058990478515625,-0.02356010675430298,-0.03330802917480469,-0.023635387420654297,0.665657639503479,7.294201850891113,6.993768692016602
4_20251106_214346,1762436593671,4,0.3031836450099945,0.16531270742416382,0.35660895705223083,0.8680906891822815,0.16250208020210266,2.807217836380005,3.038339138031006,0.5690775513648987,7.196253776550293,7.073079586029053,0.043951719999313354,0.05170205980539322,-0.005154170095920563,19.60704803466797,-31.734405517578125,2.8781490325927734,-0.06640791893005371,-0.06555938720703125,0.0522913932800293,0.6354854702949524,7.261813163757324,7.020788192749023
4_20251106_214346,1762436593690,4,0.30300116539001465,0.16475343704223633,0.3570561707019806,0.8680768609046936,0.16243724524974823,2.8081424236297607,3.036738872528076,0.6648414731025696,7.192662715911865,6.958162784576416,0.051282092928886414,0.03459785133600235,0.02050214819610119,19.65730094909668,-31.705978393554688,2.8671226501464844,0.023484766483306885,-0.05532026290893555,-0.05010032653808594,0.6413567066192627,7.247982978820801,7.008263111114502
4_20251106_214346,1762436593710,4,0.3026498258113861,0.16439007222652435,0.35745471715927124,0.8681043386459351,0.16255642473697662,2.808861494064331,3.0346004962921143,0.6983588933944702,7.1567511558532715,6.899507522583008,0.04944950342178345,0.01810450293123722,0.01989128440618515,19.582576751708984,-31.736129760742188,2.890684127807617,0.045601725578308105,-0.07298564910888672,-0.0870046615600586,0.6527571678161621,7.229736804962158,6.986512184143066
4_20251106_214346,1762436593728,4,0.30247604846954346,0.16442476212978363,0.3578050136566162,0.8680139780044556,0.16270092129707336,2.8091437816619873,3.0324625968933105,0.6768119931221008,7.106474876403809,6.761846542358398,0.03539961576461792,0.0022220206446945667,0.018058689311146736,19.597087860107422,-31.68578338623047,2.9598121643066406,0.019243836402893066,-0.09860992431640625,-0.1797327995300293,0.6575681567192078,7.205084800720215,6.941579341888428
4_20251106_214346,1762436593747,4,0.3022725284099579,0.16456352174282074,0.35801202058792114,0.867973268032074,0.16279354691505432,2.809377670288086,3.029989004135132,0.6349152326583862,7.178297996520996,6.913871765136719,-0.011026107706129551,-0.013049597851932049,0.029054254293441772,19.58519744873047,-31.686172485351562,2.918773651123047,-0.018122375011444092,-0.02142953872680664,-0.02216625213623047,0.6530376076698303,7.199727535247803,6.936038017272949
4_20251106_214346,1762436593766,4,0.3021546006202698,0.16476483643054962,0.35786929726600647,0.8680349588394165,0.16294893622398376,2.8095431327819824,3.0283920764923096,0.6792060732841492,7.183086395263672,7.167646408081055,-0.011026107706129551,-0.013049597851932049,0.029054254293441772,19.58742332458496,-31.636756896972656,3.000926971435547,0.020934760570526123,-0.01331329345703125,0.1852865219116211,0.658271312713623,7.196399688720703,6.982359886169434
4_20251106_214346,1762436593785,4,0.30183035135269165,0.1645238995552063,0.35781899094581604,0.8682141900062561,0.16339702904224396,2.809765577316284,3.0268478393554688,0.767787754535675,7.2201948165893555,6.972527503967285,-0.007360919378697872,0.0321543887257576,0.03882808983325958,19.57484245300293,-31.638092041015625,3.054502487182617,0.08761316537857056,0.019036293029785156,-0.00786590576171875,0.6801745891571045,7.20115852355957,6.980393409729004
4_20251106_214346,1762436593804,4,0.3013685941696167,0.16422685980796814,0.3578176200389862,0.8684313893318176,0.16339702904224396,2.809765577316284,3.0268478393554688,0.767787754535675,7.2201948165893555,6.972527503967285,0.012797614559531212,0.007719803135842085,0.03577376529574394,19.55097770690918,-31.627395629882812,3.0808181762695312,0.08761316537857056,0.019036293029785156,-0.00786590576171875,0.6801745891571045,7.20115852355957,6.980393409729004
4_20251106_214346,1762436593822,4,0.3011290431022644,0.1644447296857834,0.35776785016059875,0.8684937357902527,0.1642315536737442,2.8099477291107178,3.024766683578491,0.8072903156280518,7.1878743171691895,6.803743362426758,0.012797614559531212,0.007719803135842085,0.03577376529574394,19.63568687438965,-31.622642517089844,3.1653480529785156,0.1016925573348999,-0.010627269744873047,-0.14132022857666016,0.7055977582931519,7.1985015869140625,6.945063591003418
4_20251106_214346,1762436593842,4,0.30115199089050293,0.16466285288333893,0.3574585020542145,0.8685718178749084,0.16512906551361084,2.8103654384613037,3.0234858989715576,0.7582113146781921,7.290820121765137,7.162858009338379,0.010354159399867058,0.0578107088804245,-0.01920405961573124,19.57134437561035,-31.677650451660156,3.2429370880126953,0.04209083318710327,0.07385444641113281,0.17423582077026367,0.7161204814910889,7.216965675354004,6.988622188568115
4_20251106_214346,1762436593861,4,0.3011769950389862,0.16417545080184937,0.3575200140476227,0.8686301112174988,0.16685965657234192,2.811868906021118,3.023075580596924,0.7450438141822815,7.32792854309082,6.976119041442871,0.06899716705083847,0.10118211060762405,-0.053412485867738724,19.634092330932617,-31.63641357421875,3.2867298126220703,0.020043134689331055,0.0706334114074707,-0.0744619369506836,0.7250006794929504,7.25729513168335,7.050580978393555
4_20251106_214346,1762436593879,4,0.3010827302932739,0.16319751739501953,0.3580848276615143,0.8686144351959229,0.16685965657234192,2.811868906021118,3.023075580596924,0.7450438141822815,7.32792854309082,6.976119041442871,0.040897391736507416,0.08591049164533615,-0.05585594102740288,19.646984100341797,-31.623062133789062,3.2874832153320312,0.020043134689331055,0.0706334114074707,-0.0744619369506836,0.7250006794929504,7.25729513168335,7.050580978393555
4_20251106_214346,1762436593900,4,0.30130019783973694,0.16259966790676117,0.35872316360473633,0.8683876991271973,0.16787101328372955,2.814098834991455,3.020557403564453,0.5199984908103943,7.320746898651123,6.973724365234375,0.011575886979699135,0.04437168315052986,-0.028367027640342712,19.635009765625,-31.611976623535156,3.354837417602539,-0.15763229131698608,0.041758060455322266,-0.014904975891113281,0.6776307821273804,7.278988838195801,6.988629341125488
4_20251106_214346,1762436593919,4,0.30151134729385376,0.16238783299922943,0.3591758608818054,0.8681669235229492,0.1674947887659073,2.815354347229004,3.019345283508301,0.47929883003234863,7.353067398071289,6.959360122680664,0.011575886979699135,0.04437168315052986,-0.028367027640342712,19.60842514038086,-31.65137481689453,3.3665809631347656,-0.15866559743881226,0.059262752532958984,-0.023415565490722656,0.6379644274711609,7.29380464553833,6.982775688171387
4_20251106_214346,1762436593939,4,0.3012266755104065,0.16230016946792603,0.35951554775238037,0.8681415319442749,0.1671929955482483,2.8167974948883057,3.0178143978118896,0.6624473333358765,7.355461120605469,6.877960681915283,0.02562577836215496,-0.028321214020252228,0.0791451632976532,19.572275161743164,-31.64160919189453,3.4059219360351562,0.01958632469177246,0.049324989318847656,-0.08385229110717773,0.642861008644104,7.306136131286621,6.961812973022461
4_20251106_214346,1762436593960,4,0.3007288873195648,0.16261474788188934,0.35968291759490967,0.8681858777999878,0.16735880076885223,2.8184382915496826,3.016551971435547,0.7821522951126099,7.36623477935791,7.040759086608887,0.0018020514398813248,-0.02771035023033619,0.06937132775783539,19.572275161743164,-31.64160919189453,3.4059219360351562,0.11143302917480469,0.04807853698730469,0.0631570816040039,0.6707192659378052,7.3181562423706055,6.977602005004883
4_20251106_214346,1762436593976,4,0.30035001039505005,0.1631602644920349,0.35963374376296997,0.8682350516319275,0.16770493984222412,2.8197615146636963,3.016007900238037,0.7869405150413513,7.387781143188477,7.167646408081055,0.023182319477200508,0.026656610891222954,0.027832524850964546,19.58587074279785,-31.615699768066406,3.406940460205078,0.09297698736190796,0.055699825286865234,0.15203571319580078,0.6939635276794434,7.332081317901611,7.015610694885254
4_20251106_214346,1762436593995,4,0.3000788390636444,0.16328194737434387,0.35975000262260437,0.8682578206062317,0.16826511919498444,2.8213510513305664,3.015637159347534,0.755817174911499,7.367431640625,7.104203224182129,0.05616901069879532,0.07124973088502884,-0.001488981768488884,19.50027084350586,-31.621665954589844,3.4440555572509766,0.04948294162750244,0.028280258178710938,0.07087421417236328,0.7063342332839966,7.339151382446289,7.033329010009766
4_20251106_214346,1762436594015,4,0.29974356293678284,0.16293996572494507,0.36020994186401367,0.8682471513748169,0.1688774824142456,2.8229174613952637,3.014965295791626,0.7234969139099121,7.331520080566406,6.934222221374512,0.06594284623861313,0.06880627572536469,-0.001488981768488884,19.52454376220703,-31.620208740234375,3.4585533142089844,0.013730108737945557,-0.006104946136474609,-0.0792856216430664,0.7097668051719666,7.337625026702881,7.013507843017578
4_20251106_214346,1762436594033,4,0.2994441092014313,0.1626429408788681,0.3607819974422455,0.8681686520576477,0.16944369673728943,2.8242151737213135,3.0140864849090576,0.7270880341529846,7.320746421813965,6.8899312019348145,0.0518929585814476,0.016271909698843956,0.02050214819610119,19.486675262451172,-31.64757537841797,3.4430370330810547,0.013856947422027588,-0.013503074645996094,-0.0988612174987793,0.713231086730957,7.334249496459961,6.988792419433594
4_20251106_214346,1762436594052,4,0.299224853515625,0.16285398602485657,0.3611854016780853,0.8680369853973389,0.17023998498916626,2.825620651245117,3.0130391120910645,0.7965168952941895,7.372219562530518,6.928236484527588,0.04517345130443573,-0.014271327294409275,0.04004981741309166,19.415279388427734,-31.615211486816406,3.4949512481689453,0.06662863492965698,0.030375957489013672,-0.04844474792480469,0.7298882603645325,7.341843605041504,6.976681232452393
4_20251106_214346,1762436594071,4,0.29888027906417847,0.16333836317062378,0.3614542484283447,0.8679527640342712,0.17130078375339508,2.8270063400268555,3.011884927749634,0.8408077359199524,7.360249042510986,6.9186601638793945,0.04517345130443573,-0.014271327294409275,0.04004981741309166,19.37701416015625,-31.643112182617188,3.5335006713867188,0.08873552083969116,0.014724254608154297,-0.0464167594909668,0.7520722150802612,7.345524787902832,6.965076923370361
4_20251106_214346,1762436594091,4,0.2985295355319977,0.16384819149971008,0.361750066280365,0.867854118347168,0.17259131371974945,2.8284659385681152,3.010662317276001,0.827640175819397,7.369825839996338,6.942601203918457,0.04639517515897751,-0.03442986309528351,0.04860192537307739,19.376914978027344,-31.64324951171875,3.547016143798828,0.060454368591308594,0.019440650939941406,-0.017980575561523438,0.7671858072280884,7.3503851890563965,6.9605817794799805
4_20251106_214346,1762436594111,4,0.29820576310157776,0.16468170285224915,0.36187729239463806,0.8677546381950378,0.17259131371974945,2.8284659385681152,3.010662317276001,0.827640175819397,7.369825839996338,6.942601203918457,0.051282092928886414,-0.08452076464891434,0.06020835414528847,19.316293716430664,-31.63520050048828,3.5988922119140625,0.060454368591308594,0.019440650939941406,-0.017980575561523438,0.7671858072280884,7.3503851890563965,6.9605817794799805
4_20251106_214346,1762436594131,4,0.2980456054210663,0.1659453809261322,0.36186131834983826,0.8675755262374878,0.17413146793842316,2.8302299976348877,3.0094728469848633,0.819260835647583,7.415313720703125,6.984498023986816,0.06655371189117432,-0.08940768986940384,0.0583757609128952,19.292627334594727,-31.624229431152344,3.598175048828125,0.04166001081466675,0.05194282531738281,0.019132614135742188,0.7776008248329163,7.363370895385742,6.965365409851074
4_20251106_214346,1762436594149,4,0.29777437448501587,0.16716882586479187,0.3619895577430725,0.8673802614212036,0.17685385048389435,2.83337664604187,3.006934881210327,0.855172336101532,7.393766403198242,6.791772842407227,0.06472111493349075,-0.048479750752449036,0.04554760083556175,19.315195083618164,-31.648292541503906,3.6526927947998047,0.05462545156478882,0.011217117309570312,-0.12622976303100586,0.8005468845367432,7.382549285888672,6.918002605438232
4_20251106_214346,1762436594167,4,0.2976025938987732,0.16809572279453278,0.362328439950943,0.8671185970306396,0.17685385048389435,2.83337664604187,3.006934881210327,0.855172336101532,7.393766403198242,6.791772842407227,0.04822777211666107,-0.028321215882897377,0.03516290336847305,19.255983352661133,-31.615135192871094,3.705097198486328,0.05462545156478882,0.011217117309570312,-0.12622976303100586,0.8005468845367432,7.382549285888672,6.918002605438232
4_20251106_214346,1762436594186,4,0.2974020540714264,0.1688043624162674,0.3626307249069214,0.8669233322143555,0.1799866259098053,2.836853504180908,3.003190040588379,0.8372166156768799,7.491924285888672,6.855216979980469,0.04211912304162979,-0.03931678086519241,0.02966511994600296,19.193557739257812,-31.63274383544922,3.8105106353759766,0.017722785472869873,0.07842731475830078,-0.02237081527709961,0.81949383020401,7.413496971130371,6.877587795257568
4_20251106_214346,1762436594206,4,0.29729408025741577,0.16961057484149933,0.36293184757232666,0.8666769862174988,0.1816275268793106,2.8391611576080322,3.001370668411255,0.8348224759101868,7.557762145996094,6.906689643859863,0.04211912304162979,-0.03931678086519241,0.02966511994600296,19.228904724121094,-31.65520477294922,3.784421920776367,0.012262940406799316,0.11541223526000977,0.023281097412109375,0.8225595355033875,7.442349910736084,6.883408546447754
