session_id,timestamp,label,quaternion_w,quaternion_x,quaternion_y,quaternion_z,position_x,position_y,position_z,accelerometer_x,accelerometer_y,accelerometer_z,gyroscope_x,gyroscope_y,gyroscope_z,magnetometer_x,magnetometer_y,magnetometer_z,linear_acceleration_x,linear_acceleration_y,linear_acceleration_z,gravity_x,gravity_y,gravity_z
0_20251106_211744,1762435027790,0,0.10892067849636078,0.2563597559928894,0.6926233172416687,0.6653487086296082,0.8503303527832031,3.4781503677368164,0.6156195402145386,1.7481712102890015,9.586761474609375,-0.9734862446784973,0.07246001064777374,0.03137553855776787,0.03017289936542511,9.118871688842773,-21.596275329589844,26.505844116210938,-0.1074298620223999,-0.1269207000732422,-0.1300167441368103,1.8556010723114014,9.713682174682617,-0.843469500541687
0_20251106_211744,1762435027810,0,0.108293816447258,0.25614413619041443,0.693235456943512,0.6648964285850525,0.8440916538238525,3.4742016792297363,0.6091681122779846,1.9851869344711304,9.755545616149902,-1.169802188873291,0.0901750922203064,-0.019937096163630486,0.04849884286522865,9.161787033081055,-21.469261169433594,26.604568481445312,0.10285389423370361,0.04862689971923828,-0.22589898109436035,1.8823330402374268,9.706918716430664,-0.9439032077789307
0_20251106_211744,1762435027829,0,0.10786528140306473,0.25668030977249146,0.6938329339027405,0.6641356348991394,0.8417450785636902,3.4729530811309814,0.6055175065994263,1.9432902336120605,9.852506637573242,-1.1590287685394287,0.0901750922203064,-0.019937096163630486,0.04849884286522865,9.177102088928223,-21.406219482421875,26.660442352294922,0.04876577854156494,0.1164703369140625,-0.17210042476654053,1.8945244550704956,9.73603630065918,-0.9869283437728882
0_20251106_211744,1762435027847,0,0.10777931660413742,0.25764644145965576,0.6944727897644043,0.6631059646606445,0.839430570602417,3.472076416015625,0.601676881313324,1.9085757732391357,9.872856140136719,-1.0524914264678955,0.07734693586826324,-0.08957567811012268,0.010014364495873451,9.220115661621094,-21.279075622558594,26.745651245117188,0.011240959167480469,0.10945606231689453,-0.05245041847229004,1.8973348140716553,9.763400077819824,-1.0000410079956055
0_20251106_211744,1762435027866,0,0.10801447927951813,0.2583565413951874,0.6950344443321228,0.6622022986412048,0.8369308710098267,3.4715209007263184,0.5977792739868164,1.787673830986023,9.864477157592773,-1.090796947479248,0.07734693586826324,-0.08957567811012268,0.010014364495873451,9.25990104675293,-21.214309692382812,26.788990020751953,-0.08772885799407959,0.08086204528808594,-0.07260477542877197,1.8754026889801025,9.783615112304688,-1.018192172050476
0_20251106_211744,1762435027886,0,0.10823225975036621,0.2582910656929016,0.6956048607826233,0.6615930795669556,0.8369308710098267,3.4715209007263184,0.5977792739868164,1.787673830986023,9.864477157592773,-1.090796947479248,0.06818395853042603,-0.039484769105911255,-0.03580049052834511,9.326173782348633,-21.11028289794922,26.834102630615234,-0.08772885799407959,0.08086204528808594,-0.07260477542877197,1.8754026889801025,9.783615112304688,-1.018192172050476
0_20251106_211744,1762435027905,0,0.10833517462015152,0.25747665762901306,0.6962342858314514,0.6612314581871033,0.8305339813232422,3.470841884613037,0.5901163220405579,1.6332544088363647,9.809412956237793,-1.0261564254760742,0.028477754443883896,0.05336666852235794,-0.05473729595541954,9.331318855285645,-21.010498046875,26.903797149658203,-0.16416823863983154,0.011914253234863281,-0.0006920099258422852,1.7974226474761963,9.79749870300293,-1.025464415550232
0_20251106_211744,1762435027923,0,0.10822659730911255,0.2563092112541199,0.6968172788619995,0.6610887050628662,0.8272239565849304,3.4703800678253174,0.587027370929718,1.6655747890472412,9.719634056091309,-0.9543334245681763,0.05718839541077614,0.05642099305987358,-0.02541578933596611,9.334744453430176,-20.947845458984375,26.91863250732422,-0.10547828674316406,-0.06229114532470703,0.05690479278564453,1.7710530757904053,9.781925201416016,-1.0112382173538208
0_20251106_211744,1762435027942,0,0.10779625177383423,0.2551839351654053,0.697532057762146,0.6608405113220215,0.8272239565849304,3.4703800678253174,0.587027370929718,1.6655747890472412,9.719634056091309,-0.9543334245681763,0.08101211488246918,0.01732565276324749,0.031394630670547485,9.33556079864502,-20.923538208007812,27.000259399414062,-0.10547828674316406,-0.06229114532470703,0.05690479278564453,1.7710530757904053,9.781925201416016,-1.0112382173538208
0_20251106_211744,1762435027962,0,0.10724412649869919,0.2548152208328247,0.6980868577957153,0.66048663854599,0.8237259387969971,3.4698379039764404,0.5835139751434326,1.769718050956726,9.763925552368164,-1.0943882465362549,0.08650989830493927,-0.05414552241563797,0.06865737587213516,9.361639022827148,-20.89643096923828,26.961219787597656,-0.0010679960250854492,-0.014399528503417969,-0.06651997566223145,1.7707860469818115,9.778325080871582,-1.0278682708740234
0_20251106_211744,1762435027980,0,0.10691951215267181,0.25542497634887695,0.6985508799552917,0.6598128080368042,0.8184081315994263,3.4699089527130127,0.5770452618598938,1.8966052532196045,9.962635040283203,-0.9639098644256592,0.08223384618759155,-0.1042364239692688,0.06438132375478745,9.366573333740234,-20.80853271484375,26.96306610107422,0.08722782135009766,0.12830162048339844,0.06755578517913818,1.8093774318695068,9.834333419799805,-1.0314656496047974
0_20251106_211744,1762435028000,0,0.1069660484790802,0.256435364484787,0.698902428150177,0.6590406894683838,0.8159204125404358,3.470090866088867,0.5748225450515747,1.8152059316635132,9.811806678771973,-0.738864541053772,0.08223384618759155,-0.1042364239692688,0.06438132375478745,9.34511947631836,-20.75975799560547,26.949623107910156,0.004662752151489258,-0.018021583557128906,0.23408091068267822,1.810543179512024,9.829828262329102,-0.9729454517364502
0_20251106_211744,1762435028018,0,0.10691165924072266,0.2567354440689087,0.6994093060493469,0.6583945751190186,0.8136664032936096,3.469724416732788,0.5731536149978638,1.7589446306228638,9.617884635925293,-0.8789193034172058,0.1359899491071701,0.04053850844502449,-0.0412982702255249,9.349447250366211,-20.684280395507812,26.93769073486328,-0.041278839111328125,-0.1695547103881836,0.07522088289260864,1.800223469734192,9.787439346313477,-0.9541401863098145
0_20251106_211744,1762435028039,0,0.1063929870724678,0.2557596266269684,0.7001621127128601,0.6580581665039062,0.8136664032936096,3.469724416732788,0.5731536149978638,1.7589446306228638,9.617884635925293,-0.8789193034172058,0.13843341171741486,0.1327790766954422,-0.08405879884958267,9.349447250366211,-20.684280395507812,26.93769073486328,-0.041278839111328125,-0.1695547103881836,0.07522088289260864,1.800223469734192,9.787439346313477,-0.9541401863098145
0_20251106_211744,1762435028061,0,0.10555710643529892,0.25403958559036255,0.7012625336647034,0.6576871871948242,0.8109616041183472,3.468140125274658,0.5700113773345947,1.7385947704315186,9.435934066772461,-1.3397831916809082,0.10666844248771667,0.1737070083618164,-0.11399117857217789,9.317217826843262,-20.611183166503906,26.924285888671875,-0.04930293560028076,-0.2812042236328125,-0.3085143566131592,1.7878977060317993,9.717138290405273,-1.031268835067749
0_20251106_211744,1762435028077,0,0.10480233281850815,0.252278208732605,0.702666699886322,0.6569868326187134,0.8047602772712708,3.461399555206299,0.559727132320404,1.4680616855621338,8.99661636352539,-1.7312183380126953,0.03641899302601814,0.20180679857730865,-0.12987366318702698,9.248021125793457,-20.552627563476562,26.86859893798828,-0.22767841815948486,-0.5030784606933594,-0.4602254629135132,1.6957401037216187,9.49969482421875,-1.2709928750991821
0_20251106_211744,1762435028097,0,0.10417699813842773,0.25023674964904785,0.7040513157844543,0.6563844084739685,0.8003281950950623,3.4545722007751465,0.5526174306869507,1.3555389642715454,8.612363815307617,-1.7096714973449707,-0.03138699010014534,0.2463999092578888,-0.13109540939331055,9.22879409790039,-20.454437255859375,26.93730926513672,-0.2721608877182007,-0.709864616394043,-0.35094285011291504,1.627699851989746,9.32222843170166,-1.3587286472320557
0_20251106_211744,1762435028115,0,0.1035219132900238,0.24783751368522644,0.7051778435707092,0.65618896484375,0.7959648370742798,3.446763753890991,0.5456690788269043,1.2705484628677368,8.277189254760742,-1.908381700515747,-0.07353664934635162,0.31542763113975525,-0.11154771596193314,9.172303199768066,-20.371185302734375,27.004287719726562,-0.28572118282318115,-0.8360309600830078,-0.4397224187850952,1.556269645690918,9.11322021484375,-1.4686592817306519
0_20251106_211744,1762435028134,0,0.10237337648868561,0.24504803121089935,0.7061058878898621,0.6564187407493591,0.7901031374931335,3.434920310974121,0.5357514023780823,1.2322429418563843,8.088055610656738,-2.176520824432373,-0.07353664934635162,0.31542763113975525,-0.11154771596193314,9.12658977508545,-20.31224822998047,27.07122802734375,-0.2592214345932007,-0.8201322555541992,-0.5662891864776611,1.491464376449585,8.908187866210938,-1.610231637954712
0_20251106_211744,1762435028152,0,0.10101097822189331,0.2423362135887146,0.7068893313407898,0.6567932963371277,0.7845916152000427,3.4228217601776123,0.5263990759849548,1.2885042428970337,8.107208251953125,-1.9646430015563965,-0.22503112256526947,0.339862197637558,-0.06328940391540527,9.040680885314941,-20.330230712890625,27.05401611328125,-0.1623680591583252,-0.6407833099365234,-0.28352904319763184,1.4508723020553589,8.747991561889648,-1.6811139583587646
0_20251106_211744,1762435028171,0,0.09968886524438858,0.23964697122573853,0.7061381936073303,0.6587870121002197,0.77866530418396,3.4090497493743896,0.5173594951629639,1.3052629232406616,8.15030288696289,-1.5576462745666504,-0.28306326270103455,0.32153627276420593,-0.05229383334517479,8.94179630279541,-20.35009002685547,27.14444351196289,-0.11648750305175781,-0.4781513214111328,0.09877419471740723,1.4217504262924194,8.628454208374023,-1.6564204692840576
0_20251106_211744,1762435028191,0,0.09845630824565887,0.2369917333126068,0.7049725651741028,0.6611769795417786,0.7725194692611694,3.3939080238342285,0.5088203549385071,1.3495537042617798,8.177835464477539,-1.4918086528778076,-0.2897827625274658,0.3740706145763397,-0.05351556837558746,8.819738388061523,-20.358299255371094,27.16657257080078,-0.05775737762451172,-0.36049461364746094,0.13168954849243164,1.4073110818862915,8.538330078125,-1.6234982013702393
0_20251106_211744,1762435028210,0,0.09682614356279373,0.2338915765285492,0.7037715315818787,0.6637959480285645,0.767162561416626,3.3796803951263428,0.5018659234046936,1.4764409065246582,8.333451271057129,-1.3493596315383911,-0.36491915583610535,0.3801792860031128,-0.019918005913496017,8.706849098205566,-20.416213989257812,27.215167999267578,0.05530381202697754,-0.16390323638916016,0.21931087970733643,1.4211370944976807,8.497354507446289,-1.5686705112457275
0_20251106_211744,1762435028229,0,0.0951206311583519,0.23093347251415253,0.7019985318183899,0.6669481992721558,0.7624288201332092,3.3661906719207764,0.49654072523117065,1.5506579875946045,8.507022857666016,-1.1015704870224,-0.36491915583610535,0.3801792860031128,-0.019918005913496017,8.616514205932617,-20.509803771972656,27.223403930664062,0.10361671447753906,0.007735252380371094,0.3736799955368042,1.4470412731170654,8.499287605285645,-1.475250482559204
0_20251106_211744,1762435028249,0,0.09358648955821991,0.22839504480361938,0.6997144222259521,0.6704304814338684,0.7624288201332092,3.3661906719207764,0.49654072523117065,1.5506579875946045,8.507022857666016,-1.1015704870224,-0.42234042286872864,0.34230566024780273,0.01184695865958929,8.38679027557373,-20.712188720703125,27.18358612060547,0.10361671447753906,0.007735252380371094,0.3736799955368042,1.4470412731170654,8.499287605285645,-1.475250482559204
0_20251106_211744,1762435028268,0,0.09213075041770935,0.22585707902908325,0.6974790692329407,0.6738126277923584,0.7542988061904907,3.3414204120635986,0.49115076661109924,1.5602344274520874,8.682989120483398,-0.871737003326416,-0.37652555108070374,0.3960617482662201,-0.06634372472763062,8.16118335723877,-20.850975036621094,27.063987731933594,0.07301819324493408,0.13193321228027344,0.3900792598724365,1.4872162342071533,8.551055908203125,-1.2618162631988525
0_20251106_211744,1762435028287,0,0.09056738764047623,0.2223956435918808,0.6956367492675781,0.6770725250244141,0.7503896355628967,3.3303351402282715,0.49003368616104126,1.3495535850524902,8.487870216369629,-1.0249593257904053,-0.36552998423576355,0.512126088142395,-0.20317743718624115,7.945252895355225,-21.027183532714844,26.998153686523438,-0.11013007164001465,-0.050548553466796875,0.1894855499267578,1.4596836566925049,8.538418769836426,-1.214444875717163
0_20251106_211744,1762435028305,0,0.08910392969846725,0.21730032563209534,0.6942327618598938,0.6803542971611023,0.7456215620040894,3.319579601287842,0.48943302035331726,0.9521333575248718,8.222126007080078,-1.0500972270965576,-0.36552998423576355,0.512126088142395,-0.20317743718624115,7.677066802978516,-21.257736206054688,27.02391815185547,-0.4060402512550354,-0.2530345916748047,0.13147807121276855,1.3581736087799072,8.475160598754883,-1.1815752983093262
0_20251106_211744,1762435028325,0,0.08817742019891739,0.21175603568553925,0.6920332908630371,0.6844516396522522,0.7387902140617371,3.3066022396087646,0.49121105670928955,0.7665907144546509,7.9408183097839355,-0.38812899589538574,-0.7088359594345093,0.4247724115848541,-0.08833485841751099,7.43383264541626,-21.49750518798828,26.87468719482422,-0.4732663631439209,-0.4274735450744629,0.6347570419311523,1.2398570775985718,8.368291854858398,-1.022886037826538
0_20251106_211744,1762435028344,0,0.08717354387044907,0.20749682188034058,0.6881453990936279,0.6897838115692139,0.7322099208831787,3.2935726642608643,0.49600231647491455,1.0885969400405884,7.888147830963135,0.13857272267341614,-0.7088359594345093,0.4247724115848541,-0.08833485841751099,7.186567306518555,-21.812347412109375,26.69683837890625,-0.12100803852081299,-0.38411474227905273,0.9291670322418213,1.2096049785614014,8.272262573242188,-0.7905942797660828
0_20251106_211744,1762435028362,0,0.0853368416428566,0.20535382628440857,0.683297872543335,0.6954505443572998,0.7268091440200806,3.2817845344543457,0.5021956562995911,1.4213765859603882,8.247262954711914,-0.02662009745836258,-0.7503747940063477,0.33069923520088196,0.15173497796058655,6.916043281555176,-22.10407257080078,26.559085845947266,0.16941726207733154,-0.01999950408935547,0.6111793518066406,1.2519593238830566,8.26726245880127,-0.6377994418144226
0_20251106_211744,1762435028382,0,0.08228866755962372,0.2049165666103363,0.6787499785423279,0.7003828883171082,0.7226786613464355,3.2711002826690674,0.5095794200897217,1.7685209512710571,8.845788955688477,-0.35939982533454895,-0.5848304033279419,0.25311943888664246,0.4156285524368286,6.567343711853027,-22.511825561523438,26.24030303955078,0.4132493734359741,0.46282100677490234,0.2227196991443634,1.355271577835083,8.382967948913574,-0.5821195244789124
0_20251106_211744,1762435028402,0,0.07881622016429901,0.20523622632026672,0.6742849946022034,0.7049864530563354,0.7208006381988525,3.2630958557128906,0.5185883641242981,2.028280735015869,9.088788986206055,0.07393205165863037,-0.5848304033279419,0.25311943888664246,0.4156285524368286,6.2196455001831055,-22.9066162109375,25.881237030029297,0.5384073257446289,0.5646562576293945,0.5248412489891052,1.4898734092712402,8.52413272857666,-0.45090919733047485
0_20251106_211744,1762435028423,0,0.076081782579422,0.20583397150039673,0.66890549659729,0.7102178335189819,0.7208006381988525,3.2630958557128906,0.5185883641242981,2.028280735015869,9.088788986206055,0.07393205165863037,-0.826121985912323,0.23968040943145752,0.344768226146698,5.893401145935059,-23.350181579589844,25.53561019897461,0.5384073257446289,0.5646562576293945,0.5248412489891052,1.4898734092712402,8.52413272857666,-0.45090919733047485
0_20251106_211744,1762435028440,0,0.07362916320562363,0.20570048689842224,0.66285240650177,0.71616530418396,0.722091555595398,3.2526988983154297,0.5428480505943298,2.191079616546631,9.003799438476562,0.9034873247146606,-0.844447910785675,0.31603848934173584,0.3185010552406311,5.492927551269531,-23.823219299316406,25.145965576171875,0.4679248332977295,0.3119668960571289,0.9035871624946594,1.7231547832489014,8.691832542419434,-9.985268115997314e-05
0_20251106_211744,1762435028459,0,0.07091545313596725,0.20483578741550446,0.656644344329834,0.7223790287971497,0.7259992361068726,3.2493176460266113,0.5594541430473328,2.5442092418670654,9.113927841186523,1.000448226928711,-0.844447910785675,0.31603848934173584,0.3185010552406311,5.492927551269531,-23.823219299316406,25.145965576171875,0.6568436622619629,0.3376760482788086,0.8004384636878967,1.8873655796051025,8.776251792907715,0.20000974833965302
0_20251106_211744,1762435028479,0,0.06824719160795212,0.20397944748401642,0.6506136655807495,0.728310763835907,0.7320940494537354,3.2467644214630127,0.577965259552002,2.6710963249206543,8.993024826049805,1.0998033285140991,-0.7296053767204285,0.257395476102829,0.24275381863117218,5.153160095214844,-24.315780639648438,24.596050262451172,0.6269845962524414,0.17341899871826172,0.7198348641395569,2.044111728668213,8.819605827331543,0.37996846437454224
0_20251106_211744,1762435028498,0,0.06617850810289383,0.20320604741573334,0.6451762914657593,0.7335361242294312,0.7388018369674683,3.2447667121887207,0.5959155559539795,2.6519436836242676,8.894866943359375,1.242252230644226,-0.7296053767204285,0.257395476102829,0.24275381863117218,4.751152038574219,-24.837295532226562,24.02963638305664,0.4862656593322754,0.06020927429199219,0.689827024936676,2.165678024291992,8.834657669067383,0.55242520570755
0_20251106_211744,1762435028516,0,0.06448320299386978,0.20205415785312653,0.6398364305496216,0.7386646270751953,0.7388018369674683,3.2447667121887207,0.5959155559539795,2.6519436836242676,8.894866943359375,1.242252230644226,-0.8218459486961365,0.28977128863334656,0.1492915153503418,4.314713478088379,-25.311904907226562,23.557422637939453,0.4862656593322754,0.06020927429199219,0.689827024936676,2.165678024291992,8.834657669067383,0.55242520570755
0_20251106_211744,1762435028536,0,0.06297089904546738,0.2003726363182068,0.633882999420166,0.7443640232086182,0.7561968564987183,3.240551710128784,0.6377665400505066,2.5753324031829834,8.957113265991211,1.408642053604126,-0.9611231088638306,0.3087081015110016,0.12180260568857193,3.863947868347168,-25.84821319580078,22.894168853759766,0.2447497844696045,0.11227226257324219,0.5805385708808899,2.330582618713379,8.844841003417969,0.8281034827232361
0_20251106_211744,1762435028554,0,0.06183435022830963,0.19835032522678375,0.6269701719284058,0.7508276104927063,0.7645253539085388,3.239827871322632,0.6590637564659119,2.5406179428100586,9.207296371459961,1.8503532409667969,-1.168817162513733,0.3374187648296356,0.12180260568857193,3.4632506370544434,-26.344749450683594,22.341800689697266,0.1680283546447754,0.2899646759033203,0.8177998065948486,2.372589588165283,8.91733169555664,1.0325534343719482
0_20251106_211744,1762435028573,0,0.06089870259165764,0.1959165632724762,0.6185400485992432,0.7584960460662842,0.7736401557922363,3.2403244972229004,0.6850448846817017,2.6507463455200195,9.362913131713867,2.7182140350341797,-1.3135920763015747,0.2525085508823395,0.17922388017177582,3.1057515144348145,-26.725486755371094,21.752731323242188,0.22252559661865234,0.35646533966064453,1.348528504371643,2.428220748901367,9.006447792053223,1.3696855306625366
0_20251106_211744,1762435028593,0,0.06028063967823982,0.19425787031650543,0.6087998151779175,0.766806960105896,0.7831494808197021,3.2420666217803955,0.7154334187507629,2.738131046295166,9.469450950622559,3.4496114253997803,-1.2005820274353027,0.13338994979858398,0.2470298707485199,2.777254581451416,-27.24169921875,21.135196685791016,0.24792814254760742,0.37040233612060547,1.663940668106079,2.4902029037475586,9.099048614501953,1.7856707572937012
0_20251106_211744,1762435028611,0,0.059879835695028305,0.19405993819236755,0.5994274020195007,0.7742363810539246,0.7931230068206787,3.2446131706237793,0.7488151788711548,2.832697868347168,9.42396354675293,3.4304585456848145,-0.900036633014679,0.06497310101985931,0.2574145793914795,2.463144302368164,-27.730918884277344,20.41054916381836,0.27399587631225586,0.2599315643310547,1.3158302307128906,2.558701992034912,9.164031982421875,2.114628314971924
0_20251106_211744,1762435028631,0,0.058989476412534714,0.19435714185237885,0.5921158194541931,0.779836118221283,0.8035959005355835,3.247138023376465,0.7831757068634033,2.9224765300750732,9.202508926391602,3.0797231197357178,-0.6990621089935303,0.05886445194482803,0.20915624499320984,2.199695110321045,-28.1795654296875,19.715686798095703,0.2910196781158447,0.03078174591064453,0.772075891494751,2.6314568519592285,9.171727180480957,2.307647228240967
0_20251106_211744,1762435028650,0,0.05813625827431679,0.19457563757896423,0.5863656401634216,0.7841784358024597,0.8144093155860901,3.2488229274749756,0.816754162311554,2.946417808532715,8.911625862121582,2.648785352706909,-0.6990621089935303,0.05886445194482803,0.20915624499320984,1.9402775764465332,-28.553138732910156,19.049442291259766,0.2519688606262207,-0.20808124542236328,0.27291035652160645,2.694448947906494,9.119707107543945,2.3758749961853027
0_20251106_211744,1762435028670,0,0.0577864870429039,0.19344063103199005,0.5808674693107605,0.7885648012161255,0.8267643451690674,3.249140501022339,0.8513976335525513,2.993102550506592,8.686580657958984,2.192709445953369,-0.8566652536392212,0.2604497969150543,-0.0773392990231514,1.6660518646240234,-28.977462768554688,18.354618072509766,0.2389228343963623,-0.34650135040283203,-0.14653229713439941,2.7541797161102295,9.033082008361816,2.3392417430877686
0_20251106_211744,1762435028689,0,0.05830948427319527,0.1906309574842453,0.5746462345123291,0.7937515377998352,0.8380097150802612,3.2483739852905273,0.8810155391693115,2.9823293685913086,8.65425968170166,2.2812912464141846,-1.0942915678024292,0.26350411772727966,-0.24838140606880188,1.441176414489746,-29.386184692382812,17.675537109375,0.18251967430114746,-0.3030576705932617,-0.04636049270629883,2.799809694290161,8.957317352294922,2.3276517391204834
0_20251106_211744,1762435028707,0,0.060451459139585495,0.18673408031463623,0.5669970512390137,0.7999939322471619,0.8380097150802612,3.2483739852905273,0.8810155391693115,2.9823293685913086,8.65425968170166,2.2812912464141846,-1.3581851720809937,0.23906953632831573,-0.3962106704711914,1.339979648590088,-29.74970245361328,17.042701721191406,0.18251967430114746,-0.3030576705932617,-0.04636049270629883,2.799809694290161,8.957317352294922,2.3276517391204834
0_20251106_211744,1762435028727,0,0.06434877961874008,0.1820983588695526,0.55750972032547,0.8073922991752625,0.8493699431419373,3.246441125869751,0.9138767123222351,2.6663079261779785,8.620742797851562,2.853480815887451,-1.5475531816482544,0.1792047917842865,-0.47684481739997864,1.2005057334899902,-30.152732849121094,16.353538513183594,-0.10680150985717773,-0.2692594528198242,0.42066335678100586,2.7731094360351562,8.890002250671387,2.4328174591064453
0_20251106_211744,1762435028745,0,0.06951986998319626,0.1772645264863968,0.5465055704116821,0.8155218362808228,0.8638266921043396,3.2422776222229004,0.9735193848609924,2.2150206565856934,8.705733299255371,4.638280868530273,-1.5475531816482544,0.1792047917842865,-0.47684481739997864,1.0524559020996094,-30.5052490234375,15.556808471679688,-0.3901195526123047,-0.11161136627197266,1.5346488952636719,2.605140209197998,8.817344665527344,3.1036319732666016
0_20251106_211744,1762435028764,0,0.07487790286540985,0.1719813346862793,0.5353469848632812,0.8235407471656799,0.8691633939743042,3.2387824058532715,1.013060212135315,1.9732164144515991,8.471111297607422,4.633492946624756,-1.418049931526184,0.19630901515483856,-0.5672528147697449,1.0969715118408203,-30.883132934570312,14.807682037353516,-0.505539059638977,-0.27698707580566406,1.223888874053955,2.478755474090576,8.748098373413086,3.409604072570801
0_20251106_211744,1762435028783,0,0.08024896681308746,0.16629064083099365,0.525105357170105,0.8307658433914185,0.8719260692596436,3.234710454940796,1.0522383451461792,1.7302154302597046,8.413653373718262,4.682571887969971,-1.3777328729629517,0.18103739619255066,-0.5660310387611389,1.1971678733825684,-31.144020080566406,13.981796264648438,-0.5988320112228394,-0.26755619049072266,1.0183742046356201,2.329047441482544,8.681209564208984,3.6641976833343506
0_20251106_211744,1762435028802,0,0.08577074855566025,0.16082049906253815,0.5150606036186218,0.8375516533851624,0.8723591566085815,3.230130910873413,1.0938936471939087,1.5303081274032593,8.422032356262207,5.281096935272217,-1.4980732202529907,0.14438551664352417,-0.46707096695899963,1.3657441139221191,-31.487770080566406,13.129974365234375,-0.6389914751052856,-0.20734214782714844,1.2935194969177246,2.169299602508545,8.629374504089355,3.987577438354492
0_20251106_211744,1762435028821,0,0.09089985489845276,0.15600229799747467,0.503797709941864,0.8447415828704834,0.8708992600440979,3.225825786590576,1.1387689113616943,1.48721444606781,8.645881652832031,5.920320987701416,-1.6061962842941284,0.09734892845153809,-0.30091577768325806,1.6087346076965332,-31.813385009765625,12.200260162353516,-0.5456680059432983,0.013205528259277344,1.5461945533752441,2.0328824520111084,8.632676124572754,4.374126434326172
0_20251106_211744,1762435028841,0,0.09501385688781738,0.1521514654159546,0.49122384190559387,0.8523622751235962,0.8681958913803101,3.222139835357666,1.1873962879180908,1.5530521869659424,8.779951095581055,6.559545516967773,-1.582983374595642,0.026488620787858963,-0.16224950551986694,1.937014102935791,-32.145057678222656,11.179100036621094,-0.383864164352417,0.11781978607177734,1.748335361480713,1.9369163513183594,8.662131309509277,4.8112101554870605
0_20251106_211744,1762435028861,0,0.09820576012134552,0.14945092797279358,0.4784385561943054,0.859718918800354,0.8647804260253906,3.2184154987335205,1.2414405345916748,1.7026833295822144,8.649471282958984,6.593062877655029,-1.4461497068405151,0.008162680082023144,-0.08039361238479614,2.120062828063965,-32.473297119140625,10.111770629882812,-0.1873863935470581,-0.010128021240234375,1.4254822731018066,1.8900697231292725,8.659599304199219,5.167580604553223
0_20251106_211744,1762435028879,0,0.10075608640909195,0.14746564626693726,0.46647024154663086,0.86631840467453,0.8647804260253906,3.2184154987335205,1.2414405345916748,1.7026833295822144,8.649471282958984,6.593062877655029,-1.3288637399673462,-0.019326232373714447,-0.027248382568359375,2.386707305908203,-32.821495056152344,9.087894439697266,-0.1873863935470581,-0.010128021240234375,1.4254822731018066,1.8900697231292725,8.659599304199219,5.167580604553223
0_20251106_211744,1762435028900,0,0.10265692323446274,0.14601467549800873,0.4553377628326416,0.8722435235977173,0.8587231040000916,3.2085275650024414,1.3490372896194458,1.982792854309082,8.19219970703125,5.633028984069824,-1.3178681135177612,-0.07063886523246765,-0.023583196103572845,2.696056365966797,-33.0545654296875,8.094898223876953,0.0735158920288086,-0.326141357421875,0.2013568878173828,1.9092769622802734,8.518341064453125,5.431672096252441
0_20251106_211744,1762435028919,0,0.1047772765159607,0.1451249122619629,0.4442281126976013,0.8778507113456726,0.8569012880325317,3.202939987182617,1.395535945892334,2.143197536468506,8.139528274536133,6.001720428466797,-1.4217151403427124,-0.14699694514274597,-0.09016744792461395,2.696056365966797,-33.0545654296875,8.094898223876953,0.18713641166687012,-0.30305004119873047,0.4560384750366211,1.9560611248016357,8.442578315734863,5.545681953430176
0_20251106_211744,1762435028936,0,0.1080797091126442,0.1446325182914734,0.4322926700115204,0.8834722638130188,0.8563181161880493,3.1962077617645264,1.4420971870422363,2.422110080718994,7.8642072677612305,6.515254974365234,-1.520064353942871,-0.12072977423667908,-0.1854623556137085,2.847283363342285,-33.29756164550781,7.0549774169921875,0.37283921241760254,-0.46269702911376953,0.775658130645752,2.0492708683013916,8.326904296875,5.739596843719482
0_20251106_211744,1762435028956,0,0.11217744648456573,0.14342357218265533,0.41958555579185486,0.8892658948898315,0.8574820756912231,3.1882169246673584,1.4916350841522217,2.6866579055786133,7.874980449676514,6.777408599853516,-1.5762637853622437,-0.10545815527439117,-0.23372067511081696,2.9964942932128906,-33.578094482421875,6.000749588012695,0.5099096298217773,-0.3615384101867676,0.8302493095397949,2.176748275756836,8.236518859863281,5.947159290313721
0_20251106_211744,1762435028974,0,0.116768978536129,0.14190451800823212,0.4062950313091278,0.8950712084770203,0.8574820756912231,3.1882169246673584,1.4916350841522217,2.6866579055786133,7.874980449676514,6.777408599853516,-1.581150770187378,-0.17326414585113525,-0.27098339796066284,3.1723899841308594,-33.819091796875,4.921260833740234,0.5099096298217773,-0.3615384101867676,0.8302493095397949,2.176748275756836,8.236518859863281,5.947159290313721
0_20251106_211744,1762435028995,0,0.12200599908828735,0.14088930189609528,0.3928392827510834,0.9005231857299805,0.8690692782402039,3.1721277236938477,1.5989357233047485,3.416858196258545,8.272401809692383,7.237075328826904,-1.4931862354278564,-0.2832197844982147,-0.4261430501937866,3.361571788787842,-34.04620361328125,3.788461685180664,0.825655460357666,0.045182228088378906,0.8337817192077637,2.591202735900879,8.227219581604004,6.403293609619141
0_20251106_211744,1762435029012,0,0.1288907527923584,0.14045821130275726,0.3801281452178955,0.9050752520561218,0.875977635383606,3.1658029556274414,1.6448971033096313,3.0745019912719727,8.193395614624023,7.539928913116455,-1.4553126096725464,-0.3522475063800812,-0.6937018036842346,3.5046310424804688,-34.226531982421875,2.6817893981933594,0.3866393566131592,-0.027059555053710938,0.9093084335327148,2.6878626346588135,8.220455169677734,6.63062047958374
0_20251106_211744,1762435029032,0,0.1382921189069748,0.13974827527999878,0.3679894804954529,0.9088066220283508,0.875977635383606,3.1658029556274414,1.6448971033096313,3.0745019912719727,8.193395614624023,7.539928913116455,-1.5115121603012085,-0.3296455442905426,-0.9551518559455872,3.798151969909668,-34.321983337402344,1.5825862884521484,0.3866393566131592,-0.027059555053710938,0.9093084335327148,2.6878626346588135,8.220455169677734,6.63062047958374
0_20251106_211744,1762435029051,0,0.1498127579689026,0.13768230378627777,0.355684757232666,0.9121885895729065,0.8888629674911499,3.15086030960083,1.755568265914917,2.205444097518921,7.894133567810059,8.69508171081543,-1.56465744972229,-0.30765441060066223,-1.1225287914276123,4.1544084548950195,-34.38780975341797,0.4322986602783203,-0.3677384853363037,-0.2417888641357422,1.4302349090576172,2.5731825828552246,8.1359224319458,7.2648468017578125
0_20251106_211744,1762435029071,0,0.1626560539007187,0.13458073139190674,0.34307822585105896,0.9152750372886658,0.892117440700531,3.1417906284332275,1.81601083278656,1.8523144721984863,7.623600006103516,9.05778694152832,-1.56465744972229,-0.30765441060066223,-1.1225287914276123,4.547025203704834,-34.45153045654297,-0.6894855499267578,-0.5766944885253906,-0.40985774993896484,1.434351921081543,2.429008960723877,8.03345775604248,7.623435020446777
0_20251106_211744,1762435029090,0,0.17610348761081696,0.13092473149299622,0.33123332262039185,0.9176768064498901,0.8927047252655029,3.1325788497924805,1.8709913492202759,1.5374903678894043,7.441648483276367,8.964418411254883,-1.3154245615005493,-0.30093488097190857,-1.2660820484161377,5.1462788581848145,-34.31269836425781,-1.9481430053710938,-0.7132148742675781,-0.4734477996826172,1.0727863311767578,2.2507052421569824,7.915096282958984,7.891632080078125
0_20251106_211744,1762435029108,0,0.18966324627399445,0.12742316722869873,0.32071179151535034,0.919203519821167,0.8902958035469055,3.1211228370666504,1.928598165512085,1.158025860786438,7.106474876403809,8.79323959350586,-1.1822561025619507,-0.4011166989803314,-1.2092715501785278,5.78310489654541,-34.14691162109375,-3.150735855102539,-0.8741434812545776,-0.6468973159790039,0.7212858200073242,2.0321693420410156,7.7533721923828125,8.071953773498535
0_20251106_211744,1762435029128,0,0.2031160295009613,0.12524095177650452,0.31102049350738525,0.9199591279029846,0.8845235109329224,3.1076602935791016,1.9884814023971558,0.925798237323761,7.0933074951171875,8.820772171020508,-1.074133038520813,-0.5208461284637451,-1.0400619506835938,6.506444931030273,-33.950721740722656,-4.322334289550781,-0.8850969672203064,-0.5280513763427734,0.599055290222168,1.8108952045440674,7.621358871459961,8.22171688079834
0_20251106_211744,1762435029146,0,0.21522670984268188,0.1247040331363678,0.3018049895763397,0.9203478097915649,0.8774883151054382,3.095388889312744,2.0423977375030518,0.9581185579299927,7.3123674392700195,9.324728965759277,-1.0008293390274048,-0.5917064547538757,-0.8659656643867493,7.256779670715332,-33.702980041503906,-5.464864730834961,-0.6822212934494019,-0.2471933364868164,0.8824100494384766,1.6403398513793945,7.559560775756836,8.4423189163208
0_20251106_211744,1762435029165,0,0.22597071528434753,0.12539617717266083,0.2928602397441864,0.9205682873725891,0.8774883151054382,3.095388889312744,2.0423977375030518,0.9581185579299927,7.3123674392700195,9.324728965759277,-0.8853758573532104,-0.5807108879089355,-0.7590643167495728,8.096954345703125,-33.36231994628906,-6.54804801940918,-0.6822212934494019,-0.2471933364868164,0.8824100494384766,1.6403398513793945,7.559560775756836,8.4423189163208
0_20251106_211744,1762435029185,0,0.23555131256580353,0.12650810182094574,0.28479304909706116,0.9205455780029297,0.8596353530883789,3.0695948600769043,2.159667730331421,1.3112480640411377,7.367431640625,9.445631980895996,-0.7228858470916748,-0.5495567917823792,-0.7163037657737732,8.889697074890137,-32.999855041503906,-7.619150161743164,-0.18035733699798584,-0.13522052764892578,0.619903564453125,1.4916054010391235,7.502652168273926,8.825728416442871
0_20251106_211744,1762435029203,0,0.24467386305332184,0.12791813910007477,0.27811360359191895,0.9200133085250854,0.8516244888305664,3.057798385620117,2.211498975753784,1.447711706161499,7.266879081726074,9.163127899169922,-0.6159845590591431,-0.5422264337539673,-0.7560099959373474,9.646993637084961,-32.61506652832031,-8.650646209716797,-0.03511500358581543,-0.18861865997314453,0.26991939544677734,1.4828267097473145,7.455497741699219,8.893208503723145
0_20251106_211744,1762435029223,0,0.2539638578891754,0.12944740056991577,0.27242064476013184,0.918984591960907,0.8516244888305664,3.057798385620117,2.211498975753784,1.447711706161499,7.266879081726074,9.163127899169922,-0.5836087465286255,-0.5709370374679565,-0.8702417016029358,10.354756355285645,-32.234535217285156,-9.575974464416504,-0.03511500358581543,-0.18861865997314453,0.26991939544677734,1.4828267097473145,7.455497741699219,8.893208503723145
0_20251106_211744,1762435029242,0,0.2643332779407501,0.13106590509414673,0.26706549525260925,0.9174015522003174,0.8361435532569885,3.0307042598724365,2.3165032863616943,1.6368454694747925,6.974799156188965,8.757328033447266,-0.587884783744812,-0.6271365880966187,-1.0315098762512207,10.977340698242188,-31.836196899414062,-10.328495979309082,0.11485183238983154,-0.3229694366455078,-0.1340789794921875,1.521993637084961,7.297768592834473,8.891407012939453
0_20251106_211744,1762435029261,0,0.2761821746826172,0.1327463537454605,0.26168763637542725,0.9152165651321411,0.8296104073524475,3.0177395343780518,2.3604867458343506,1.4716527462005615,6.926917552947998,8.681913375854492,-0.651414692401886,-0.7004404067993164,-1.2269866466522217,11.588852882385254,-31.41394805908203,-11.040431022644043,-0.04027271270751953,-0.29668092727661133,-0.16759490966796875,1.511925458908081,7.223598480224609,8.849508285522461
0_20251106_211744,1762435029280,0,0.29016274213790894,0.13449111580848694,0.2557542324066162,0.9123088717460632,0.8296104073524475,3.0177395343780518,2.3604867458343506,1.4716527462005615,6.926917552947998,8.681913375854492,-0.7357140183448792,-0.7621377110481262,-1.405359148979187,12.119180679321289,-30.93366241455078,-11.835577011108398,-0.04027271270751953,-0.29668092727661133,-0.16759490966796875,1.511925458908081,7.223598480224609,8.849508285522461
0_20251106_211744,1762435029299,0,0.3058883249759674,0.13604019582271576,0.24911580979824066,0.9087721109390259,0.8202341794967651,3.001960277557373,2.41330885887146,1.0251532793045044,7.026272773742676,9.325926780700684,-0.6391973495483398,-0.7627485990524292,-1.498821496963501,12.712156295776367,-30.412269592285156,-12.573413848876953,-0.38941776752471924,-0.15786027908325195,0.3811349868774414,1.4145710468292236,7.184133052825928,8.944791793823242
0_20251106_211744,1762435029321,0,0.32220810651779175,0.13747961819171906,0.24336941540241241,0.9044626355171204,0.7980489730834961,2.972865104675293,2.5024607181549072,0.11300171911716461,6.293678283691406,9.799957275390625,-0.40096014738082886,-0.7346488237380981,-1.4004721641540527,13.402437210083008,-29.873184204101562,-13.185417175292969,-0.8933357000350952,-0.634244441986084,0.5247058868408203,1.0063374042510986,6.92792272567749,9.275251388549805
0_20251106_211744,1762435029339,0,0.3371186852455139,0.13938981294631958,0.23951469361782074,0.8997522592544556,0.7823600172996521,2.955108404159546,2.5489501953125,-0.0031120777130126953,6.229037284851074,9.609626770019531,-0.21708987653255463,-0.7224315404891968,-1.176284909248352,14.132094383239746,-29.28148651123047,-13.794893264770508,-0.807559609413147,-0.5591087341308594,0.2674999237060547,0.8044475317001343,6.788146018981934,9.342126846313477
0_20251106_211744,1762435029357,0,0.3499253988265991,0.14220364391803741,0.23688006401062012,0.8951079249382019,0.7823600172996521,2.955108404159546,2.5489501953125,-0.0031120777130126953,6.229037284851074,9.609626770019531,-0.08147789537906647,-0.6552363634109497,-0.9386585354804993,14.132094383239746,-29.28148651123047,-13.794893264770508,-0.807559609413147,-0.5591087341308594,0.2674999237060547,0.8044475317001343,6.788146018981934,9.342126846313477
0_20251106_211744,1762435029376,0,0.3603634536266327,0.14540256559848785,0.23527809977531433,0.8908650279045105,0.7537172436714172,2.9206106662750244,2.6301422119140625,1.022759199142456,6.23143196105957,9.421690940856934,0.045581966638565063,-0.6265257596969604,-0.7847205996513367,14.81551742553711,-28.654754638671875,-14.459604263305664,0.24371910095214844,-0.3572545051574707,0.026021957397460938,0.7790400981903076,6.588686466217041,9.395668983459473
0_20251106_211744,1762435029395,0,0.3693070709705353,0.14923427999019623,0.23455415666103363,0.8867501020431519,0.7537172436714172,2.9206106662750244,2.6301422119140625,1.022759199142456,6.23143196105957,9.421690940856934,0.1256052404642105,-0.6815035939216614,-0.7303536534309387,15.548192977905273,-28.012557983398438,-15.095056533813477,0.24371910095214844,-0.3572545051574707,0.026021957397460938,0.7790400981903076,6.588686466217041,9.395668983459473
0_20251106_211744,1762435029414,0,0.3778621256351471,0.15409809350967407,0.23412491381168365,0.882416844367981,0.7331194281578064,2.8857483863830566,2.70589280128479,1.591357707977295,6.339166641235352,9.407325744628906,0.21173715591430664,-0.6711188554763794,-0.7615078091621399,16.21350860595703,-27.475868225097656,-15.62694263458252,0.5503363609313965,-0.16486406326293945,-0.000583648681640625,1.0410213470458984,6.504030704498291,9.407909393310547
0_20251106_211744,1762435029433,0,0.3865165114402771,0.15919183194637299,0.23443539440631866,0.8776690363883972,0.7331194281578064,2.8857483863830566,2.70589280128479,1.591357707977295,6.339166641235352,9.407325744628906,0.2740453779697418,-0.6265257596969604,-0.8225942254066467,16.818302154541016,-26.930999755859375,-16.120468139648438,0.5503363609313965,-0.16486406326293945,-0.000583648681640625,1.0410213470458984,6.504030704498291,9.407909393310547
0_20251106_211744,1762435029453,0,0.39546719193458557,0.1640300303697586,0.23544670641422272,0.8725048303604126,0.7257749438285828,2.866367816925049,2.7439169883728027,1.6859245300292969,6.117712020874023,9.222979545593262,0.2807648777961731,-0.6130867004394531,-0.8677982687950134,17.40810203552246,-26.425537109375,-16.520662307739258,0.5159225463867188,-0.3090548515319824,-0.14794349670410156,1.1700019836425781,6.426766872406006,9.370923042297363
0_20251106_211744,1762435029471,0,0.4036545157432556,0.1683860421180725,0.23675265908241272,0.8675582408905029,0.716654360294342,2.831697940826416,2.801910161972046,1.4704556465148926,5.875907897949219,8.94287109375,0.24655644595623016,-0.6381322145462036,-0.8830698728561401,17.931049346923828,-26.013290405273438,-16.789993286132812,0.17486131191253662,-0.3494853973388672,-0.2896585464477539,1.295594334602356,6.225393295288086,9.232529640197754
0_20251106_211744,1762435029491,0,0.41303709149360657,0.1729971021413803,0.23744502663612366,0.8620279431343079,0.712720513343811,2.8140337467193604,2.8291540145874023,1.3830710649490356,6.152426719665527,9.017087936401367,0.24655644595623016,-0.6381322145462036,-0.8830698728561401,18.33505630493164,-25.558624267578125,-17.076688766479492,0.06998133659362793,-0.058373451232910156,-0.17235374450683594,1.3130897283554077,6.2108001708984375,9.189441680908203
0_20251106_211744,1762435029510,0,0.4226973354816437,0.1778058558702469,0.2376423478126526,0.856293261051178,0.712720513343811,2.8140337467193604,2.8291540145874023,1.3830710649490356,6.152426719665527,9.017087936401367,0.21784581243991852,-0.7401466369628906,-0.9808081984519958,18.744707107543945,-25.216453552246094,-17.338237762451172,0.06998133659362793,-0.058373451232910156,-0.17235374450683594,1.3130897283554077,6.2108001708984375,9.189441680908203
0_20251106_211744,1762435029529,0,0.4331192076206207,0.1828635334968567,0.23780889809131622,0.84995037317276,0.7039161324501038,2.7829108238220215,2.88116455078125,1.0024093389511108,6.766512870788574,9.047014236450195,0.2612172067165375,-0.6894447803497314,-1.0345642566680908,19.143482208251953,-24.85009002685547,-17.586233139038086,-0.23292744159698486,0.4113907814025879,-0.12716102600097656,1.2353367805480957,6.355122089385986,9.174175262451172
0_20251106_211744,1762435029548,0,0.4436796009540558,0.18748877942562103,0.2386161834001541,0.8432429432868958,0.6983270645141602,2.7713887691497803,2.903432607650757,0.7869405150413513,7.005922794342041,8.837530136108398,0.2905386984348297,-0.6625667810440063,-1.0455598831176758,19.567235946655273,-24.46971893310547,-17.81946563720703,-0.35871702432632446,0.5206403732299805,-0.2693157196044922,1.1456575393676758,6.4852824211120605,9.10684585571289
0_20251106_211744,1762435029566,0,0.4542868733406067,0.1920115053653717,0.2398022562265396,0.836211621761322,0.692107081413269,2.7629966735839844,2.923600673675537,0.6624473929405212,7.288426399230957,9.158340454101562,0.2905386984348297,-0.6625667810440063,-1.0455598831176758,20.00579833984375,-24.038597106933594,-18.02412223815918,-0.3865681290626526,0.6425151824951172,0.04119586944580078,1.0490155220031738,6.64591121673584,9.117144584655762
0_20251106_211744,1762435029586,0,0.4644256830215454,0.19702482223510742,0.2412402629852295,0.8290314674377441,0.6841152906417847,2.756138801574707,2.9460842609405518,0.579850971698761,7.303987979888916,9.510272026062012,0.4774633049964905,-0.6747840642929077,-0.9215543866157532,20.494203567504883,-23.591201782226562,-18.280616760253906,-0.3753316402435303,0.526461124420166,0.3145017623901367,0.9551826119422913,6.77752685546875,9.195770263671875
0_20251106_211744,1762435029605,0,0.4736417531967163,0.20266951620578766,0.2435804307460785,0.8217403292655945,0.6841152906417847,2.756138801574707,2.9460842609405518,0.579850971698761,7.303987979888916,9.510272026062012,0.4774633049964905,-0.6747840642929077,-0.9215543866157532,20.993497848510742,-23.15637969970703,-18.455787658691406,-0.3753316402435303,0.526461124420166,0.3145017623901367,0.9551826119422913,6.77752685546875,9.195770263671875
0_20251106_211744,1762435029624,0,0.48177415132522583,0.2089194655418396,0.2470768541097641,0.8143705129623413,0.6747691631317139,2.750629425048828,2.9691123962402344,0.5451365113258362,7.17470645904541,9.375005722045898,0.7218092083930969,-0.6356887221336365,-0.7303536534309387,21.45815086364746,-22.68653106689453,-18.604602813720703,-0.3280368447303772,0.31774377822875977,0.1433877944946289,0.8731733560562134,6.85696268081665,9.23161792755127
0_20251106_211744,1762435029643,0,0.48884525895118713,0.21570228040218353,0.2509111762046814,0.8071842789649963,0.657431960105896,2.7448670864105225,3.0055673122406006,0.5092250108718872,7.354264259338379,9.254104614257812,0.7847282886505127,-0.650349497795105,-0.6607151031494141,21.86720848083496,-22.34516143798828,-18.78505516052246,-0.23330998420715332,0.3320627212524414,0.025308609008789062,0.7425349950790405,7.0222015380859375,9.228796005249023
0_20251106_211744,1762435029662,0,0.4950931966304779,0.22300060093402863,0.2549985647201538,0.8000807166099548,0.6477858424186707,2.743867874145508,3.023164987564087,0.44338732957839966,7.49192476272583,9.146368980407715,0.8873535394668579,-0.6540147066116333,-0.6258957982063293,22.278690338134766,-21.95410919189453,-18.910385131835938,-0.2393181324005127,0.3757786750793457,-0.06594181060791016,0.6827054619789124,7.116146087646484,9.212310791015625
0_20251106_211744,1762435029682,0,0.5008687973022461,0.23087505996227264,0.25966358184814453,0.7927181124687195,0.6477858424186707,2.743867874145508,3.023164987564087,0.44338732957839966,7.49192476272583,9.146368980407715,0.9417204856872559,-0.6271365880966187,-0.5990177392959595,22.67296600341797,-21.64026641845703,-18.929658889770508,-0.2393181324005127,0.3757786750793457,-0.06594181060791016,0.6827054619789124,7.116146087646484,9.212310791015625
0_20251106_211744,1762435029701,0,0.5062214732170105,0.2388511449098587,0.26473215222358704,0.7852431535720825,0.6264243125915527,2.745414972305298,3.053583860397339,0.2015833705663681,7.568536281585693,8.497568130493164,0.9417204856872559,-0.6271365880966187,-0.5990177392959595,22.958173751831055,-21.321151733398438,-18.93956756591797,-0.33358287811279297,0.29565858840942383,-0.5292587280273438,0.5351662635803223,7.2728776931762695,9.026826858520508
0_20251106_211744,1762435029721,0,0.5110744833946228,0.24655382335186005,0.2702096700668335,0.777817964553833,0.6140835285186768,2.7474308013916016,3.0647683143615723,-0.005506157875061035,7.523048400878906,8.279705047607422,0.9740963578224182,-0.5043528079986572,-0.5159401297569275,23.29615020751953,-21.148345947265625,-18.990739822387695,-0.4325379431247711,0.20013666152954102,-0.5976972579956055,0.4270317852497101,7.322911739349365,8.877402305603027
0_20251106_211744,1762435029739,0,0.5153192281723022,0.2539464235305786,0.27580761909484863,0.7706409692764282,0.602800190448761,2.7500596046447754,3.072988986968994,0.12976041436195374,7.690634727478027,8.332375526428223,0.9514943361282349,-0.4634248912334442,-0.41881269216537476,23.60714340209961,-21.015472412109375,-18.976102828979492,-0.23781707882881165,0.29417848587036133,-0.4360218048095703,0.3675774931907654,7.396456241607666,8.768397331237793
0_20251106_211744,1762435029763,0,0.5187358260154724,0.2611246705055237,0.28115114569664,0.7639902234077454,0.5909821391105652,2.7536706924438477,3.079893112182617,0.39789944887161255,7.671482086181641,8.185138702392578,0.9820375442504883,-0.43471425771713257,-0.34795236587524414,23.866573333740234,-20.936004638671875,-18.96448516845703,0.024257570505142212,0.22002029418945312,-0.46660709381103516,0.37364187836647034,7.4514617919921875,8.651745796203613
0_20251106_211744,1762435029780,0,0.5214834809303284,0.2684590518474579,0.28655627369880676,0.7575422525405884,0.5801215171813965,2.758467435836792,3.084810972213745,0.65047687292099,7.807945251464844,8.064236640930176,1.0034178495407104,-0.4634248912334442,-0.29053106904029846,24.123790740966797,-20.89434814453125,-18.940139770507812,0.2214680016040802,0.285186767578125,-0.47000694274902344,0.4290088713169098,7.522758483886719,8.5342435836792
0_20251106_211744,1762435029797,0,0.5237351655960083,0.2762801945209503,0.2917090952396393,0.7511833906173706,0.5801215171813965,2.758467435836792,3.084810972213745,0.65047687292099,7.807945251464844,8.064236640930176,1.0009742975234985,-0.5544437170028687,-0.26915082335472107,24.123790740966797,-20.89434814453125,-18.940139770507812,0.2214680016040802,0.285186767578125,-0.47000694274902344,0.4290088713169098,7.522758483886719,8.5342435836792
0_20251106_211744,1762435029816,0,0.5258897542953491,0.28477925062179565,0.2962726950645447,0.7446900606155396,0.5645691752433777,2.770289421081543,3.0909676551818848,0.607383131980896,8.232898712158203,8.377862930297852,1.0009742975234985,-0.5544437170028687,-0.26915082335472107,24.364086151123047,-20.94110870361328,-18.945167541503906,0.09615594148635864,0.476898193359375,-0.07805824279785156,0.5112271904945374,7.756000518798828,8.455921173095703
0_20251106_211744,1762435029834,0,0.5283164381980896,0.29319238662719727,0.3008326292037964,0.7378479838371277,0.5573807954788208,2.777331829071045,3.093095064163208,0.4565548896789551,8.103616714477539,8.21027660369873,1.035793662071228,-0.4426555037498474,-0.38765856623649597,24.580121994018555,-20.97771453857422,-18.869813919067383,-0.043737828731536865,0.2780928611755371,-0.1965160369873047,0.5002927184104919,7.825523853302002,8.406792640686035
0_20251106_211744,1762435029853,0,0.5307564735412598,0.3006282448768616,0.30634739995002747,0.7308019399642944,0.5495466589927673,2.7848711013793945,3.093881368637085,0.2722092866897583,7.999473571777344,7.915802001953125,1.0321284532546997,-0.30582180619239807,-0.4334734082221985,24.804819107055664,-21.076309204101562,-18.795289993286133,-0.18246674537658691,0.1391596794128418,-0.3927927017211914,0.4546760320663452,7.860313892364502,8.308594703674316
0_20251106_211744,1762435029873,0,0.5330232977867126,0.30688416957855225,0.3125983476638794,0.7238718867301941,0.5414098501205444,2.7920639514923096,3.093517780303955,0.2015833705663681,7.871389389038086,7.903831481933594,1.0089155435562134,-0.2025856375694275,-0.4175909161567688,25.02840232849121,-21.199615478515625,-18.761842727661133,-0.20247413218021393,0.008860111236572266,-0.3238105773925781,0.40405750274658203,7.862529277801514,8.227642059326172
0_20251106_211744,1762435029891,0,0.5334244966506958,0.3116742670536041,0.3197508156299591,0.7183849215507507,0.5333214402198792,2.7987473011016846,3.091686248779297,0.27340632677078247,7.807945728302002,7.68596887588501,1.0089155435562134,-0.2025856375694275,-0.4175909161567688,25.193592071533203,-21.265457153320312,-18.594364166259766,-0.10452094674110413,-0.04366636276245117,-0.43333864212036133,0.3779272735118866,7.851612091064453,8.119307518005371
0_20251106_211744,1762435029911,0,0.5346485376358032,0.3172755539417267,0.32645851373672485,0.7119775414466858,0.5250244140625,2.8050687313079834,3.0869944095611572,0.30931782722473145,7.732531547546387,7.178420066833496,1.0559521913528442,-0.16776636242866516,-0.355282723903656,25.392929077148438,-21.366989135742188,-18.385658264160156,-0.0548875629901886,-0.09526443481445312,-0.7527103424072266,0.36420539021492004,7.82779598236084,7.931130409240723
0_20251106_211744,1762435029930,0,0.5350244641304016,0.3238607943058014,0.33330219984054565,0.705530047416687,0.5180097818374634,2.810328483581543,3.0790560245513916,0.536757230758667,7.665496826171875,6.58109188079834,1.1946184635162354,-0.2624503970146179,-0.18118630349636078,25.57988166809082,-21.469589233398438,-18.15041160583496,0.13804149627685547,-0.12983942031860352,-1.080030918121338,0.3987157344818115,7.7953362464904785,7.661122798919678
0_20251106_211744,1762435029949,0,0.5347556471824646,0.3313700556755066,0.3397897779941559,0.6991231441497803,0.5120596289634705,2.8149428367614746,3.067474365234375,0.658856213092804,7.655920028686523,6.188460350036621,1.165907859802246,-0.32170429825782776,-0.11704549938440323,25.793716430664062,-21.532386779785156,-17.96745491027832,0.20811238884925842,-0.11153316497802734,-1.1781296730041504,0.45074382424354553,7.767453193664551,7.3665900230407715
0_20251106_211744,1762435029968,0,0.5342540740966797,0.3394129276275635,0.34549471735954285,0.6928238272666931,0.5073589086532593,2.8193225860595703,3.052983283996582,0.7977139949798584,7.766049385070801,6.095090389251709,1.1042104959487915,-0.31803908944129944,-0.10727166384458542,25.945138931274414,-21.601181030273438,-17.58420753479004,0.27757614850997925,-0.0011229515075683594,-1.0171995162963867,0.5201378464698792,7.767172336578369,7.112289905548096
0_20251106_211744,1762435029987,0,0.5338008403778076,0.34718307852745056,0.35069432854652405,0.6866833567619324,0.5036317706108093,2.823848009109497,3.0361664295196533,0.7893345952033997,7.900118827819824,6.000523567199707,1.1042104959487915,-0.31803908944129944,-0.10727166384458542,26.113773345947266,-21.805702209472656,-17.283981323242188,0.21535742282867432,0.10635709762573242,-0.8894133567810059,0.5739771723747253,7.793761730194092,6.889936923980713
0_20251106_211744,1762435030006,0,0.5337585806846619,0.3535156548023224,0.35602089762687683,0.6807184219360352,0.5006917119026184,2.8286688327789307,3.0167551040649414,0.7929257750511169,7.983911991119385,5.6378173828125,0.8720819354057312,-0.09507346153259277,-0.3125222325325012,26.288156509399414,-21.89801788330078,-16.900279998779297,0.17515885829925537,0.15212011337280273,-1.0016956329345703,0.6177669167518616,7.831791877746582,6.63951301574707
0_20251106_211744,1762435030025,0,0.5343757271766663,0.3578721284866333,0.36146047711372375,0.6750677227973938,0.4987404942512512,2.8338236808776855,2.995612144470215,0.9246011972427368,8.041370391845703,5.654576301574707,0.7285287380218506,-0.03154352679848671,-0.3760521411895752,26.47069549560547,-22.064613342285156,-16.54470443725586,0.2454674243927002,0.1676626205444336,-0.7879495620727539,0.6791337728500366,7.8737077713012695,6.442525863647461
0_20251106_211744,1762435030044,0,0.535621166229248,0.3609164357185364,0.3664949834346771,0.6697243452072144,0.49756357073783875,2.8399229049682617,2.9738471508026123,0.925798237323761,8.311904907226562,5.83054256439209,0.658279299736023,0.054588399827480316,-0.4182018041610718,26.632583618164062,-22.16973876953125,-16.215824127197266,0.19733160734176636,0.3505573272705078,-0.48958683013916016,0.7284666299819946,7.961347579956055,6.32012939453125
0_20251106_211744,1762435030063,0,0.5370676517486572,0.362944632768631,0.3715663552284241,0.6646562814712524,0.4970197379589081,2.8468334674835205,2.9515810012817383,0.9377686977386475,8.368165969848633,5.7407636642456055,0.658279299736023,0.054588399827480316,-0.4182018041610718,26.797502517700195,-22.212753295898438,-15.818041801452637,0.16744160652160645,0.3254547119140625,-0.46349287033081055,0.770327091217041,8.04271125793457,6.204256534576416
0_20251106_211744,1762435030082,0,0.5386005640029907,0.3645581901073456,0.3775233030319214,0.659153163433075,0.49685412645339966,2.8543801307678223,2.9288740158081055,0.898266077041626,8.40048599243164,5.6378173828125,0.8293213844299316,0.09612719714641571,-0.5819135308265686,26.98648452758789,-22.266197204589844,-15.473608016967773,0.10235118865966797,0.28621959686279297,-0.45315122604370117,0.795914888381958,8.114266395568848,6.090968608856201
0_20251106_211744,1762435030101,0,0.5401320457458496,0.36655092239379883,0.38439062237739563,0.6527952551841736,0.4963240325450897,2.8628666400909424,2.9049949645996094,0.6600532531738281,8.59440803527832,5.249973297119141,0.9007925987243652,0.05642099305987358,-0.6552173495292664,27.203065872192383,-22.25567626953125,-15.086324691772461,-0.1086893081665039,0.3841133117675781,-0.6727962493896484,0.768742561340332,8.210294723510742,5.922769546508789
0_20251106_211744,1762435030120,0,0.541961669921875,0.3688945174217224,0.39168107509613037,0.6455852389335632,0.494182288646698,2.872058153152466,2.879248857498169,0.17165714502334595,8.621939659118652,4.807065010070801,0.8739144802093506,0.06619483232498169,-0.7450144290924072,27.498291015625,-22.15167999267578,-14.775348663330078,-0.4776683449745178,0.3293161392211914,-0.8925638198852539,0.6493254899978638,8.292623519897461,5.699628829956055
0_20251106_211744,1762435030139,0,0.5443097352981567,0.370708703994751,0.3991796374320984,0.6379322409629822,0.4896318018436432,2.881194591522217,2.8524560928344727,-0.2676599621772766,8.43998908996582,4.84896183013916,0.8091628551483154,0.11811833083629608,-0.7944944500923157,27.776811599731445,-21.89966583251953,-14.354055404663086,-0.7335883378982544,0.11789226531982422,-0.6805338859558105,0.4659283757209778,8.322096824645996,5.529495716094971
0_20251106_211744,1762435030159,0,0.5469592213630676,0.37167733907699585,0.4067429006099701,0.6302791237831116,0.4896318018436432,2.881194591522217,2.8524560928344727,-0.2676599621772766,8.43998908996582,4.84896183013916,0.8091628551483154,0.11811833083629608,-0.7944944500923157,28.114852905273438,-21.668792724609375,-13.930837631225586,-0.7335883378982544,0.11789226531982422,-0.6805338859558105,0.4659283757209778,8.322096824645996,5.529495716094971
0_20251106_211744,1762435030179,0,0.5488053560256958,0.371600866317749,0.414606511592865,0.6235598921775818,0.4707832634449005,2.8985595703125,2.7953574657440186,-0.8147115707397461,8.314298629760742,4.805868148803711,0.7798413634300232,0.3649076521396637,-0.6057372689247131,28.46892547607422,-21.3507080078125,-13.356603622436523,-0.8464235067367554,0.00630950927734375,-0.502385139465332,0.03171193599700928,8.307989120483398,5.308253288269043
0_20251106_211744,1762435030199,0,0.5492128729820251,0.37134653329849243,0.4226248562335968,0.6179443597793579,0.4586055874824524,2.9070656299591064,2.7657077312469482,-0.6136072874069214,8.468717575073242,4.512591361999512,0.8891861438751221,0.34169480204582214,-0.43958204984664917,28.84596061706543,-21.05615234375,-12.781916618347168,-0.5162553787231445,0.12858295440673828,-0.6365294456481934,-0.09735190123319626,8.340134620666504,5.149120807647705
0_20251106_211744,1762435030217,0,0.5482481122016907,0.3724408745765686,0.4305780231952667,0.6126290559768677,0.44774776697158813,2.9154391288757324,2.7381296157836914,-0.2784334421157837,8.787132263183594,4.244451999664307,1.0388480424880981,0.23723694682121277,-0.323517769575119,28.84596061706543,-21.05615234375,-12.781916618347168,-0.1448652297258377,0.35759830474853516,-0.7237348556518555,-0.13356821238994598,8.429533958435059,4.968186855316162
0_20251106_211744,1762435030236,0,0.5463963150978088,0.37545517086982727,0.4383822977542877,0.6068817377090454,0.4367907643318176,2.9253194332122803,2.7074055671691895,-0.1587284952402115,8.970281600952148,3.849425792694092,1.18362295627594,0.08818595856428146,-0.30213749408721924,29.148273468017578,-20.791748046875,-12.183667182922363,-0.020128220319747925,0.4325981140136719,-0.8950090408325195,-0.13860027492046356,8.537683486938477,4.744434833526611
0_20251106_211744,1762435030255,0,0.5443633198738098,0.38021326065063477,0.4460965692996979,0.6000869274139404,0.4258534610271454,2.936155319213867,2.675128221511841,-0.3311035931110382,9.066045761108398,3.6183953285217285,1.2373789548873901,0.006330085452646017,-0.345508873462677,29.487651824951172,-20.512672424316406,-11.556650161743164,-0.15400266647338867,0.42268943786621094,-0.9008316993713379,-0.17710092663764954,8.643356323242188,4.519227027893066
0_20251106_211744,1762435030275,0,0.542669415473938,0.3856114149093628,0.45374131202697754,0.5923956036567688,0.41414719820022583,2.9473330974578857,2.641746997833252,-0.6567010283470154,8.965492248535156,3.5286166667938232,1.1805685758590698,0.03748418390750885,-0.40293020009994507,29.82601547241211,-20.25817108154297,-10.98422622680664,-0.3836801052093506,0.2577085494995117,-0.7924883365631104,-0.2730209231376648,8.707783699035645,4.321105003356934
0_20251106_211744,1762435030294,0,0.5413144826889038,0.3902711868286133,0.46135833859443665,0.584649920463562,0.4011590778827667,2.9585342407226562,2.6068127155303955,-0.9535692930221558,8.920004844665527,3.1467578411102295,1.0706130266189575,0.1529376208782196,-0.4072062373161316,30.129045486450195,-19.969589233398438,-10.2908353805542,-0.5444387197494507,0.16977691650390625,-0.9394776821136475,-0.4091305732727051,8.750227928161621,4.086235523223877
0_20251106_211744,1762435030312,0,0.5397166609764099,0.39352163672447205,0.4689997434616089,0.577828586101532,0.4011590778827667,2.9585342407226562,2.6068127155303955,-0.9535692930221558,8.920004844665527,3.1467578411102295,0.9740963578224182,0.2451781928539276,-0.35833704471588135,30.414955139160156,-19.76970672607422,-9.59978199005127,-0.5444387197494507,0.16977691650390625,-0.9394776821136475,-0.4091305732727051,8.750227928161621,4.086235523223877
0_20251106_211744,1762435030332,0,0.5369210839271545,0.39527446031570435,0.4769594967365265,0.5726984143257141,0.371597558259964,2.9806201457977295,2.5313267707824707,-0.9296283721923828,8.820650100708008,2.9695944786071777,0.9472182989120483,0.31176242232322693,-0.27587032318115234,30.675689697265625,-19.58409881591797,-8.89645767211914,-0.31511497497558594,0.03989887237548828,-0.7161824703216553,-0.6145133972167969,8.78075122833252,3.685776948928833
0_20251106_211744,1762435030351,0,0.5342395305633545,0.3975438177585602,0.48419108986854553,0.5675438046455383,0.35846689343452454,2.990264415740967,2.4956369400024414,-0.6219865679740906,8.84698486328125,2.731381893157959,0.9832593202590942,0.33558616042137146,-0.18424063920974731,30.887779235839844,-19.401535034179688,-8.208610534667969,-0.005978524684906006,0.052987098693847656,-0.7635159492492676,-0.6160080432891846,8.793997764587402,3.4948978424072266
0_20251106_211744,1762435030370,0,0.5307026505470276,0.4002280831336975,0.4913317561149597,0.5628190636634827,0.35846689343452454,2.990264415740967,2.4956369400024414,-0.6219865679740906,8.84698486328125,2.731381893157959,0.9832593202590942,0.33558616042137146,-0.18424063920974731,31.063013076782227,-19.221763610839844,-7.481685638427734,-0.005978524684906006,0.052987098693847656,-0.7635159492492676,-0.6160080432891846,8.793997764587402,3.4948978424072266
0_20251106_211744,1762435030391,0,0.5270460247993469,0.4035535752773285,0.4981364905834198,0.557877242565155,0.3348822593688965,3.0123794078826904,2.411367654800415,-0.18027536571025848,9.257573127746582,1.736633539199829,0.9759289622306824,0.12117265164852142,-0.2215033769607544,31.220928192138672,-19.130950927734375,-6.730068206787109,0.29859626293182373,0.3256092071533203,-1.1725966930389404,-0.4788716435432434,8.931963920593262,2.9092302322387695
0_20251106_211744,1762435030409,0,0.5244828462600708,0.40729814767837524,0.5042007565498352,0.5520938038825989,0.3252467215061188,3.0245418548583984,2.3688924312591553,-0.30716264247894287,9.535287857055664,1.9784376621246338,0.8885753154754639,0.0350407250225544,-0.33756765723228455,31.334131240844727,-18.968246459960938,-5.95179557800293,0.13736718893051147,0.48265933990478516,-0.7446341514587402,-0.44452983140945435,9.052628517150879,2.723071813583374
0_20251106_211744,1762435030426,0,0.5230957269668579,0.41044071316719055,0.5098450183868408,0.5458638072013855,0.3161819875240326,3.0367002487182617,2.3293585777282715,-0.6040308475494385,9.544864654541016,2.192709445953369,0.87086021900177,0.10406844317913055,-0.5031120181083679,31.44491195678711,-18.85523223876953,-5.228643417358398,-0.12760081887245178,0.39378833770751953,-0.4242899417877197,-0.4764300286769867,9.151076316833496,2.616999387741089
0_20251106_211744,1762435030446,0,0.5222434997558594,0.41221851110458374,0.5163275003433228,0.5392063856124878,0.3052250146865845,3.050105333328247,2.285720109939575,-0.9332194328308105,9.338973045349121,1.989211082458496,0.8812448978424072,0.3245905935764313,-0.6295610070228577,31.607057571411133,-18.68907928466797,-4.475440979003906,-0.365431547164917,0.15031719207763672,-0.5022306442260742,-0.5677878856658936,9.188655853271484,2.4914417266845703
0_20251106_211744,1762435030465,0,0.5209178328514099,0.4121986925601959,0.524371325969696,0.5327021479606628,0.2935028374195099,3.062136173248291,2.2433786392211914,-1.2360728979110718,9.164203643798828,1.4134302139282227,0.8531451225280762,0.5176239013671875,-0.6594933867454529,31.716310501098633,-18.399978637695312,-3.8572139739990234,-0.5346280336380005,-0.019561767578125,-0.8624093532562256,-0.7014448642730713,9.183765411376953,2.2758395671844482
0_20251106_211744,1762435030484,0,0.5187259316444397,0.4107278287410736,0.5334075093269348,0.5269748568534851,0.2803613543510437,3.073948621749878,2.1994645595550537,-1.4323890209197998,9.323410987854004,0.9310194253921509,0.7749544382095337,0.5701582431793213,-0.5868005156517029,31.84952735900879,-18.121437072753906,-3.278820037841797,-0.5847553014755249,0.11171627044677734,-1.07585608959198,-0.8476337194442749,9.211694717407227,2.006875514984131
0_20251106_211744,1762435030504,0,0.5162559747695923,0.409097284078598,0.5419389009475708,0.5219399929046631,0.265779972076416,3.0861995220184326,2.154636859893799,-1.6119464635849,9.586761474609375,0.8735610842704773,0.7053158283233643,0.4718089997768402,-0.4945598840713501,31.95848274230957,-17.832740783691406,-2.620044708251953,-0.6114501953125,0.30005359649658203,-0.9066515564918518,-1.0004962682724,9.286707878112793,1.780212640762329
0_20251106_211744,1762435030523,0,0.514069676399231,0.4081478714942932,0.5492442846298218,0.5171831250190735,0.24910686910152435,3.0994207859039307,2.107900857925415,-1.6885576248168945,9.605915069580078,1.1524734497070312,0.7639588713645935,0.34047308564186096,-0.4328625500202179,32.16966247558594,-17.450057983398438,-1.9284648895263672,-0.5504491329193115,0.25536537170410156,-0.5021913051605225,-1.138108491897583,9.350549697875977,1.6546647548675537
0_20251106_211744,1762435030541,0,0.5118811726570129,0.40829038619995117,0.5560026168823242,0.5119938850402832,0.23323066532611847,3.1116750240325928,2.06676983833313,-1.7962920665740967,9.736392974853516,1.1788086891174316,0.7639588713645935,0.34047308564186096,-0.4328625500202179,32.39775085449219,-16.990562438964844,-1.3023929595947266,-0.526546835899353,0.30867481231689453,-0.38068485260009766,-1.2697452306747437,9.427718162536621,1.5594935417175293
0_20251106_211744,1762435030560,0,0.5093589425086975,0.4091883599758148,0.5628241300582886,0.5063075423240662,0.2154519110918045,3.1249876022338867,2.0248281955718994,-1.947120189666748,9.801033973693848,1.3056957721710205,0.9160642027854919,0.32520148158073425,-0.37910646200180054,32.612247467041016,-16.556976318359375,-0.6773395538330078,-0.5418999195098877,0.29865264892578125,-0.20303821563720703,-1.4052202701568604,9.502381324768066,1.5087339878082275
0_20251106_211744,1762435030580,0,0.5061926245689392,0.4101220369338989,0.569988489151001,0.5006815791130066,0.19565096497535706,3.138953447341919,1.9815634489059448,-2.070416212081909,9.717240333557129,1.0734682083129883,0.9588246941566467,0.4565373659133911,-0.34734147787094116,32.79100036621094,-16.101470947265625,0.027868270874023438,-0.5321567058563232,0.17188739776611328,-0.34821271896362305,-1.538259506225586,9.545352935791016,1.4216809272766113
0_20251106_211744,1762435030599,0,0.5019607543945312,0.4107046127319336,0.5777890086174011,0.4954967200756073,0.17621220648288727,3.1515562534332275,1.940185546875,-2.1099190711975098,9.544864654541016,0.5719045996665955,0.9893679618835449,0.5921493768692017,-0.3003048896789551,32.89955520629883,-15.600364685058594,0.7176723480224609,-0.45732760429382324,-0.0003910064697265625,-0.6798210740089417,-1.6525914669036865,9.545255661010742,1.251725673675537
0_20251106_211744,1762435030621,0,0.4965827167034149,0.41100454330444336,0.5861448049545288,0.4908311069011688,0.15556511282920837,3.1638267040252686,1.8953508138656616,-2.0500664710998535,9.435934066772461,0.11463172733783722,0.9850919246673584,0.6416293978691101,-0.2587661147117615,33.06352615356445,-15.172386169433594,1.5840568542480469,-0.3179800510406494,-0.08745765686035156,-0.9096751809120178,-1.732086420059204,9.523391723632812,1.0243068933486938
0_20251106_211744,1762435030638,0,0.4905984699726105,0.41120409965515137,0.5945670008659363,0.4865330457687378,0.13588792085647583,3.1740400791168213,1.851731538772583,-2.1123132705688477,9.209692001342773,-0.12597517669200897,0.9576029777526855,0.6300230026245117,-0.22333598136901855,33.118431091308594,-14.7391357421875,2.459808349609375,-0.3041815757751465,-0.2509593963623047,-0.9202256798744202,-1.8081316947937012,9.460651397705078,0.79425048828125
0_20251106_211744,1762435030657,0,0.48448464274406433,0.411480575799942,0.6026524901390076,0.48246070742607117,0.13588792085647583,3.1740400791168213,1.851731538772583,-2.1123132705688477,9.209692001342773,-0.12597517669200897,0.9307249784469604,0.6123079061508179,-0.15675172209739685,33.118431091308594,-14.7391357421875,2.459808349609375,-0.3041815757751465,-0.2509593963623047,-0.9202256798744202,-1.8081316947937012,9.460651397705078,0.79425048828125
0_20251106_211744,1762435030675,0,0.47822460532188416,0.41206029057502747,0.6102088093757629,0.4786990284919739,0.11394660174846649,3.1831085681915283,1.802137017250061,-2.1901211738586426,8.966690063476562,-0.33785295486450195,0.915453314781189,0.5897058844566345,-0.07367410510778427,33.231937408447266,-14.351463317871094,3.2693748474121094,-0.3055915832519531,-0.3951692581176758,-0.9056828022003174,-1.8845295906066895,9.361859321594238,0.5678298473358154
0_20251106_211744,1762435030695,0,0.47172003984451294,0.4130919873714447,0.6172259449958801,0.4752550721168518,0.07719964534044266,3.193991184234619,1.7174185514450073,-2.1458303928375244,8.797905921936035,-0.35939982533454895,0.9398879408836365,0.6098644733428955,0.01734474115073681,33.21149826049805,-13.972396850585938,4.060029983520508,-0.1591883897781372,-0.3728055953979492,-0.5995559096336365,-1.9866420030593872,9.170711517333984,0.24015608429908752
0_20251106_211744,1762435030714,0,0.4644811153411865,0.4145066440105438,0.6240673065185547,0.4722091853618622,0.07719964534044266,3.193991184234619,1.7174185514450073,-2.1458303928375244,8.797905921936035,-0.35939982533454895,0.9850918650627136,0.6361316442489624,0.09309196472167969,33.216949462890625,-13.554878234863281,4.933555603027344,-0.1591883897781372,-0.3728055953979492,-0.5995559096336365,-1.9866420030593872,9.170711517333984,0.24015608429908752
0_20251106_211744,1762435030732,0,0.45645204186439514,0.4162963628768921,0.6309037804603577,0.46937114000320435,0.04327089339494705,3.200239419937134,1.626091718673706,-1.7232719659805298,8.910429000854492,-1.5085673332214355,0.9514943361282349,0.594592809677124,0.12485693395137787,33.186241149902344,-13.139198303222656,5.751544952392578,0.20207417011260986,-0.1409158706665039,-1.186600923538208,-1.9253461360931396,9.051344871520996,-0.3219664692878723
0_20251106_211744,1762435030752,0,0.448544442653656,0.418376088142395,0.6372438073158264,0.46657222509384155,0.027568243443965912,3.2026431560516357,1.5751447677612305,-1.6370844841003418,8.894866943359375,-1.4475177526474,0.9514943361282349,0.594592809677124,0.12485693395137787,33.093109130859375,-12.741127014160156,6.674947738647461,0.23060929775238037,-0.1251821517944336,-0.90044105052948,-1.8676937818527222,9.020049095153809,-0.5470767021179199
0_20251106_211744,1762435030771,0,0.4414036273956299,0.42035484313964844,0.6428963541984558,0.4638415277004242,0.014111406169831753,3.2043442726135254,1.5273187160491943,-1.6071581840515137,8.84937858581543,-1.220078468322754,0.7737327218055725,0.5927602052688599,0.06621392071247101,32.991119384765625,-12.494285583496094,7.6492462158203125,0.2084285020828247,-0.1365365982055664,-0.5384014248847961,-1.8155866861343384,8.985915184020996,-0.6816770434379578
0_20251106_211744,1762435030790,0,0.4344310462474823,0.4213986396789551,0.648451566696167,0.46173956990242004,0.00205361470580101,3.205641508102417,1.4804199934005737,-1.5508968830108643,8.869728088378906,-1.2152901887893677,0.7547959089279175,0.6361316442489624,0.022231658920645714,32.81801986694336,-12.226280212402344,8.540035247802734,0.2117518186569214,-0.09294986724853516,-0.42689049243927,-1.7626487016677856,8.962677955627441,-0.7883996963500977
0_20251106_211744,1762435030809,0,0.42730996012687683,0.42160728573799133,0.6543234586715698,0.45990681648254395,-0.008757924661040306,3.206155776977539,1.434471607208252,-1.5281529426574707,8.700944900512695,-1.296689510345459,0.7547959089279175,0.6361316442489624,0.022231658920645714,32.704437255859375,-11.979423522949219,9.432746887207031,0.18759655952453613,-0.20938682556152344,-0.40663182735443115,-1.7157495021820068,8.910331726074219,-0.8900576829910278
0_20251106_211744,1762435030830,0,0.4199349582195282,0.421617329120636,0.6606655716896057,0.45761826634407043,-0.019693931564688683,3.205195665359497,1.3836352825164795,-1.5915966033935547,8.462732315063477,-1.6629865169525146,0.8158823847770691,0.6605662107467651,-0.019918005913496017,32.55903625488281,-11.647315979003906,10.352867126464844,0.09932231903076172,-0.3580799102783203,-0.6183431148529053,-1.6909189224243164,8.820812225341797,-1.0446434020996094
0_20251106_211744,1762435030847,0,0.4121793806552887,0.4215155839920044,0.6674434542655945,0.4549197554588318,-0.02809116616845131,3.203402519226074,1.3421640396118164,-1.6849664449691772,8.340633392333984,-2.12624454498291,0.8311539888381958,0.74120032787323,-0.024194058030843735,32.363380432128906,-11.343635559082031,11.284015655517578,0.004762053489685059,-0.3841428756713867,-0.8652808666229248,-1.6897284984588623,8.724776268005371,-1.2609636783599854
0_20251106_211744,1762435030867,0,0.404142826795578,0.42109325528144836,0.6741005778312683,0.452700138092041,-0.02809116616845131,3.203402519226074,1.3421640396118164,-1.6849664449691772,8.340633392333984,-2.12624454498291,0.7401351928710938,0.7534176707267761,0.028951168060302734,32.10818862915039,-11.030426025390625,12.118362426757812,0.004762053489685059,-0.3841428756713867,-0.8652808666229248,-1.6897284984588623,8.724776268005371,-1.2609636783599854
0_20251106_211744,1762435030886,0,0.3960495889186859,0.42049282789230347,0.6802279949188232,0.45124316215515137,-0.03769289702177048,3.1993489265441895,1.2900787591934204,-1.6143404245376587,8.143119812011719,-2.2806639671325684,0.7108136415481567,0.7289830446243286,0.07904208451509476,31.829853057861328,-10.682350158691406,13.074165344238281,0.0603104829788208,-0.46532535552978516,-0.8157602548599243,-1.6746509075164795,8.608445167541504,-1.464903712272644
0_20251106_211744,1762435030905,0,0.38798898458480835,0.4201967418193817,0.6858624815940857,0.4499909579753876,-0.04533369094133377,3.194469690322876,1.2424743175506592,-1.4515419006347656,8.10002613067627,-2.4985270500183105,0.778008759021759,0.6318556070327759,0.07904207706451416,31.567312240600586,-10.282173156738281,13.923385620117188,0.17848718166351318,-0.4067354202270508,-0.8268985748291016,-1.6300290822982788,8.50676155090332,-1.671628475189209
0_20251106_211744,1762435030925,0,0.3802001178264618,0.4204956293106079,0.6913950443267822,0.44788864254951477,-0.055767565965652466,3.18176531791687,1.147739052772522,-1.0792595148086548,7.910892009735107,-3.0443813800811768,0.8824666142463684,0.4821936786174774,0.04300105944275856,31.284912109375,-9.819450378417969,14.637779235839844,0.3720283508300781,-0.39514684677124023,-0.9185912609100342,-1.451287865638733,8.306038856506348,-2.1257901191711426
0_20251106_211744,1762435030944,0,0.37305980920791626,0.4215875267982483,0.6969083547592163,0.444307416677475,-0.059375640004873276,3.173757314682007,1.1008325815200806,-1.2432551383972168,7.61761474609375,-3.3161118030548096,0.9429422616958618,0.39239656925201416,0.01551214698702097,31.013809204101562,-9.357147216796875,15.474311828613281,0.1664261817932129,-0.5507392883300781,-0.9522573947906494,-1.4096813201904297,8.168354034423828,-2.36385440826416
0_20251106_211744,1762435030962,0,0.366310715675354,0.4230386018753052,0.7024295926094055,0.439826637506485,-0.06341331452131271,3.162931442260742,1.0471553802490234,-1.4850592613220215,7.387781620025635,-3.733881950378418,0.8653624057769775,0.4009486734867096,0.05949440971016884,30.682170867919922,-8.898269653320312,16.25432586669922,-0.06030237674713135,-0.624457836151123,-1.096022129058838,-1.4247568845748901,8.012239456176758,-2.63785982131958
0_20251106_211744,1762435030981,0,0.3595178425312042,0.42426520586013794,0.7075493335723877,0.4360274076461792,-0.06739681959152222,3.1510109901428223,0.9953696131706238,-1.548502802848816,7.228573799133301,-3.85598087310791,0.8653624057769775,0.4009486734867096,0.05949440971016884,30.33562660217285,-8.490280151367188,17.01927947998047,-0.09899675846099854,-0.6269321441650391,-0.9744968414306641,-1.4495060443878174,7.85550594329834,-2.881484031677246
0_20251106_211744,1762435031000,0,0.3527715802192688,0.4253590404987335,0.7115793824195862,0.433908611536026,-0.07130168378353119,3.1382884979248047,0.9434535503387451,-1.493438482284546,7.345885276794434,-3.872739553451538,0.46280255913734436,0.5622169971466064,0.2519167959690094,30.028644561767578,-8.041023254394531,17.66484832763672,-0.03514587879180908,-0.4076967239379883,-0.7930045127868652,-1.4582926034927368,7.753582000732422,-3.079735040664673
0_20251106_211744,1762435031019,0,0.3456946909427643,0.4257563054561615,0.7147857546806335,0.4339447319507599,-0.07466107606887817,3.125540018081665,0.8920429944992065,-1.3306398391723633,7.512274742126465,-3.841616630554199,0.2899278402328491,0.7039376497268677,0.2665775418281555,29.704147338867188,-7.681007385253906,18.362144470214844,0.10212218761444092,-0.19304561614990234,-0.6095051765441895,-1.4327620267868042,7.705320358276367,-3.2321114540100098
0_20251106_211744,1762435031039,0,0.33826589584350586,0.42502880096435547,0.7176507711410522,0.4357798099517822,-0.07466107606887817,3.125540018081665,0.8920429944992065,-1.3306398391723633,7.512274742126465,-3.841616630554199,0.17386354506015778,0.8419930934906006,0.23542343080043793,29.704147338867188,-7.681007385253906,18.362144470214844,0.10212218761444092,-0.19304561614990234,-0.6095051765441895,-1.4327620267868042,7.705320358276367,-3.2321114540100098
0_20251106_211744,1762435031059,0,0.33043012022972107,0.4230457842350006,0.7205699682235718,0.4388931095600128,-0.07822668552398682,3.099107503890991,0.7856420278549194,-0.9727221727371216,7.545792102813721,-4.076238632202148,0.11338794231414795,0.9226272106170654,0.22320613265037537,29.007909774780273,-7.1634521484375,19.669944763183594,0.3185579776763916,-0.09807634353637695,-0.5743331909179688,-1.2912801504135132,7.643868446350098,-3.5019054412841797
0_20251106_211744,1762435031077,0,0.32228681445121765,0.4204276502132416,0.7234697937965393,0.44267737865448,-0.07801932841539383,3.087775707244873,0.739011287689209,-0.8183026909828186,7.567338943481445,-4.102573394775391,0.11338794231414795,0.9226272106170654,0.22320613265037537,29.007909774780273,-7.1634521484375,19.669944763183594,0.37838202714920044,-0.061223506927490234,-0.48053431510925293,-1.196684718132019,7.6285624504089355,-3.6220390796661377
0_20251106_211744,1762435031097,0,0.31431713700294495,0.41787007451057434,0.7258777618408203,0.44686782360076904,-0.0762498751282692,3.076115846633911,0.6889550089836121,-0.6866272687911987,7.727743148803711,-3.8966808319091797,-0.03505218029022217,0.8487125635147095,0.313003271818161,28.61161231994629,-6.996162414550781,20.401378631591797,0.40804600715637207,0.0793447494506836,-0.2197132110595703,-1.0946732759475708,7.648398399353027,-3.6769676208496094
0_20251106_211744,1762435031115,0,0.306730180978775,0.41559070348739624,0.7275121808052063,0.45158272981643677,-0.0762498751282692,3.076115846633911,0.6889550089836121,-0.6866272687911987,7.727743148803711,-3.8966808319091797,-0.036273907870054245,0.7857934832572937,0.3600398600101471,28.189619064331055,-6.867057800292969,21.022911071777344,0.40804600715637207,0.0793447494506836,-0.2197132110595703,-1.0946732759475708,7.648398399353027,-3.6769676208496094
0_20251106_211744,1762435031133,0,0.2993384003639221,0.4138009548187256,0.7287166118621826,0.4562207758426666,-0.06981398910284042,3.0580763816833496,0.6060097813606262,-0.5705134868621826,7.903709411621094,-3.6010093688964844,0.04619283229112625,0.7662458419799805,0.3869178891181946,27.78022003173828,-6.725006103515625,21.685745239257812,0.33890974521636963,0.17431640625,0.04478263854980469,-0.9094232320785522,7.729393005371094,-3.645792007446289
0_20251106_211744,1762435031153,0,0.2916211187839508,0.41241562366485596,0.7300528883934021,0.4603186845779419,-0.06451636552810669,3.0491042137145996,0.5631318092346191,-0.43883806467056274,7.730137825012207,-3.763808250427246,0.04619283229112625,0.7662458419799805,0.3869178891181946,27.283306121826172,-6.626319885253906,22.357872009277344,0.37646812200546265,0.0005960464477539062,-0.09441304206848145,-0.8153061866760254,7.729541778564453,-3.6693952083587646
0_20251106_211744,1762435031171,0,0.2832357883453369,0.41131097078323364,0.7315389513969421,0.46416759490966797,-0.05865900218486786,3.0408244132995605,0.5254604816436768,-0.2760393023490906,7.4823479652404785,-4.079829216003418,0.10972276329994202,0.7821283340454102,0.4363979399204254,26.78780746459961,-6.715461730957031,23.05356216430664,0.43141353130340576,-0.1977548599243164,-0.32834720611572266,-0.7074528336524963,7.680102825164795,-3.7514820098876953
0_20251106_211744,1762435031191,0,0.274697482585907,0.4117470979690552,0.7321691513061523,0.46790382266044617,-0.05865900218486786,3.0408244132995605,0.5254604816436768,-0.2760393023490906,7.4823479652404785,-4.079829216003418,0.05230147764086723,0.8438255786895752,0.6874633431434631,26.268430709838867,-6.805519104003906,23.680686950683594,0.43141353130340576,-0.1977548599243164,-0.32834720611572266,-0.7074528336524963,7.680102825164795,-3.7514820098876953
0_20251106_211744,1762435031210,0,0.26499515771865845,0.4121445119380951,0.7323987483978271,0.472764790058136,-0.03863886371254921,3.0238196849823,0.44514796137809753,0.7546201944351196,7.800763130187988,-4.273751258850098,0.05230147764086723,0.8438255786895752,0.6874633431434631,25.807065963745117,-6.9419708251953125,24.32272720336914,1.034555196762085,0.1126546859741211,-0.3285064697265625,-0.27993497252464294,7.688108444213867,-3.945244789123535
0_20251106_211744,1762435031230,0,0.25533729791641235,0.4130915701389313,0.731532871723175,0.4785580635070801,-0.03863886371254921,3.0238196849823,0.44514796137809753,0.7546201944351196,7.800763130187988,-4.273751258850098,-0.14073176681995392,0.760748028755188,0.7925320863723755,25.332006454467773,-7.104461669921875,24.977264404296875,1.034555196762085,0.1126546859741211,-0.3285064697265625,-0.27993497252464294,7.688108444213867,-3.945244789123535
0_20251106_211744,1762435031250,0,0.2463543713092804,0.41421929001808167,0.7300096750259399,0.48458003997802734,-0.0015696529299020767,3.012789726257324,0.3682403266429901,1.7589446306228638,8.368165969848633,-4.255795478820801,-0.1004146933555603,0.6795030236244202,0.7253369688987732,24.81563949584961,-7.368583679199219,25.506572723388672,1.367704153060913,0.47430896759033203,-0.22939682006835938,0.39124050736427307,7.893857002258301,-4.026398658752441
0_20251106_211744,1762435031269,0,0.237968310713768,0.41528865694999695,0.7286364436149597,0.48989319801330566,0.021146634593605995,3.0108230113983154,0.3325910270214081,1.8798465728759766,8.639896392822266,-4.581392765045166,-0.06559541821479797,0.5835973024368286,0.6049966216087341,24.285266876220703,-7.670768737792969,25.994049072265625,1.1908848285675049,0.5968313217163086,-0.44399547576904297,0.6889617443084717,8.043065071105957,-4.137397289276123
0_20251106_211744,1762435031287,0,0.23061563074588776,0.41607946157455444,0.7276059985160828,0.4942507743835449,0.0430842861533165,3.0104544162750244,0.3015426695346832,1.8858318328857422,8.63630485534668,-4.477249622344971,-0.11141027510166168,0.5475562214851379,0.45961081981658936,23.726505279541016,-8.037994384765625,26.54680633544922,0.9574961066246033,0.4745922088623047,-0.2718815803527832,0.9283357262611389,8.161712646484375,-4.2053680419921875
0_20251106_211744,1762435031306,0,0.22435720264911652,0.41593262553215027,0.7268334627151489,0.498374342918396,0.07042264938354492,3.0112667083740234,0.2671031355857849,1.8559056520462036,8.564481735229492,-4.1193318367004395,-0.11141027510166168,0.5475562214851379,0.45961081981658936,23.186660766601562,-8.515434265136719,26.976524353027344,0.7420560121536255,0.32221508026123047,0.06882905960083008,1.1138496398925781,8.242266654968262,-4.1881608963012695
0_20251106_211744,1762435031325,0,0.21893411874771118,0.41440489888191223,0.7262719869613647,0.5028572678565979,0.09712813794612885,3.0126736164093018,0.23653870820999146,1.8547085523605347,8.487870216369629,-3.999627113342285,-0.24702224135398865,0.6147513389587402,0.20365846157073975,22.66211700439453,-8.941444396972656,27.367237091064453,0.5926871299743652,0.19648265838623047,0.15082693099975586,1.2620214223861694,8.291387557983398,-4.150454044342041
0_20251106_211744,1762435031344,0,0.21393851935863495,0.41170722246170044,0.7259642481803894,0.5076448917388916,0.122831791639328,3.014305830001831,0.20893345773220062,1.9396990537643433,8.439988136291504,-4.189957618713379,-0.2189224511384964,0.6269686222076416,0.1499023735523224,22.162145614624023,-9.3656005859375,27.73189926147461,0.5421420335769653,0.1188802719116211,-0.03160285949707031,1.397557020187378,8.321107864379883,-4.158354759216309
0_20251106_211744,1762435031363,0,0.20903052389621735,0.40864473581314087,0.725972592830658,0.5121323466300964,0.122831791639328,3.014305830001831,0.20893345773220062,1.9396990537643433,8.439988136291504,-4.189957618713379,-0.2189224511384964,0.6269686222076416,0.1499023735523224,21.68382453918457,-9.838264465332031,28.082969665527344,0.5421420335769653,0.1188802719116211,-0.03160285949707031,1.397557020187378,8.321107864379883,-4.158354759216309
0_20251106_211744,1762435031382,0,0.20429208874702454,0.4059848487377167,0.7260143160820007,0.5160855054855347,0.17809827625751495,3.0201501846313477,0.14890657365322113,1.6895157098770142,8.84698486328125,-4.746585845947266,-0.27267855405807495,0.46875467896461487,0.1749478280544281,21.208805084228516,-10.271636962890625,28.27263641357422,0.15620911121368408,0.38291072845458984,-0.38566112518310547,1.53330659866333,8.46407413482666,-4.36092472076416
0_20251106_211744,1762435031402,0,0.20061184465885162,0.4039323329925537,0.7252955436706543,0.5201345086097717,0.20406270027160645,3.0250661373138428,0.12117291241884232,1.3818740844726562,8.948734283447266,-3.9170308113098145,-0.4663226902484894,0.42782673239707947,0.17311522364616394,20.76904296875,-10.715988159179688,28.54460906982422,-0.12114608287811279,0.3877277374267578,0.3551149368286133,1.503020167350769,8.561006546020508,-4.272145748138428
0_20251106_211744,1762435031420,0,0.198041632771492,0.40169841051101685,0.7235180139541626,0.5252995491027832,0.22538328170776367,3.030156373977661,0.10025691241025925,1.1460553407669067,8.921201705932617,-3.13655424118042,-0.6245366334915161,0.6061992645263672,0.18288907408714294,20.353952407836914,-11.158348083496094,28.777015686035156,-0.2855719327926636,0.28815650939941406,0.9084734916687012,1.4316272735595703,8.633045196533203,-4.045027732849121
0_20251106_211744,1762435031441,0,0.19475698471069336,0.3980260193347931,0.7212576270103455,0.5323837399482727,0.24628503620624542,3.0362319946289062,0.08236318081617355,1.2573809623718262,8.987040519714355,-2.9222822189331055,-0.6874557137489319,0.843214750289917,0.22259527444839478,19.997255325317383,-11.658180236816406,28.875389099121094,-0.1393970251083374,0.28319644927978516,0.8981964588165283,1.3967779874801636,8.70384407043457,-3.820478677749634
0_20251106_211744,1762435031460,0,0.18928608298301697,0.39231929183006287,0.7193223237991333,0.5411393046379089,0.2688840329647064,3.043476104736328,0.06655305624008179,1.5913575887680054,8.961902618408203,-2.931859016418457,-0.6477495431900024,0.9134641885757446,0.28062742948532104,19.997255325317383,-11.658180236816406,28.875389099121094,0.1556636095046997,0.20644664764404297,0.7108955383300781,1.4356939792633057,8.75545597076416,-3.642754554748535
0_20251106_211744,1762435031479,0,0.1829068958759308,0.38678300380706787,0.717329740524292,0.5498927235603333,0.28952696919441223,3.050370931625366,0.054671257734298706,1.8798466920852661,8.99901008605957,-3.0204403400421143,-0.5567306280136108,0.818169355392456,0.34171390533447266,13.01425552368164,-6.591148376464844,27.45688247680664,0.3553222417831421,0.19484329223632812,0.4978513717651367,1.524524450302124,8.804166793823242,-3.518291711807251
0_20251106_211744,1762435031498,0,0.1764771193265915,0.38241201639175415,0.7152828574180603,0.557662308216095,0.31063809990882874,3.0574424266815186,0.045202676206827164,2.0713744163513184,8.994222640991211,-2.855247735977173,-0.46326836943626404,0.6190273761749268,0.36248332262039185,12.502866744995117,-7.251190185546875,27.54620361328125,0.43747997283935547,0.15204429626464844,0.5304350852966309,1.633894443511963,8.842178344726562,-3.3856828212738037
0_20251106_211744,1762435031516,0,0.17081990838050842,0.37935367226600647,0.713292121887207,0.5640262961387634,0.31063809990882874,3.0574424266815186,0.045202676206827164,2.0713744163513184,8.994222640991211,-2.855247735977173,-0.402792751789093,0.49441099166870117,0.35209858417510986,12.502866744995117,-7.251190185546875,27.54620361328125,0.43747997283935547,0.15204429626464844,0.5304350852966309,1.633894443511963,8.842178344726562,-3.3856828212738037
0_20251106_211744,1762435031535,0,0.16586263477802277,0.37706902623176575,0.7113527059555054,0.5694610476493835,0.3520415127277374,3.0702364444732666,0.03546567261219025,2.127635955810547,8.829029083251953,-2.099909543991089,-0.402792751789093,0.49441099166870117,0.35209858417510986,11.98080062866211,-7.88677978515625,27.622047424316406,0.32442188262939453,-0.012629508972167969,0.8866739273071289,1.8032140731811523,8.841658592224121,-2.9865834712982178
0_20251106_211744,1762435031555,0,0.16070084273815155,0.3746992349624634,0.7094103097915649,0.574902355670929,0.37393972277641296,3.0763602256774902,0.0339057557284832,2.424504280090332,8.866137504577637,-2.394383668899536,-0.3972949683666229,0.6049774885177612,0.3948591351509094,11.471921920776367,-8.508613586425781,27.658096313476562,0.49703216552734375,0.019582748413085938,0.47375988960266113,1.9274721145629883,8.84655475616455,-2.8681435585021973
0_20251106_211744,1762435031574,0,0.15477655827999115,0.3720996379852295,0.7073358297348022,0.5807427167892456,0.39841151237487793,3.0826780796051025,0.03245054557919502,2.7740426063537598,8.910429000854492,-2.833700656890869,-0.39607325196266174,0.5628278255462646,0.3869178891181946,10.922961235046387,-9.19561767578125,27.69135284423828,0.6772563457489014,0.05109977722167969,0.02755427360534668,2.0967862606048584,8.859329223632812,-2.861254930496216
0_20251106_211744,1762435031593,0,0.14906586706638336,0.3696886897087097,0.7052342891693115,0.5863056182861328,0.42265427112579346,3.089111328125,0.031019048765301704,2.882974147796631,9.125897407531738,-2.9043266773223877,-0.39607325196266174,0.5628278255462646,0.3869178891181946,10.362716674804688,-9.870590209960938,27.697349548339844,0.6289503574371338,0.2132549285888672,-0.03445720672607422,2.254023790359497,8.912642478942871,-2.8698694705963135
0_20251106_211744,1762435031612,0,0.14593611657619476,0.3689539134502411,0.7022187113761902,0.5911552906036377,0.4456530511379242,3.0956857204437256,0.030117472633719444,2.7333426475524902,9.231237411499023,-2.712798595428467,-0.5103049278259277,0.33131009340286255,0.22931477427482605,9.727043151855469,-10.588264465332031,27.726646423339844,0.3834550380706787,0.25487613677978516,0.1256566047668457,2.3498876094818115,8.976361274719238,-2.8384552001953125
0_20251106_211744,1762435031631,0,0.14305146038532257,0.36680251359939575,0.6996326446533203,0.5962435603141785,0.4708332121372223,3.103214740753174,0.030806908383965492,2.647155284881592,9.170188903808594,-2.2986197471618652,-0.5848304033279419,0.32153627276420593,0.20915624499320984,9.142934799194336,-11.252532958984375,27.758960723876953,0.23781418800354004,0.15506267547607422,0.431868314743042,2.4093410968780518,9.01512622833252,-2.7304880619049072
0_20251106_211744,1762435031652,0,0.14060759544372559,0.3644018769264221,0.6966637372970581,0.6017478108406067,0.4970243275165558,3.111525297164917,0.03427005186676979,2.7297515869140625,9.253982543945312,-1.9023964405059814,-0.6288126707077026,0.34230566024780273,0.2476407289505005,8.657697677612305,-11.908561706542969,27.605968475341797,0.2563283443450928,0.1910848617553711,0.6624734401702881,2.4734232425689697,9.062897682189941,-2.5648698806762695
0_20251106_211744,1762435031669,0,0.13794295489788055,0.3620116412639618,0.6932839155197144,0.6076814532279968,0.5181002616882324,3.1187989711761475,0.03875651955604553,2.89853572845459,9.464662551879883,-1.7348096370697021,-0.6165953874588013,0.34536001086235046,0.27574050426483154,8.22472858428955,-12.498626708984375,27.456260681152344,0.3400900363922119,0.3214120864868164,0.6640481948852539,2.558445692062378,9.143250465393066,-2.398857831954956
0_20251106_211744,1762435031689,0,0.13509710133075714,0.35984766483306885,0.6897640228271484,0.6135829091072083,0.5181002616882324,3.1187989711761475,0.03875651955604553,2.89853572845459,9.464662551879883,-1.7348096370697021,-0.5946042537689209,0.31603848934173584,0.2531385123729706,7.719842433929443,-13.080230712890625,27.236289978027344,0.3400900363922119,0.3214120864868164,0.6640481948852539,2.558445692062378,9.143250465393066,-2.398857831954956
0_20251106_211744,1762435031708,0,0.13250946998596191,0.357776015996933,0.6863327026367188,0.6191809177398682,0.544189989566803,3.1292226314544678,0.04652798920869827,2.9631762504577637,9.706466674804688,-1.6510162353515625,-0.5891064405441284,0.30015599727630615,0.20854538679122925,7.223631381988525,-13.712211608886719,27.110370635986328,0.32378458976745605,0.4505729675292969,0.5982732772827148,2.6393916606903076,9.25589370727539,-2.2492895126342773
0_20251106_211744,1762435031727,0,0.13023966550827026,0.3554825484752655,0.6830412149429321,0.6245994567871094,0.5878128409385681,3.149355411529541,0.0634431317448616,2.909308910369873,9.899190902709961,-1.6917158365249634,-0.5891064405441284,0.30015599727630615,0.20854538679122925,6.729917049407959,-14.317596435546875,26.836299896240234,0.16585206985473633,0.44101428985595703,0.3346298933029175,2.7434568405151367,9.458176612854004,-2.026345729827881
0_20251106_211744,1762435031746,0,0.12802879512310028,0.3531274199485779,0.6798956394195557,0.6298028230667114,0.6099642515182495,3.1620161533355713,0.0723085030913353,2.977540969848633,10.247532844543457,-1.988584041595459,-0.5420699119567871,0.2812192142009735,0.22564959526062012,6.271548748016357,-14.945442199707031,26.53614044189453,0.18726730346679688,0.6314849853515625,0.03020930290222168,2.790273666381836,9.616047859191895,-2.0187933444976807
0_20251106_211744,1762435031764,0,0.12558621168136597,0.3510838747024536,0.6767977476119995,0.6347543001174927,0.6321426033973694,3.176791191101074,0.08060330152511597,3.2037832736968994,10.617420196533203,-2.065195083618164,-0.5420699119567871,0.2812192142009735,0.22564959526062012,5.830188751220703,-15.496337890625,26.15695571899414,0.3308076858520508,0.8010978698730469,-0.03712129592895508,2.8729755878448486,9.816322326660156,-2.028073787689209
0_20251106_211744,1762435031784,0,0.12319592386484146,0.3498164713382721,0.6734049320220947,0.6395131349563599,0.6562800407409668,3.1952462196350098,0.08979690074920654,3.5174102783203125,11.026811599731445,-1.7324155569076538,-0.5762783288955688,0.15110501646995544,0.2879577875137329,5.400013446807861,-16.059402465820312,25.818546295166016,0.5155477523803711,0.9683914184570312,0.23652660846710205,3.0018625259399414,10.058420181274414,-1.9689421653747559
0_20251106_211744,1762435031803,0,0.12137867510318756,0.34906384348869324,0.6696972250938416,0.6441484689712524,0.6785142421722412,3.2142674922943115,0.10010568797588348,3.650282621383667,11.375152587890625,-0.9746832251548767,-0.5799435377120972,0.08940768986940384,0.1908303052186966,4.973263740539551,-16.559814453125,25.494972229003906,0.5187361240386963,1.0533857345581055,0.7954071164131165,3.1315464973449707,10.32176685333252,-1.7700903415679932
0_20251106_211744,1762435031822,0,0.12049997597932816,0.34803202748298645,0.6661605834960938,0.6485241055488586,0.7033714056015015,3.2374277114868164,0.11566141992807388,3.588036060333252,11.335650444030762,-0.23251260817050934,-0.5353503823280334,0.09062941372394562,0.05582921952009201,4.581056594848633,-17.095382690429688,25.15856170654297,0.3651914596557617,0.8111066818237305,1.2300621271133423,3.2228446006774902,10.524543762207031,-1.4625747203826904
0_20251106_211744,1762435031840,0,0.1202835738658905,0.34611088037490845,0.6632377505302429,0.6525755524635315,0.7252523303031921,3.2586934566497803,0.132892444729805,3.477907657623291,11.118985176086426,0.13378451764583588,-0.5353503823280334,0.09062941372394562,0.05582921952009201,4.227930068969727,-17.57874298095703,24.86522674560547,0.20405054092407227,0.4755535125732422,1.2770874500274658,3.2738571166992188,10.643431663513184,-1.1433029174804688
0_20251106_211744,1762435031860,0,0.11995743215084076,0.3433610200881958,0.6611011028289795,0.6562459468841553,0.7487144470214844,3.2822625637054443,0.15481753647327423,3.3941140174865723,11.012447357177734,0.08590254187583923,-0.35086923837661743,0.17553961277008057,-0.0620676726102829,3.839246988296509,-18.051528930664062,24.530136108398438,0.09620547294616699,0.2952117919921875,0.9833643436431885,3.2979085445404053,10.717235565185547,-0.8974618315696716
0_20251106_211744,1762435031880,0,0.11929981410503387,0.34025028347969055,0.6596760749816895,0.6594124436378479,0.7699887156486511,3.303607940673828,0.17699089646339417,3.334261655807495,10.744308471679688,-0.027817144989967346,-0.2537417709827423,0.15538108348846436,-0.08344794064760208,3.552788496017456,-18.430328369140625,24.22785186767578,0.029082536697387695,0.021657943725585938,0.6957157850265503,3.3051791191101074,10.722650527954102,-0.7235329151153564
0_20251106_211744,1762435031900,0,0.11856656521558762,0.3372358977794647,0.6589205861091614,0.6618440747261047,0.7909402251243591,3.324040174484253,0.20077703893184662,3.1989951133728027,10.42230224609375,-0.19300995767116547,-0.1724967360496521,0.10040324926376343,-0.08405879884958267,3.307018756866455,-18.731536865234375,23.942138671875,-0.08494710922241211,-0.2402782440185547,0.4244183897972107,3.283942222595215,10.662580490112305,-0.6174283623695374
0_20251106_211744,1762435031920,0,0.1179266944527626,0.3347034454345703,0.6586180329322815,0.6635429263114929,0.8102583885192871,3.341930627822876,0.22443848848342896,3.0912606716156006,10.162542343139648,-0.26722702383995056,-0.10652334988117218,0.03809504956007004,-0.03946567326784134,3.125209093093872,-18.966659545898438,23.72777557373047,-0.1541452407836914,-0.40003013610839844,0.2801611125469208,3.245405912399292,10.562572479248047,-0.5473881363868713
0_20251106_211744,1762435031937,0,0.11722784489393234,0.3329835534095764,0.6585248112678528,0.6646236777305603,0.8264725208282471,3.356250762939453,0.2452409863471985,3.1223840713500977,10.166133880615234,-0.3151090145111084,-0.06803887337446213,-0.01810450293123722,0.005127446260303259,3.125209093093872,-18.966659545898438,23.72777557373047,-0.09841728210449219,-0.3171510696411133,0.18582332134246826,3.22080135345459,10.483284950256348,-0.5009323358535767
0_20251106_211744,1762435031956,0,0.11648458987474442,0.33195793628692627,0.6584829092025757,0.6653085947036743,0.8415539860725403,3.368847131729126,0.2659502327442169,3.0900635719299316,10.07396125793457,-0.11639879643917084,-0.06803887337446213,-0.01810450293123722,0.005127446260303259,3.014697551727295,-19.234283447265625,23.475017547607422,-0.10459017753601074,-0.32745933532714844,0.3076268434524536,3.1946537494659424,10.401420593261719,-0.42402562499046326
0_20251106_211744,1762435031974,0,0.1159568578004837,0.33105310797691345,0.6586783528327942,0.6656581163406372,0.856222927570343,3.380405902862549,0.28730157017707825,3.0290141105651855,10.010517120361328,-0.21096569299697876,-0.03138699010014534,-0.03520871698856354,-0.016252819448709488,2.9077234268188477,-19.427513122558594,23.31845474243164,-0.13251161575317383,-0.31272315979003906,0.1704479455947876,3.1615257263183594,10.323240280151367,-0.38141363859176636
0_20251106_211744,1762435031993,0,0.11528955399990082,0.3296254575252533,0.6592637300491333,0.6659029126167297,0.8694007396697998,3.3900296688079834,0.3076588809490204,2.8853678703308105,9.82856559753418,-0.3546116352081299,0.03702985867857933,-0.01016326155513525,-0.07672842592000961,2.80599308013916,-19.52082061767578,23.21807098388672,-0.22092628479003906,-0.3957405090332031,0.021441608667373657,3.1062941551208496,10.224306106567383,-0.37605324387550354
0_20251106_211744,1762435032013,0,0.11472710967063904,0.3281937539577484,0.6601213216781616,0.6658576130867004,0.881710410118103,3.398097276687622,0.32744815945625305,2.8207273483276367,9.712451934814453,-0.5628982186317444,0.07368174195289612,-0.04437168687582016,-0.07061977684497833,2.727027177810669,-19.637924194335938,23.145172119140625,-0.2284536361694336,-0.4094839096069336,-0.14947596192359924,3.0491809844970703,10.121935844421387,-0.41342225670814514
0_20251106_211744,1762435032032,0,0.1142117977142334,0.3270324468612671,0.6611924767494202,0.6654546856880188,0.8917628526687622,3.4044618606567383,0.34476324915885925,2.6639139652252197,9.78786563873291,-0.611977219581604,0.07368174195289612,-0.04437168687582016,-0.07061977684497833,2.8014414310455322,-19.619796752929688,23.067279815673828,-0.3082137107849121,-0.2672557830810547,-0.158843994140625,2.972127676010132,10.055121421813965,-0.453133225440979
0_20251106_211744,1762435032051,0,0.11477775126695633,0.32733452320098877,0.6617845296859741,0.6646197438240051,0.9001550674438477,3.409860372543335,0.36079320311546326,2.550194263458252,9.818988800048828,-0.6059920191764832,0.10422497987747192,-0.06636281311511993,-0.030913572758436203,2.8381972312927246,-19.617141723632812,23.041717529296875,-0.33754682540893555,-0.1889057159423828,-0.12228703498840332,2.8877410888671875,10.007894515991211,-0.48370498418807983
0_20251106_211744,1762435032070,0,0.11417096108198166,0.32667016983032227,0.6629037857055664,0.6639353632926941,0.907116174697876,3.414339303970337,0.3751278221607208,2.519071102142334,9.771106719970703,-0.8094903826713562,0.10422497987747192,-0.06636281311511993,-0.030913572758436203,2.909705877304077,-19.63775634765625,23.0711669921875,-0.294935941696167,-0.18943023681640625,-0.260628342628479,2.814007043838501,9.96053695678711,-0.5488620400428772
0_20251106_211744,1762435032090,0,0.11315394192934036,0.3256380259990692,0.6640847325325012,0.6634361743927002,0.907116174697876,3.414339303970337,0.3751278221607208,2.519071102142334,9.771106719970703,-0.8094903826713562,0.10239239037036896,0.00938440952450037,-0.017474547028541565,2.9709455966949463,-19.62176513671875,23.127948760986328,-0.294935941696167,-0.18943023681640625,-0.260628342628479,2.814007043838501,9.96053695678711,-0.5488620400428772
0_20251106_211744,1762435032110,0,0.11199931055307388,0.3245548605918884,0.6652678847312927,0.6629772782325745,0.9185963273048401,3.4202611446380615,0.3986246585845947,2.5442090034484863,9.615490913391113,-1.2392311096191406,0.10239239037036896,0.00938440952450037,-0.017474547028541565,2.9996588230133057,-19.53308868408203,23.211875915527344,-0.17707586288452148,-0.2235107421875,-0.4774603843688965,2.721284866333008,9.839001655578613,-0.7617707252502441
0_20251106_211744,1762435032128,0,0.11097447574138641,0.3236234784126282,0.666413426399231,0.6624542474746704,0.9225266575813293,3.42175030708313,0.40637266635894775,2.498721122741699,9.59394359588623,-1.2607780694961548,0.07123827934265137,-0.022991422563791275,-0.008311578072607517,3.0999794006347656,-19.464889526367188,23.31173324584961,-0.17805099487304688,-0.1960468292236328,-0.39920586347579956,2.676772117614746,9.789990425109863,-0.8615722060203552
0_20251106_211744,1762435032147,0,0.1100664958357811,0.3228326141834259,0.6673766374588013,0.662021815776825,0.9261468648910522,3.4227123260498047,0.41278746724128723,2.5597708225250244,9.596338272094727,-1.3553448915481567,0.0590209923684597,-0.016882773488759995,-0.0022029299288988113,3.176830768585205,-19.385452270507812,23.38384246826172,-0.09360098838806152,-0.1549215316772461,-0.3950181007385254,2.653371810913086,9.751259803771973,-0.9603267908096313
0_20251106_211744,1762435032166,0,0.10913320630788803,0.3220296800136566,0.6682497262954712,0.6616865992546082,0.9261468648910522,3.4227123260498047,0.41278746724128723,2.5597708225250244,9.596338272094727,-1.3553448915481567,0.04741455614566803,-0.02848920412361622,0.0014622583985328674,3.2678709030151367,-19.27930450439453,23.375869750976562,-0.09360098838806152,-0.1549215316772461,-0.3950181007385254,2.653371810913086,9.751259803771973,-0.9603267908096313
0_20251106_211744,1762435032184,0,0.10830429941415787,0.3213549852371216,0.6690182685852051,0.6613740921020508,0.9321035146713257,3.4235808849334717,0.4226265251636505,2.5896968841552734,9.761530876159668,-1.0189740657806396,0.04741455614566803,-0.02848920412361622,0.0014622583985328674,3.2824809551239014,-19.22882080078125,23.431480407714844,-0.03692150115966797,0.034728050231933594,0.002303481101989746,2.6266183853149414,9.726802825927734,-1.0212775468826294
0_20251106_211744,1762435032205,0,0.10751242190599442,0.32099485397338867,0.6693403720855713,0.6613523364067078,0.9357796311378479,3.424417734146118,0.42905330657958984,2.8123483657836914,9.822580337524414,-0.6419034600257874,-0.03199785575270653,-0.04498255252838135,0.04972057044506073,3.299403429031372,-19.140396118164062,23.46084976196289,0.14858388900756836,0.07662200927734375,0.3034992814064026,2.663764476776123,9.74595832824707,-0.9454027414321899
0_20251106_211744,1762435032223,0,0.10674326866865158,0.32061848044395447,0.6693904995918274,0.6616086959838867,0.9393658638000488,3.4254086017608643,0.4351871609687805,2.9045209884643555,9.871659278869629,-0.5796568989753723,-0.03199785575270653,-0.04498255252838135,0.04972057044506073,3.3282153606414795,-19.05158233642578,23.53125762939453,0.19260501861572266,0.10056114196777344,0.292596697807312,2.711915969848633,9.771098136901855,-0.8722535967826843
0_20251106_211744,1762435032242,0,0.1060243472456932,0.3198181688785553,0.6697309613227844,0.6617670059204102,0.9429051280021667,3.4260287284851074,0.4416404962539673,2.7656631469726562,9.640628814697266,-0.6179624795913696,0.06024272367358208,-0.016271909698843956,-0.08528053015470505,3.292658805847168,-19.041000366210938,23.489501953125,0.04299783706665039,-0.10437583923339844,0.20343291759490967,2.722665309906006,9.745004653930664,-0.8213953971862793
0_20251106_211744,1762435032261,0,0.10557300597429276,0.3184678554534912,0.6707267761230469,0.6614817976951599,0.9460439682006836,3.4258530139923096,0.4481864869594574,2.5262532234191895,9.471844673156738,-0.9088455438613892,0.06024272367358208,-0.016271909698843956,-0.08528053015470505,3.267186403274536,-19.055686950683594,23.542320251464844,-0.15712976455688477,-0.21852779388427734,-0.06996011734008789,2.683382987976074,9.690372467041016,-0.8388854265213013
0_20251106_211744,1762435032281,0,0.10517459362745285,0.3165586292743683,0.6718896627426147,0.6612814664840698,0.9460439682006836,3.4258530139923096,0.4481864869594574,2.5262532234191895,9.471844673156738,-0.9088455438613892,0.05718839541077614,0.025266891345381737,-0.13170626759529114,3.296591281890869,-18.966064453125,23.531631469726562,-0.15712976455688477,-0.21852779388427734,-0.06996011734008789,2.683382987976074,9.690372467041016,-0.8388854265213013
0_20251106_211744,1762435032299,0,0.10482694953680038,0.31431227922439575,0.6728955507278442,0.6613854169845581,0.9486787915229797,3.4225351810455322,0.4580036699771881,2.2569172382354736,9.301864624023438,-1.108752727508545,0.010762674733996391,0.051534075289964676,-0.14575615525245667,3.3361666202545166,-18.913185119628906,23.507125854492188,-0.2840464115142822,-0.24902820587158203,-0.18229150772094727,2.540963649749756,9.55089282989502,-0.9264612197875977
0_20251106_211744,1762435032320,0,0.10448219627141953,0.31250059604644775,0.6735883355140686,0.6615931987762451,0.948363184928894,3.419487237930298,0.4624485373497009,2.1982617378234863,9.279119491577148,-0.9950330853462219,0.002821432426571846,-0.015050179325044155,-0.033357031643390656,3.3363773822784424,-18.90130615234375,23.574970245361328,-0.27416133880615234,-0.21741867065429688,-0.054857492446899414,2.4724230766296387,9.496538162231445,-0.9401755928993225
0_20251106_211744,1762435032339,0,0.10401872545480728,0.3114916682243347,0.6741256713867188,0.6615947484970093,0.947372555732727,3.41619873046875,0.46615463495254517,2.2102322578430176,9.252785682678223,-0.9818655252456665,0.045581966638565063,-0.04192822799086571,0.04483365640044212,3.3470678329467773,-18.914146423339844,23.683326721191406,-0.20975279808044434,-0.19500160217285156,-0.03335195779800415,2.419985055923462,9.447787284851074,-0.9485135674476624
0_20251106_211744,1762435032358,0,0.10304790735244751,0.31110620498657227,0.6746931076049805,0.6613495945930481,0.9462205171585083,3.412519931793213,0.46958720684051514,2.343104839324951,9.245603561401367,-0.9806684851646423,0.0694056898355484,-0.04192822799086571,0.09797888249158859,3.420987606048584,-18.896690368652344,23.673015594482422,-0.06150412559509277,-0.16174697875976562,-0.025723934173583984,2.404608964920044,9.407350540161133,-0.9549445509910583
0_20251106_211744,1762435032377,0,0.10165222734212875,0.311064749956131,0.6752582788467407,0.6610081791877747,0.9453328847885132,3.4091408252716064,0.4725424349308014,2.4652037620544434,9.37967300415039,-1.0093977451324463,0.04924715310335159,-0.03826304152607918,0.11874828487634659,3.420987606048584,-18.896690368652344,23.673015594482422,0.04847574234008789,-0.022141456604003906,-0.04356253147125244,2.4167280197143555,9.401814460754395,-0.9658352136611938
0_20251106_211744,1762435032395,0,0.10038155317306519,0.3107394874095917,0.6757648587226868,0.6608376502990723,0.9446151852607727,3.4056522846221924,0.4752615690231323,2.4795684814453125,9.365306854248047,-1.0548856258392334,0.032142940908670425,-0.011995856650173664,0.09553542733192444,3.3972086906433105,-18.89746856689453,23.590938568115234,0.050272464752197266,-0.029206275939941406,-0.07124030590057373,2.4292960166931152,9.394513130187988,-0.9836453199386597
0_20251106_211744,1762435032415,0,0.09909209609031677,0.31020259857177734,0.6762090921401978,0.660830020904541,0.9446151852607727,3.4056522846221924,0.4752615690231323,2.4795684814453125,9.365306854248047,-1.0548856258392334,0.015649594366550446,0.01793651469051838,0.06926824152469635,3.425414562225342,-18.821075439453125,23.647567749023438,0.050272464752197266,-0.029206275939941406,-0.07124030590057373,2.4292960166931152,9.394513130187988,-0.9836453199386597
0_20251106_211744,1762435032434,0,0.09776463359594345,0.3092876970767975,0.6767119765281677,0.6609417796134949,0.9440634846687317,3.401526927947998,0.47756344079971313,2.4939332008361816,9.316228866577148,-1.17099928855896,-0.020391426980495453,0.038705915212631226,0.08148553222417831,3.4031572341918945,-18.784996032714844,23.647377014160156,0.051709651947021484,-0.06262779235839844,-0.14988315105438232,2.44222354888916,9.378856658935547,-1.0211161375045776
0_20251106_211744,1762435032453,0,0.09633249044418335,0.3084125816822052,0.6770661473274231,0.6611982583999634,0.9436067342758179,3.3955724239349365,0.47973957657814026,2.583711624145508,9.48142147064209,-1.1482553482055664,-0.06009763479232788,0.03381899744272232,0.11935915052890778,3.4026498794555664,-18.797286987304688,23.620079040527344,0.11027979850769043,0.08421897888183594,-0.06738758087158203,2.4734318256378174,9.397202491760254,-1.0808677673339844
0_20251106_211744,1762435032473,0,0.09573515504598618,0.30862826108932495,0.6767489910125732,0.6615089774131775,0.9443400502204895,3.393082857131958,0.4806770086288452,2.735736846923828,9.567608833312988,-1.1147379875183105,-0.06009763479232788,0.03381899744272232,0.11935915052890778,3.3375895023345947,-18.87646484375,23.602527618408203,0.20984411239624023,0.13632488250732422,-0.027096152305603027,2.525892734527588,9.431283950805664,-1.0876418352127075
0_20251106_211744,1762435032492,0,0.0942671000957489,0.3086759150028229,0.6764394044876099,0.6620140671730042,0.9462350010871887,3.3916015625,0.48216933012008667,2.9200825691223145,9.722028732299805,-0.8896927237510681,-0.03749563917517662,-0.04070650041103363,0.20243674516677856,3.314120054244995,-18.86522674560547,23.574779510498047,0.3153517246246338,0.23259544372558594,0.1583593487739563,2.6047308444976807,9.489433288574219,-1.0480520725250244
0_20251106_211744,1762435032510,0,0.09270945936441422,0.3093124032020569,0.6760532259941101,0.6623313426971436,0.9489972591400146,3.391226291656494,0.48397374153137207,3.068516731262207,9.851309776306152,-0.8334313631057739,-0.015504508279263973,-0.04070649668574333,0.1902194321155548,3.229311943054199,-18.87010955810547,23.503765106201172,0.3710286617279053,0.2895011901855469,0.17169654369354248,2.6974880695343018,9.561808586120605,-1.0051279067993164
0_20251106_211744,1762435032530,0,0.09100376069545746,0.3097982704639435,0.6755802035331726,0.6628232598304749,0.9533829689025879,3.3918302059173584,0.48599278926849365,3.181039333343506,9.890811920166016,-0.9675009846687317,-0.015504508279263973,-0.04070649668574333,0.1902194321155548,3.142303466796875,-18.90118408203125,23.54035186767578,0.3868410587310791,0.2632026672363281,0.03010159730911255,2.7941982746124268,9.627609252929688,-0.9976025819778442
0_20251106_211744,1762435032549,0,0.08949603140354156,0.30974453687667847,0.6753825545310974,0.663254976272583,0.9583235383033752,3.3929595947265625,0.48759540915489197,3.1523098945617676,9.840536117553711,-1.0776294469833374,-0.016115373000502586,-0.03093266300857067,0.03689241036772728,3.0923471450805664,-18.92920684814453,23.51082992553711,0.28648924827575684,0.17034149169921875,-0.06402146816253662,2.8658206462860107,9.670194625854492,-1.0136079788208008
0_20251106_211744,1762435032567,0,0.08861520886421204,0.3095250725746155,0.6752921342849731,0.6635676622390747,0.9631955027580261,3.393979787826538,0.4894961714744568,3.038590431213379,9.671751022338867,-0.8274461627006531,-0.06131936237215996,-0.035819582641124725,-0.026637516915798187,3.061730146408081,-19.043670654296875,23.49395751953125,0.1382157802581787,0.0012445449829101562,0.1489294171333313,2.9003746509552,9.670506477355957,-0.9763755798339844
0_20251106_211744,1762435032586,0,0.08841710537672043,0.3090609610080719,0.6751787066459656,0.66392582654953,0.9681219458580017,3.394484043121338,0.492024302482605,2.9152941703796387,9.48142147064209,-0.7496379017829895,-0.07598011195659637,-0.0058872089721262455,-0.05840248614549637,3.0465140342712402,-19.10657501220703,23.424564361572266,0.01193547248840332,-0.15126800537109375,0.18139010667800903,2.9033586978912354,9.632689476013184,-0.9310280084609985
0_20251106_211744,1762435032606,0,0.08820171654224396,0.3078658878803253,0.6749731302261353,0.6647182106971741,0.9681219458580017,3.394484043121338,0.492024302482605,2.9152941703796387,9.48142147064209,-0.7496379017829895,-0.0387173667550087,0.005719220731407404,-0.046796053647994995,2.92244029045105,-19.152320861816406,23.432384490966797,0.01193547248840332,-0.15126800537109375,0.18139010667800903,2.9033586978912354,9.632689476013184,-0.9310280084609985
0_20251106_211744,1762435032625,0,0.08774043619632721,0.30656442046165466,0.6749901175498962,0.6653631925582886,0.9729464650154114,3.3940155506134033,0.49478116631507874,2.7417221069335938,9.354534149169922,-0.9375747442245483,-0.015504508279263973,-0.00283288536593318,-0.008922441862523556,2.8744008541107178,-19.1429443359375,23.430686950683594,-0.12930917739868164,-0.22252368927001953,-0.0052373409271240234,2.8710312843322754,9.577057838439941,-0.9323374032974243
0_20251106_211744,1762435032644,0,0.08710166066884995,0.3055029511451721,0.6753341555595398,0.6655862331390381,0.9791218638420105,3.3921594619750977,0.4973454475402832,2.735736846923828,9.493391036987305,-1.2188812494277954,-0.05154552683234215,-0.03765217587351799,0.03017289936542511,2.847604751586914,-19.19422149658203,23.374584197998047,-0.08409857749938965,-0.03171253204345703,-0.1958373785018921,2.8198354244232178,9.525103569030762,-1.0230438709259033
0_20251106_211744,1762435032663,0,0.08668346703052521,0.305107057094574,0.6754644513130188,0.6656901836395264,0.9791218638420105,3.3921594619750977,0.4973454475402832,2.735736846923828,9.493391036987305,-1.2188812494277954,-0.09430605173110962,-0.05353465676307678,0.044833652675151825,2.885671377182007,-19.166587829589844,23.363067626953125,-0.08409857749938965,-0.03171253204345703,-0.1958373785018921,2.8198354244232178,9.525103569030762,-1.0230438709259033
0_20251106_211744,1762435032681,0,0.08647695928812027,0.3049330413341522,0.6753281354904175,0.6659350395202637,0.9845391511917114,3.390827178955078,0.49996161460876465,2.8243184089660645,9.641826629638672,-0.7987169027328491,-0.10224729776382446,-0.04314995929598808,0.044222790747880936,2.8703432083129883,-19.241241455078125,23.21231460571289,0.015126705169677734,0.08389568328857422,0.17383068799972534,2.8091917037963867,9.557930946350098,-0.9725475907325745
0_20251106_211744,1762435032700,0,0.08611860871315002,0.3043873608112335,0.6750003099441528,0.6665632128715515,0.9871684312820435,3.390268564224243,0.5020146369934082,2.847062587738037,9.528106689453125,-0.7687907218933105,-0.06620627641677856,-0.038873907178640366,0.01734474115073681,2.8684263229370117,-19.278640747070312,23.184490203857422,0.030296802520751953,-0.023859024047851562,0.16300547122955322,2.816765785217285,9.551965713500977,-0.9317961931228638
0_20251106_211744,1762435032720,0,0.08580995351076126,0.3037036061286926,0.6747384071350098,0.6671797633171082,0.9895227551460266,3.389383316040039,0.5042611360549927,2.7644662857055664,9.422765731811523,-0.8238550424575806,-0.046047743409872055,-0.016271909698843956,-0.012587630189955235,2.846254825592041,-19.25403594970703,23.075908660888672,-0.041839599609375,-0.10336017608642578,0.08635294437408447,2.8063058853149414,9.52612590789795,-0.910207986831665
0_20251106_211744,1762435032739,0,0.08543004840612411,0.3027772605419159,0.6746654510498047,0.6677231192588806,0.9895227551460266,3.389383316040039,0.5042611360549927,2.7644662857055664,9.422765731811523,-0.8238550424575806,-0.08697567880153656,0.01732565090060234,0.00024052895605564117,2.8241820335388184,-19.229293823242188,22.953807830810547,-0.041839599609375,-0.10336017608642578,0.08635294437408447,2.8063058853149414,9.52612590789795,-0.910207986831665
0_20251106_211744,1762435032759,0,0.08489929884672165,0.30166614055633545,0.6744382381439209,0.668522834777832,0.9924201965332031,3.387913703918457,0.5080323219299316,2.6232142448425293,9.626264572143555,-0.9016631841659546,-0.12423843145370483,0.016103921458125114,0.027729440480470657,2.761928081512451,-19.269859313964844,22.84243392944336,-0.11277341842651367,0.08056068420410156,0.024812936782836914,2.735987663269043,9.545703887939453,-0.9264761209487915
0_20251106_211744,1762435032778,0,0.08447212725877762,0.30057719349861145,0.6742212176322937,0.6692858338356018,0.9932347536087036,3.387850761413574,0.5100954174995422,2.641170024871826,9.706466674804688,-0.7939287424087524,-0.12423843145370483,0.016103921458125114,0.027729440480470657,2.737147808074951,-19.283599853515625,22.800640106201172,-0.07585406303405762,0.12861061096191406,0.1060379147529602,2.717024087905884,9.577856063842773,-0.8999666571617126
