session_id,timestamp,label,quaternion_w,quaternion_x,quaternion_y,quaternion_z,position_x,position_y,position_z,accelerometer_x,accelerometer_y,accelerometer_z,gyroscope_x,gyroscope_y,gyroscope_z,magnetometer_x,magnetometer_y,magnetometer_z,linear_acceleration_x,linear_acceleration_y,linear_acceleration_z,gravity_x,gravity_y,gravity_z
6_20251106_215357,1762437200031,6,0.3598371148109436,0.4429014027118683,0.6707975268363953,0.4736942946910858,-0.3697352409362793,3.2284014225006104,0.45760616660118103,-0.27244818210601807,9.896797180175781,-2.663719654083252,-0.045509420335292816,0.005196168553084135,0.0668095126748085,29.772092819213867,-16.59107208251953,17.93874740600586,0.18104812502861023,0.13537311553955078,0.22896957397460938,-0.4534963071346283,9.76142406463623,-2.8926892280578613
6_20251106_215357,1762437200049,6,0.35951319336891174,0.4429361820220947,0.6703965067863464,0.47447481751441956,-0.3697352409362793,3.2284014225006104,0.45760616660118103,-0.27244818210601807,9.896797180175781,-2.663719654083252,-0.045509420335292816,0.005196168553084135,0.0668095126748085,29.713777542114258,-16.76964569091797,17.892539978027344,0.18104812502861023,0.13537311553955078,0.22896957397460938,-0.4534963071346283,9.76142406463623,-2.8926892280578613
6_20251106_215357,1762437200067,6,0.359406977891922,0.44307732582092285,0.6700255870819092,0.47494715452194214,-0.3715987205505371,3.245790719985962,0.4561346173286438,-0.4615819752216339,9.659781455993652,-2.470994710922241,-0.0308486670255661,-0.021681876853108406,0.049705296754837036,29.65767478942871,-16.910415649414062,17.83361053466797,-0.01072913408279419,-0.088226318359375,0.2878882884979248,-0.4508528411388397,9.748007774353027,-2.758882999420166
6_20251106_215357,1762437200086,6,0.35911282896995544,0.44329920411109924,0.6697183847427368,0.47539567947387695,-0.3722979724407196,3.2538042068481445,0.45651572942733765,-0.36821213364601135,9.627461433410645,-2.523664951324463,0.00824667513370514,0.003974439110606909,0.08941150456666946,29.54014778137207,-17.055824279785156,17.83980941772461,0.06611257791519165,-0.0964365005493164,0.18817424774169922,-0.434324711561203,9.723897933959961,-2.711839199066162
6_20251106_215357,1762437200105,6,0.3584713339805603,0.44356733560562134,0.6695200204849243,0.47590887546539307,-0.3720090687274933,3.261730432510376,0.45679959654808044,-0.08690552413463593,9.838142395019531,-2.740330934524536,0.0204639695584774,-0.019238417968153954,0.10468312352895737,29.495922088623047,-17.20781707763672,17.727039337158203,0.27793532609939575,0.09139537811279297,-0.022793292999267578,-0.36484086513519287,9.746747016906738,-2.7175376415252686
6_20251106_215357,1762437200125,6,0.35784459114074707,0.4441039562225342,0.6692278981208801,0.47629085183143616,-0.37065351009368896,3.269517660140991,0.45715126395225525,0.029208257794380188,9.840536117553711,-2.6876606941223145,0.05772671848535538,-0.09437477588653564,0.07108556479215622,29.44053840637207,-17.324417114257812,17.76325225830078,0.3152393102645874,0.07503128051757812,0.02390146255493164,-0.2860310673713684,9.765504837036133,-2.711562156677246
6_20251106_215357,1762437200143,6,0.3577004671096802,0.4450409412384033,0.6689190864562988,0.4759582281112671,-0.3686157763004303,3.277045965194702,0.45739656686782837,-0.012688472867012024,9.813003540039062,-2.743922233581543,0.09376773983240128,-0.11025726795196533,0.022827252745628357,29.426843643188477,-17.3504638671875,17.77574920654297,0.21867407858371735,0.03799915313720703,-0.02588796615600586,-0.23136255145072937,9.775004386901855,-2.718034267425537
6_20251106_215357,1762437200162,6,0.3576827049255371,0.44583046436309814,0.6689352989196777,0.47520923614501953,-0.3661785125732422,3.284193754196167,0.45702651143074036,-0.04859994351863861,9.7735013961792,-2.9378440380096436,0.0980437844991684,-0.08582267165184021,-0.016268091276288033,29.43389892578125,-17.437835693359375,17.80142593383789,0.14621008932590485,-0.0012025833129882812,-0.17584776878356934,-0.19481003284454346,9.774703979492188,-2.761996269226074
6_20251106_215357,1762437200181,6,0.35769644379615784,0.44631102681159973,0.6692031025886536,0.4743700325489044,-0.3661785125732422,3.284193754196167,0.45702651143074036,-0.04859994351863861,9.7735013961792,-2.9378440380096436,0.07116574048995972,-0.06199895218014717,-0.04864392429590225,29.43601417541504,-17.400161743164062,17.80221939086914,0.14621008932590485,-0.0012025833129882812,-0.17584776878356934,-0.19481003284454346,9.774703979492188,-2.761996269226074
6_20251106_215357,1762437200201,6,0.35780420899391174,0.44639962911605835,0.6695905327796936,0.4736582040786743,-0.3606392443180084,3.2969212532043457,0.45427122712135315,-0.15034914016723633,9.739983558654785,-2.967770576477051,0.020463967695832253,-0.05283597856760025,-0.10667607933282852,29.47296714782715,-17.397239685058594,17.74962615966797,0.008919134736061096,-0.013985633850097656,-0.1175224781036377,-0.15926827490329742,9.753969192504883,-2.850248098373413
6_20251106_215357,1762437200222,6,0.3583407700061798,0.44596031308174133,0.6700116395950317,0.47307053208351135,-0.3586548864841461,3.302874803543091,0.4530756175518036,-0.4292616546154022,9.530500411987305,-2.713995933532715,0.013133592903614044,-0.038175225257873535,-0.185477614402771,29.526731491088867,-17.317642211914062,17.645042419433594,-0.2159947007894516,-0.17877483367919922,0.10900187492370605,-0.21326695382595062,9.709275245666504,-2.822997808456421
6_20251106_215357,1762437200239,6,0.3592083156108856,0.4449217617511749,0.6707670092582703,0.4723193943500519,-0.35848501324653625,3.306360960006714,0.452484667301178,-0.7991499304771423,9.306652069091797,-2.6924490928649902,0.04367683082818985,-0.018627554178237915,-0.21846431493759155,29.665006637573242,-17.233558654785156,17.652019500732422,-0.4687063694000244,-0.3220987319946289,0.10443902015686035,-0.3304435610771179,9.628750801086426,-2.7968881130218506
6_20251106_215357,1762437200260,6,0.3600124716758728,0.4436105489730835,0.6718807220458984,0.4713565409183502,-0.3608074486255646,3.3086864948272705,0.451744019985199,-1.0828505754470825,9.101957321166992,-2.8109569549560547,0.07238747179508209,-0.008242855779826641,-0.17753636837005615,29.707401275634766,-17.130447387695312,17.628570556640625,-0.6019256114959717,-0.4214344024658203,-0.011255264282226562,-0.48092496395111084,9.523391723632812,-2.799701690673828
6_20251106_215357,1762437200279,6,0.3605601489543915,0.44210588932037354,0.6731090545654297,0.4705985486507416,-0.3608074486255646,3.3086864948272705,0.451744019985199,-1.0828505754470825,9.101957321166992,-2.8109569549560547,0.07849611341953278,0.0015309801092371345,-0.08773926645517349,29.765295028686523,-16.97563934326172,17.539085388183594,-0.6019256114959717,-0.4214344024658203,-0.011255264282226562,-0.48092496395111084,9.523391723632812,-2.799701690673828
6_20251106_215357,1762437200296,6,0.360861212015152,0.4411243796348572,0.6742234230041504,0.4696926772594452,-0.36922770738601685,3.3091371059417725,0.44929245114326477,-1.131929636001587,9.057665824890137,-2.976149559020996,0.06933315098285675,-0.01679496094584465,-0.009548578411340714,29.765295028686523,-16.97563934326172,17.539085388183594,-0.4093649387359619,-0.29691600799560547,-0.11120271682739258,-0.722564697265625,9.354581832885742,-2.8649468421936035
6_20251106_215357,1762437200316,6,0.36102229356765747,0.4408702552318573,0.6749888062477112,0.46870720386505127,-0.37508687376976013,3.30806565284729,0.4475257098674774,-1.0086334943771362,9.086395263671875,-2.9725584983825684,0.07605266571044922,-0.037564363330602646,0.022827252745628357,29.83196258544922,-16.871078491210938,17.530132293701172,-0.22885507345199585,-0.21454906463623047,-0.0860891342163086,-0.7797784209251404,9.300944328308105,-2.8864693641662598
6_20251106_215357,1762437200335,6,0.3610820472240448,0.4409421980381012,0.6755406260490417,0.4677976369857788,-0.37508687376976013,3.30806565284729,0.4475257098674774,-1.0086334943771362,9.086395263671875,-2.9725584983825684,0.09193514287471771,-0.07543797791004181,0.017329469323158264,29.910308837890625,-16.77800750732422,17.494373321533203,-0.22885507345199585,-0.21454906463623047,-0.0860891342163086,-0.7797784209251404,9.300944328308105,-2.8864693641662598
6_20251106_215357,1762437200355,6,0.3612450659275055,0.4413425326347351,0.6759305596351624,0.46672970056533813,-0.38115593791007996,3.3065593242645264,0.4453745484352112,-0.945189893245697,9.140262603759766,-3.041987419128418,0.07849611341953278,-0.0809357613325119,-0.01443549431860447,29.913436889648438,-16.71575927734375,17.549758911132812,-0.13232916593551636,-0.12854480743408203,-0.12441444396972656,-0.8128607273101807,9.268807411193848,-2.9175729751586914
6_20251106_215357,1762437200372,6,0.36149469017982483,0.44156378507614136,0.6763852834701538,0.4656672179698944,-0.39359238743782043,3.3025965690612793,0.4419232904911041,-1.2612110376358032,8.964296340942383,-2.8277153968811035,0.054672397673130035,-0.01374063827097416,-0.029096247628331184,29.9427433013916,-16.62627410888672,17.552589416503906,-0.3129919767379761,-0.21614742279052734,0.0728311538696289,-0.9482190608978271,9.18044376373291,-2.9005465507507324
6_20251106_215357,1762437200392,6,0.3617855906486511,0.4412125051021576,0.6769519448280334,0.4649502635002136,-0.4016566872596741,3.2995638847351074,0.44036346673965454,-1.334230899810791,8.967886924743652,-2.870809316635132,0.054672397673130035,-0.01374063827097416,-0.029096247628331184,29.978004455566406,-16.63726043701172,17.63489532470703,-0.3088095188140869,-0.1700458526611328,0.023789644241333008,-1.025421380996704,9.137932777404785,-2.894598960876465
6_20251106_215357,1762437200411,6,0.36126822233200073,0.4407535791397095,0.6775021553039551,0.4649864137172699,-0.4093061685562134,3.296475410461426,0.43914440274238586,-1.3318369388580322,8.936763763427734,-2.8480653762817383,0.02779434621334076,0.09499327838420868,0.006944769527763128,29.931461334228516,-16.614242553710938,17.52532958984375,-0.2451324462890625,-0.1609354019165039,0.03722691535949707,-1.0867044925689697,9.097699165344238,-2.8852922916412354
6_20251106_215357,1762437200431,6,0.36046677827835083,0.4401939809322357,0.678096354007721,0.46527227759361267,-0.4187623858451843,3.2922401428222656,0.43798625469207764,-1.3785218000411987,8.855363845825195,-2.8277153968811035,0.03207039833068848,0.10110193490982056,0.008166499435901642,29.910329818725586,-16.541839599609375,17.661094665527344,-0.2334538698196411,-0.19386863708496094,0.04606151580810547,-1.1450679302215576,9.049232482910156,-2.873776912689209
6_20251106_215357,1762437200450,6,0.3596603274345398,0.43970787525177,0.6786702275276184,0.4655192196369171,-0.42805951833724976,3.2880022525787354,0.4371335804462433,-1.57124662399292,8.831422805786133,-2.821730375289917,0.03695731610059738,0.09193895757198334,-0.012602901086211205,29.934825897216797,-16.516891479492188,17.838314056396484,-0.34094297885894775,-0.17424774169921875,0.04163718223571777,-1.2303036451339722,9.005670547485352,-2.8633675575256348
6_20251106_215357,1762437200469,6,0.3588532507419586,0.438931941986084,0.6794572472572327,0.46572622656822205,-0.42805951833724976,3.2880022525787354,0.4371335804462433,-1.57124662399292,8.831422805786133,-2.821730375289917,0.02779434621334076,0.1041562557220459,-0.016878953203558922,29.888011932373047,-16.471054077148438,17.95905303955078,-0.34094297885894775,-0.17424774169921875,0.04163718223571777,-1.2303036451339722,9.005670547485352,-2.8633675575256348
6_20251106_215357,1762437200488,6,0.3580690920352936,0.43803533911705017,0.6802642941474915,0.46599575877189636,-0.45042723417282104,3.277104616165161,0.4378243386745453,-2.05605149269104,8.467519760131836,-2.4195218086242676,0.018631374463438988,0.16829705238342285,-0.00588338915258646,29.85468101501465,-16.411056518554688,17.99945068359375,-0.5648689270019531,-0.3767843246459961,0.3171956539154053,-1.491182565689087,8.844304084777832,-2.736717462539673
6_20251106_215357,1762437200507,6,0.35690370202064514,0.436823308467865,0.6812198758125305,0.46663111448287964,-0.4630233347415924,3.270369529724121,0.43962961435317993,-2.27630877494812,8.283174514770508,-2.3273489475250244,0.000916297547519207,0.2837504744529724,0.008166499435901642,29.930221557617188,-16.356597900390625,18.057514190673828,-0.6281009912490845,-0.44890403747558594,0.32749485969543457,-1.6482077836990356,8.732078552246094,-2.654843807220459
6_20251106_215357,1762437200526,6,0.3551207184791565,0.4351775050163269,0.6823680400848389,0.4678500294685364,-0.47758129239082336,3.262009620666504,0.44196730852127075,-2.3505258560180664,8.146711349487305,-2.462615489959717,-0.038789909332990646,0.437688410282135,0.05398135632276535,29.891376495361328,-16.373695373535156,18.27204132080078,-0.5618544816970825,-0.4682941436767578,0.15378284454345703,-1.7886713743209839,8.615005493164062,-2.616398334503174
6_20251106_215357,1762437200545,6,0.3522966206073761,0.43290942907333374,0.6837134957313538,0.47011950612068176,-0.47758129239082336,3.262009620666504,0.44196730852127075,-2.3505258560180664,8.146711349487305,-2.462615489959717,-0.06444622576236725,0.5219877362251282,0.13705895841121674,29.760570526123047,-16.308441162109375,18.403392791748047,-0.5618544816970825,-0.4682941436767578,0.15378284454345703,-1.7886713743209839,8.615005493164062,-2.616398334503174
6_20251106_215357,1762437200563,6,0.3486129343509674,0.4306608736515045,0.6849287748336792,0.4731519818305969,-0.4950673282146454,3.251192331314087,0.4439551830291748,-2.1889243125915527,8.174243927001953,-2.775045394897461,-0.0827721655368805,0.4896118938922882,0.1999780237674713,29.62575912475586,-16.295028686523438,18.695884704589844,-0.3202023506164551,-0.35260963439941406,-0.12691760063171387,-1.8687219619750977,8.526853561401367,-2.648127794265747
6_20251106_215357,1762437200583,6,0.34491321444511414,0.42900407314300537,0.6856627464294434,0.47629502415657043,-0.522509753704071,3.2318003177642822,0.4466842710971832,-1.9914109706878662,7.96475887298584,-2.4638123512268066,-0.09987637400627136,0.4291362762451172,0.22258001565933228,29.58811378479004,-16.29889678955078,18.843093872070312,-0.07449889183044434,-0.38981056213378906,0.17484569549560547,-1.9169120788574219,8.354569435119629,-2.638658046722412
6_20251106_215357,1762437200602,6,0.3415168821811676,0.4276922345161438,0.686029851436615,0.47938355803489685,-0.5357210040092468,3.2210421562194824,0.4494978189468384,-2.0787954330444336,7.8677978515625,-2.115471124649048,-0.11575885862112045,0.49694228172302246,0.2683948874473572,29.42880630493164,-16.31043243408203,18.95836639404297,-0.12950670719146729,-0.3894176483154297,0.4185495376586914,-1.9492887258529663,8.25721549987793,-2.5340206623077393
6_20251106_215357,1762437200620,6,0.3375537395477295,0.42627206444740295,0.6863163113594055,0.48303160071372986,-0.5481386780738831,3.209681749343872,0.4527285695075989,-1.6466609239578247,8.048553466796875,-2.3848071098327637,-0.10598503053188324,0.6496584415435791,0.4064503312110901,29.202743530273438,-16.415054321289062,19.190982818603516,0.2421022653579712,-0.1669292449951172,0.11937093734741211,-1.888763189315796,8.215482711791992,-2.504178047180176
6_20251106_215357,1762437200641,6,0.3319508135318756,0.42500966787338257,0.6865348219871521,0.4876939356327057,-0.5581209063529968,3.198603391647339,0.4555216133594513,-1.0876388549804688,8.308313369750977,-2.648158073425293,-0.11942404508590698,0.6881429553031921,0.49685829877853394,28.924129486083984,-16.574432373046875,19.555744171142578,0.6408994197845459,0.0742645263671875,-0.11518406867980957,-1.7285382747650146,8.234048843383789,-2.5329740047454834
6_20251106_215357,1762437200660,6,0.32559898495674133,0.4241209328174591,0.6864294409751892,0.4928705096244812,-0.5647095441818237,3.18789005279541,0.4584362208843231,-0.7764059901237488,8.171850204467773,-2.447053909301758,-0.11942404508590698,0.6881429553031921,0.49685829877853394,28.63180923461914,-16.771469116210938,19.83812713623047,0.7617058157920837,-0.0497589111328125,0.06873607635498047,-1.5381118059158325,8.221609115600586,-2.5157899856567383
6_20251106_215357,1762437200680,6,0.3198953866958618,0.423260897397995,0.686006486415863,0.4979078769683838,-0.5647095441818237,3.18789005279541,0.4584362208843231,-0.7764059901237488,8.171850204467773,-2.447053909301758,-0.18356485664844513,0.602621853351593,0.32703790068626404,28.63180923461914,-16.771469116210938,19.83812713623047,0.7617058157920837,-0.0497589111328125,0.06873607635498047,-1.5381118059158325,8.221609115600586,-2.5157899856567383
6_20251106_215357,1762437200702,6,0.315107524394989,0.4216654300689697,0.6858062744140625,0.5025686621665955,-0.5741167664527893,3.167462110519409,0.4682817757129669,-1.469497561454773,8.010247230529785,-1.9766135215759277,-0.14813469350337982,0.7535054087638855,0.28488820791244507,27.977388381958008,-17.096176147460938,20.523178100585938,-0.021589279174804688,-0.18296146392822266,0.35790538787841797,-1.4479082822799683,8.193208694458008,-2.3345189094543457
6_20251106_215357,1762437200718,6,0.3093310594558716,0.4188802242279053,0.6864615678787231,0.5075669288635254,-0.5774107575416565,3.158710241317749,0.4715196490287781,-1.2911372184753418,7.904906749725342,-2.838489055633545,-0.13713912665843964,0.9764710664749146,0.46631506085395813,27.977388381958008,-17.096176147460938,20.523178100585938,0.12541687488555908,-0.23064088821411133,-0.40317630767822266,-1.4165540933609009,8.135547637939453,-2.4353127479553223
6_20251106_215357,1762437200736,6,0.3011874854564667,0.41608935594558716,0.6871193051338196,0.5138314962387085,-0.5782841444015503,3.1487820148468018,0.47319719195365906,-0.4256705045700073,7.678664207458496,-3.0767016410827637,-0.2373209446668625,0.9740276336669922,0.7332629561424255,27.632007598876953,-17.360252380371094,20.91040802001953,0.7927069664001465,-0.3655061721801758,-0.5131111145019531,-1.2183774709701538,8.044170379638672,-2.5635905265808105
6_20251106_215357,1762437200755,6,0.29208940267562866,0.41491368412971497,0.6861804723739624,0.5212358236312866,-0.5782841444015503,3.1487820148468018,0.47319719195365906,-0.4256705045700073,7.678664207458496,-3.0767016410827637,-0.32650721073150635,0.8176462650299072,0.9000290036201477,27.149463653564453,-17.683692932128906,21.331737518310547,0.7927069664001465,-0.3655061721801758,-0.5131111145019531,-1.2183774709701538,8.044170379638672,-2.5635905265808105
6_20251106_215357,1762437200775,6,0.2833932638168335,0.41550350189208984,0.6835489273071289,0.5289668440818787,-0.5655496120452881,3.1285011768341064,0.47673359513282776,1.0993703603744507,8.319086074829102,-2.3872013092041016,-0.32650721073150635,0.8176462650299072,0.9000290036201477,26.628952026367188,-18.034637451171875,21.751068115234375,1.5825700759887695,0.26711273193359375,0.14678955078125,-0.48319974541664124,8.051973342895508,-2.5339908599853516
6_20251106_215357,1762437200794,6,0.27500414848327637,0.4170122444629669,0.6802607774734497,0.5363942384719849,-0.5499880313873291,3.1214022636413574,0.4782295525074005,1.6859246492385864,8.808679580688477,-2.692448854446411,-0.31612247228622437,0.7119666337966919,0.9476764798164368,26.091320037841797,-18.474273681640625,22.168060302734375,1.7352995872497559,0.6053647994995117,-0.12676620483398438,-0.049374908208847046,8.203314781188965,-2.5656826496124268
6_20251106_215357,1762437200813,6,0.2664201259613037,0.4186587631702423,0.677130401134491,0.5433595180511475,-0.5294683575630188,3.1168205738067627,0.4773138463497162,2.310784339904785,8.868532180786133,-3.3915257453918457,-0.22021673619747162,0.6759256720542908,0.8975855708122253,25.516525268554688,-18.9287109375,22.569801330566406,1.8881274461746216,0.5321741104125977,-0.6606743335723877,0.4226568937301636,8.336358070373535,-2.730851411819458
6_20251106_215357,1762437200831,6,0.2581772804260254,0.42055147886276245,0.6740100383758545,0.5497193932533264,-0.5049276351928711,3.114417314529419,0.4735187590122223,2.8889591693878174,9.034921646118164,-3.937380790710449,-0.28924447298049927,0.6014001369476318,0.810842752456665,24.804258346557617,-19.45453643798828,22.951309204101562,1.9730417728424072,0.5588512420654297,-0.9652235507965088,0.9159173369407654,8.476070404052734,-2.9721572399139404
6_20251106_215357,1762437200850,6,0.2508811354637146,0.4220564067363739,0.6707463264465332,0.5559014678001404,-0.5049276351928711,3.114417314529419,0.4735187590122223,2.8889591693878174,9.034921646118164,-3.937380790710449,-0.4584540128707886,0.500607430934906,0.5817685127258301,24.137197494506836,-20.051589965820312,23.238582611083984,1.9730417728424072,0.5588512420654297,-0.9652235507965088,0.9159173369407654,8.476070404052734,-2.9721572399139404
6_20251106_215357,1762437200870,6,0.24609726667404175,0.4224221408367157,0.667159378528595,0.5620445013046265,-0.4387911558151245,3.1161298751831055,0.4622687101364136,2.7022194862365723,9.450298309326172,-2.7511043548583984,-0.6875283122062683,0.5543635487556458,0.23968423902988434,23.514354705810547,-20.721206665039062,23.566783905029297,1.0742833614349365,0.6606616973876953,0.2960367202758789,1.6279361248016357,8.789636611938477,-3.0471410751342773
6_20251106_215357,1762437200889,6,0.24370133876800537,0.4197542071342468,0.6637719869613647,0.5690543055534363,-0.4387911558151245,3.1161298751831055,0.4622687101364136,2.7022194862365723,9.450298309326172,-2.7511043548583984,-0.6875283122062683,0.5543635487556458,0.23968423902988434,22.85866355895996,-21.341766357421875,23.77292251586914,1.0742833614349365,0.6606616973876953,0.2960367202758789,1.6279361248016357,8.789636611938477,-3.0471410751342773
6_20251106_215357,1762437200909,6,0.24181145429611206,0.4128749966621399,0.661348283290863,0.5776503682136536,-0.404157817363739,3.11877179145813,0.46173515915870667,2.0809507369995117,9.002601623535156,-1.643833875656128,-0.8530725836753845,0.8353613018989563,-0.06513726711273193,22.263790130615234,-21.970108032226562,23.900150299072266,0.36241161823272705,0.17037200927734375,1.1226458549499512,1.7185391187667847,8.832229614257812,-2.766479730606079
6_20251106_215357,1762437200927,6,0.2382471263408661,0.4033554494380951,0.6596292853355408,0.5877345204353333,-0.3449922502040863,3.121121883392334,0.4674733281135559,1.7350035905838013,8.480688095092773,-2.050830364227295,-0.8799507021903992,1.1921062469482422,0.06803124397993088,21.701852798461914,-22.658981323242188,24.041046142578125,0.02394413948059082,-0.2364788055419922,0.4116659164428711,1.7110594511032104,8.717166900634766,-2.462496280670166
6_20251106_215357,1762437200949,6,0.2336074262857437,0.3950238823890686,0.6571277379989624,0.5979689359664917,-0.3110116124153137,3.120546579360962,0.4736345112323761,2.1024978160858154,8.329859733581543,-1.8533174991607666,-0.8335249423980713,0.8952260613441467,0.3380334675312042,21.196611404418945,-23.206283569335938,24.159774780273438,0.31315064430236816,-0.3098459243774414,0.48734307289123535,1.7893471717834473,8.639705657958984,-2.340660572052002
6_20251106_215357,1762437200965,6,0.2290154993534088,0.390144020318985,0.6531700491905212,0.6072136759757996,-0.2863425612449646,3.120645523071289,0.47931694984436035,2.4017601013183594,8.894866943359375,-1.6079223155975342,-0.7486147284507751,0.49755313992500305,0.5469492077827454,20.679676055908203,-23.753700256347656,24.210433959960938,0.4899303913116455,0.20412921905517578,0.5861904621124268,1.9118297100067139,8.6907377243042,-2.194112777709961
6_20251106_215357,1762437200985,6,0.22524194419384003,0.3889945149421692,0.6479777693748474,0.6148773431777954,-0.2556059956550598,3.122770071029663,0.4903905391693115,2.3861985206604004,9.350942611694336,-0.7711848616600037,-0.6960803866386414,0.2782527208328247,0.5805467963218689,20.22406768798828,-24.296607971191406,24.20948028564453,0.37949514389038086,0.5281639099121094,1.1383423805236816,2.0067033767700195,8.822778701782227,-1.9095271825790405
6_20251106_215357,1762437201003,6,0.22241097688674927,0.3894136846065521,0.6424020528793335,0.6214578747749329,-0.2279997318983078,3.125356435775757,0.5039790868759155,2.545405864715576,9.13547420501709,-0.23610374331474304,-0.6441568732261658,0.38943007588386536,0.5640534162521362,19.758289337158203,-24.802772521972656,24.22234344482422,0.43096208572387695,0.2501564025878906,1.3387386798858643,2.114443778991699,8.8853178024292,-1.5748424530029297
6_20251106_215357,1762437201022,6,0.2188279628753662,0.38900700211524963,0.6373156309127808,0.6281852126121521,-0.19821152091026306,3.127959728240967,0.5205000042915344,2.881776809692383,8.88888168334961,-0.5198044180870056,-0.5885682106018066,0.5739112496376038,0.5732163786888123,19.229848861694336,-25.361656188964844,24.083019256591797,0.6138663291931152,0.0028514862060546875,0.8440304398536682,2.2679104804992676,8.886030197143555,-1.3638348579406738
6_20251106_215357,1762437201042,6,0.2137608677148819,0.38752812147140503,0.6328454613685608,0.635322630405426,-0.19821152091026306,3.127959728240967,0.5205000042915344,2.881776809692383,8.88888168334961,-0.5198044180870056,-0.6044507026672363,0.5934589505195618,0.5836010575294495,18.68982696533203,-25.908912658691406,23.956985473632812,0.6138663291931152,0.0028514862060546875,0.8440304398536682,2.2679104804992676,8.886030197143555,-1.3638348579406738
6_20251106_215357,1762437201062,6,0.2085837721824646,0.3861197531223297,0.6281865239143372,0.6424842476844788,-0.1331430822610855,3.1318728923797607,0.5565911531448364,3.431222677230835,8.905640602111816,-0.7352733612060547,-0.6362156271934509,0.4578469395637512,0.5542795658111572,18.124122619628906,-26.48273468017578,23.81592559814453,0.7743980884552002,0.04702472686767578,0.41492021083831787,2.6568245887756348,8.85861587524414,-1.1501935720443726
6_20251106_215357,1762437201079,6,0.20447976887226105,0.3854154050350189,0.623111367225647,0.6491342186927795,-0.1331430822610855,3.1318728923797607,0.5565911531448364,3.431222677230835,8.905640602111816,-0.7352733612060547,-0.6362156271934509,0.4578469395637512,0.5542795658111572,17.548952102661133,-27.00726318359375,23.688949584960938,0.7743980884552002,0.04702472686767578,0.41492021083831787,2.6568245887756348,8.85861587524414,-1.1501935720443726
6_20251106_215357,1762437201100,6,0.20154926180839539,0.38446831703186035,0.6181535720825195,0.6553229689598083,-0.06784391403198242,3.136483907699585,0.5991511344909668,3.034999370574951,8.88409423828125,0.024853035807609558,-0.6734784245491028,0.5629156231880188,0.3392552137374878,16.923898696899414,-27.582901000976562,23.329177856445312,0.2115788459777832,-0.005719184875488281,0.7752047181129456,2.823420524597168,8.889813423156738,-0.7503516674041748
6_20251106_215357,1762437201120,6,0.19825781881809235,0.3815380334854126,0.6137452125549316,0.6621475219726562,-0.035839326679706573,3.1370205879211426,0.6218172907829285,3.03619647026062,8.350210189819336,-0.3953113555908203,-0.6734784245491028,0.5629156231880188,0.3392552137374878,16.323936462402344,-28.132781982421875,23.065528869628906,0.17022085189819336,-0.4316825866699219,0.28403228521347046,2.8659756183624268,8.781892776489258,-0.6793436408042908
6_20251106_215357,1762437201139,6,0.19463932514190674,0.37719231843948364,0.6093863248825073,0.6696938276290894,-0.0063797906041145325,3.135141611099243,0.6429345607757568,3.0756988525390625,7.920468330383301,-0.4384050965309143,-0.8463531136512756,0.6973058581352234,0.3221510052680969,16.323936462402344,-28.132781982421875,23.065528869628906,0.16777849197387695,-0.6891393661499023,0.19275081157684326,2.9079203605651855,8.609607696533203,-0.6311559081077576
6_20251106_215357,1762437201156,6,0.19129718840122223,0.3730201721191406,0.604133129119873,0.6777053475379944,0.01943422108888626,3.131696939468384,0.6612944602966309,3.260044574737549,7.7684431076049805,-0.44439029693603516,-0.9544761776924133,0.5983458161354065,0.43943700194358826,15.748048782348633,-28.681480407714844,22.84341049194336,0.28169918060302734,-0.6729316711425781,0.14941245317459106,2.9783453941345215,8.441374778747559,-0.5938027501106262
6_20251106_215357,1762437201175,6,0.18816284835338593,0.3700134754180908,0.597494900226593,0.686064600944519,0.048571206629276276,3.126817226409912,0.6811424493789673,3.6083860397338867,7.995882987976074,-0.46474015712738037,-0.9544761776924133,0.5983458161354065,0.43943700194358826,15.159566879272461,-29.243125915527344,22.579986572265625,0.5040326118469238,-0.35639381408691406,0.10325008630752563,3.104353427886963,8.352276802062988,-0.567990243434906
6_20251106_215357,1762437201194,6,0.18517927825450897,0.36819693446159363,0.5897690057754517,0.6944869756698608,0.07840928435325623,3.122684955596924,0.7006983757019043,3.8908896446228027,8.535751342773438,-0.3127148747444153,-1.1340702772140503,0.4328014850616455,0.5219037532806396,14.539138793945312,-29.742881774902344,22.16773223876953,0.6292290687561035,0.14678001403808594,0.20422029495239258,3.261660575866699,8.388971328735352,-0.5169351696968079
6_20251106_215357,1762437201214,6,0.18307828903198242,0.36652204394340515,0.5811528563499451,0.70313960313797,0.10878067463636398,3.119283437728882,0.7214296460151672,3.999821186065674,8.58004379272461,0.2678540349006653,-1.2605193853378296,0.43463408946990967,0.3893461227416992,13.940967559814453,-30.278724670410156,21.75566864013672,0.5905284881591797,0.15285778045654297,0.6278313398361206,3.409292697906494,8.427186012268066,-0.3599773347377777
6_20251106_215357,1762437201233,6,0.18223880231380463,0.3638145327568054,0.5720864534378052,0.712141215801239,0.1404123306274414,3.1159026622772217,0.7470207810401917,3.823854923248291,8.434002876281738,1.2386610507965088,-1.2605193853378296,0.43463408946990967,0.3893461227416992,13.291528701782227,-30.867568969726562,21.300037384033203,0.3316497802734375,0.005454063415527344,1.278910756111145,3.4922051429748535,8.428548812866211,-0.04024967551231384
6_20251106_215357,1762437201252,6,0.1825762540102005,0.3598891496658325,0.5625237226486206,0.7216042876243591,0.16813257336616516,3.1127071380615234,0.7735242247581482,3.7663965225219727,8.30472183227539,1.8371857404708862,-1.4504982233047485,0.5781872868537903,0.2586210370063782,12.68075180053711,-31.42797088623047,20.751792907714844,0.21935319900512695,-0.09906196594238281,1.501948356628418,3.5470433235168457,8.403783798217773,0.33523738384246826
6_20251106_215357,1762437201271,6,0.1822831928730011,0.35471004247665405,0.5525957345962524,0.7318412065505981,0.19930420815944672,3.1098008155822754,0.8056038618087769,4.175787448883057,8.55729866027832,1.6851603984832764,-1.4144572019577026,0.5604721903800964,0.3960655927658081,12.166645050048828,-32.006324768066406,20.12584686279297,0.5029952526092529,0.12281227111816406,1.0799384117126465,3.6727921962738037,8.434486389160156,0.6052219867706299
6_20251106_215357,1762437201291,6,0.1809307038784027,0.350283145904541,0.5422684550285339,0.7419641017913818,0.22973620891571045,3.109419584274292,0.8374069929122925,4.510961055755615,9.251587867736816,1.644460916519165,-1.4144572019577026,0.5604721903800964,0.3960655927658081,11.6407470703125,-32.584930419921875,19.445343017578125,0.6705350875854492,0.653681755065918,0.8313911557197571,3.840425968170166,8.597906112670898,0.813069760799408
6_20251106_215357,1762437201309,6,0.180001899600029,0.3481840193271637,0.5312219858169556,0.7511127591133118,0.26062095165252686,3.1122827529907227,0.8725315928459167,4.56003999710083,9.7735013961792,2.603297472000122,-1.4022399187088013,0.09865846484899521,0.4999126195907593,11.082805633544922,-33.101783752441406,18.62952423095703,0.5756912231445312,0.9404764175415039,1.4321821928024292,3.984348773956299,8.833024978637695,1.1711152791976929
6_20251106_215357,1762437201329,6,0.18027696013450623,0.3477386236190796,0.519649863243103,0.7593036890029907,0.29331764578819275,3.1190130710601807,0.9149831533432007,4.580389976501465,10.105083465576172,3.581286907196045,-1.4022399187088013,0.09865846484899521,0.4999126195907593,10.607938766479492,-33.662498474121094,17.7349853515625,0.47683286666870117,1.0176467895507812,1.9281373023986816,4.103557109832764,9.08743667602539,1.6531496047973633
6_20251106_215357,1762437201349,6,0.18112270534038544,0.3471360206604004,0.5082679986953735,0.767042875289917,0.3227452039718628,3.1276328563690186,0.9567698836326599,4.701292037963867,10.251123428344727,3.8829431533813477,-1.2861756086349487,0.14202986657619476,0.36796581745147705,10.218782424926758,-34.20550537109375,16.884693145751953,0.47818803787231445,0.9309492111206055,1.7838349342346191,4.223104000091553,9.320174217224121,2.0991082191467285
6_20251106_215357,1762437201366,6,0.1817055195569992,0.3455188274383545,0.4977737069129944,0.7744812369346619,0.3227452039718628,3.1276328563690186,0.9567698836326599,4.701292037963867,10.251123428344727,3.8829431533813477,-1.1969894170761108,0.15363629162311554,0.3178749084472656,9.7942533493042,-34.74927520751953,15.870735168457031,0.47818803787231445,0.9309492111206055,1.7838349342346191,4.223104000091553,9.320174217224121,2.0991082191467285
6_20251106_215357,1762437201386,6,0.18233078718185425,0.3437140882015228,0.48803168535232544,0.7813073396682739,0.3873154819011688,3.152029275894165,1.0540807247161865,5.019707202911377,10.200847625732422,3.9918746948242188,-1.1969894170761108,0.15363629162311554,0.3178749084472656,9.400947570800781,-35.16615295410156,14.887428283691406,0.5389385223388672,0.564396858215332,1.2672967910766602,4.48076868057251,9.63645076751709,2.7245779037475586
6_20251106_215357,1762437201404,6,0.18363580107688904,0.3423260748386383,0.47832927107810974,0.7875860929489136,0.3873154819011688,3.152029275894165,1.0540807247161865,5.019707202911377,10.200847625732422,3.9918746948242188,-1.2220348119735718,0.030241621658205986,0.18837159872055054,9.065963745117188,-35.617401123046875,13.973365783691406,0.5389385223388672,0.564396858215332,1.2672967910766602,4.48076868057251,9.63645076751709,2.7245779037475586
6_20251106_215357,1762437201424,6,0.18579038977622986,0.3407948315143585,0.4685256779193878,0.7936148643493652,0.45200106501579285,3.1809277534484863,1.1580890417099,5.4015655517578125,10.491730690002441,4.866917610168457,-1.2220348119735718,0.030241621658205986,0.18837159872055054,8.6781005859375,-35.93408966064453,13.019205093383789,0.6159324645996094,0.5761089324951172,1.4339184761047363,4.785633087158203,9.915621757507324,3.4329991340637207
6_20251106_215357,1762437201444,6,0.18922220170497894,0.33843204379081726,0.4592896103858948,0.7991944551467896,0.48533886671066284,3.1979336738586426,1.2158968448638916,5.0448455810546875,10.552781105041504,4.977046489715576,-1.1737765073776245,0.05467621237039566,-0.2422880232334137,8.374932289123535,-36.25764465332031,12.054697036743164,0.20736980438232422,0.5097274780273438,1.2352378368377686,4.837475776672363,10.04305362701416,3.7418086528778076
6_20251106_215357,1762437201461,6,0.19437359273433685,0.33486366271972656,0.45109066367149353,0.8041159510612488,0.511258065700531,3.212125539779663,1.2652924060821533,4.381679534912109,10.252321243286133,4.978242874145508,-1.1737765073776245,0.05467621237039566,-0.2422880232334137,8.229589462280273,-36.571685791015625,11.177661895751953,-0.3646368980407715,0.16741371154785156,0.9891471862792969,4.746316432952881,10.084907531738281,3.989095687866211
6_20251106_215357,1762437201481,6,0.20056913793087006,0.3298929035663605,0.4441384971141815,0.8085070848464966,0.5372475981712341,3.2269275188446045,1.3226510286331177,3.7663965225219727,9.736392974853516,4.69693660736084,-1.0534361600875854,0.13653208315372467,-0.4933534264564514,8.077193260192871,-36.79834747314453,10.274951934814453,-0.7839360237121582,-0.2788124084472656,0.5662727355957031,4.550332546234131,10.015205383300781,4.130663871765137
6_20251106_215357,1762437201500,6,0.20686128735542297,0.32461053133010864,0.43785423040390015,0.8124777674674988,0.5575374960899353,3.2384376525878906,1.376230239868164,3.39650821685791,9.341365814208984,4.791503429412842,-1.0534361600875854,0.13653208315372467,-0.4933534264564514,8.017345428466797,-36.89360809326172,9.351282119750977,-0.9230594635009766,-0.5390710830688477,0.5286717414855957,4.319567680358887,9.880436897277832,4.262831687927246
6_20251106_215357,1762437201519,6,0.212350994348526,0.3208959102630615,0.43134191632270813,0.8160128593444824,0.5744840502738953,3.247748613357544,1.4289981126785278,3.4707252979278564,9.2886962890625,4.94352912902832,-0.9190459847450256,-0.08948786556720734,-0.13660843670368195,8.104249954223633,-36.95543670654297,8.555671691894531,-0.6790740489959717,-0.4733924865722656,0.544558048248291,4.149799346923828,9.762088775634766,4.398971080780029
6_20251106_215357,1762437201539,6,0.21647439897060394,0.31900450587272644,0.4245123863220215,0.8192461133003235,0.5744840502738953,3.247748613357544,1.4289981126785278,3.4707252979278564,9.2886962890625,4.94352912902832,-0.9190459847450256,-0.08948786556720734,-0.13660843670368195,8.104249954223633,-36.95543670654297,8.555671691894531,-0.6790740489959717,-0.4733924865722656,0.544558048248291,4.149799346923828,9.762088775634766,4.398971080780029
6_20251106_215357,1762437201559,6,0.2196623533964157,0.31836795806884766,0.4178999364376068,0.8220401406288147,0.6053863763809204,3.262972354888916,1.5394665002822876,4.03333854675293,9.48501205444336,5.433122158050537,-0.7828231453895569,-0.17256547510623932,-0.032761432230472565,8.382681846618652,-36.958648681640625,6.862619400024414,-0.04178333282470703,-0.1608572006225586,0.7013115882873535,4.075121879577637,9.645869255065918,4.731810569763184
6_20251106_215357,1762437201577,6,0.22287756204605103,0.3178796172142029,0.41153639554977417,0.8245701789855957,0.6171346306800842,3.267974615097046,1.58567214012146,3.932786464691162,9.317425727844238,5.537264823913574,-0.7809905409812927,-0.11086813360452652,-0.14210622012615204,8.382681846618652,-36.958648681640625,6.862619400024414,-0.11386823654174805,-0.2627544403076172,0.6443634033203125,4.04665470123291,9.580180168151855,4.892901420593262
6_20251106_215357,1762437201596,6,0.22666403651237488,0.3164815604686737,0.4056147336959839,0.8270063400268555,0.6290273070335388,3.271787643432617,1.6392872333526611,3.6395092010498047,8.9954195022583,5.54205322265625,-0.7693842053413391,-0.07055105268955231,-0.2056361585855484,8.618144035339355,-36.961395263671875,6.141530990600586,-0.325716495513916,-0.46780872344970703,0.5193214416503906,3.9652256965637207,9.463228225708008,5.022731781005859
6_20251106_215357,1762437201616,6,0.23082196712493896,0.3145521581172943,0.40001145005226135,0.8293184041976929,0.6382625102996826,3.273167133331299,1.6890175342559814,3.4192521572113037,8.711718559265137,5.512126922607422,-0.7693842053413391,-0.07055105268955231,-0.2056361585855484,8.820968627929688,-36.9031982421875,5.3662261962890625,-0.4367787837982178,-0.6012077331542969,0.39151573181152344,3.8560309410095215,9.312926292419434,5.120611190795898
6_20251106_215357,1762437201635,6,0.23442859947681427,0.3130035102367401,0.3948436379432678,0.8313666582107544,0.6462354063987732,3.2718346118927,1.7393667697906494,3.4407989978790283,8.420835494995117,5.324190616607666,-0.5800160765647888,-0.15546125173568726,-0.03703749179840088,8.938700675964355,-36.83867645263672,4.65533447265625,-0.3321855068206787,-0.7136726379394531,0.16286373138427734,3.772984504699707,9.13450813293457,5.161326885223389
6_20251106_215357,1762437201653,6,0.23689252138137817,0.31265830993652344,0.39007458090782166,0.8330477476119995,0.6530094742774963,3.2687110900878906,1.7825804948806763,3.7556231021881104,8.328662872314453,5.228425979614258,-0.4993818998336792,-0.24464751780033112,0.11201349645853043,9.08120059967041,-36.77202606201172,3.891357421875,-0.013889074325561523,-0.6446762084960938,0.05367898941040039,3.769512176513672,8.973339080810547,5.174746990203857
6_20251106_215357,1762437201673,6,0.2384110391139984,0.3138584792613983,0.38523221015930176,0.8344154953956604,0.661747932434082,3.2639782428741455,1.8283618688583374,4.291901111602783,8.50103759765625,5.229623794555664,-0.4993818998336792,-0.24464751780033112,0.11201349645853043,9.193418502807617,-36.78459930419922,3.354593276977539,0.4179110527038574,-0.3778409957885742,0.04390144348144531,3.873990058898926,8.878878593444824,5.185722351074219
6_20251106_215357,1762437201691,6,0.23953494429588318,0.31588831543922424,0.3803027868270874,0.8355880379676819,0.671224057674408,3.259755849838257,1.8676307201385498,4.688124656677246,8.807482719421387,5.2368059158325195,-0.47616904973983765,-0.2977927327156067,0.07047469913959503,9.209854125976562,-36.77800750732422,2.773883819580078,0.6513075828552246,-0.05711650848388672,0.040866851806640625,4.0368170738220215,8.864599227905273,5.195939064025879
6_20251106_215357,1762437201710,6,0.24141982197761536,0.3175640106201172,0.37561094760894775,0.8365321159362793,0.6825199723243713,3.255394458770752,1.9074229001998901,4.690518379211426,8.818256378173828,5.3469343185424805,-0.5342012047767639,-0.25869739055633545,-0.14577141404151917,9.293978691101074,-36.855224609375,2.261850357055664,0.5229611396789551,-0.03707408905029297,0.12079620361328125,4.167557239532471,8.855330467224121,5.226138114929199
6_20251106_215357,1762437201730,6,0.24511122703552246,0.3181235194206238,0.3711784780025482,0.8372242450714111,0.6949180960655212,3.250378131866455,1.947764277458191,4.530113697052002,8.639896392822266,5.406786918640137,-0.5763508677482605,-0.23426280915737152,-0.32597649097442627,9.381528854370117,-36.869789123535156,1.7646541595458984,0.29004526138305664,-0.1723470687866211,0.14451885223388672,4.240068435668945,8.812243461608887,5.26226806640625
6_20251106_215357,1762437201750,6,0.25027167797088623,0.31773486733436584,0.36700013279914856,0.8376870155334473,0.6949180960655212,3.250378131866455,1.947764277458191,4.530113697052002,8.639896392822266,5.406786918640137,-0.5280925631523132,-0.32650336623191833,-0.3760673999786377,9.459711074829102,-36.834922790527344,1.2680225372314453,0.29004526138305664,-0.1723470687866211,0.14451885223388672,4.240068435668945,8.812243461608887,5.26226806640625
6_20251106_215357,1762437201770,6,0.2559494972229004,0.31795716285705566,0.3631373941898346,0.8375704884529114,0.7190151214599609,3.2389516830444336,2.0235817432403564,4.489414215087891,8.592013359069824,5.697669982910156,-0.40469789505004883,-0.4871608018875122,-0.35774144530296326,9.572351455688477,-36.82373046875,0.8669490814208984,0.1695408821105957,-0.12447547912597656,0.29857635498046875,4.319873332977295,8.7164888381958,5.3990936279296875
6_20251106_215357,1762437201790,6,0.26170864701271057,0.3197983503341675,0.35974982380867004,0.8365510702133179,0.7315921187400818,3.2326767444610596,2.0631072521209717,4.400832653045654,8.609969139099121,5.771886825561523,-0.304516077041626,-0.6154423952102661,-0.3858412206172943,9.689404487609863,-36.74854278564453,0.3455486297607422,0.06476736068725586,-0.08521556854248047,0.2982344627380371,4.336065292358398,8.695184707641602,5.473652362823486
6_20251106_215357,1762437201807,6,0.2677202522754669,0.32275596261024475,0.35693928599357605,0.8347147703170776,0.7315921187400818,3.2326767444610596,2.0631072521209717,4.400832653045654,8.609969139099121,5.771886825561523,-0.304516077041626,-0.6154423952102661,-0.3858412206172943,9.85200023651123,-36.709327697753906,-0.026002883911132812,0.06476736068725586,-0.08521556854248047,0.2982344627380371,4.336065292358398,8.695184707641602,5.473652362823486
6_20251106_215357,1762437201824,6,0.27438101172447205,0.3247518241405487,0.3543086349964142,0.8328965902328491,0.7482802271842957,3.2230031490325928,2.123891592025757,3.6897852420806885,8.613560676574707,5.659364700317383,-0.4584539532661438,-0.3539922833442688,-0.6069742441177368,10.116597175598145,-36.59962463378906,-0.5274734497070312,-0.4806540012359619,-0.06181621551513672,0.10774707794189453,4.17043924331665,8.675376892089844,5.551617622375488
6_20251106_215357,1762437201845,6,0.2818182706832886,0.3244125247001648,0.35162195563316345,0.8316832184791565,0.7542541027069092,3.216273307800293,2.1589486598968506,3.3462319374084473,8.345420837402344,5.605497360229492,-0.4584539532661438,-0.3539922833442688,-0.6069742441177368,10.481204986572266,-36.433746337890625,-0.9834175109863281,-0.6593656539916992,-0.2639646530151367,0.043103694915771484,4.0055975914001465,8.60938549041748,5.562393665313721
6_20251106_215357,1762437201863,6,0.2897782027721405,0.32248038053512573,0.3487004041671753,0.8309290409088135,0.7568700313568115,3.209594964981079,2.18770432472229,3.0924577713012695,8.122770309448242,5.647393703460693,-0.572074830532074,-0.21593685448169708,-0.6314088702201843,10.823345184326172,-36.24366760253906,-1.507394790649414,-0.7305116653442383,-0.38929176330566406,0.06800031661987305,3.822969436645508,8.512062072753906,5.57939338684082
6_20251106_215357,1762437201883,6,0.2973945438861847,0.3205638825893402,0.345532089471817,0.830302894115448,0.7569156289100647,3.2009146213531494,2.218064308166504,2.929658889770508,7.975532531738281,5.58155632019043,-0.5250382423400879,-0.28924062848091125,-0.516566276550293,11.241731643676758,-35.986572265625,-1.9730453491210938,-0.7146484851837158,-0.42922401428222656,0.0017304420471191406,3.6443073749542236,8.404756546020508,5.5798258781433105
6_20251106_215357,1762437201901,6,0.30416712164878845,0.3196699619293213,0.3421609699726105,0.82958984375,0.7569156289100647,3.2009146213531494,2.218064308166504,2.929658889770508,7.975532531738281,5.58155632019043,-0.5024362206459045,-0.37292909622192383,-0.3864521086215973,11.705322265625,-35.80070495605469,-2.532930374145508,-0.7146484851837158,-0.42922401428222656,0.0017304420471191406,3.6443073749542236,8.404756546020508,5.5798258781433105
6_20251106_215357,1762437201920,6,0.3100842535495758,0.31988999247550964,0.33833274245262146,0.8288842439651489,0.7527008056640625,3.1839401721954346,2.272000551223755,3.2157537937164307,8.21135139465332,6.047208309173584,-0.49266237020492554,-0.3906441628932953,-0.31620264053344727,12.136585235595703,-35.54187774658203,-3.0927038192749023,-0.23309612274169922,-0.10002994537353516,0.3493046760559082,3.44884991645813,8.311381340026855,5.697903633117676
6_20251106_215357,1762437201940,6,0.31565654277801514,0.32056504487991333,0.3342234492301941,0.8281869888305664,0.7527008056640625,3.1839401721954346,2.272000551223755,3.2157537937164307,8.21135139465332,6.047208309173584,-0.49266237020492554,-0.3906441628932953,-0.31620264053344727,12.590415954589844,-35.30711364746094,-3.597959518432617,-0.23309612274169922,-0.10002994537353516,0.3493046760559082,3.44884991645813,8.311381340026855,5.697903633117676
6_20251106_215357,1762437201960,6,0.32111597061157227,0.32083630561828613,0.3304401934146881,0.8275009989738464,0.7473835945129395,3.167156457901001,2.330883264541626,3.432419776916504,8.332254409790039,6.447022438049316,-0.47739076614379883,-0.30023619532585144,-0.40905410051345825,12.996910095214844,-35.0504150390625,-4.104648590087891,-0.0024712085723876953,0.014890670776367188,0.5146770477294922,3.4348909854888916,8.317363739013672,5.932345390319824
6_20251106_215357,1762437201979,6,0.327004611492157,0.32054826617240906,0.326938658952713,0.8266969919204712,0.7450540065765381,3.1595511436462402,2.3593063354492188,3.4384050369262695,8.222125053405762,6.539195537567139,-0.44623667001724243,-0.25503218173980713,-0.46586453914642334,13.390514373779297,-34.80706787109375,-4.612092018127441,0.0028111934661865234,-0.07619094848632812,0.48548030853271484,3.435593843460083,8.29831600189209,6.053715229034424
6_20251106_215357,1762437201999,6,0.33302435278892517,0.3197791576385498,0.32398170232772827,0.8257553577423096,0.7428584694862366,3.1516966819763184,2.386861801147461,3.4419960975646973,8.068902969360352,6.255495071411133,-0.37904155254364014,-0.25381046533584595,-0.48602303862571716,13.711101531982422,-34.56834411621094,-5.135994911193848,0.005121707916259766,-0.1835308074951172,0.1614236831665039,3.4368743896484375,8.252433776855469,6.094071388244629
6_20251106_215357,1762437202016,6,0.3392011821269989,0.3192262649536133,0.3214927017688751,0.8244268298149109,0.7428584694862366,3.1516966819763184,2.386861801147461,3.4419960975646973,8.068902969360352,6.255495071411133,-0.33811360597610474,-0.3381097912788391,-0.4951860308647156,13.711101531982422,-34.56834411621094,-5.135994911193848,0.005121707916259766,-0.1835308074951172,0.1614236831665039,3.4368743896484375,8.252433776855469,6.094071388244629
6_20251106_215357,1762437202036,6,0.3455932140350342,0.31948578357696533,0.31906548142433167,0.8226125240325928,0.7378900051116943,3.1353859901428223,2.4363715648651123,3.1104133129119873,7.982715129852295,6.059178352355957,-0.33811360597610474,-0.3381097912788391,-0.4951860308647156,12.584917068481445,-32.733497619628906,-6.8792572021484375,-0.25049686431884766,-0.1691727638244629,-0.019075393676757812,3.360910177230835,8.151887893676758,6.078253746032715
6_20251106_215357,1762437202055,6,0.35243791341781616,0.3200156092643738,0.3165959417819977,0.8204538822174072,0.7336965203285217,3.126317262649536,2.4609391689300537,2.9344472885131836,7.937227249145508,6.049602508544922,-0.3533852696418762,-0.3381097912788391,-0.5538290143013,12.892712593078613,-32.50799560546875,-7.417430877685547,-0.3411703109741211,-0.17172908782958984,-0.022921085357666016,3.2756175994873047,8.108956336975098,6.072523593902588
6_20251106_215357,1762437202074,6,0.35935816168785095,0.32001006603240967,0.3142363727092743,0.8183586001396179,0.729008674621582,3.1176517009735107,2.4829795360565186,2.946417808532715,7.933635711669922,6.0244646072387695,-0.35827213525772095,-0.28924062848091125,-0.5080141425132751,13.17988395690918,-32.19779968261719,-7.792542457580566,-0.26335978507995605,-0.14025592803955078,-0.03844738006591797,3.209777593612671,8.073891639709473,6.0629119873046875
6_20251106_215357,1762437202093,6,0.3658209443092346,0.3197203576564789,0.31185266375541687,0.8165181279182434,0.7242103815078735,3.108712673187256,2.50384521484375,3.084078311920166,7.8163251876831055,6.036435127258301,-0.3295615315437317,-0.3191729784011841,-0.4371538758277893,13.475605010986328,-31.961341857910156,-8.249844551086426,-0.10055947303771973,-0.2060537338256836,-0.021181583404541016,3.1846377849578857,8.022378921508789,6.057616710662842
6_20251106_215357,1762437202112,6,0.37122422456741333,0.3197900950908661,0.309552937746048,0.8149256706237793,0.7195567488670349,3.09981632232666,2.5236127376556396,3.149916172027588,7.874980449676514,6.037631988525391,-0.28557926416397095,-0.41385704278945923,-0.3968367874622345,13.774455070495605,-31.662635803222656,-8.651762008666992,-0.02777719497680664,-0.1179189682006836,-0.015987873077392578,3.1776933670043945,7.992899417877197,6.053619861602783
6_20251106_215357,1762437202131,6,0.3768346309661865,0.32103702425956726,0.306932270526886,0.8128489851951599,0.714855968952179,3.091346502304077,2.542466402053833,3.0756988525390625,7.986306190490723,6.08072566986084,-0.3094030022621155,-0.4517306685447693,-0.40416717529296875,14.05859661102295,-31.41455078125,-9.09577465057373,-0.08159565925598145,-0.005274772644042969,0.021684646606445312,3.157294511795044,7.991580963134766,6.0590410232543945
6_20251106_215357,1762437202150,6,0.3827236294746399,0.32249554991722107,0.3039797246456146,0.8106266260147095,0.7100678086280823,3.083505868911743,2.5611493587493896,3.039787530899048,8.066509246826172,6.340485572814941,-0.3662133812904358,-0.42240914702415466,-0.4231039881706238,14.34636116027832,-31.103546142578125,-9.551983833312988,-0.09400582313537598,0.05994224548339844,0.22515583038330078,3.133793354034424,8.006567001342773,6.115329742431641
6_20251106_215357,1762437202170,6,0.3888062536716461,0.3234257698059082,0.30077654123306274,0.8085536360740662,0.7100678086280823,3.083505868911743,2.5611493587493896,3.039787530899048,8.066509246826172,6.340485572814941,-0.37354379892349243,-0.38148120045661926,-0.44631683826446533,14.69334888458252,-30.8140869140625,-9.965719223022461,-0.09400582313537598,0.05994224548339844,0.22515583038330078,3.133793354034424,8.006567001342773,6.115329742431641
6_20251106_215357,1762437202189,6,0.3951157033443451,0.32395532727241516,0.29765501618385315,0.8064353466033936,0.7044110298156738,3.075453996658325,2.5836825370788574,3.0278170108795166,8.162273406982422,6.654112815856934,-0.30695950984954834,-0.3594900667667389,-0.45609068870544434,14.954527854919434,-30.54247283935547,-10.410184860229492,-0.08478116989135742,0.12456512451171875,0.4310264587402344,3.112598180770874,8.037708282470703,6.223086357116699
6_20251106_215357,1762437202212,6,0.4011927545070648,0.32447919249534607,0.29513806104660034,0.8041462302207947,0.695306122303009,3.063511848449707,2.621140956878662,2.987117290496826,8.00306510925293,6.558348655700684,-0.21227549016475677,-0.37292909622192383,-0.4267691671848297,15.203322410583496,-30.271926879882812,-10.828107833862305,-0.09199094772338867,-0.03998374938964844,0.1812419891357422,3.079108238220215,8.043048858642578,6.377106666564941
6_20251106_215357,1762437202228,6,0.4067094624042511,0.32550865411758423,0.2931932210922241,0.8016665577888489,0.6905950307846069,3.057286024093628,2.6406056880950928,3.117595672607422,8.034188270568848,6.3536529541015625,-0.14080432057380676,-0.447454571723938,-0.3614066243171692,15.487759590148926,-30.0234375,-11.312668800354004,0.030789852142333984,-0.007088661193847656,-0.018763065338134766,3.086805820465088,8.041276931762695,6.372416019439697
6_20251106_215357,1762437202246,6,0.41173475980758667,0.32757970690727234,0.2912907898426056,0.7989466190338135,0.6873002052307129,3.0524938106536865,2.6572725772857666,3.384537696838379,8.256839752197266,6.382382392883301,-0.10415243357419968,-0.5329756736755371,-0.3363611698150635,15.763238906860352,-29.713363647460938,-11.755851745605469,0.23818540573120117,0.17245006561279297,0.007973194122314453,3.1463522911071777,8.084389686584473,6.374409198760986
6_20251106_215357,1762437202264,6,0.41685187816619873,0.33062100410461426,0.28916963934898376,0.7958047389984131,0.6873002052307129,3.0524938106536865,2.6572725772857666,3.384537696838379,8.256839752197266,6.382382392883301,-0.10415243357419968,-0.5329756736755371,-0.3363611698150635,16.02100372314453,-29.49279022216797,-12.120275497436523,0.23818540573120117,0.17245006561279297,0.007973194122314453,3.1463522911071777,8.084389686584473,6.374409198760986
6_20251106_215357,1762437202285,6,0.42295899987220764,0.33420422673225403,0.2871801257133484,0.7917959690093994,0.6851941347122192,3.048858404159546,2.6755082607269287,3.5976126194000244,8.552511215209961,6.585880756378174,-0.16584977507591248,-0.5048758387565613,-0.6210241913795471,16.292564392089844,-29.24604034423828,-12.510713577270508,0.3610081672668457,0.3744974136352539,0.16917753219604492,3.2366044521331787,8.178013801574707,6.416703224182129
6_20251106_215357,1762437202304,6,0.43037503957748413,0.3368593156337738,0.2854679226875305,0.7872808575630188,0.682217538356781,3.0460946559906006,2.7119061946868896,3.0481669902801514,8.621940612792969,7.176025867462158,-0.1750127524137497,-0.4883825182914734,-0.7884010672569275,16.589509963989258,-28.973121643066406,-12.845577239990234,-0.1880178451538086,0.2758779525756836,0.5330824851989746,3.23618483543396,8.346062660217285,6.642943382263184
6_20251106_215357,1762437202321,6,0.4388860762119293,0.33843493461608887,0.2842925190925598,0.7823161482810974,0.67928147315979,3.045902729034424,2.7294013500213623,2.5873029232025146,8.59201431274414,7.3938889503479,-0.1750127524137497,-0.4883825182914734,-0.7884010672569275,16.876384735107422,-28.663330078125,-13.180139541625977,-0.5191056728363037,0.1967611312866211,0.6007561683654785,3.1064085960388184,8.39525318145752,6.793132781982422
6_20251106_215357,1762437202341,6,0.44754093885421753,0.33940455317497253,0.2839214503765106,0.77711021900177,0.6733811497688293,3.045722246170044,2.750413417816162,2.2449467182159424,8.406471252441406,7.272986888885498,0.055894121527671814,-0.5054867267608643,-0.7810707092285156,17.210790634155273,-28.375205993652344,-13.540300369262695,-0.6891696453094482,0.008974075317382812,0.383882999420166,2.9341163635253906,8.397497177124023,6.889103889465332
6_20251106_215357,1762437202359,6,0.45513394474983215,0.3403814136981964,0.284697026014328,0.7719722986221313,0.666138231754303,3.045295238494873,2.7682158946990967,2.0414483547210693,8.286766052246094,6.8228960037231445,0.21227549016475677,-0.5103736519813538,-0.6442369818687439,17.540851593017578,-27.961227416992188,-14.00644302368164,-0.7141344547271729,-0.08858489990234375,-0.05296659469604492,2.755582809448242,8.375350952148438,6.8758625984191895
6_20251106_215357,1762437202379,6,0.4612901210784912,0.34334954619407654,0.2858695983886719,0.7665514349937439,0.6564930081367493,3.044309616088867,2.7852015495300293,2.0977096557617188,8.199381828308105,6.281829833984375,0.28680098056793213,-0.4944911599159241,-0.5116793513298035,17.817358016967773,-27.614959716796875,-14.300155639648438,-0.5262985229492188,-0.14077472686767578,-0.47522592544555664,2.6240081787109375,8.340156555175781,6.757055759429932
6_20251106_215357,1762437202400,6,0.4664287865161896,0.34698978066444397,0.2871174216270447,0.7613185048103333,0.6469200849533081,3.0433456897735596,2.7994818687438965,2.489144802093506,8.331056594848633,6.146563529968262,0.2519816756248474,-0.49510201811790466,-0.4322669506072998,18.178672790527344,-27.263809204101562,-14.522852897644043,-0.10789084434509277,-0.0072803497314453125,-0.48839378356933594,2.5970356464385986,8.338336944580078,6.634957313537598
6_20251106_215357,1762437202421,6,0.4710070788860321,0.3507362902164459,0.28786689043045044,0.7564846873283386,0.6390485763549805,3.0435593128204346,2.811082601547241,2.8769888877868652,8.733264923095703,6.165716171264648,0.19150608777999878,-0.467002272605896,-0.44631683826446533,18.565446853637695,-26.909584045410156,-14.893248558044434,0.22396254539489746,0.31594276428222656,-0.3753929138183594,2.6530263423919678,8.417322158813477,6.541109085083008
6_20251106_215357,1762437202437,6,0.4757624864578247,0.3540467917919159,0.28828686475753784,0.7517922520637512,0.6331900954246521,3.045427083969116,2.8211522102355957,3.243285894393921,9.024147987365723,6.194445610046387,0.1334739476442337,-0.4053049087524414,-0.5287835597991943,18.565446853637695,-26.909584045410156,-14.893248558044434,0.47220778465270996,0.4854612350463867,-0.2773308753967285,2.771078109741211,8.538686752319336,6.471776485443115
6_20251106_215357,1762437202456,6,0.48120710253715515,0.35654211044311523,0.28874507546424866,0.7469562888145447,0.629313051700592,3.0486395359039307,2.8302128314971924,3.337852954864502,9.160612106323242,6.470963478088379,0.1029307097196579,-0.4309612512588501,-0.6509565114974976,18.8922061920166,-26.534896850585938,-15.19798755645752,0.45341992378234863,0.4975404739379883,-0.0006504058837890625,2.8844330310821533,8.663071632385254,6.471613883972168
6_20251106_215357,1762437202475,6,0.48760324716567993,0.35878923535346985,0.2892377972602844,0.7415220141410828,0.626038670539856,3.053413152694702,2.8402063846588135,3.1080193519592285,9.228843688964844,6.802546501159668,0.15179987251758575,-0.457228422164917,-0.7474731802940369,19.192380905151367,-26.199600219726562,-15.490983009338379,0.17886924743652344,0.4526176452636719,0.26474571228027344,2.929150104522705,8.776226043701172,6.5378007888793945
6_20251106_215357,1762437202494,6,0.49460306763648987,0.3611716330051422,0.29018068313598633,0.7353353500366211,0.6230024099349976,3.0598866939544678,2.8512232303619385,3.007467269897461,9.335381507873535,6.8743696212768555,0.22510366141796112,-0.4425676465034485,-0.784735918045044,19.475236892700195,-25.953269958496094,-15.759284019470215,0.06265377998352051,0.4473247528076172,0.2692546844482422,2.9448134899139404,8.888056755065918,6.605114936828613
6_20251106_215357,1762437202513,6,0.5014304518699646,0.3635442554950714,0.2918463945388794,0.7288544178009033,0.6204368472099304,3.0666704177856445,2.861116886138916,2.957191228866577,9.395234107971191,6.797758102416992,0.303905189037323,-0.4248526096343994,-0.8085595965385437,19.808555603027344,-25.6666259765625,-15.970766067504883,0.009902000427246094,0.40574169158935547,0.1541147232055664,2.947289228439331,8.989492416381836,6.643643379211426
6_20251106_215357,1762437202532,6,0.5071240067481995,0.3656812608242035,0.294657438993454,0.7226890325546265,0.6173003911972046,3.075137138366699,2.8718504905700684,2.806363105773926,9.419174194335938,6.739102840423584,0.3539960980415344,-0.4401242136955261,-0.8824742436408997,20.114498138427734,-25.420455932617188,-16.062374114990234,-0.11274099349975586,0.34374523162841797,0.07636785507202148,2.9191040992736816,9.07542896270752,6.6627349853515625
6_20251106_215357,1762437202551,6,0.5140169262886047,0.3682918846607208,0.2975127100944519,0.7152858972549438,0.6173003911972046,3.075137138366699,2.8718504905700684,2.806363105773926,9.419174194335938,6.739102840423584,0.35277438163757324,-0.40713751316070557,-0.9875430464744568,20.53644561767578,-25.06573486328125,-16.2420711517334,-0.11274099349975586,0.34374523162841797,0.07636785507202148,2.9191040992736816,9.07542896270752,6.6627349853515625
6_20251106_215357,1762437202572,6,0.5215307474136353,0.37035614252090454,0.30081623792648315,0.7073553800582886,0.6060805320739746,3.0926191806793213,2.89212703704834,1.99955153465271,9.110336303710938,6.611018657684326,0.3704894781112671,-0.31428608298301697,-1.0406882762908936,20.931499481201172,-24.762428283691406,-16.464353561401367,-0.6545908451080322,-0.01941204071044922,-0.05569887161254883,2.654142379760742,9.129748344421387,6.666717529296875
6_20251106_215357,1762437202590,6,0.5290815234184265,0.37166306376457214,0.3048307001590729,0.6992979049682617,0.5982843041419983,3.099475860595703,2.899675130844116,1.824782371520996,8.973872184753418,6.344076156616211,0.39858925342559814,-0.26480603218078613,-0.9905973076820374,21.294124603271484,-24.38629913330078,-16.67300796508789,-0.6634879112243652,-0.12470054626464844,-0.25811290740966797,2.4882702827453613,9.098572731018066,6.602189064025879
6_20251106_215357,1762437202609,6,0.5359371304512024,0.37281709909439087,0.3091081380844116,0.6915424466133118,0.5888529419898987,3.1060686111450195,2.9064080715179443,1.9001964330673218,8.995418548583984,6.297391891479492,0.415693461894989,-0.3228381872177124,-0.914239227771759,21.74598503112793,-23.929672241210938,-16.83609390258789,-0.47045910358428955,-0.08252334594726562,-0.2438373565673828,2.3706555366516113,9.07794189453125,6.541229248046875
6_20251106_215357,1762437202629,6,0.5424449443817139,0.3747002184391022,0.3128317594528198,0.6837320327758789,0.5780096054077148,3.1131200790405273,2.9129018783569336,1.9061816930770874,9.228843688964844,6.462584495544434,0.4419606328010559,-0.40225058794021606,-0.9026327729225159,22.24547576904297,-23.49457550048828,-17.038297653198242,-0.37157905101776123,0.12072181701660156,-0.06291580200195312,2.2777607440948486,9.108121871948242,6.525500297546387
6_20251106_215357,1762437202647,6,0.5489084720611572,0.37725529074668884,0.31620779633522034,0.6755668520927429,0.5681982040405273,3.119626045227051,2.918564796447754,1.7972501516342163,9.47783088684082,6.7163591384887695,0.4731147289276123,-0.3906441926956177,-0.9802125692367554,22.750408172607422,-22.95928955078125,-17.21135711669922,-0.3844085931777954,0.29576683044433594,0.15268707275390625,2.1816587448120117,9.182064056396484,6.563672065734863
6_20251106_215357,1762437202665,6,0.5557373762130737,0.37967339158058167,0.31999409198760986,0.6667892336845398,0.5559247732162476,3.1273880004882812,2.9252099990844727,1.505170226097107,9.493391990661621,6.7941670417785645,0.4731147289276123,-0.3906441926956177,-0.9802125692367554,23.253536224365234,-22.449661254882812,-17.33087730407715,-0.5411907434463501,0.24906253814697266,0.18439579010009766,2.046360969543457,9.244329452514648,6.609771251678467
6_20251106_215357,1762437202686,6,0.5627428293228149,0.3813650906085968,0.3249109089374542,0.6575059294700623,0.5408489108085632,3.1347827911376953,2.9317023754119873,1.1245083808898926,9.123504638671875,6.559545516967773,0.634993851184845,-0.2568647861480713,-1.154919981956482,23.779315948486328,-21.97557830810547,-17.504276275634766,-0.7374820709228516,-0.09665966033935547,-0.04018068313598633,1.8619904518127441,9.22016429901123,6.59972620010376
6_20251106_215357,1762437202704,6,0.5693596601486206,0.38303741812705994,0.3310014307498932,0.6477267742156982,0.52430659532547,3.1403801441192627,2.9363677501678467,0.7917287349700928,8.827832221984863,6.164519309997559,0.7431169152259827,-0.3289468288421631,-1.1231549978256226,24.2730770111084,-21.41651153564453,-17.623231887817383,-0.856209397315979,-0.31386566162109375,-0.34816551208496094,1.6479381322860718,9.141697883605957,6.5126848220825195
6_20251106_215357,1762437202724,6,0.5756140947341919,0.38580209016799927,0.33713480830192566,0.6373109817504883,0.504371702671051,3.145059823989868,2.9396908283233643,0.5319689512252808,8.839802742004395,6.0711493492126465,0.8261944651603699,-0.4926585853099823,-1.0803943872451782,24.666826248168945,-20.91362762451172,-17.787715911865234,-0.8927754163742065,-0.24151611328125,-0.3532280921936035,1.4247443675994873,9.081318855285645,6.42437744140625
6_20251106_215357,1762437202742,6,0.5817744135856628,0.39012548327445984,0.3426307737827301,0.6260549426078796,0.504371702671051,3.145059823989868,2.9396908283233643,0.5319689512252808,8.839802742004395,6.0711493492126465,0.8261944651603699,-0.4926585853099823,-1.0803943872451782,25.17036247253418,-20.391845703125,-17.866424560546875,-0.8927754163742065,-0.24151611328125,-0.3532280921936035,1.4247443675994873,9.081318855285645,6.42437744140625
6_20251106_215357,1762437202761,6,0.5878311991691589,0.39460355043411255,0.3479568362236023,0.6145474314689636,0.4626644253730774,3.153697967529297,2.9429986476898193,0.3284705877304077,9.233631134033203,5.98615837097168,0.8371900916099548,-0.5238127112388611,-1.0785619020462036,25.634620666503906,-19.92253875732422,-17.961177825927734,-0.7134900093078613,0.11375999450683594,-0.3061251640319824,1.041960597038269,9.119871139526367,6.292283535003662
6_20251106_215357,1762437202781,6,0.5937404632568359,0.3978925943374634,0.3541262745857239,0.6031155586242676,0.43911945819854736,3.1577625274658203,2.941849946975708,0.10342532396316528,9.03851318359375,5.482200622558594,0.8225293159484863,-0.27457988262176514,-1.2343324422836304,26.127887725830078,-19.364151000976562,-18.01255226135254,-0.7508282661437988,-0.06508636474609375,-0.648066520690918,0.8542535901069641,9.103599548339844,6.130267143249512
6_20251106_215357,1762437202800,6,0.5996185541152954,0.4002101421356201,0.3611721694469452,0.5914762020111084,0.43911945819854736,3.1577625274658203,2.941849946975708,0.10342532396316528,9.03851318359375,5.482200622558594,0.8225293159484863,-0.27457988262176514,-1.2343324422836304,26.547643661499023,-18.811065673828125,-18.01280403137207,-0.7508282661437988,-0.06508636474609375,-0.648066520690918,0.8542535901069641,9.103599548339844,6.130267143249512
6_20251106_215357,1762437202819,6,0.6057692170143127,0.4024852514266968,0.36811602115631104,0.5792580842971802,0.41041237115859985,3.160809278488159,2.9377377033233643,-0.3346947431564331,8.739250183105469,5.26314115524292,0.828637957572937,-0.2855754494667053,-1.2349432706832886,26.980981826782227,-18.243682861328125,-18.106916427612305,-0.9511587023735046,-0.29147911071777344,-0.6937007904052734,0.6164639592170715,9.030729293823242,5.956841945648193
6_20251106_215357,1762437202839,6,0.6114088296890259,0.4048002362251282,0.37498602271080017,0.5671873092651367,0.3801758587360382,3.162217617034912,2.931551694869995,-0.7859823703765869,8.587224960327148,5.145830154418945,0.828637957572937,-0.2855754494667053,-1.2349432706832886,27.41343116760254,-17.677520751953125,-18.079381942749023,-1.1219570636749268,-0.35480308532714844,-0.6488094329833984,0.33597472310066223,8.942028045654297,5.794639587402344
6_20251106_215357,1762437202858,6,0.6160118579864502,0.40740177035331726,0.38192513585090637,0.5555955767631531,0.3470178246498108,3.1626479625701904,2.9227819442749023,-1.1223533153533936,8.643486022949219,4.8429765701293945,0.8903352618217468,-0.1896696835756302,-1.0064798593521118,27.41343116760254,-17.677520751953125,-18.079381942749023,-1.1666624546051025,-0.23883342742919922,-0.7613306045532227,0.044309139251708984,8.882319450378418,5.604307174682617
6_20251106_215357,1762437202878,6,0.6196134090423584,0.41025370359420776,0.3886907398700714,0.5446931719779968,0.28065410256385803,3.1614372730255127,2.900071382522583,-1.3234574794769287,8.607574462890625,4.418024063110352,0.8952222466468811,-0.15057434141635895,-0.8885828852653503,27.75615119934082,-17.192527770996094,-18.029830932617188,-0.8813080191612244,-0.17621994018554688,-0.7869930267333984,-0.44214946031570435,8.783794403076172,5.20501708984375
6_20251106_215357,1762437202895,6,0.6223030090332031,0.4133337438106537,0.39519524574279785,0.534523069858551,0.2491340935230255,3.1601970195770264,2.8866984844207764,-1.34979248046875,8.570466995239258,4.038559436798096,0.9453131556510925,-0.13652443885803223,-0.784125030040741,28.2127742767334,-16.625045776367188,-17.97428321838379,-0.7261144518852234,-0.17066192626953125,-0.9331660270690918,-0.6236780285835266,8.741128921508789,4.9717254638671875
6_20251106_215357,1762437202914,6,0.624117374420166,0.4170350432395935,0.4015197157859802,0.5247296690940857,0.21408890187740326,3.15847110748291,2.869617462158203,-1.1989644765853882,8.592013359069824,3.9212489128112793,0.9770780801773071,-0.16156990826129913,-0.6814997792243958,28.60433578491211,-16.136741638183594,-17.93628692626953,-0.46022915840148926,-0.1192922592163086,-0.8403811454772949,-0.7387353181838989,8.711305618286133,4.761630058288574
6_20251106_215357,1762437202933,6,0.6252978444099426,0.4214854836463928,0.40735316276550293,0.5151854157447815,0.21408890187740326,3.15847110748291,2.869617462158203,-1.1989644765853882,8.592013359069824,3.9212489128112793,0.9923496842384338,-0.1731763333082199,-0.6558434367179871,28.898422241210938,-15.643173217773438,-17.807336807250977,-0.46022915840148926,-0.1192922592163086,-0.8403811454772949,-0.7387353181838989,8.711305618286133,4.761630058288574
6_20251106_215357,1762437202952,6,0.6261292099952698,0.42611321806907654,0.41304484009742737,0.5057505965232849,0.14517879486083984,3.15454363822937,2.8308136463165283,-1.4311919212341309,8.618349075317383,3.644730567932129,1.0082322359085083,-0.07543797045946121,-0.6833323836326599,29.174190521240234,-15.251533508300781,-17.613407135009766,-0.4856914281845093,-0.05891704559326172,-0.7577180862426758,-0.9455004930496216,8.677266120910645,4.402448654174805
6_20251106_215357,1762437202974,6,0.6256257891654968,0.42944884300231934,0.4201907217502594,0.4976000487804413,0.10498306155204773,3.151508331298828,2.803668737411499,-1.592793583869934,8.454353332519531,3.0653586387634277,1.0063996315002441,0.04856756329536438,-0.6546216607093811,29.518733978271484,-14.942214965820312,-17.499481201171875,-0.5178345441818237,-0.1783304214477539,-1.0696721076965332,-1.0749590396881104,8.632683753967285,4.135030746459961
6_20251106_215357,1762437202990,6,0.6253273487091064,0.4330228865146637,0.4271310567855835,0.4888925850391388,0.10498306155204773,3.151508331298828,2.803668737411499,-1.592793583869934,8.454353332519531,3.0653586387634277,1.0009018182754517,0.030852487310767174,-0.5697115063667297,29.813234329223633,-14.649444580078125,-17.306682586669922,-0.5178345441818237,-0.1783304214477539,-1.0696721076965332,-1.0749590396881104,8.632683753967285,4.135030746459961
6_20251106_215357,1762437203010,6,0.6246474981307983,0.43704667687416077,0.4335361123085022,0.48047077655792236,0.04096142202615738,3.145564079284668,2.7529194355010986,-1.5209705829620361,8.468717575073242,2.7074408531188965,1.0009018182754517,0.030852487310767174,-0.5697115063667297,30.11538314819336,-14.4432373046875,-17.1693058013916,-0.27797770500183105,-0.09497928619384766,-0.9109761714935303,-1.242992877960205,8.56369686126709,3.6184170246124268
6_20251106_215357,1762437203029,6,0.6238957643508911,0.4414312541484833,0.4392988681793213,0.4721324145793915,0.008218172937631607,3.1421303749084473,2.723810911178589,-1.601172924041748,8.426820755004883,2.5829474925994873,0.985019326210022,-0.02046014927327633,-0.5202314257621765,30.425600051879883,-14.299835205078125,-16.951662063598633,-0.2865440845489502,-0.10950088500976562,-0.8283755779266357,-1.3146288394927979,8.536321640014648,3.411323070526123
6_20251106_215357,1762437203048,6,0.6230260729789734,0.4459444284439087,0.44494959712028503,0.4636722505092621,-0.02407146617770195,3.1384923458099365,2.693284034729004,-1.7460159063339233,8.399288177490234,2.3638875484466553,1.0186169147491455,-0.04184041544795036,-0.48602303862571716,30.723236083984375,-14.157760620117188,-16.680442810058594,-0.34510958194732666,-0.10962677001953125,-0.8379485607147217,-1.4009063243865967,8.508914947509766,3.201836109161377
6_20251106_215357,1762437203067,6,0.6218153834342957,0.4506227672100067,0.45049095153808594,0.455348938703537,-0.055982477962970734,3.13490629196167,2.661403179168701,-1.8513561487197876,8.461535453796387,2.152009963989258,0.9911280274391174,-0.04733819514513016,-0.44998204708099365,30.983720779418945,-14.018875122070312,-16.32959747314453,-0.36035990715026855,-0.037903785705566406,-0.8398609161376953,-1.490996241569519,8.499439239501953,2.991870880126953
6_20251106_215357,1762437203086,6,0.6204965710639954,0.4552798271179199,0.4556828439235687,0.44727781414985657,-0.08780224621295929,3.132065534591675,2.6281256675720215,-2.039292812347412,8.705732345581055,1.9018263816833496,0.911715567111969,0.017413461580872536,-0.4371538758277893,31.330509185791016,-13.861473083496094,-16.015602111816406,-0.43863725662231445,0.16503429412841797,-0.8720355033874512,-1.6006555557250977,8.540698051452637,2.773861885070801
6_20251106_215357,1762437203105,6,0.6190744042396545,0.45920151472091675,0.46084126830101013,0.4398933947086334,-0.08780224621295929,3.132065534591675,2.6281256675720215,-2.039292812347412,8.705732345581055,1.9018263816833496,0.7944294810295105,0.15730148553848267,-0.4231039881706238,31.528554916381836,-13.751815795898438,-15.654220581054688,-0.43863725662231445,0.16503429412841797,-0.8720355033874512,-1.6006555557250977,8.540698051452637,2.773861885070801
6_20251106_215357,1762437203124,6,0.6173871755599976,0.46187111735343933,0.46627673506736755,0.43369823694229126,-0.12161777913570404,3.1301050186157227,2.5913312435150146,-2.2571558952331543,8.83022689819336,1.6169286966323853,0.6911934018135071,0.2678680121898651,-0.38767382502555847,31.691650390625,-13.619155883789062,-15.320815086364746,-0.5252002477645874,0.23162269592285156,-0.9255465269088745,-1.731955647468567,8.598604202270508,2.5424752235412598
6_20251106_215357,1762437203143,6,0.6154347062110901,0.4636092782020569,0.47179412841796875,0.4286220371723175,-0.15371188521385193,3.1285407543182373,2.5553648471832275,-2.306234836578369,8.673412322998047,1.5367263555526733,0.6911934018135071,0.2678680121898651,-0.38767382502555847,31.89020347595215,-13.497207641601562,-14.932136535644531,-0.459423303604126,0.05984687805175781,-0.8045989274978638,-1.8468115329742432,8.613565444946289,2.341325283050537
6_20251106_215357,1762437203162,6,0.6135079264640808,0.46481889486312866,0.47700735926628113,0.4242821931838989,-0.21441596746444702,3.1257030963897705,2.486992597579956,-2.248776435852051,8.559693336486816,1.990407943725586,0.6038396954536438,0.31795889139175415,-0.35285454988479614,32.07658386230469,-13.36444091796875,-14.449071884155273,-0.26108789443969727,-0.047119140625,-0.19298505783081055,-1.9876885414123535,8.606812477111816,2.1833930015563965
6_20251106_215357,1762437203181,6,0.6113341450691223,0.46584275364875793,0.48230960965156555,0.42028388381004333,-0.24491305649280548,3.1240575313568115,2.453166961669922,-2.4391074180603027,8.526175498962402,1.8060624599456787,0.6032288670539856,0.3417826294898987,-0.341248095035553,32.251583099365234,-13.219772338867188,-13.979748725891113,-0.36113500595092773,-0.06450939178466797,-0.3018643856048584,-2.077972412109375,8.59068489074707,2.107926845550537
6_20251106_215357,1762437203200,6,0.6087110042572021,0.4672054648399353,0.48781073093414307,0.416209876537323,-0.2752537727355957,3.121864080429077,2.4191436767578125,-2.576768398284912,8.360982894897461,1.4194154739379883,0.7113519310951233,0.3759910464286804,-0.277107298374176,32.414207458496094,-13.064559936523438,-13.389005661010742,-0.39903688430786133,-0.1837615966796875,-0.5508091449737549,-2.177731513977051,8.544744491577148,1.9702246189117432
6_20251106_215357,1762437203220,6,0.6055007576942444,0.46882888674736023,0.493488609790802,0.41235581040382385,-0.30724790692329407,3.1188535690307617,2.382383346557617,-2.7216110229492188,8.275992393493652,1.0698771476745605,0.6881390810012817,0.4022582173347473,-0.2416771650314331,32.51116943359375,-13.000946044921875,-12.829595565795898,-0.4351036548614502,-0.21500205993652344,-0.7202780246734619,-2.2865073680877686,8.490994453430176,1.7901551723480225
6_20251106_215357,1762437203239,6,0.602003812789917,0.47030723094940186,0.4991515874862671,0.40896233916282654,-0.3377334475517273,3.1157076358795166,2.3472342491149902,-2.873636484146118,8.334648132324219,1.0710742473602295,0.6038396954536438,0.4492948055267334,-0.23251420259475708,32.64357376098633,-12.959663391113281,-12.309789657592773,-0.46970343589782715,-0.1250772476196289,-0.5752646923065186,-2.403933048248291,8.459725379943848,1.646338939666748
6_20251106_215357,1762437203259,6,0.5986084342002869,0.47121208906173706,0.5046760439872742,0.40611472725868225,-0.36995983123779297,3.112105131149292,2.310209035873413,-2.9765825271606445,8.30950927734375,1.0291774272918701,0.523205578327179,0.5287072062492371,-0.23556852340698242,32.81586456298828,-12.853477478027344,-11.760161399841309,-0.45811963081359863,-0.12017250061035156,-0.49372923374176025,-2.518462896347046,8.429681777954102,1.5229066610336304
6_20251106_215357,1762437203279,6,0.5951924324035645,0.4712980091571808,0.5103225111961365,0.40397417545318604,-0.36995983123779297,3.112105131149292,2.310209035873413,-2.9765825271606445,8.30950927734375,1.0291774272918701,0.523205578327179,0.5287072062492371,-0.23556852340698242,32.81586456298828,-12.853477478027344,-11.760161399841309,-0.45811963081359863,-0.12017250061035156,-0.49372923374176025,-2.518462896347046,8.429681777954102,1.5229066610336304
6_20251106_215357,1762437203296,6,0.591496467590332,0.4711865782737732,0.5160439014434814,0.4022608995437622,-0.429341584444046,3.105043888092041,2.2415771484375,-3.030449867248535,8.3035249710083,0.7239298820495605,0.5531379580497742,0.5757437944412231,-0.1543235182762146,33.02183151245117,-12.76043701171875,-10.911967277526855,-0.32882070541381836,-0.08342170715332031,-0.5439049005508423,-2.701629161834717,8.386946678161621,1.2678347826004028
6_20251106_215357,1762437203316,6,0.5871481895446777,0.4713490605354309,0.5218859314918518,0.4009016454219818,-0.46047139167785645,3.1017167568206787,2.2039906978607178,-3.0555877685546875,8.491460800170898,0.41628819704055786,0.5531379580497742,0.5757437944412231,-0.1543235182762146,33.191932678222656,-12.668830871582031,-10.159858703613281,-0.28316688537597656,0.08361148834228516,-0.6812372803688049,-2.772420883178711,8.407849311828613,1.0975254774093628
6_20251106_215357,1762437203335,6,0.5824505090713501,0.4721403121948242,0.5273056626319885,0.39972952008247375,-0.46047139167785645,3.1017167568206787,2.2039906978607178,-3.0555877685546875,8.491460800170898,0.41628819704055786,0.5641335248947144,0.5690242648124695,-0.004050794988870621,33.29103469848633,-12.544319152832031,-9.409900665283203,-0.28316688537597656,0.08361148834228516,-0.6812372803688049,-2.772420883178711,8.407849311828613,1.0975254774093628
6_20251106_215357,1762437203354,6,0.577460765838623,0.4732203185558319,0.5323721766471863,0.39897555112838745,-0.5162645578384399,3.0982799530029297,2.1324875354766846,-2.782660484313965,8.771570205688477,0.41030293703079224,0.5268707871437073,0.6423280835151672,0.022827252745628357,33.3469352722168,-12.535606384277344,-8.62324047088623,0.016238689422607422,0.2433147430419922,-0.4428868889808655,-2.7988991737365723,8.528255462646484,0.8531898260116577
6_20251106_215357,1762437203373,6,0.5720582604408264,0.4738405644893646,0.5375961661338806,0.3990172743797302,-0.5417357683181763,3.097482919692993,2.097440004348755,-2.7060494422912598,8.669821739196777,0.37439143657684326,0.4828885793685913,0.7425099015235901,0.009388228878378868,33.3665771484375,-12.528877258300781,-7.87860107421875,0.07427978515625,0.11325263977050781,-0.3830386996269226,-2.7803292274475098,8.55656909942627,0.7574301362037659
6_20251106_215357,1762437203392,6,0.5661206245422363,0.47343796491622925,0.5434712767601013,0.40000367164611816,-0.5417357683181763,3.097482919692993,2.097440004348755,-2.7060494422912598,8.669821739196777,0.37439143657684326,0.469449520111084,0.8048180937767029,-0.0034399302676320076,33.42459487915039,-12.482498168945312,-7.09114933013916,0.07427978515625,0.11325263977050781,-0.3830386996269226,-2.7803292274475098,8.55656909942627,0.7574301362037659
6_20251106_215357,1762437203412,6,0.56017005443573,0.47294455766677856,0.5493566393852234,0.40092429518699646,-0.589712917804718,3.095841407775879,2.025240659713745,-2.7898430824279785,8.483081817626953,-0.08288142085075378,0.4566214084625244,0.8103159070014954,-0.004661659710109234,33.458648681640625,-12.425552368164062,-6.2638654708862305,-0.023900985717773438,-0.060439109802246094,-0.5759134292602539,-2.765942096710205,8.5435209274292,0.4930320382118225
6_20251106_215357,1762437203430,6,0.5542120337486267,0.47236183285713196,0.5551810264587402,0.4018673598766327,-0.589712917804718,3.095841407775879,2.025240659713745,-2.7898430824279785,8.483081817626953,-0.08288142085075378,0.4211912155151367,0.7944334149360657,0.04359665513038635,33.44044494628906,-12.422958374023438,-5.3449859619140625,-0.023900985717773438,-0.060439109802246094,-0.5759134292602539,-2.765942096710205,8.5435209274292,0.4930320382118225
6_20251106_215357,1762437203449,6,0.548280656337738,0.4718950688838959,0.5605445504188538,0.40310436487197876,-0.6312820911407471,3.0923025608062744,1.9560102224349976,-2.7898430824279785,8.264021873474121,-0.315108984708786,0.3918697237968445,0.7626684308052063,0.13522636890411377,33.396942138671875,-12.4580078125,-4.590073585510254,-0.0053369998931884766,-0.18117713928222656,-0.5231476426124573,-2.78450608253479,8.445199012756348,0.20803864300251007
6_20251106_215357,1762437203468,6,0.5421817302703857,0.47174689173698425,0.5652981400489807,0.4048849642276764,-0.6509358286857605,3.0902276039123535,1.920656681060791,-2.747946262359619,8.408864974975586,-0.3821437656879425,0.3918697237968445,0.7626684308052063,0.13522636890411377,33.2800407409668,-12.486610412597656,-3.702676773071289,0.029247760772705078,-0.029067039489746094,-0.4721459448337555,-2.777194023132324,8.437932014465332,0.09000217169523239
6_20251106_215357,1762437203488,6,0.5356852412223816,0.4718751013278961,0.5697661638259888,0.4071139097213745,-0.6704314947128296,3.088129758834839,1.882852554321289,-2.7252023220062256,8.430412292480469,-0.7161205410957336,0.3973674774169922,0.841469943523407,0.256788432598114,33.22246170043945,-12.536628723144531,-2.7863235473632812,0.041593313217163086,-0.006015777587890625,-0.6448981761932373,-2.7667956352233887,8.43642807006836,-0.07122236490249634
6_20251106_215357,1762437203507,6,0.5285115838050842,0.47192147374153137,0.5743957757949829,0.409920871257782,-0.6877086162567139,3.0857009887695312,1.8460519313812256,-2.6509852409362793,8.241277694702148,-1.0489003658294678,0.3857610821723938,0.8787327408790588,0.3178749084472656,33.14303207397461,-12.538406372070312,-1.8293476104736328,0.09264850616455078,-0.15612030029296875,-0.7821424007415771,-2.74363374710083,8.397397994995117,-0.2667579650878906
6_20251106_215357,1762437203527,6,0.5208756923675537,0.47208327054977417,0.578872799873352,0.41319748759269714,-0.7042492032051086,3.082746744155884,1.8062658309936523,-2.501354217529297,8.224519729614258,-1.2488075494766235,0.38942623138427734,0.8530763983726501,0.39423301815986633,33.01314163208008,-12.580497741699219,-0.9291896820068359,0.19382357597351074,-0.13830280303955078,-0.7856397032737732,-2.6951777935028076,8.362822532653809,-0.46316784620285034
6_20251106_215357,1762437203545,6,0.5129231810569763,0.47268104553222656,0.5829468369483948,0.41671982407569885,-0.7176340818405151,3.0798420906066895,1.7697954177856445,-2.387634515762329,8.20895767211914,-1.4594882726669312,0.40408700704574585,0.816424548625946,0.4718128442764282,32.8824462890625,-12.635276794433594,-0.015779495239257812,0.2460346221923828,-0.1230916976928711,-0.7970563769340515,-2.633669137954712,8.332049369812012,-0.6624318957328796
6_20251106_215357,1762437203564,6,0.504755437374115,0.4739378094673157,0.5864751935005188,0.4202996492385864,-0.7300297021865845,3.0764997005462646,1.7303242683410645,-2.259550094604492,8.175439834594727,-1.7192480564117432,0.40408700704574585,0.816424548625946,0.4718128442764282,32.69949722290039,-12.744407653808594,0.989227294921875,0.29929518699645996,-0.12528705596923828,-0.8454529047012329,-2.558845281600952,8.300726890563965,-0.8737951517105103
6_20251106_215357,1762437203582,6,0.4962354898452759,0.4756590723991394,0.5893522500991821,0.42445576190948486,-0.7395085096359253,3.0732123851776123,1.69257390499115,-1.877691388130188,8.187411308288574,-1.7779033184051514,0.2922987937927246,0.8072615265846252,0.7277651429176331,32.46034240722656,-12.994438171386719,1.9488201141357422,0.5449231863021851,-0.0906524658203125,-0.7232866287231445,-2.422614574432373,8.278063774108887,-1.0546166896820068
6_20251106_215357,1762437203602,6,0.4874037206172943,0.47773459553718567,0.591191291809082,0.4297674894332886,-0.7460560202598572,3.0698416233062744,1.6512917280197144,-1.2851519584655762,8.310707092285156,-1.5265231132507324,0.21532981097698212,0.7706096768379211,0.8193948864936829,32.186649322509766,-13.209312438964844,2.9212493896484375,0.9099700450897217,0.026114463806152344,-0.37752509117126465,-2.195122003555298,8.284592628479004,-1.1489980220794678
6_20251106_215357,1762437203622,6,0.4786185622215271,0.4800293445587158,0.5920883417129517,0.4358066916465759,-0.7482928037643433,3.067692279815674,1.613947868347168,-0.8566082119941711,8.609969139099121,-1.1805757284164429,0.21532981097698212,0.7706096768379211,0.8193948864936829,31.935195922851562,-13.471885681152344,3.798990249633789,1.0708110332489014,0.2603015899658203,-0.025262117385864258,-1.9274193048477173,8.3496675491333,-1.1553136110305786
6_20251106_215357,1762437203640,6,0.4702167809009552,0.48179933428764343,0.592933177947998,0.4418097138404846,-0.7473189234733582,3.0665550231933594,1.5786515474319458,-0.7979528307914734,8.679397583007812,-1.0895999670028687,0.15302161872386932,0.8280309438705444,0.5958183407783508,31.64366340637207,-13.799629211425781,4.673938751220703,0.903573215007782,0.26378440856933594,0.05257093906402588,-1.7015260457992554,8.415613174438477,-1.1421709060668945
6_20251106_215357,1762437203659,6,0.4621320068836212,0.4821024537086487,0.5946539044380188,0.44765833020210266,-0.7447587847709656,3.065544843673706,1.5439900159835815,-1.105594515800476,8.441184997558594,-1.5540552139282227,0.1133154034614563,0.9807471632957458,0.47059109807014465,31.338226318359375,-14.165298461914062,5.493539810180664,0.47674524784088135,0.02045726776123047,-0.3295074701309204,-1.5823397636413574,8.420727729797363,-1.2245477437973022
6_20251106_215357,1762437203681,6,0.4538417160511017,0.48075854778289795,0.5974107384681702,0.4538715183734894,-0.7447587847709656,3.065544843673706,1.5439900159835815,-1.105594515800476,8.441184997558594,-1.5540552139282227,0.1133154034614563,0.9807471632957458,0.47059109807014465,31.338226318359375,-14.165298461914062,5.493539810180664,0.47674524784088135,0.02045726776123047,-0.3295074701309204,-1.5823397636413574,8.420727729797363,-1.2245477437973022
6_20251106_215357,1762437203699,6,0.44511884450912476,0.4787144660949707,0.6000618934631348,0.46111539006233215,-0.7357112765312195,3.061873197555542,1.4701803922653198,-0.9463869333267212,8.280780792236328,-2.0592098236083984,-0.03817904740571976,1.1023091077804565,0.6575157046318054,30.649410247802734,-14.977554321289062,7.209314346313477,0.44282567501068115,-0.07730770111083984,-0.5646367073059082,-1.3892126083374023,8.358088493347168,-1.4945731163024902
6_20251106_215357,1762437203718,6,0.4359017610549927,0.4771841764450073,0.6017970442771912,0.4691750407218933,-0.7286520004272461,3.060265302658081,1.4352506399154663,-0.5369961261749268,8.406471252441406,-2.0903332233428955,-0.02412915602326393,1.02534019947052,0.8193948864936829,30.203990936279297,-15.45281982421875,8.061958312988281,0.6817731857299805,0.03870582580566406,-0.4766080379486084,-1.2187693119049072,8.367765426635742,-1.613725185394287
6_20251106_215357,1762437203738,6,0.42619094252586365,0.476886510848999,0.6025023460388184,0.47742167115211487,-0.7179007530212402,3.059513807296753,1.398216962814331,-0.004309117794036865,8.6494722366333,-2.3058021068573,0.04428769275546074,0.8970586657524109,0.9831065535545349,30.203990936279297,-15.45281982421875,8.061958312988281,0.9715681672096252,0.22536563873291016,-0.5536614656448364,-0.9758772850036621,8.42410659790039,-1.7521406412124634
6_20251106_215357,1762437203755,6,0.4160134196281433,0.4782981276512146,0.6021739840507507,0.48533517122268677,-0.7057679891586304,3.0598199367523193,1.3668885231018066,0.5954126119613647,8.839802742004395,-2.4003686904907227,0.08277217298746109,0.7449533343315125,1.113831639289856,29.73741340637207,-15.87890625,8.860612869262695,1.2570319175720215,0.33255672454833984,-0.5185824632644653,-0.6616193056106567,8.507246017456055,-1.8817862272262573
6_20251106_215357,1762437203775,6,0.4057849049568176,0.48130008578300476,0.600712239742279,0.49278151988983154,-0.6863704323768616,3.062166690826416,1.330261468887329,1.2585779428482056,9.166597366333008,-2.412339210510254,0.08277217298746109,0.7449533343315125,1.113831639289856,29.25461769104004,-16.380859375,9.63016128540039,1.5361578464508057,0.5274810791015625,-0.4244424104690552,-0.2775798738002777,8.639116287231445,-1.9878968000411987
6_20251106_215357,1762437203793,6,0.39588361978530884,0.48506611585617065,0.5985062122344971,0.49977725744247437,-0.6647766828536987,3.066426992416382,1.298359990119934,1.7565504312515259,9.554441452026367,-2.225599765777588,0.016798779368400574,0.5720786452293396,1.0179258584976196,28.68340492248535,-16.939010620117188,10.435768127441406,1.6273043155670166,0.7322597503662109,-0.19016242027282715,0.12924617528915405,8.822181701660156,-2.0354373455047607
6_20251106_215357,1762437203812,6,0.3871167302131653,0.48800545930862427,0.5962778925895691,0.5064029693603516,-0.6384578943252563,3.073427438735962,1.2666593790054321,1.8295704126358032,9.816595077514648,-1.9299285411834717,-0.1487455517053604,0.6600431799888611,0.7234891057014465,28.048429489135742,-17.562973022460938,11.142990112304688,1.3602594137191772,0.7955303192138672,0.08440709114074707,0.469310998916626,9.021064758300781,-2.0143356323242188
6_20251106_215357,1762437203832,6,0.38036230206489563,0.48864468932151794,0.5944491028785706,0.5130118727684021,-0.6108725070953369,3.0820765495300293,1.2379249334335327,1.4106032848358154,9.749560356140137,-1.5109614133834839,-0.34727656841278076,0.8970586657524109,0.391178697347641,27.389984130859375,-18.175697326660156,11.82246208190918,0.7530338764190674,0.5827970504760742,0.40269935131073,0.657569408416748,9.166763305664062,-1.9136607646942139
6_20251106_215357,1762437203852,6,0.3744739890098572,0.4850364625453949,0.5942967534065247,0.520884096622467,-0.5837860107421875,3.090703248977661,1.211321473121643,0.9784684181213379,9.316228866577148,-1.6605925559997559,-0.46517348289489746,1.1615630388259888,0.22380174696445465,26.790861129760742,-18.809829711914062,12.530889511108398,0.2567192316055298,0.11957263946533203,0.2024545669555664,0.7217491865158081,9.196656227111816,-1.8630471229553223
6_20251106_215357,1762437203870,6,0.3684152364730835,0.478473424911499,0.5953070521354675,0.530040442943573,-0.5837860107421875,3.090703248977661,1.211321473121643,0.9784684181213379,9.316228866577148,-1.6605925559997559,-0.47494733333587646,1.1695042848587036,0.29588377475738525,26.097156524658203,-19.41156768798828,13.128057479858398,0.2567192316055298,0.11957263946533203,0.2024545669555664,0.7217491865158081,9.196656227111816,-1.8630471229553223
6_20251106_215357,1762437203890,6,0.36195850372314453,0.47214144468307495,0.5959620475769043,0.5393493175506592,-0.5321134328842163,3.1037707328796387,1.1598255634307861,0.7582113742828369,8.663835525512695,-1.9694311618804932,-0.4169151782989502,0.9373757243156433,0.5726054906845093,25.517440795898438,-19.942291259765625,13.622827529907227,0.02965623140335083,-0.36743640899658203,-0.06923496723175049,0.7285551428794861,9.031271934509277,-1.9001961946487427
6_20251106_215357,1762437203909,6,0.35510414838790894,0.46875157952308655,0.5948469638824463,0.5480238199234009,-0.5058525204658508,3.1090633869171143,1.13624107837677,1.296883463859558,8.952325820922852,-1.5923607349395752,-0.3051269054412842,0.6637083888053894,0.9000290036201477,24.92603302001953,-20.47313690185547,14.049524307250977,0.4546626806259155,-0.0631570816040039,0.2462683916091919,0.8422207832336426,9.015482902526855,-1.838629126548767
6_20251106_215357,1762437203927,6,0.3475794494152069,0.4690142869949341,0.5918402075767517,0.5558230876922607,-0.48017236590385437,3.1141228675842285,1.1172634363174438,2.152773857116699,9.23243522644043,-1.3565419912338257,-0.16584977507591248,0.5024400353431702,1.1187185049057007,24.273794174194336,-21.00782012939453,14.46025276184082,1.0484424829483032,0.17356204986572266,0.3856697082519531,1.104331374168396,9.058873176574707,-1.7422116994857788
6_20251106_215357,1762437203947,6,0.3390904366970062,0.47174328565597534,0.5879266262054443,0.5628660917282104,-0.44943588972091675,3.120276927947998,1.0988346338272095,2.9212796688079834,9.452692031860352,-1.5229318141937256,-0.16584977507591248,0.5024400353431702,1.1187185049057007,23.6323184967041,-21.57843780517578,14.776067733764648,1.4535586833953857,0.31505489349365234,0.17542386054992676,1.4677209854125977,9.1376371383667,-1.6983556747436523
6_20251106_215357,1762437203966,6,0.33014002442359924,0.4753459393978119,0.5838642120361328,0.5693473219871521,-0.4127849340438843,3.1277780532836914,1.0799165964126587,3.413266897201538,9.58077621459961,-1.8593026399612427,-0.09498946368694305,0.3723258674144745,1.0612972974777222,23.019851684570312,-22.059967041015625,15.135259628295898,1.5564367771148682,0.3545112609863281,-0.12875759601593018,1.85683012008667,9.226264953613281,-1.7305450439453125
6_20251106_215357,1762437203985,6,0.3221212923526764,0.47871991991996765,0.5798764228820801,0.57515949010849,-0.3773917853832245,3.1350793838500977,1.0640789270401,3.5042426586151123,9.586761474609375,-1.5935578346252441,-0.2061668485403061,0.3607194423675537,0.8200057148933411,22.30375099182129,-22.660598754882812,15.461122512817383,1.317929983139038,0.28839683532714844,0.10958969593048096,2.186312675476074,9.298364639282227,-1.703147530555725
6_20251106_215357,1762437204003,6,0.3159169554710388,0.48054397106170654,0.5762740969657898,0.58067387342453,-0.33905625343322754,3.142469644546509,1.0493059158325195,3.2229361534118652,9.323410987854004,-1.2990835905075073,-0.3607156276702881,0.5445896983146667,0.5713837742805481,21.58873748779297,-23.259750366210938,15.638303756713867,0.829298734664917,0.02003765106201172,0.3232511281967163,2.3936374187469482,9.303373336791992,-1.6223347187042236
6_20251106_215357,1762437204023,6,0.31068798899650574,0.47936198115348816,0.5735251903533936,0.5871575474739075,-0.33905625343322754,3.142469644546509,1.0493059158325195,3.2229361534118652,9.323410987854004,-1.2990835905075073,-0.49693846702575684,0.768777072429657,0.4986909031867981,20.959136962890625,-23.841590881347656,15.900278091430664,0.829298734664917,0.02003765106201172,0.3232511281967163,2.3936374187469482,9.303373336791992,-1.6223347187042236
6_20251106_215357,1762437204041,6,0.30535218119621277,0.4760843515396118,0.5709273219108582,0.5951014161109924,-0.2611980438232422,3.1544582843780518,1.0217934846878052,3.488680839538574,9.057665824890137,-1.672563076019287,-0.5806269645690918,0.7089123129844666,0.6123117208480835,20.24512481689453,-24.427780151367188,16.03717613220215,0.7546472549438477,-0.1614675521850586,-0.04191410541534424,2.7340335845947266,9.219133377075195,-1.6306489706039429
6_20251106_215357,1762437204060,6,0.29995542764663696,0.47345229983329773,0.5672233700752258,0.6034296154975891,-0.2209499627351761,3.160231828689575,1.0097463130950928,3.8765249252319336,9.404809951782227,-1.3744977712631226,-0.5806269645690918,0.7089123129844666,0.6123117208480835,19.516008377075195,-25.06512451171875,16.186044692993164,0.9139928817749023,0.14854145050048828,0.20492088794708252,2.9625320434570312,9.256268501281738,-1.579418659210205
6_20251106_215357,1762437204080,6,0.2951812446117401,0.4736047685146332,0.562144935131073,0.6103766560554504,-0.17712639272212982,3.168287515640259,0.9996502995491028,4.138678550720215,10.006925582885742,-0.9375746846199036,-0.43401938676834106,0.1408081352710724,0.7967928647994995,18.86240577697754,-25.671241760253906,16.203218460083008,0.9409172534942627,0.6005258560180664,0.5134751200675964,3.197761297225952,9.406399726867676,-1.4510498046875
6_20251106_215357,1762437204099,6,0.29105478525161743,0.47568580508232117,0.5566459894180298,0.6157559156417847,-0.17712639272212982,3.168287515640259,0.9996502995491028,4.138678550720215,10.006925582885742,-0.9375746846199036,-0.43401938676834106,0.1408081352710724,0.7967928647994995,18.262283325195312,-26.186553955078125,16.25123405456543,0.9409172534942627,0.6005258560180664,0.5134751200675964,3.197761297225952,9.406399726867676,-1.4510498046875
6_20251106_215357,1762437204120,6,0.28782427310943604,0.47719356417655945,0.5515984296798706,0.6206308603286743,-0.0931217148900032,3.1902079582214355,0.9883705377578735,3.9531362056732178,10.389982223510742,-0.5102280378341675,-0.49144065380096436,0.2489311844110489,0.4779214859008789,17.706762313842773,-26.785507202148438,16.191232681274414,0.45145463943481445,0.6220226287841797,0.6222364902496338,3.5016815662384033,9.767959594726562,-1.1324645280838013
6_20251106_215357,1762437204138,6,0.2852634787559509,0.4765875041484833,0.5474324226379395,0.6259447336196899,-0.05089987441897392,3.2036640644073486,0.9858932495117188,3.6861941814422607,10.32773494720459,-0.5006515979766846,-0.5665770769119263,0.3723258674144745,0.35635942220687866,17.182451248168945,-27.269187927246094,16.067007064819336,0.14760994911193848,0.44782066345214844,0.5054503679275513,3.5385842323303223,9.879914283752441,-1.0061019659042358
6_20251106_215357,1762437204157,6,0.2832196056842804,0.47441717982292175,0.5436511039733887,0.6317898631095886,-0.012537471950054169,3.2172107696533203,0.9852643013000488,3.632327079772949,10.391179084777832,-0.4204493463039398,-0.5665770769119263,0.3723258674144745,0.35635942220687866,17.182451248168945,-27.269187927246094,16.067007064819336,0.07499408721923828,0.4090118408203125,0.4685221016407013,3.557332992553711,9.98216724395752,-0.8889714479446411
6_20251106_215357,1762437204175,6,0.2811894416809082,0.47202762961387634,0.5399190783500671,0.6376596093177795,0.02242390066385269,3.230769634246826,0.9862262606620789,3.7340760231018066,10.53721809387207,-0.2684240937232971,-0.498160183429718,0.23060525953769684,0.4113372266292572,16.67093276977539,-27.739646911621094,15.957052230834961,0.14139437675476074,0.44404029846191406,0.4964379072189331,3.592681646347046,10.093177795410156,-0.7648620009422302
6_20251106_215357,1762437204195,6,0.279214084148407,0.4710761308670044,0.5359697937965393,0.6425442695617676,0.05850745737552643,3.245656728744507,0.9885792136192322,3.966303825378418,10.563553810119629,-0.2588476538658142,-0.38331758975982666,0.05040016025304794,0.4742562770843506,16.112165451049805,-28.19964599609375,15.737268447875977,0.29889774322509766,0.3763008117675781,0.4048115015029907,3.6674060821533203,10.18725299835205,-0.6636591553688049
6_20251106_215357,1762437204214,6,0.27718499302864075,0.47177422046661377,0.5319885015487671,0.6462087631225586,0.05850745737552643,3.245656728744507,0.9885792136192322,3.966303825378418,10.563553810119629,-0.2588476538658142,-0.3185659646987915,-0.07299451529979706,0.48647359013557434,15.708701133728027,-28.699951171875,15.563356399536133,0.29889774322509766,0.3763008117675781,0.4048115015029907,3.6674060821533203,10.18725299835205,-0.6636591553688049
6_20251106_215357,1762437204233,6,0.27549004554748535,0.47356706857681274,0.5279239416122437,0.6489497423171997,0.13193053007125854,3.276844024658203,0.9983117580413818,4.351753234863281,10.482154846191406,0.16969600319862366,-0.3301723599433899,-0.08521181344985962,0.42477625608444214,15.31005859375,-29.124107360839844,15.309930801391602,0.4642214775085449,0.17820358276367188,0.5747174024581909,3.8875317573547363,10.303951263427734,-0.4050213694572449
6_20251106_215357,1762437204252,6,0.2747310996055603,0.4754590094089508,0.5236557722091675,0.6513418555259705,0.1669962853193283,3.2917819023132324,1.005426287651062,4.355344772338867,10.530036926269531,0.24151897430419922,-0.3301723599433899,-0.08521181344985962,0.42477625608444214,14.912628173828125,-29.523422241210938,15.084062576293945,0.3742504119873047,0.18086814880371094,0.5172322988510132,3.9810943603515625,10.34916877746582,-0.27571332454681396
6_20251106_215357,1762437204272,6,0.2739315330982208,0.47593575716018677,0.5203304886817932,0.6539899706840515,0.20342174172401428,3.3070547580718994,1.0139639377593994,4.4283647537231445,10.459409713745117,0.1924399435520172,-0.3723220229148865,0.03940458968281746,0.18226295709609985,14.531006813049316,-29.859024047851562,14.846490859985352,0.357816219329834,0.08819293975830078,0.3745226263999939,4.0705485343933105,10.371216773986816,-0.18208268284797668
6_20251106_215357,1762437204291,6,0.27373507618904114,0.47529444098472595,0.5175471901893616,0.6567413210868835,0.20342174172401428,3.3070547580718994,1.0139639377593994,4.4283647537231445,10.459409713745117,0.1924399435520172,-0.3765981197357178,0.011304815299808979,0.07169643044471741,14.190581321716309,-30.10474395751953,14.652788162231445,0.357816219329834,0.08819293975830078,0.3745226263999939,4.0705485343933105,10.371216773986816,-0.18208268284797668
6_20251106_215357,1762437204311,6,0.27434083819389343,0.47427645325660706,0.5151798725128174,0.6590816974639893,0.271708220243454,3.333179235458374,1.0329444408416748,4.2571868896484375,10.090719223022461,0.26545995473861694,-0.3454440236091614,-0.0503925196826458,0.009999093599617481,13.925076484680176,-30.320045471191406,14.408487319946289,0.0947413444519043,-0.20077800750732422,0.28853410482406616,4.162445545196533,10.291497230529785,-0.02307415008544922
6_20251106_215357,1762437204330,6,0.27550867199897766,0.47345152497291565,0.5130928158760071,0.6608134508132935,0.271708220243454,3.333179235458374,1.0329444408416748,4.2571868896484375,10.090719223022461,0.26545995473861694,-0.3149007558822632,-0.1377461701631546,-0.029707113280892372,13.72070026397705,-30.531105041503906,14.139608383178711,0.0947413444519043,-0.20077800750732422,0.28853410482406616,4.162445545196533,10.291497230529785,-0.02307415008544922
6_20251106_215357,1762437204348,6,0.27721574902534485,0.473045289516449,0.5111652612686157,0.6618834137916565,0.32985416054725647,3.3536300659179688,1.0526844263076782,4.046505928039551,10.21401596069336,0.45579081773757935,-0.3393353223800659,-0.16462422907352448,-0.08040888607501984,13.61420726776123,-30.735275268554688,13.820589065551758,-0.08071327209472656,-0.02717876434326172,0.3355858325958252,4.127219200134277,10.241194725036621,0.12020498514175415
6_20251106_215357,1762437204367,6,0.279579758644104,0.47254180908203125,0.5092010498046875,0.6627621650695801,0.3567224144935608,3.3638200759887695,1.0645936727523804,3.9148306846618652,10.435469627380371,0.8508171439170837,-0.37293291091918945,-0.14935259521007538,-0.18181243538856506,13.488079071044922,-30.85340118408203,13.52946662902832,-0.16991090774536133,0.15541934967041016,0.5844897031784058,4.084741592407227,10.280050277709961,0.2663274109363556
6_20251106_215357,1762437204385,6,0.28267624974250793,0.4713342487812042,0.5075041651725769,0.6636096239089966,0.3567224144935608,3.3638200759887695,1.0645936727523804,3.9148306846618652,10.435469627380371,0.8508171439170837,-0.33261585235595703,-0.08582267165184021,-0.30581796169281006,13.436674118041992,-30.941375732421875,13.214784622192383,-0.16991090774536133,0.15541934967041016,0.5844897031784058,4.084741592407227,10.280050277709961,0.2663274109363556
6_20251106_215357,1762437204404,6,0.2860729992389679,0.4691412150859833,0.5067798495292664,0.6642612218856812,0.40114930272102356,3.3819985389709473,1.0913788080215454,3.178645133972168,10.029669761657715,0.8101173639297485,-0.33261585235595703,-0.08582267165184021,-0.30581796169281006,13.498467445373535,-30.95941925048828,12.90583610534668,-0.6457874774932861,-0.20180511474609375,0.3196794390678406,3.824432611465454,10.231474876403809,0.49043792486190796
6_20251106_215357,1762437204424,6,0.28950682282447815,0.4665582478046417,0.5065534114837646,0.6647652983665466,0.419282466173172,3.389878988265991,1.1059883832931519,2.862624168395996,9.956649780273438,0.7466738224029541,-0.26603156328201294,-0.08887699246406555,-0.30703967809677124,13.603873252868652,-31.062454223632812,12.624032974243164,-0.769446849822998,-0.21986007690429688,0.20498871803283691,3.632071018218994,10.176509857177734,0.5416851043701172
6_20251106_215357,1762437204443,6,0.2927144765853882,0.46453219652175903,0.5062631964683533,0.6650004982948303,0.43284690380096436,3.3964667320251465,1.12042236328125,2.611243724822998,9.985380172729492,0.9968571066856384,-0.2104429006576538,-0.15729384124279022,-0.23068159818649292,13.723481178283691,-31.127159118652344,12.357027053833008,-0.8166618347167969,-0.15290355682373047,0.36413758993148804,3.427905559539795,10.138283729553223,0.6327195167541504
6_20251106_215357,1762437204461,6,0.2954910695552826,0.4633965790271759,0.5058654546737671,0.6648674607276917,0.44248685240745544,3.401827573776245,1.134710431098938,2.3850014209747314,9.907570838928223,1.1596558094024658,-0.12125664949417114,-0.1426330953836441,-0.14760400354862213,14.027388572692871,-31.154701232910156,12.084390640258789,-0.8343234062194824,-0.1845703125,0.4215490221977234,3.219324827194214,10.092141151428223,0.7381067872047424
6_20251106_215357,1762437204481,6,0.297283798456192,0.46273085474967957,0.5057243704795837,0.6646392941474915,0.44992223381996155,3.406212091445923,1.1505279541015625,2.3179666996002197,9.672948837280273,0.9800984263420105,-0.039400771260261536,-0.09009872376918793,-0.01748982071876526,14.212959289550781,-31.127395629882812,11.808168411254883,-0.7210865020751953,-0.3353538513183594,0.1935933232307434,3.039053201675415,10.008302688598633,0.7865051031112671
6_20251106_215357,1762437204500,6,0.29773619771003723,0.4625939130783081,0.5056317448616028,0.664602518081665,0.4553866684436798,3.409104347229004,1.164451003074646,2.5849087238311768,9.620279312133789,0.6580921411514282,0.039400774985551834,-0.12369628995656967,0.1645478755235672,14.339221000671387,-31.06707000732422,11.597867965698242,-0.3633158206939697,-0.31041908264160156,-0.102730393409729,2.9482245445251465,9.93069839477539,0.7608225345611572
6_20251106_215357,1762437204519,6,0.29690277576446533,0.4638384282588959,0.5051167607307434,0.6644995808601379,0.46080282330513,3.4117393493652344,1.1770741939544678,3.0302112102508545,9.889616012573242,0.5407813191413879,0.039400774985551834,-0.12369628995656967,0.1645478755235672,14.426203727722168,-31.059219360351562,11.371524810791016,0.06558942794799805,-0.03286552429199219,-0.17603296041488647,2.9646217823028564,9.922481536865234,0.7168142795562744
6_20251106_215357,1762437204540,6,0.29555603861808777,0.4667096436023712,0.503930389881134,0.6639901399612427,0.46080282330513,3.4117393493652344,1.1770741939544678,3.0302112102508545,9.889616012573242,0.5407813191413879,0.07666352391242981,-0.3191729784011841,0.30565762519836426,14.547037124633789,-31.08746337890625,11.226957321166992,0.06558942794799805,-0.03286552429199219,-0.17603296041488647,2.9646217823028564,9.922481536865234,0.7168142795562744
6_20251106_215357,1762437204559,6,0.294587641954422,0.47015684843063354,0.5023951530456543,0.6631513833999634,0.47595372796058655,3.4202260971069336,1.2025933265686035,3.6454944610595703,10.470184326171875,0.8939108848571777,0.07666352391242981,-0.3191729784011841,0.30565762519836426,14.547037124633789,-31.08746337890625,11.226957321166992,0.46831822395324707,0.38557910919189453,0.13096237182617188,3.1771762371063232,10.08460521697998,0.7629485130310059
6_20251106_215357,1762437204577,6,0.2942897081375122,0.4725640118122101,0.5014033913612366,0.6623227596282959,0.483847975730896,3.4251649379730225,1.2135982513427734,3.5138192176818848,10.400754928588867,0.8388466238975525,0.019242238253355026,-0.1579046994447708,-0.014435496181249619,14.571284294128418,-31.109237670898438,11.051698684692383,0.2693142890930176,0.25292015075683594,0.06071847677230835,3.244504928588867,10.147834777832031,0.7781281471252441
6_20251106_215357,1762437204596,6,0.29481351375579834,0.47330084443092346,0.5012938976287842,0.6616462469100952,0.4917279779911041,3.4301908016204834,1.224570393562317,3.2313153743743896,10.17451286315918,0.7550531625747681,-0.005192349664866924,-0.07055105268955231,-0.14577141404151917,14.572568893432617,-31.10748291015625,10.875986099243164,-0.010551691055297852,0.02134227752685547,-0.018459975719451904,3.2418670654296875,10.153170585632324,0.77351313829422
6_20251106_215357,1762437204615,6,0.2958315312862396,0.4727557897567749,0.5019093751907349,0.6611146926879883,0.49854132533073425,3.434587001800537,1.23491370677948,2.9966936111450195,10.015304565429688,0.744279682636261,-0.015577049925923347,-0.05650116875767708,-0.18731021881103516,14.559961318969727,-31.132041931152344,10.739805221557617,-0.19613885879516602,-0.11029243469238281,-0.023386776447296143,3.1928324699401855,10.12559700012207,0.7676664590835571
6_20251106_215357,1762437204635,6,0.29708680510520935,0.4718620777130127,0.5027289986610413,0.6605673432350159,0.5040555000305176,3.4382407665252686,1.2448267936706543,2.8434712886810303,9.935102462768555,0.799344003200531,0.016187917441129684,-0.10475947707891464,-0.17326033115386963,14.439596176147461,-31.12635040283203,10.627035140991211,-0.27948880195617676,-0.15239620208740234,0.025342047214508057,3.122960090637207,10.087498664855957,0.774001955986023
6_20251106_215357,1762437204653,6,0.2983759343624115,0.47141894698143005,0.5035524964332581,0.6596748232841492,0.5082578659057617,3.4411656856536865,1.2543071508407593,2.7453134059906006,9.888418197631836,0.7969498634338379,0.016187917441129684,-0.10475947707891464,-0.17326033115386963,14.460246086120605,-31.187820434570312,10.653728485107422,-0.30211734771728516,-0.15926361083984375,0.018358290195465088,3.0474307537078857,10.04768180847168,0.7785915732383728
6_20251106_215357,1762437204672,6,0.2994054853916168,0.4716494381427765,0.504524827003479,0.6582992076873779,0.5113259553909302,3.44352388381958,1.2632981538772583,2.710598945617676,9.894403457641602,0.7730088829994202,0.1133154034614563,-0.17012201249599457,-0.1292780637741089,14.495084762573242,-31.222572326660156,10.600343704223633,-0.26946544647216797,-0.12262344360351562,-0.004466116428375244,2.9800643920898438,10.017026901245117,0.7774749994277954
6_20251106_215357,1762437204692,6,0.30056464672088623,0.4722529947757721,0.5054006576538086,0.6566644310951233,0.5133206844329834,3.4452667236328125,1.2715548276901245,2.644761085510254,9.835747718811035,0.673653781414032,0.10537417232990265,-0.1377461701631546,-0.16043215990066528,14.546351432800293,-31.169570922851562,10.643909454345703,-0.26824259757995605,-0.14502334594726562,-0.0830569863319397,2.91300368309021,9.9807710647583,0.7567107677459717
6_20251106_215357,1762437204711,6,0.3015342056751251,0.4722731113433838,0.506647527217865,0.6552430987358093,0.5139032006263733,3.4463794231414795,1.2795262336730957,2.4484453201293945,9.7735013961792,0.6628803014755249,0.08949168026447296,-0.1072029396891594,-0.19952750205993652,14.636883735656738,-31.075706481933594,10.608640670776367,-0.3716468811035156,-0.1658153533935547,-0.07506436109542847,2.82009220123291,9.939316749572754,0.7379446625709534
6_20251106_215357,1762437204730,6,0.3026236295700073,0.4718378484249115,0.5080982446670532,0.6539297699928284,0.5139032006263733,3.4463794231414795,1.2795262336730957,2.4484453201293945,9.7735013961792,0.6628803014755249,0.07483093440532684,-0.057112034410238266,-0.20930135250091553,14.77294635772705,-31.029434204101562,10.62834358215332,-0.3716468811035156,-0.1658153533935547,-0.07506436109542847,2.82009220123291,9.939316749572754,0.7379446625709534
6_20251106_215357,1762437204749,6,0.30370447039604187,0.47104671597480774,0.5095932483673096,0.6528347730636597,0.5100946426391602,3.4460954666137695,1.2937135696411133,2.1036949157714844,9.611899375915527,0.6963977217674255,0.08338303864002228,0.0027527096681296825,-0.17692551016807556,14.923816680908203,-30.932411193847656,10.676626205444336,-0.477647066116333,-0.2172079086303711,-0.040763139724731445,2.5813419818878174,9.829107284545898,0.737160861492157
6_20251106_215357,1762437204768,6,0.3042706251144409,0.47001394629478455,0.511175811290741,0.6520779132843018,0.5060944557189941,3.4446520805358887,1.2998055219650269,2.0546157360076904,9.48261833190918,0.5922544002532959,0.08338303864002228,0.0027527096681296825,-0.17692551016807556,15.065616607666016,-30.785545349121094,10.684925079345703,-0.42138123512268066,-0.277191162109375,-0.11592519283294678,2.475996971130371,9.759809494018555,0.7081795930862427
6_20251106_215357,1762437204787,6,0.3042142391204834,0.4693847894668579,0.5127201080322266,0.6513445377349854,0.5012596845626831,3.442546844482422,1.3053371906280518,2.0989065170288086,9.492195129394531,0.6149983406066895,0.15607593953609467,-0.03756435960531235,-0.025431061163544655,15.241971969604492,-30.662216186523438,10.775264739990234,-0.30167245864868164,-0.21409130096435547,-0.07454502582550049,2.4005789756774902,9.706286430358887,0.6895433664321899
6_20251106_215357,1762437204806,6,0.30369117856025696,0.46954187750816345,0.5139949321746826,0.6504700779914856,0.5012596845626831,3.442546844482422,1.3053371906280518,2.0989065170288086,9.492195129394531,0.6149983406066895,0.15607593953609467,-0.03756435960531235,-0.025431061163544655,15.38134765625,-30.565040588378906,10.72844123840332,-0.30167245864868164,-0.21409130096435547,-0.07454502582550049,2.4005789756774902,9.706286430358887,0.6895433664321899
6_20251106_215357,1762437204827,6,0.3025006949901581,0.470267117023468,0.5152820944786072,0.6494817137718201,0.4908846914768219,3.4367260932922363,1.3136239051818848,2.438868761062622,9.504165649414062,0.1924399435520172,0.2513708472251892,-0.06383154541254044,0.09002237021923065,15.505533218383789,-30.507545471191406,10.801982879638672,0.06261968612670898,-0.12859058380126953,-0.3679434359073639,2.376249074935913,9.632756233215332,0.5603833794593811
6_20251106_215357,1762437204846,6,0.30104464292526245,0.47152161598205566,0.5164644122123718,0.6483085751533508,0.4870877265930176,3.433624029159546,1.3153481483459473,2.614835023880005,9.517333030700684,0.09667599201202393,0.21716240048408508,-0.057722900062799454,0.09674188494682312,15.591243743896484,-30.489830017089844,10.846229553222656,0.19086861610412598,-0.09233856201171875,-0.3709659278392792,2.423966407775879,9.609671592712402,0.4676419198513031
6_20251106_215357,1762437204863,6,0.2995849549770355,0.4727035462856293,0.5174540281295776,0.6473342180252075,0.4846607744693756,3.4307949542999268,1.3160725831985474,2.788407325744629,9.52212142944336,0.13019336760044098,0.16340629756450653,-0.01007544994354248,0.06436605751514435,15.665486335754395,-30.448745727539062,10.985126495361328,0.2915527820587158,-0.07003974914550781,-0.26995885372161865,2.496854543685913,9.592161178588867,0.40015220642089844
6_20251106_215357,1762437204883,6,0.29830673336982727,0.47330543398857117,0.5183799862861633,0.6467435359954834,0.48286372423171997,3.427420139312744,1.3158941268920898,2.7979836463928223,9.52212142944336,0.07512909919023514,0.1389717161655426,0.03635026887059212,0.008166499435901642,15.728050231933594,-30.396163940429688,11.150829315185547,0.24090337753295898,-0.05603218078613281,-0.2600184977054596,2.5570802688598633,9.578153610229492,0.33514758944511414
6_20251106_215357,1762437204902,6,0.2972332835197449,0.4732844829559326,0.5195145010948181,0.6463426947593689,0.48286372423171997,3.427420139312744,1.3158941268920898,2.7979836463928223,9.52212142944336,0.07512909919023514,0.10048724710941315,0.07788906991481781,-0.025431057438254356,15.694014549255371,-30.348724365234375,11.190961837768555,0.24090337753295898,-0.05603218078613281,-0.2600184977054596,2.5570802688598633,9.578153610229492,0.33514758944511414
6_20251106_215357,1762437204920,6,0.2963249981403351,0.47273263335227966,0.5206871032714844,0.6462200284004211,0.481509268283844,3.4210569858551025,1.3134596347808838,2.7632689476013184,9.453889846801758,-0.02422599494457245,0.10965021699666977,0.07788906991481781,-0.032150574028491974,15.716495513916016,-30.361312866210938,11.353874206542969,0.12449097633361816,-0.09006309509277344,-0.2451298087835312,2.6387779712677,9.543952941894531,0.22090381383895874
6_20251106_215357,1762437204940,6,0.29546281695365906,0.472212016582489,0.5219062566757202,0.6460118889808655,0.48138999938964844,3.417212963104248,1.310551404953003,2.752495765686035,9.374884605407715,-0.1989952027797699,0.12675441801548004,0.03512854129076004,-0.0028290655463933945,15.680642127990723,-30.35113525390625,11.352666854858398,0.09097409248352051,-0.1352548599243164,-0.33591920137405396,2.6615216732025146,9.510139465332031,0.13692401349544525
6_20251106_215357,1762437204959,6,0.294488787651062,0.47210127115249634,0.5230368375778198,0.6456230878829956,0.4816436171531677,3.4132542610168457,1.3068934679031372,2.7931952476501465,9.33178997039795,-0.23969486355781555,0.13041961193084717,-0.005188531707972288,0.042985789477825165,15.658819198608398,-30.27967071533203,11.583045959472656,0.10533881187438965,-0.14268016815185547,-0.30129510164260864,2.687856435775757,9.474470138549805,0.06160024181008339
6_20251106_215357,1762437204979,6,0.2935478091239929,0.4726112484931946,0.5237835049629211,0.6450729966163635,0.48270511627197266,3.409196615219116,1.3018683195114136,2.9535999298095703,9.441919326782227,-0.38812899589538574,0.11575886607170105,-0.021681876853108406,0.0723072960972786,15.660736083984375,-30.242271423339844,11.610870361328125,0.21259474754333496,-0.026040077209472656,-0.3597833812236786,2.7410051822662354,9.4679594039917,-0.028345603495836258
6_20251106_215357,1762437204999,6,0.2924313247203827,0.47322434186935425,0.5243576765060425,0.6446639895439148,0.48270511627197266,3.409196615219116,1.3018683195114136,2.9535999298095703,9.441919326782227,-0.38812899589538574,0.11575886607170105,-0.021681876853108406,0.0723072960972786,15.660736083984375,-30.242271423339844,11.610870361328125,0.21259474754333496,-0.026040077209472656,-0.3597833812236786,2.7410051822662354,9.4679594039917,-0.028345603495836258
