session_id,timestamp,label,quaternion_w,quaternion_x,quaternion_y,quaternion_z,position_x,position_y,position_z,accelerometer_x,accelerometer_y,accelerometer_z,gyroscope_x,gyroscope_y,gyroscope_z,magnetometer_x,magnetometer_y,magnetometer_z,linear_acceleration_x,linear_acceleration_y,linear_acceleration_z,gravity_x,gravity_y,gravity_z
7_20251106_165616,1762419338998,7,0.14727194607257843,0.231766015291214,0.8674076199531555,0.4149693548679352,2.245439052581787,3.952139377593994,3.184105157852173,0.4625401198863983,4.240738868713379,-5.005148887634277,0.9338594079017639,0.08782325685024261,0.345478355884552,19.510082244873047,-6.783985137939453,39.342044830322266,0.6676384210586548,-0.3726840019226074,-1.51654052734375,-0.20509833097457886,4.613422870635986,-3.4886083602905273
7_20251106_165616,1762419339016,7,0.14296282827854156,0.23573490977287292,0.8704695105552673,0.40776652097702026,2.233170747756958,3.9216041564941406,3.0963964462280273,0.5283778309822083,4.283832550048828,-5.766471862792969,0.9338594079017639,0.08782325685024261,0.345478355884552,19.26980972290039,-6.063541412353516,39.562599182128906,0.5867809057235718,-0.2636723518371582,-1.8222908973693848,-0.05840310454368591,4.547504901885986,-3.944180965423584
7_20251106_165616,1762419339039,7,0.13836835324764252,0.23767349123954773,0.8731254935264587,0.4025138020515442,2.219593048095703,3.8826546669006348,2.9817399978637695,0.2686181366443634,4.079136848449707,-5.980743408203125,0.4549414813518524,0.2435937523841858,0.13595175743103027,19.098621368408203,-5.4134063720703125,39.75748062133789,0.2616170048713684,-0.3746943473815918,-1.6292500495910645,0.0070011429488658905,4.453831195831299,-4.3514933586120605
7_20251106_165616,1762419339057,7,0.13460372388362885,0.23883196711540222,0.8749570250511169,0.39911314845085144,2.209620714187622,3.8529300689697266,2.893951416015625,0.05674038827419281,4.142580509185791,-5.384613037109375,0.4549414813518524,0.2435937523841858,0.13595175743103027,18.95815658569336,-4.861614227294922,39.978755950927734,0.039791397750377655,-0.24900054931640625,-0.8264956474304199,0.016948990523815155,4.391581058502197,-4.558117389678955
7_20251106_165616,1762419339075,7,0.13145363330841064,0.2407163828611374,0.8759713768959045,0.3967992961406708,2.200637102127075,3.8251073360443115,2.8084964752197266,0.2159479707479477,4.56035041809082,-5.392992973327637,0.3101665675640106,0.1709008514881134,0.22391626238822937,18.76470184326172,-4.399955749511719,40.10160446166992,0.15919917821884155,0.13501548767089844,-0.667900562286377,0.05674878507852554,4.425334930419922,-4.72509241104126
7_20251106_165616,1762419339094,7,0.12804345786571503,0.24399568140506744,0.8767893314361572,0.394095778465271,2.1931962966918945,3.8000752925872803,2.724575996398926,0.5008456707000732,4.993682861328125,-5.837098121643066,0.5062541365623474,0.03406716138124466,0.48231205344200134,18.655834197998047,-3.9569053649902344,40.132747650146484,0.35527750849723816,0.4546785354614258,-0.8896045684814453,0.14556816220283508,4.539004325866699,-4.947493553161621
7_20251106_165616,1762419339112,7,0.12463974207639694,0.24864812195301056,0.8776637315750122,0.3903144896030426,2.187333583831787,3.7768845558166504,2.6373775005340576,0.7282850742340088,5.2354865074157715,-6.057354927062988,0.5062541365623474,0.03406716138124466,0.48231205344200134,18.655834197998047,-3.9569053649902344,40.132747650146484,0.46617352962493896,0.5571856498718262,-0.8878889083862305,0.2621115446090698,4.678300857543945,-5.169466018676758
7_20251106_165616,1762419339131,7,0.12132222205400467,0.253679484128952,0.8783673644065857,0.3865209221839905,2.183361530303955,3.756828784942627,2.551196575164795,0.8443988561630249,5.398285388946533,-6.387740612030029,0.4231765568256378,0.03834321349859238,0.4389406740665436,18.446163177490234,-3.5711135864257812,40.22649002075195,0.46582984924316406,0.5759878158569336,-0.9746193885803223,0.37856900691986084,4.8222975730896,-5.413121223449707
7_20251106_165616,1762419339150,7,0.11817923188209534,0.2579500377178192,0.8789187073707581,0.38340237736701965,2.183361530303955,3.756828784942627,2.551196575164795,0.8443988561630249,5.398285388946533,-6.387740612030029,0.36392268538475037,0.07927115261554718,0.34853267669677734,18.328636169433594,-3.2790184020996094,40.281497955322266,0.46582984924316406,0.5759878158569336,-0.9746193885803223,0.37856900691986084,4.8222975730896,-5.413121223449707
7_20251106_165616,1762419339169,7,0.11515254527330399,0.26126205921173096,0.8794927597045898,0.3807551860809326,2.180172920227051,3.7250685691833496,2.3786518573760986,0.9497392177581787,5.63889217376709,-7.4842376708984375,0.28817543387413025,0.07682769000530243,0.2770615220069885,18.182113647460938,-3.0643959045410156,40.388004302978516,0.3707202076911926,0.5465612411499023,-1.4212779998779297,0.5790190100669861,5.0923309326171875,-6.062959671020508
7_20251106_165616,1762419339189,7,0.11255818605422974,0.2638755440711975,0.879977285861969,0.37860310077667236,2.1798810958862305,3.712719440460205,2.2881860733032227,0.7797582149505615,5.798099517822266,-7.388473987579346,0.11224638670682907,0.029180245473980904,0.23552268743515015,18.109909057617188,-2.831775665283203,40.43013381958008,0.16059136390686035,0.5646147727966309,-1.060410976409912,0.6191668510437012,5.233484745025635,-6.328063011169434
7_20251106_165616,1762419339207,7,0.11100238561630249,0.2662786543369293,0.8798500895500183,0.3776744306087494,2.179697036743164,3.703972578048706,2.2094204425811768,0.6456886529922485,5.969277858734131,-6.9036688804626465,-0.01603519916534424,-0.010525962337851524,0.22635972499847412,18.073444366455078,-2.6210784912109375,40.39210891723633,0.0212174654006958,0.5886340141296387,-0.46048498153686523,0.6244711875915527,5.380643844604492,-6.443183898925781
7_20251106_165616,1762419339227,7,0.11017392575740814,0.26853740215301514,0.8792374730110168,0.3777444064617157,2.179697036743164,3.703972578048706,2.2094204425811768,0.6456886529922485,5.969277858734131,-6.9036688804626465,-0.01603519916534424,-0.010525962337851524,0.22635972499847412,17.99216079711914,-2.5631790161132812,40.32241439819336,0.0212174654006958,0.5886340141296387,-0.46048498153686523,0.6244711875915527,5.380643844604492,-6.443183898925781
7_20251106_165616,1762419339246,7,0.10945608466863632,0.2709549069404602,0.8785876035690308,0.3777388632297516,2.1782331466674805,3.693159580230713,2.048619031906128,0.4338109493255615,6.394230842590332,-6.770796298980713,0.02611446939408779,0.013908626511693,0.32104378938674927,17.973724365234375,-2.4639053344726562,40.28299331665039,-0.1346634030342102,0.6883416175842285,-0.21599197387695312,0.5684743523597717,5.7058892250061035,-6.55480432510376
7_20251106_165616,1762419339266,7,0.10803090035915375,0.27376386523246765,0.8778802156448364,0.37776845693588257,2.1769073009490967,3.6922099590301514,1.9704456329345703,0.43979620933532715,6.673142433166504,-7.083226203918457,0.0004581492394208908,0.03345629572868347,0.44016239047050476,17.886505126953125,-2.506866455078125,40.25173568725586,-0.10294252634048462,0.7738022804260254,-0.42273759841918945,0.5427387356758118,5.8993401527404785,-6.660488605499268
7_20251106_165616,1762419339285,7,0.10610529780387878,0.2774221897125244,0.8767765760421753,0.378208190202713,2.1757240295410156,3.694467782974243,1.8987079858779907,0.5475306510925293,7.034651756286621,-7.09280252456665,-0.03924805670976639,0.05483656004071236,0.6454129815101624,17.848831176757812,-2.5339584350585938,40.20918655395508,0.0038335323333740234,0.9082489013671875,-0.34585094451904297,0.5436971187591553,6.126402854919434,-6.746951580047607
7_20251106_165616,1762419339305,7,0.10337571799755096,0.28265514969825745,0.8749917149543762,0.3792216181755066,2.1768407821655273,3.6997504234313965,1.8335282802581787,1.4297560453414917,7.446436882019043,-6.997038841247559,-0.09178242832422256,0.08232547342777252,0.9960492849349976,17.776229858398438,-2.7393836975097656,40.2565803527832,0.708847165107727,1.0560269355773926,-0.20006942749023438,0.7209088802337646,6.39040994644165,-6.796969413757324
7_20251106_165616,1762419339322,7,0.09930142760276794,0.2906233072280884,0.8720237612724304,0.3811193108558655,2.184227466583252,3.7096331119537354,1.7679274082183838,3.005073070526123,8.06171989440918,-6.88451623916626,-0.060017459094524384,-0.03740401193499565,1.42487633228302,17.788814544677734,-2.9509963989257812,40.22603988647461,1.8273314237594604,1.337048053741455,-0.0700373649597168,1.1777416467666626,6.724671840667725,-6.814478874206543
7_20251106_165616,1762419339342,7,0.09445475041866302,0.3026733100414276,0.8676758408546448,0.3828914165496826,2.2016525268554688,3.726200580596924,1.7033181190490723,4.479837894439697,8.923596382141113,-6.488292694091797,0.061544619500637054,-0.27869558334350586,1.6643353700637817,17.7572021484375,-3.291370391845703,40.27248764038086,2.641676902770996,1.7591400146484375,0.26094913482666016,1.8381608724594116,7.164456367492676,-6.749241828918457
7_20251106_165616,1762419339360,7,0.09017813205718994,0.3178894519805908,0.8625020980834961,0.38328108191490173,2.2260653972625732,3.746634006500244,1.650237798690796,5.702025413513184,9.710058212280273,-5.871812343597412,0.12935060262680054,-0.38254261016845703,1.6081358194351196,17.733150482177734,-3.7068328857421875,40.37190628051758,3.0910916328430176,2.0364818572998047,0.7019438743591309,2.610933780670166,7.673576354980469,-6.573756217956543
7_20251106_165616,1762419339380,7,0.08655788749456406,0.333105206489563,0.8572674989700317,0.3829374611377716,2.264259099960327,3.775146722793579,1.596178650856018,6.697970390319824,9.957847595214844,-5.925679683685303,0.2386953979730606,-0.41247496008872986,1.3485182523727417,17.77867889404297,-4.191928863525391,40.37807083129883,3.26962947845459,1.8274173736572266,0.5184612274169922,3.4283409118652344,8.130430221557617,-6.444140911102295
7_20251106_165616,1762419339399,7,0.08360142260789871,0.3463130593299866,0.8529068827629089,0.38161224126815796,2.3086814880371094,3.8062644004821777,1.5468586683273315,7.0558881759643555,10.09311294555664,-6.637923717498779,0.43661555647850037,-0.5279284119606018,0.9899406433105469,17.84394073486328,-4.762931823730469,40.34282302856445,2.902038097381592,1.5701465606689453,-0.15502595901489258,4.153850078582764,8.522966384887695,-6.482897758483887
7_20251106_165616,1762419339419,7,0.08213136345148087,0.35735228657722473,0.8500805497169495,0.3780434727668762,2.3614892959594727,3.841078042984009,1.4960885047912598,6.9122419357299805,9.738786697387695,-6.959930419921875,0.43661555647850037,-0.5279284119606018,0.9899406433105469,17.985855102539062,-5.254768371582031,40.40671157836914,2.2067136764526367,0.97265625,-0.3816261291503906,4.705528259277344,8.766130447387695,-6.578304290771484
7_20251106_165616,1762419339436,7,0.08263173699378967,0.36582180857658386,0.8485392928123474,0.37326595187187195,2.4081740379333496,3.8706138134002686,1.453251600265503,6.545945167541504,9.414386749267578,-7.416006088256836,0.36453351378440857,-0.649490475654602,0.2984417676925659,18.129268646240234,-5.73297119140625,40.362735748291016,1.4723334312438965,0.5186052322387695,-0.6701617240905762,5.073611736297607,8.895781517028809,-6.74584436416626
7_20251106_165616,1762419339456,7,0.08480076491832733,0.37164321541786194,0.8476129174232483,0.36911046504974365,2.4630510807037354,3.9043641090393066,1.4036544561386108,5.961784839630127,9.13906478881836,-7.311862945556641,0.17577633261680603,-0.713020384311676,0.04920897260308266,18.376991271972656,-6.102745056152344,40.162601470947266,0.710538387298584,0.1946268081665039,-0.45281505584716797,5.251246452331543,8.944437980651855,-6.859047889709473
7_20251106_165616,1762419339476,7,0.08903303742408752,0.37546584010124207,0.846883237361908,0.36590608954429626,2.515422821044922,3.936257839202881,1.356412410736084,5.329742431640625,8.88888168334961,-6.900077819824219,0.0743727758526802,-0.7918219566345215,-0.14199170470237732,18.665306091308594,-6.395061492919922,39.992549896240234,0.06279659271240234,-0.044445037841796875,-0.032824039459228516,5.266945838928223,8.933326721191406,-6.86725378036499
7_20251106_165616,1762419339496,7,0.09500028938055038,0.3778674006462097,0.8464171886444092,0.36300021409988403,2.562917947769165,3.9648935794830322,1.3125680685043335,4.5241289138793945,8.38612174987793,-6.52659797668457,0.1305723339319229,-0.9408729672431946,-0.26966241002082825,19.052406311035156,-6.667659759521484,39.7455940246582,-0.5942535400390625,-0.43776416778564453,0.2725248336791992,5.118382453918457,8.823885917663574,-6.7991228103637695
7_20251106_165616,1762419339514,7,0.10248816758394241,0.3797103762626648,0.8464437127113342,0.3589557409286499,2.5993924140930176,3.9869225025177,1.2767897844314575,3.4396018981933594,7.827098846435547,-6.105237007141113,0.3364337682723999,-1.2298119068145752,-0.2611103057861328,19.522380828857422,-6.771442413330078,39.423912048339844,-1.3430242538452148,-0.7974300384521484,0.5551085472106934,4.782626152038574,8.624528884887695,-6.660345554351807
7_20251106_165616,1762419339538,7,0.11164964735507965,0.38277360796928406,0.8467819690704346,0.3521064817905426,2.635857343673706,4.0106120109558105,1.2343460321426392,2.5585737228393555,7.6619062423706055,-6.003487586975098,0.3364337682723999,-1.2298119068145752,-0.2611103057861328,19.522380828857422,-6.771442413330078,39.423912048339844,-1.7792420387268066,-0.7700986862182617,0.5254864692687988,4.337815761566162,8.432004928588867,-6.5289740562438965
7_20251106_165616,1762419339552,7,0.12121666967868805,0.38724997639656067,0.8473920226097107,0.3424482047557831,2.635857343673706,4.0106120109558105,1.2343460321426392,2.5585737228393555,7.6619062423706055,-6.003487586975098,0.7072286009788513,-1.5120314359664917,-0.09495510160923004,20.161937713623047,-6.67573356628418,39.03146743774414,-1.7792420387268066,-0.7700986862182617,0.5254864692687988,4.337815761566162,8.432004928588867,-6.5289740562438965
7_20251106_165616,1762419339570,7,0.13094255328178406,0.39257124066352844,0.8478484153747559,0.33150410652160645,2.666672706604004,4.033565521240234,1.1828410625457764,1.3471596240997314,7.068169593811035,-6.429637432098389,0.6693549752235413,-1.565787434577942,-0.04303160309791565,20.85476303100586,-6.501100540161133,38.602020263671875,-2.0028889179229736,-0.9234175682067871,0.04806184768676758,3.350048542022705,7.991587162017822,-6.477699279785156
7_20251106_165616,1762419339589,7,0.1410970836877823,0.39828649163246155,0.8477696776390076,0.32054033875465393,2.666672706604004,4.033565521240234,1.1828410625457764,1.3471596240997314,7.068169593811035,-6.429637432098389,0.5685623288154602,-1.5401312112808228,-0.031425174325704575,21.670425415039062,-6.328788757324219,37.94743728637695,-2.0028889179229736,-0.9234175682067871,0.04806184768676758,3.350048542022705,7.991587162017822,-6.477699279785156
7_20251106_165616,1762419339610,7,0.15143777430057526,0.4038626551628113,0.8471468091011047,0.31032857298851013,2.674325466156006,4.04296350479126,1.1509532928466797,0.9664978384971619,7.056199073791504,-6.66425895690918,0.5685623288154602,-1.5401312112808228,-0.031425174325704575,22.539569854736328,-6.065670013427734,37.32369613647461,-1.9068405628204346,-0.7483105659484863,-0.1492476463317871,2.873338460922241,7.80450963973999,-6.515011310577393
7_20251106_165616,1762419339629,7,0.16253013908863068,0.40828272700309753,0.8463091850280762,0.3010812997817993,2.6673214435577393,4.050958156585693,1.0979621410369873,-0.11563471704721451,6.487600326538086,-6.241700649261475,0.341320663690567,-1.5260813236236572,-0.19574779272079468,23.592296600341797,-5.789558410644531,36.599178314208984,-2.0029609203338623,-0.9125385284423828,0.22318410873413086,1.8873262405395508,7.400138854980469,-6.4648847579956055
7_20251106_165616,1762419339647,7,0.17398586869239807,0.4115521013736725,0.8454983830451965,0.29238027334213257,2.654655933380127,4.04992151260376,1.0764060020446777,-0.7285239696502686,6.141653060913086,-5.938847064971924,0.35475972294807434,-1.5725070238113403,-0.19086086750030518,24.719322204589844,-5.5070648193359375,35.71540832519531,-2.0926802158355713,-1.006788730621338,0.42083024978637695,1.3641562461853027,7.148441791534424,-6.359677314758301
7_20251106_165616,1762419339667,7,0.1858682930469513,0.4151640832424164,0.8443229794502258,0.28321459889411926,2.634077310562134,4.0450825691223145,1.0557503700256348,-1.0074365139007568,5.916607856750488,-5.669510841369629,0.40668320655822754,-1.5871678590774536,-0.14687862992286682,25.813724517822266,-5.152015686035156,34.87229919433594,-1.8972742557525635,-0.9854669570922852,0.5521330833435059,0.8898377418518066,6.902074813842773,-6.221643924713135
7_20251106_165616,1762419339687,7,0.19758407771587372,0.41914263367652893,0.842891275882721,0.27352195978164673,2.608137607574463,4.037860870361328,1.0368708372116089,-1.2121319770812988,6.0387067794799805,-5.9771528244018555,0.4353938400745392,-1.5737286806106567,-0.18291963636875153,26.94063949584961,-4.8812713623046875,33.907169342041016,-1.6815757751464844,-0.6906943321228027,0.19559288024902344,0.46944379806518555,6.729401111602783,-6.172745704650879
7_20251106_165616,1762419339706,7,0.2091193050146103,0.4226604998111725,0.8415353298187256,0.263525128364563,2.5805625915527344,4.028862476348877,1.0216495990753174,-1.7220749855041504,5.5826311111450195,-5.798792362213135,0.42195481061935425,-1.5529593229293823,-0.3338032066822052,28.079727172851562,-4.621345520019531,32.847652435302734,-1.7532150745391846,-0.9174160957336426,0.2991628646850586,0.031140059232711792,6.500047206878662,-6.097955226898193
7_20251106_165616,1762419339724,7,0.22086748480796814,0.42486339807510376,0.8405554890632629,0.2533280849456787,2.546527862548828,4.016037940979004,1.0066419839859009,-2.295461654663086,5.114584922790527,-6.0046844482421875,0.35414883494377136,-1.4857641458511353,-0.42421120405197144,29.204418182373047,-4.400020599365234,31.800369262695312,-1.861281394958496,-1.1083698272705078,0.0746164321899414,-0.43418022990226746,6.222954750061035,-6.079300880432129
7_20251106_165616,1762419339742,7,0.23260949552059174,0.4260820746421814,0.8396575450897217,0.24356123805046082,2.546527862548828,4.016037940979004,1.0066419839859009,-2.295461654663086,5.114584922790527,-6.0046844482421875,0.29794928431510925,-1.4741578102111816,-0.49018457531929016,30.26071548461914,-4.107444763183594,30.68414306640625,-1.861281394958496,-1.1083698272705078,0.0746164321899414,-0.43418022990226746,6.222954750061035,-6.079300880432129
7_20251106_165616,1762419339762,7,0.24459797143936157,0.4265162944793701,0.8387656211853027,0.2339400202035904,2.4624686241149902,3.9817404747009277,0.9790684580802917,-3.646930456161499,4.572320938110352,-5.816748142242432,0.2710712254047394,-1.4350625276565552,-0.5848686099052429,31.327381134033203,-3.8513412475585938,29.527069091796875,-2.1637988090515137,-1.1201844215393066,0.22644996643066406,-1.4831315279006958,5.692505359649658,-6.043198108673096
7_20251106_165616,1762419339781,7,0.25660520792007446,0.4259793758392334,0.8380849957466125,0.2242964655160904,2.4146275520324707,3.9610743522644043,0.9684015512466431,-4.553096771240234,4.127018928527832,-5.610855579376221,0.25274530053138733,-1.3214415311813354,-0.6044163107872009,32.324649810791016,-3.5369491577148438,28.341339111328125,-2.455972194671631,-1.2523889541625977,0.3458738327026367,-2.0971245765686035,5.37940788269043,-5.956729412078857
7_20251106_165616,1762419339801,7,0.26784005761146545,0.4248005151748657,0.8375812768936157,0.21509023010730743,2.350904703140259,3.932607889175415,0.9572327733039856,-5.289281845092773,3.720022439956665,-5.761683464050293,0.22036945819854736,-1.1491777896881104,-0.48041075468063354,33.28706741333008,-3.199420928955078,27.114116668701172,-2.5537257194519043,-1.3275082111358643,0.1560368537902832,-2.735556125640869,5.047530651092529,-5.917720317840576
7_20251106_165616,1762419339819,7,0.2776772081851959,0.4241437315940857,0.8367652297019958,0.20693333446979523,2.2919938564300537,3.9054722785949707,0.9477383494377136,-5.587347030639648,3.4411096572875977,-6.080099105834961,0.17638719081878662,-1.0270048379898071,-0.28554490208625793,34.17768096923828,-2.8416786193847656,25.897994995117188,-2.281432867050171,-1.2851366996765137,-0.12990331649780273,-3.3059141635894775,4.726246356964111,-5.950195789337158
7_20251106_165616,1762419339837,7,0.2863714396953583,0.42468875646591187,0.8352643251419067,0.19991101324558258,2.2919938564300537,3.9054722785949707,0.9477383494377136,-5.587347030639648,3.4411096572875977,-6.080099105834961,0.14340049028396606,-1.0019593238830566,-0.09067905694246292,34.955814361572266,-2.5297012329101562,24.771282196044922,-2.281432867050171,-1.2851366996765137,-0.12990331649780273,-3.3059141635894775,4.726246356964111,-5.950195789337158
7_20251106_165616,1762419339858,7,0.294546514749527,0.4265611469745636,0.8329352736473083,0.19366659224033356,2.1583847999572754,3.843519687652588,0.9256153702735901,-5.649593830108643,3.5428590774536133,-6.417666435241699,0.13851356506347656,-1.1070281267166138,0.11090631037950516,35.6052360534668,-2.350963592529297,23.60999298095703,-1.4867396354675293,-0.7631139755249023,-0.29994726181030273,-4.162854194641113,4.305973052978516,-6.1177191734313965
7_20251106_165616,1762419339877,7,0.30312544107437134,0.43019041419029236,0.8293817043304443,0.18755565583705902,2.1583847999572754,3.843519687652588,0.9256153702735901,-5.649593830108643,3.5428590774536133,-6.417666435241699,0.15378519892692566,-1.1510103940963745,0.2727854549884796,36.26643371582031,-2.1835861206054688,22.408382415771484,-1.4867396354675293,-0.7631139755249023,-0.29994726181030273,-4.162854194641113,4.305973052978516,-6.1177191734313965
7_20251106_165616,1762419339897,7,0.3116597533226013,0.4354373812675476,0.8248165845870972,0.18149395287036896,2.0159757137298584,3.779512882232666,0.903073787689209,-5.092966079711914,4.192856788635254,-5.996305465698242,0.1256854236125946,-1.005624532699585,0.2953874468803406,36.857452392578125,-2.1719436645507812,21.309280395507812,-0.5337915420532227,-0.03255653381347656,0.11754274368286133,-4.559174537658691,4.2254133224487305,-6.1138482093811035
7_20251106_165616,1762419339916,7,0.31906208395957947,0.44045576453208923,0.8204116225242615,0.17641666531562805,1.9552290439605713,3.753066062927246,0.8935957551002502,-4.843979835510254,4.306576251983643,-6.238109588623047,0.0847574844956398,-0.7893784642219543,0.2068120539188385,37.37294387817383,-2.2031402587890625,20.246994018554688,-0.22784423828125,0.06493043899536133,-0.09940910339355469,-4.616135597229004,4.241645812988281,-6.138700485229492
7_20251106_165616,1762419339935,7,0.3250296711921692,0.4443357288837433,0.816829264163971,0.17236997187137604,1.8900072574615479,3.724783420562744,0.881873369216919,-4.978049278259277,4.121033668518066,-6.703761577606201,0.14340049028396606,-0.6922510266304016,0.11762582510709763,37.72136306762695,-2.395618438720703,19.202198028564453,-0.28953075408935547,-0.09648990631103516,-0.45204877853393555,-4.688518524169922,4.217523574829102,-6.251712799072266
7_20251106_165616,1762419339954,7,0.3300192058086395,0.4475347101688385,0.8139814138412476,0.16803067922592163,1.8334147930145264,3.700316905975342,0.8695497512817383,-5.0247344970703125,4.10188102722168,-7.1861724853515625,0.136070117354393,-0.6537665724754333,0.08524999767541885,37.72136306762695,-2.395618438720703,19.202198028564453,-0.26897287368774414,-0.0925140380859375,-0.7475676536560059,-4.755761623382568,4.194395065307617,-6.438604831695557
7_20251106_165616,1762419339973,7,0.3347470760345459,0.4506276249885559,0.8112390637397766,0.16361641883850098,1.8334147930145264,3.700316905975342,0.8695497512817383,-5.0247344970703125,4.10188102722168,-7.1861724853515625,-0.02519816718995571,-0.6507121920585632,0.005837573669850826,38.09075164794922,-2.6259307861328125,18.333301544189453,-0.26897287368774414,-0.0925140380859375,-0.7475676536560059,-4.755761623382568,4.194395065307617,-6.438604831695557
7_20251106_165616,1762419339992,7,0.3401704728603363,0.45262831449508667,0.8085596561431885,0.16013416647911072,1.7179151773452759,3.6528513431549072,0.8408498167991638,-5.061842918395996,4.477754592895508,-6.4667463302612305,-0.2646571099758148,-0.5841279625892639,-0.1890282779932022,38.46931076049805,-2.9059486389160156,17.49087142944336,-0.2177262306213379,0.19705533981323242,0.08771276473999023,-4.844116687774658,4.280699253082275,-6.554459095001221
7_20251106_165616,1762419340010,7,0.34636184573173523,0.4521738886833191,0.8065571188926697,0.15823368728160858,1.6659010648727417,3.633598804473877,0.8312103748321533,-5.825560092926025,4.551971435546875,-5.556988716125488,-0.2646571099758148,-0.5841279625892639,-0.1890282779932022,38.86064910888672,-3.1843643188476562,16.567832946777344,-0.7851548194885254,0.21701765060424805,0.7979764938354492,-5.0404052734375,4.334953784942627,-6.3549652099609375
7_20251106_165616,1762419340030,7,0.3526882827281952,0.44952359795570374,0.8054230809211731,0.15758536756038666,1.606412410736084,3.6130337715148926,0.824531078338623,-6.548577785491943,4.25510311126709,-5.205056190490723,-0.37033674120903015,-0.3037410378456116,-0.4352067708969116,39.20659637451172,-3.3802146911621094,15.860942840576172,-1.2065377235412598,-0.06388044357299805,0.9199275970458984,-5.342040061950684,4.318983554840088,-6.124983787536621
7_20251106_165616,1762419340049,7,0.3578324615955353,0.4461330771446228,0.8051679730415344,0.15692584216594696,1.548388957977295,3.5930933952331543,0.820159912109375,-6.922057628631592,3.815786361694336,-5.521076679229736,-0.21700969338417053,-0.21272218227386475,-0.3380792737007141,39.455772399902344,-3.558246612548828,15.245269775390625,-1.2640142440795898,-0.4025578498840332,0.4831256866455078,-5.658043384552002,4.218344211578369,-6.004202365875244
7_20251106_165616,1762419340068,7,0.36137646436691284,0.4426362216472626,0.8056576251983643,0.15619242191314697,1.4929492473602295,3.5742855072021484,0.8161568641662598,-6.965150833129883,3.8684566020965576,-6.032217025756836,-0.1730274260044098,-0.21333304047584534,-0.12672007083892822,39.69044494628906,-3.5620689392089844,14.632312774658203,-1.0456857681274414,-0.2799103260040283,-0.022411823272705078,-5.919465065002441,4.148366928100586,-6.009805202484131
7_20251106_165616,1762419340087,7,0.3646063804626465,0.4420084059238434,0.8047399520874023,0.15519124269485474,1.4314908981323242,3.5544769763946533,0.8117286562919617,-6.88614559173584,4.162930488586426,-6.076507568359375,-0.1730274260044098,-0.21333304047584534,-0.12672007083892822,39.89662551879883,-3.631072998046875,14.098152160644531,-0.7733440399169922,0.011651039123535156,-0.05336189270019531,-6.112801551818848,4.151279449462891,-6.02314567565918
7_20251106_165616,1762419340107,7,0.3680117428302765,0.4428504705429077,0.8027433156967163,0.15509356558322906,1.3711001873016357,3.536229133605957,0.808495044708252,-6.772426128387451,4.338896751403809,-5.703028678894043,-0.23289218544960022,-0.2505958080291748,0.07058923691511154,40.16586685180664,-3.646820068359375,13.662113189697266,-0.5276999473571777,0.15009355545043945,0.25609397888183594,-6.244726181030273,4.188803195953369,-5.959122657775879
7_20251106_165616,1762419340125,7,0.37101081013679504,0.4446076452732086,0.8002567887306213,0.155769482254982,1.318611741065979,3.5213241577148438,0.8068030476570129,-6.591671943664551,4.471769332885742,-5.523470878601074,-0.2237291932106018,-0.09421443194150925,0.30271783471107483,40.31013107299805,-3.7211456298828125,13.260662078857422,-0.2775564193725586,0.22637319564819336,0.34852123260498047,-6.314115524291992,4.245396137237549,-5.871992111206055
7_20251106_165616,1762419340145,7,0.3728608787059784,0.44702813029289246,0.7977696657180786,0.1571756899356842,1.2635244131088257,3.506715774536133,0.8059200644493103,-6.209813117980957,4.615415096282959,-5.574944496154785,-0.2237291932106018,-0.09421443194150925,0.30271783471107483,40.46799087524414,-3.769561767578125,12.8602294921875,0.08344173431396484,0.29601526260375977,0.23763799667358398,-6.293254852294922,4.319399833679199,-5.812582492828369
7_20251106_165616,1762419340162,7,0.3732670843601227,0.4497111439704895,0.7955803871154785,0.15963523089885712,1.2203210592269897,3.496029853820801,0.8043539524078369,-5.710643291473389,4.824898719787598,-6.201000690460205,-0.19196423888206482,0.2222134917974472,0.4212256073951721,40.61247634887695,-3.8203887939453125,12.621501922607422,0.46608924865722656,0.40439891815185547,-0.31073474884033203,-6.176732540130615,4.420499801635742,-5.890265941619873
7_20251106_165616,1762419340183,7,0.37233516573905945,0.45262154936790466,0.7937435507774353,0.16270045936107635,1.1743324995040894,3.4856691360473633,0.8011494874954224,-5.420957565307617,4.941012382507324,-6.368587970733643,-0.18463385105133057,0.24970239400863647,0.4010670483112335,40.613372802734375,-4.0321197509765625,12.522891998291016,0.6046199798583984,0.416409969329834,-0.382657527923584,-6.025577545166016,4.52460241317749,-5.985930442810059
7_20251106_165616,1762419340202,7,0.37105464935302734,0.4554959535598755,0.7920635342597961,0.16576266288757324,1.134995698928833,3.477296829223633,0.79769366979599,-5.235414505004883,4.881160259246826,-6.191424369812012,-0.21273364126682281,0.2900194525718689,0.3876280188560486,40.66530990600586,-4.214347839355469,12.305126190185547,0.6321306228637695,0.2852463722229004,-0.16439533233642578,-5.867545127868652,4.595913887023926,-6.027029037475586
7_20251106_165616,1762419340220,7,0.3695577383041382,0.458120197057724,0.7905228734016418,0.16919375956058502,1.0996752977371216,3.469961643218994,0.7935884594917297,-5.1204986572265625,4.82130765914917,-6.326691150665283,-0.24572032690048218,0.35782545804977417,0.4010670483112335,40.718196868896484,-4.561855316162109,12.36825942993164,0.5976371765136719,0.1803150177001953,-0.2397294044494629,-5.718135833740234,4.640992641448975,-6.08696174621582
7_20251106_165616,1762419340239,7,0.36769428849220276,0.46068528294563293,0.7890346050262451,0.17318876087665558,1.0679478645324707,3.4635567665100098,0.7898748517036438,-5.0522661209106445,4.846445560455322,-6.019049644470215,-0.2860373854637146,0.39569905400276184,0.43771892786026,40.78417205810547,-4.895740509033203,12.405113220214844,0.5326957702636719,0.16436243057250977,0.05432939529418945,-5.584961891174316,4.6820831298828125,-6.073379039764404
7_20251106_165616,1762419340259,7,0.3656180799007416,0.4632507264614105,0.7874740958213806,0.17778290808200836,1.0679478645324707,3.4635567665100098,0.7898748517036438,-5.0522661209106445,4.846445560455322,-6.019049644470215,-0.2860373854637146,0.39569905400276184,0.43771892786026,40.77231979370117,-5.298793792724609,12.599903106689453,0.5326957702636719,0.16436243057250977,0.05432939529418945,-5.584961891174316,4.6820831298828125,-6.073379039764404
7_20251106_165616,1762419340277,7,0.3629518151283264,0.4655804932117462,0.7861883044242859,0.1827804297208786,1.0348310470581055,3.457226037979126,0.7867162823677063,-5.1001482009887695,4.87637186050415,-5.821536540985107,-0.2561050355434418,0.6064473986625671,0.44016239047050476,40.7132453918457,-5.668163299560547,12.874618530273438,0.3878507614135742,0.15543127059936523,0.20147371292114258,-5.487998962402344,4.720940589904785,-6.02301025390625
7_20251106_165616,1762419340297,7,0.35925260186195374,0.46779489517211914,0.785315215587616,0.1881103515625,0.9873278141021729,3.446871757507324,0.7811947464942932,-4.982837677001953,4.550774574279785,-6.411681652069092,-0.2542724311351776,0.70662921667099,0.5641679167747498,40.61459732055664,-6.090412139892578,13.173839569091797,0.354522705078125,-0.12384557723999023,-0.3240199089050293,-5.337360382080078,4.674620151519775,-6.0876617431640625
7_20251106_165616,1762419340316,7,0.3545491695404053,0.4706529974937439,0.7842517495155334,0.19424162805080414,0.9667438864707947,3.441234588623047,0.7768067121505737,-4.573446273803711,4.537607192993164,-6.515825271606445,-0.26710060238838196,0.7335072159767151,0.7236036658287048,40.484737396240234,-6.627939224243164,13.537284851074219,0.6111311912536621,-0.10961055755615234,-0.3425307273864746,-5.184577465057373,4.647217750549316,-6.173294544219971
7_20251106_165616,1762419340336,7,0.3493378460407257,0.4747006595134735,0.7824415564537048,0.20101621747016907,0.9495243430137634,3.435366153717041,0.771617591381073,-4.0778679847717285,4.571124076843262,-6.436819553375244,-0.29825469851493835,0.780543863773346,0.7865226864814758,40.418739318847656,-7.099517822265625,13.985599517822266,0.8853678703308105,-0.06087493896484375,-0.21081972122192383,-4.963235855102539,4.6319990158081055,-6.22599983215332
7_20251106_165616,1762419340355,7,0.3437427282333374,0.47907203435897827,0.7803151607513428,0.20842066407203674,0.9381284117698669,3.4309592247009277,0.7659631371498108,-3.612215995788574,4.879962921142578,-6.72052001953125,-0.42775800824165344,0.7781004309654236,0.7413187026977539,40.238765716552734,-7.630495071411133,14.63119125366211,1.0808157920837402,0.19837093353271484,-0.3956160545349121,-4.6930317878723145,4.681591987609863,-6.324903964996338
7_20251106_165616,1762419340374,7,0.33876273036003113,0.4825632572174072,0.7780810594558716,0.21670804917812347,0.9307096600532532,3.427623748779297,0.760120153427124,-3.17648983001709,5.114584445953369,-6.283597469329834,-0.6452259421348572,0.8165848851203918,0.6594628691673279,40.07004928588867,-8.196731567382812,15.11428451538086,1.213233470916748,0.34639406204223633,0.033045291900634766,-4.389723300933838,4.768190383911133,-6.316642761230469
7_20251106_165616,1762419340393,7,0.33455702662467957,0.4845895767211914,0.775826096534729,0.22657984495162964,0.9307096600532532,3.427623748779297,0.760120153427124,-3.17648983001709,5.114584445953369,-6.283597469329834,-0.8596394062042236,0.9069928526878357,0.5391225218772888,40.07004928588867,-8.196731567382812,15.11428451538086,1.213233470916748,0.34639406204223633,0.033045291900634766,-4.389723300933838,4.768190383911133,-6.316642761230469
7_20251106_165616,1762419340412,7,0.33094948530197144,0.4848412275314331,0.7737577557563782,0.2381184846162796,0.931609570980072,3.4273784160614014,0.7557497024536133,-2.4247426986694336,5.818449974060059,-5.068592071533203,-0.9585995078086853,0.9509751200675964,0.3540304899215698,39.859161376953125,-8.842580795288086,15.783550262451172,1.279996395111084,0.7378602027893066,0.9019861221313477,-3.7047390937805176,5.080589771270752,-5.970578193664551
7_20251106_165616,1762419340430,7,0.3278231620788574,0.4830937087535858,0.772371768951416,0.25018852949142456,0.9376177191734314,3.430704116821289,0.7595109939575195,-2.4127724170684814,5.907031536102295,-4.3683180809021,-0.9219476580619812,1.020002841949463,0.20436859130859375,39.51725769042969,-9.435054779052734,16.51632308959961,1.0335733890533447,0.6611533164978027,1.2818078994750977,-3.446345806121826,5.245878219604492,-5.650125980377197
7_20251106_165616,1762419340451,7,0.3243645131587982,0.4798485040664673,0.7719354033470154,0.2620091438293457,0.9474375247955322,3.4365928173065186,0.7663465738296509,-2.1925153732299805,6.088982582092285,-4.638851165771484,-0.7863356471061707,1.1097999811172485,0.18909697234630585,39.2233772277832,-10.04852294921875,17.155914306640625,1.0030643939971924,0.6744837760925293,0.8090200424194336,-3.195579767227173,5.414498805999756,-5.447871208190918
7_20251106_165616,1762419340468,7,0.3197128474712372,0.476515531539917,0.7720493078231812,0.27323347330093384,0.9593439102172852,3.443592071533203,0.7725825905799866,-1.7699569463729858,6.212278842926025,-5.288849353790283,-0.668438732624054,1.0627633333206177,0.27034199237823486,38.90081024169922,-10.72744369506836,17.901336669921875,1.1404982805252075,0.6382241249084473,0.12721729278564453,-2.9104552268981934,5.574054718017578,-5.416066646575928
7_20251106_165616,1762419340488,7,0.31458407640457153,0.4742403030395508,0.7718315124511719,0.28356504440307617,0.9761940240859985,3.453510046005249,0.778278112411499,-1.5018178224563599,6.406200885772705,-5.707817077636719,-0.6543888449668884,0.9063819646835327,0.355252206325531,38.58599853515625,-11.26823616027832,18.649662017822266,1.126909852027893,0.6657171249389648,-0.2334003448486328,-2.628727674484253,5.74048376083374,-5.474416732788086
7_20251106_165616,1762419340508,7,0.3098967373371124,0.47239184379577637,0.7711327075958252,0.2935374677181244,0.9945554137229919,3.4647274017333984,0.7828042507171631,-1.4790738821029663,6.566605567932129,-5.698240280151367,-0.6604974865913391,0.7609961628913879,0.3186003267765045,38.23362731933594,-11.824373245239258,19.43680191040039,0.9197231531143188,0.6608972549438477,-0.17905902862548828,-2.398797035217285,5.905708312988281,-5.519181251525879
7_20251106_165616,1762419340527,7,0.3066253066062927,0.4714791476726532,0.7695722579956055,0.30240190029144287,1.0158655643463135,3.4766039848327637,0.7877103686332703,-1.428797721862793,6.122500419616699,-5.394189834594727,-0.6385063529014587,0.7518332004547119,0.21841847896575928,37.908023834228516,-12.352458953857422,20.090286254882812,0.7759995460510254,0.1734333038330078,0.09999322891235352,-2.2047972679138184,5.949067115783691,-5.49418306350708
7_20251106_165616,1762419340546,7,0.3035515248775482,0.4697028696537018,0.7685277462005615,0.3108067214488983,1.0384881496429443,3.4867606163024902,0.7923271059989929,-0.9691308736801147,5.744232654571533,-5.4253129959106445,-0.678212583065033,0.9247079491615295,0.2123098373413086,37.536312103271484,-12.822151184082031,20.864776611328125,0.9885331392288208,-0.16386795043945312,0.05509614944458008,-1.9576640129089355,5.908100605010986,-5.480409145355225
7_20251106_165616,1762419340565,7,0.29942387342453003,0.4672482907772064,0.7678017616271973,0.3201637268066406,1.064179539680481,3.4964654445648193,0.795639157295227,-0.4268675446510315,5.928577899932861,-5.871812343597412,-0.8150463104248047,0.9485316276550293,0.2477400004863739,37.158634185791016,-13.202983856201172,21.46491241455078,1.2246372699737549,0.01638174057006836,-0.3131222724914551,-1.6515047550201416,5.912196159362793,-5.558690071105957
7_20251106_165616,1762419340583,7,0.295513778924942,0.4646095931529999,0.7664707899093628,0.3306540548801422,1.064179539680481,3.4964654445648193,0.795639157295227,-0.4268675446510315,5.928577899932861,-5.871812343597412,-0.9799797534942627,0.7451136708259583,0.1964273452758789,36.83836364746094,-13.642631530761719,22.066181182861328,1.2246372699737549,0.01638174057006836,-0.3131222724914551,-1.6515047550201416,5.912196159362793,-5.558690071105957
7_20251106_165616,1762419340602,7,0.29387861490249634,0.46189844608306885,0.7641079425811768,0.3412100374698639,1.1208751201629639,3.5185418128967285,0.8044354915618896,-0.2820245623588562,6.759330749511719,-4.447323322296143,-1.0483965873718262,0.5826236605644226,-0.002714528702199459,36.429771423339844,-14.138336181640625,22.689990997314453,0.8599960207939148,0.5938787460327148,0.8863320350646973,-1.142020583152771,6.165452003479004,-5.33365535736084
7_20251106_165616,1762419340622,7,0.2943170964717865,0.4578663110733032,0.7618799805641174,0.35110509395599365,1.153067708015442,3.5325355529785156,0.8143319487571716,-0.36102983355522156,6.803621292114258,-4.023568153381348,-0.9995273947715759,0.6314928531646729,-0.2305670827627182,36.071617126464844,-14.616958618164062,23.180866241455078,0.6247925758361816,0.5105352401733398,1.048069953918457,-0.9858224391937256,6.293086051940918,-5.071638107299805
7_20251106_165616,1762419340642,7,0.29499319195747375,0.45182281732559204,0.7608877420425415,0.3603956401348114,1.184469223022461,3.54899001121521,0.8248199820518494,-0.7165535092353821,7.332717418670654,-4.7142653465271,-0.9903644919395447,0.7365615963935852,-0.34602051973342896,35.76743698120117,-15.004100799560547,23.63500213623047,0.21541517972946167,0.8317046165466309,0.28589820861816406,-0.9319686889648438,6.501012802124023,-5.000163555145264
7_20251106_165616,1762419340660,7,0.29530075192451477,0.44454291462898254,0.7605862021446228,0.3697130084037781,1.2112938165664673,3.565761089324951,0.8341906070709229,-0.9415987730026245,7.598462104797363,-4.83636474609375,-1.095433235168457,0.6962445378303528,-0.3496856689453125,35.477237701416016,-15.376409530639648,23.941211700439453,-0.0077040791511535645,0.8779592514038086,0.13103914260864258,-0.933894693851471,6.720502853393555,-4.967403888702393
7_20251106_165616,1762419340678,7,0.29631584882736206,0.4369998574256897,0.7597721815109253,0.37943941354751587,1.236327886581421,3.5836963653564453,0.84525465965271,-1.1163679361343384,7.533821105957031,-4.089405536651611,-1.2121083736419678,0.5728498101234436,-0.25377994775772095,35.20145034790039,-15.698503494262695,24.330066680908203,-0.14597856998443604,0.6506547927856445,0.7023987770080566,-0.9703893661499023,6.883166313171387,-4.791804313659668
7_20251106_165616,1762419340699,7,0.29833289980888367,0.43014973402023315,0.7577144503593445,0.38966333866119385,1.2619705200195312,3.605661153793335,0.8611247539520264,-1.2276935577392578,7.8809661865234375,-3.4130725860595703,-1.227990746498108,0.4702245593070984,0.0058375755324959755,34.92594528198242,-16.03180694580078,24.583492279052734,-0.20584332942962646,0.7982397079467773,1.1029853820800781,-1.0218502283096313,7.08272647857666,-4.516057968139648
7_20251106_165616,1762419340717,7,0.30015483498573303,0.425201952457428,0.7541970610618591,0.4003712832927704,1.284157395362854,3.6273441314697266,0.8778076171875,-0.9152636528015137,8.261628150939941,-3.2514710426330566,-1.1265872716903687,0.43540525436401367,0.30577215552330017,34.7209358215332,-16.410303115844727,24.81177520751953,0.08526921272277832,0.9431214332580566,1.011669635772705,-1.000532865524292,7.318506717681885,-4.263140678405762
7_20251106_165616,1762419340736,7,0.30068060755729675,0.4226110875606537,0.749641478061676,0.4111310541629791,1.309204339981079,3.6542086601257324,0.8983981609344482,-0.4651731252670288,8.626728057861328,-3.2825942039489746,-1.027016282081604,0.39508819580078125,0.530570387840271,34.49053955078125,-16.81496238708496,24.984481811523438,0.4282878041267395,1.046576976776123,0.7844371795654297,-0.8934609293937683,7.580151081085205,-4.067031383514404
7_20251106_165616,1762419340755,7,0.3001675307750702,0.422059565782547,0.744299590587616,0.42164355516433716,1.3342946767807007,3.6819329261779785,0.9200496077537537,0.012449562549591064,8.84818172454834,-2.948617458343506,-0.9793689250946045,0.3712644577026367,0.6179240345954895,34.2734260559082,-17.205732345581055,25.103878021240234,0.7247284054756165,1.0144248008728027,0.8947310447692871,-0.7122788429260254,7.833756923675537,-3.843348503112793
7_20251106_165616,1762419340775,7,0.2991335690021515,0.42226657271385193,0.7386496067047119,0.43198010325431824,1.363021969795227,3.7129228115081787,0.944948673248291,0.4840870499610901,8.908035278320312,-2.775045394897461,-0.9695950746536255,0.43051835894584656,0.5916568636894226,34.019657135009766,-17.599018096923828,25.235321044921875,0.9570927619934082,0.8594226837158203,0.8546426296234131,-0.4730056822299957,8.048612594604492,-3.629688024520874
7_20251106_165616,1762419340795,7,0.2976602017879486,0.4220088720321655,0.7331781983375549,0.44244393706321716,1.3944997787475586,3.744288206100464,0.9721871018409729,0.9042513370513916,8.681792259216309,-2.4506449699401855,-0.9695950746536255,0.43051835894584656,0.5916568636894226,33.74162292480469,-18.20670509338379,25.375301361083984,1.1018056869506836,0.5065441131591797,0.9432344436645508,-0.1975543051958084,8.175248146057129,-3.3938794136047363
7_20251106_165616,1762419340814,7,0.29605820775032043,0.42131519317626953,0.7278745770454407,0.4528152644634247,1.3944997787475586,3.744288206100464,0.9721871018409729,0.9042513370513916,8.681792259216309,-2.4506449699401855,-0.9677625298500061,0.45678555965423584,0.4731490910053253,33.74162292480469,-18.20670509338379,25.375301361083984,1.1018056869506836,0.5065441131591797,0.9432344436645508,-0.1975543051958084,8.175248146057129,-3.3938794136047363
7_20251106_165616,1762419340832,7,0.2947358787059784,0.4201122522354126,0.7226934432983398,0.462980180978775,1.4565387964248657,3.801126718521118,1.0276248455047607,0.8479900360107422,8.107208251953125,-1.64143967628479,-0.9219476580619812,0.46167245507240295,0.346089243888855,33.43949890136719,-18.82718849182129,25.378875732421875,0.6563160419464111,-0.15348243713378906,1.249502182006836,0.19167400896549225,8.260690689086914,-2.890941858291626
7_20251106_165616,1762419340852,7,0.2937633991241455,0.4181409776210785,0.7181328535079956,0.4723837077617645,1.490934133529663,3.8284411430358887,1.0595365762710571,0.9497392177581787,7.995882987976074,-2.1968705654144287,-0.8407025933265686,0.5416957139968872,0.28500276803970337,33.08248519897461,-19.563594818115234,25.351078033447266,0.6064521670341492,-0.21184635162353516,0.5552570819854736,0.34328705072402954,8.20772933959961,-2.7521276473999023
7_20251106_165616,1762419340870,7,0.2921609580516815,0.4154081344604492,0.7143657803535461,0.48141416907310486,1.490934133529663,3.8284411430358887,1.0595365762710571,0.9497392177581787,7.995882987976074,-2.1968705654144287,-0.8174898028373718,0.5862888693809509,0.2941657304763794,32.72799301147461,-20.25017547607422,25.364887237548828,0.6064521670341492,-0.21184635162353516,0.5552570819854736,0.34328705072402954,8.20772933959961,-2.7521276473999023
7_20251106_165616,1762419340889,7,0.290058434009552,0.41267263889312744,0.710763692855835,0.49028801918029785,1.523271918296814,3.8534045219421387,1.0867140293121338,0.8156697154045105,8.321479797363281,-3.3436436653137207,-0.882241427898407,0.6553165316581726,0.30088523030281067,32.37532043457031,-20.899490356445312,25.42003631591797,0.3779061436653137,0.09100055694580078,-0.47321271896362305,0.4377635717391968,8.23047924041748,-2.8704309463500977
7_20251106_165616,1762419340909,7,0.2877190411090851,0.4096461534500122,0.7070086002349854,0.49954643845558167,1.5871398448944092,3.907230854034424,1.1319118738174438,0.9461480379104614,9.355731010437012,-3.0012874603271484,-0.882241427898407,0.6553165316581726,0.30088523030281067,31.962703704833984,-21.551427841186523,25.337570190429688,0.3211524486541748,0.750422477722168,0.05491805076599121,0.6249955892562866,8.605308532714844,-3.0562055110931396
7_20251106_165616,1762419340928,7,0.28657469153404236,0.40659549832344055,0.7025169134140015,0.5089449882507324,1.6179231405258179,3.9368972778320312,1.1570696830749512,0.8755221962928772,9.88123607635498,-1.5444786548614502,-0.9952513575553894,0.32178443670272827,0.37785419821739197,31.64990234375,-22.147457122802734,25.32766342163086,0.2004212737083435,1.020742416381836,1.209381341934204,0.6751009225845337,8.860493659973145,-2.7538599967956543
7_20251106_165616,1762419340946,7,0.28649917244911194,0.40521425008773804,0.6968326568603516,0.5178260803222656,1.6179231405258179,3.9368972778320312,1.1570696830749512,0.8755221962928772,9.88123607635498,-1.5444786548614502,-0.954934298992157,0.2942955195903778,0.49758368730545044,31.336395263671875,-22.75604248046875,25.317493438720703,0.2004212737083435,1.020742416381836,1.209381341934204,0.6751009225845337,8.860493659973145,-2.7538599967956543
7_20251106_165616,1762419340966,7,0.28580576181411743,0.40443214774131775,0.6907160878181458,0.5269354581832886,1.649374008178711,3.9731929302215576,1.1872212886810303,0.8946749567985535,11.041176795959473,-1.1111468076705933,-0.8657480478286743,0.3682101368904114,0.511633574962616,30.96878433227539,-23.26652717590332,25.144786834716797,0.17565923929214478,1.7445459365844727,1.314170479774475,0.7190157175064087,9.296630859375,-2.4253172874450684
7_20251106_165616,1762419340986,7,0.2841826379299164,0.4034073054790497,0.6851097941398621,0.5358426570892334,1.7081365585327148,4.054894924163818,1.2490625381469727,1.4273618459701538,11.581045150756836,-1.588769555091858,-0.7881682515144348,0.49649176001548767,0.48047947883605957,30.58547592163086,-23.828975677490234,25.06515121459961,0.5171202421188354,1.4509162902832031,0.4626098871231079,0.9102416038513184,10.130128860473633,-2.051379442214966
7_20251106_165616,1762419341007,7,0.2816016674041748,0.40175750851631165,0.6802600026130676,0.544552743434906,1.7419027090072632,4.1037702560424805,1.282545804977417,1.7445799112319946,11.463735580444336,-1.7407948970794678,-0.8376482725143433,0.4696137011051178,0.4371080696582794,30.177993774414062,-24.392745971679688,24.957500457763672,0.6674706935882568,1.066884994506836,0.24846768379211426,1.0771092176437378,10.3968505859375,-1.989262580871582
7_20251106_165616,1762419341022,7,0.279532790184021,0.3999606966972351,0.6751925945281982,0.5531797409057617,1.7661328315734863,4.138643264770508,1.3063710927963257,1.8475261926651,11.395503044128418,-1.343374490737915,-0.8376482725143433,0.4696137011051178,0.4371080696582794,29.795177459716797,-24.95452117919922,24.810279846191406,0.6163336038589478,0.7989215850830078,0.5167104005813599,1.2311925888061523,10.59658145904541,-1.860084891319275
7_20251106_165616,1762419341042,7,0.2786308228969574,0.39815622568130493,0.6693838238716125,0.5619268417358398,1.7985379695892334,4.185070037841797,1.3387974500656128,1.794856071472168,11.338045120239258,-1.1207232475280762,-0.9799798130989075,0.3419429659843445,0.3155459761619568,29.385875701904297,-25.555557250976562,24.66128921508789,0.4509308338165283,0.5931711196899414,0.591489315032959,1.3439252376556396,10.744874000549316,-1.7122125625610352
7_20251106_165616,1762419341061,7,0.2784615159034729,0.3958463668823242,0.6635411381721497,0.5705068111419678,1.828912377357483,4.228305339813232,1.3688968420028687,1.7553534507751465,11.231507301330566,-1.4080150127410889,-0.9750928282737732,0.356603741645813,0.23491182923316956,29.102649688720703,-26.08492088317871,24.423908233642578,0.32914257049560547,0.38930606842041016,0.24335801601409912,1.426210880279541,10.842201232910156,-1.651373028755188
7_20251106_165616,1762419341081,7,0.27858754992485046,0.3928711414337158,0.6580236554145813,0.578831672668457,1.8606367111206055,4.272021770477295,1.4008896350860596,1.8702701330184937,11.000476837158203,-1.028550386428833,-0.9689841866493225,0.31323233246803284,0.16710585355758667,28.70703125,-26.671527862548828,24.16754150390625,0.3552473783493042,0.12662029266357422,0.498258113861084,1.5150227546691895,10.873856544494629,-1.526808500289917
7_20251106_165616,1762419341101,7,0.27941569685935974,0.3898685872554779,0.6526011824607849,0.5865501165390015,1.8915272951126099,4.313395023345947,1.4341802597045898,1.7625356912612915,10.82211685180664,-0.5736716389656067,-0.935386598110199,0.2435937523841858,0.11640409380197525,28.389163970947266,-27.165870666503906,23.956512451171875,0.19801032543182373,-0.04139137268066406,0.7625095248222351,1.5645253658294678,10.863508224487305,-1.3361811637878418
7_20251106_165616,1762419341119,7,0.2807164192199707,0.3868921101093292,0.6473419070243835,0.5936844944953918,1.9174211025238037,4.348814487457275,1.4646068811416626,1.3543418645858765,10.881969451904297,-0.5389571785926819,-0.9237802028656006,0.16479220986366272,0.1188475489616394,28.069690704345703,-27.68560028076172,23.771987915039062,-0.16814672946929932,0.014769554138183594,0.637779176235199,1.5224885940551758,10.867199897766113,-1.1767363548278809
7_20251106_165616,1762419341138,7,0.2823950946331024,0.3842623233795166,0.6418952345848083,0.6004714965820312,1.9421308040618896,4.384612560272217,1.4980895519256592,1.0646560192108154,10.969353675842285,-0.09365486353635788,-0.9237802028656006,0.16479220986366272,0.1188475489616394,27.8167724609375,-28.11251449584961,23.497150421142578,-0.36626601219177246,0.08172321319580078,0.8664652109146118,1.430922031402588,10.887630462646484,-0.9601200819015503
7_20251106_165616,1762419341156,7,0.28416287899017334,0.3819710910320282,0.636360228061676,0.6069557070732117,1.9633526802062988,4.416828632354736,1.5309441089630127,1.0179710388183594,10.886756896972656,0.14455796778202057,-0.9066759943962097,0.12325341254472733,0.14267125725746155,27.626789093017578,-28.509532928466797,23.144195556640625,-0.3303607702255249,-0.0006990432739257812,0.8837424516677856,1.3483318090438843,10.887455940246582,-0.7391844987869263
7_20251106_165616,1762419341177,7,0.28463128209114075,0.3797081708908081,0.6314474940299988,0.6132542490959167,1.9862229824066162,4.450122833251953,1.566592812538147,1.502776026725769,10.653332710266113,-0.42044931650161743,-0.7954986691474915,0.2112179398536682,0.2068120539188385,27.42019271850586,-28.982959747314453,22.81619644165039,0.12355530261993408,-0.18729877471923828,0.2549881935119629,1.379220724105835,10.840631484985352,-0.6754375100135803
7_20251106_165616,1762419341197,7,0.28335636854171753,0.3782058656215668,0.6268050074577332,0.6195037961006165,2.0116848945617676,4.483087062835693,1.602846622467041,2.169532537460327,10.76705265045166,-0.4683312773704529,-0.6806560754776001,0.2857434153556824,0.35952824354171753,27.132522583007812,-29.38660430908203,22.486351013183594,0.6322493553161621,-0.05886363983154297,0.1656849980354309,1.537283182144165,10.825916290283203,-0.6340162754058838
7_20251106_165616,1762419341215,7,0.28191596269607544,0.3783080577850342,0.6212939620018005,0.6256198287010193,2.0344762802124023,4.510775089263916,1.6343672275543213,2.3730311393737793,11.16926097869873,0.17807534337043762,-0.7197514176368713,0.052393101155757904,0.4835337996482849,26.841636657714844,-29.841014862060547,22.209514617919922,0.6685984134674072,0.2746753692626953,0.649673342704773,1.704432725906372,10.894585609436035,-0.4715979993343353
7_20251106_165616,1762419341235,7,0.2812677025794983,0.3791012167930603,0.6152447462081909,0.6313831210136414,2.060245990753174,4.541378498077393,1.6709895133972168,2.267690658569336,11.34762191772461,0.6305599808692932,-0.6873756051063538,0.08110374212265015,0.3088264763355255,26.841636657714844,-29.841014862060547,22.209514617919922,0.4506063461303711,0.3624286651611328,0.8817263841629028,1.8170843124389648,10.985193252563477,-0.251166433095932
7_20251106_165616,1762419341252,7,0.2813878357410431,0.3787088692188263,0.6099847555160522,0.6366467475891113,2.060245990753174,4.541378498077393,1.6709895133972168,2.267690658569336,11.34762191772461,0.6305599808692932,-0.6464475989341736,0.19350285828113556,0.10235420614480972,26.615699768066406,-30.227994918823242,21.86886978149414,0.4506063461303711,0.3624286651611328,0.8817263841629028,1.8170843124389648,10.985193252563477,-0.251166433095932
7_20251106_165616,1762419341272,7,0.2819404602050781,0.3764135241508484,0.6059939861297607,0.6415557265281677,2.105722665786743,4.592663288116455,1.7381949424743652,1.9696253538131714,10.47856330871582,0.2247602641582489,-0.6385063529014587,0.2594762444496155,0.046765509992837906,26.339611053466797,-30.643266677856445,21.525733947753906,0.09111428260803223,-0.40717506408691406,0.27107569575309753,1.8785110712051392,10.885738372802734,-0.04631543904542923
7_20251106_165616,1762419341291,7,0.2823970317840576,0.37337422370910645,0.6024895906448364,0.6464130878448486,2.1285858154296875,4.6149821281433105,1.7712950706481934,2.284449338912964,10.38279914855957,0.22236618399620056,-0.6378955245018005,0.1867833435535431,0.15916460752487183,26.09958267211914,-31.05682945251465,21.251651763916016,0.32475054264068604,-0.40235137939453125,0.21494530141353607,1.9596987962722778,10.785150527954102,0.00742088258266449
7_20251106_165616,1762419341310,7,0.2825655937194824,0.37147530913352966,0.5984014868736267,0.6512129902839661,2.150545835494995,4.635145664215088,1.8026195764541626,2.5214650630950928,10.816131591796875,0.630560040473938,-0.5933024287223816,0.029180245473980904,0.23918789625167847,25.81332015991211,-31.435359954833984,20.922332763671875,0.4494130611419678,0.02478504180908203,0.49851131439208984,2.072052001953125,10.791346549987793,0.13204871118068695
7_20251106_165616,1762419341329,7,0.28300055861473083,0.3712519705295563,0.5938006639480591,0.655349850654602,2.174560785293579,4.657356262207031,1.8379967212677002,2.346695899963379,11.096240997314453,0.8927138447761536,-0.5933024287223816,0.029180245473980904,0.23918789625167847,25.562122344970703,-31.82514190673828,20.702350616455078,0.21971511840820312,0.24391555786132812,0.6085320711135864,2.126980781555176,10.852325439453125,0.28418174386024475
7_20251106_165616,1762419341348,7,0.2839171588420868,0.3712575435638428,0.5899970531463623,0.6583786010742188,2.1957600116729736,4.677610397338867,1.8711901903152466,1.9540636539459229,10.928653717041016,0.7454767823219299,-0.3892735242843628,-0.022743254899978638,-0.0051579903811216354,25.316055297851562,-32.12675476074219,20.457183837890625,-0.13833379745483398,0.061061859130859375,0.3690360486507416,2.092397451400757,10.867591857910156,0.37644073367118835
7_20251106_165616,1762419341368,7,0.2853582203388214,0.37032920122146606,0.5873855948448181,0.6606096625328064,2.2156615257263184,4.69683837890625,1.9045047760009766,1.6655747890472412,10.530036926269531,0.41628819704055786,-0.3892735242843628,-0.022743254899978638,-0.0051579903811216354,25.165264129638672,-32.45981979370117,20.22866439819336,-0.3414580821990967,-0.27004432678222656,0.03187796473503113,2.007032871246338,10.800081253051758,0.38441023230552673
7_20251106_165616,1762419341387,7,0.28662198781967163,0.36848360300064087,0.5850043892860413,0.6632024645805359,2.2156615257263184,4.69683837890625,1.9045047760009766,1.6655747890472412,10.530036926269531,0.41628819704055786,-0.5230529308319092,0.1654030829668045,0.07181096822023392,25.106216430664062,-32.67417526245117,19.99243927001953,-0.3414580821990967,-0.27004432678222656,0.03187796473503113,2.007032871246338,10.800081253051758,0.38441023230552673
7_20251106_165616,1762419341406,7,0.2870042026042938,0.3663630187511444,0.5819406509399414,0.666897177696228,2.250955820083618,4.728390693664551,1.9625400304794312,2.310784339904785,10.865209579467773,0.5096580386161804,-0.5230529308319092,0.1654030829668045,0.07181096822023392,25.04767608642578,-32.876243591308594,19.783512115478516,0.25932884216308594,0.1295928955078125,0.13072195649147034,2.051455497741699,10.735616683959961,0.3789360821247101
7_20251106_165616,1762419341425,7,0.2876738905906677,0.36498013138771057,0.5777698159217834,0.6709808707237244,2.267866611480713,4.744901657104492,1.9920680522918701,2.112074136734009,11.359591484069824,1.2853460311889648,-0.6085740327835083,-0.016634609550237656,0.04126773029565811,24.94964599609375,-33.142669677734375,19.49069595336914,0.048494815826416016,0.4991798400878906,0.7251279354095459,2.0635793209075928,10.860411643981934,0.560218095779419
7_20251106_165616,1762419341444,7,0.28957825899124146,0.3638196885585785,0.5736293792724609,0.6743359565734863,2.2828004360198975,4.761316299438477,2.0233638286590576,1.6512101888656616,11.126167297363281,1.7426187992095947,-0.6085740327835083,-0.016634609550237656,0.04126773029565811,24.857242584228516,-33.320255279541016,19.105113983154297,-0.32989537715911865,0.21260452270507812,0.9459205865859985,1.9811055660247803,10.913562774658203,0.7966982126235962
7_20251106_165616,1762419341463,7,0.29179537296295166,0.3617764413356781,0.5706960558891296,0.6769632697105408,2.2954421043395996,4.776228904724121,2.0553319454193115,1.4177855253219604,10.665303230285645,1.612140417098999,-0.3935495913028717,0.11103611439466476,-0.0815160796046257,24.874427795410156,-33.47921371459961,18.83233642578125,-0.45065605640411377,-0.1986074447631836,0.6523537635803223,1.8684415817260742,10.863910675048828,0.9597866535186768
7_20251106_165616,1762419341483,7,0.29306530952453613,0.3593713045120239,0.5686800479888916,0.6793879866600037,2.2954421043395996,4.776228904724121,2.0553319454193115,1.4177855253219604,10.665303230285645,1.612140417098999,-0.336128294467926,0.15929442644119263,0.05592847988009453,24.893123626708984,-33.61292266845703,18.546573638916016,-0.45065605640411377,-0.1986074447631836,0.6523537635803223,1.8684415817260742,10.863910675048828,0.9597866535186768
7_20251106_165616,1762419341501,7,0.29301515221595764,0.3575628399848938,0.5667211413383484,0.6819956302642822,2.307462215423584,4.790924549102783,2.089416027069092,1.494396686553955,10.576722145080566,1.1141679286956787,-0.3385717570781708,0.12325341254472733,0.1396169364452362,24.925018310546875,-33.72126007080078,18.31589126586914,-0.29923582077026367,-0.2297506332397461,0.12350499629974365,1.7936325073242188,10.806472778320312,0.9906629323959351
7_20251106_165616,1762419341520,7,0.29262977838516235,0.3565458655357361,0.5644036531448364,0.6846103668212891,2.3178234100341797,4.803621768951416,2.1192939281463623,1.8044325113296509,10.830495834350586,1.202749490737915,-0.33063051104545593,0.0731625035405159,0.12373446673154831,24.943714141845703,-33.8549690246582,18.030128479003906,0.008640050888061523,0.01921844482421875,0.1696692705154419,1.7957924604415894,10.811277389526367,1.0330802202224731
7_20251106_165616,1762419341539,7,0.2925253212451935,0.3558085858821869,0.5620356202125549,0.6869826316833496,2.3368208408355713,4.827029228210449,2.1750059127807617,1.8451321125030518,10.898727416992188,1.5283470153808594,-0.26160281896591187,0.057890884578228,0.07486528903245926,24.854652404785156,-33.95842361450195,17.767772674560547,0.013765335083007812,0.0362396240234375,0.3198436498641968,1.831366777420044,10.86248779296875,1.2085033655166626
7_20251106_165616,1762419341559,7,0.2925908863544464,0.35509732365608215,0.5601900219917297,0.6888276934623718,2.3457114696502686,4.838006973266602,2.203192949295044,1.6811363697052002,10.67487907409668,1.3775187730789185,-0.20479241013526917,0.0731625035405159,0.05959366634488106,24.812725067138672,-34.08408737182617,17.533885955810547,-0.12018442153930664,-0.1500864028930664,0.13521230220794678,1.8013207912445068,10.824965476989746,1.2423064708709717
7_20251106_165616,1762419341577,7,0.2925098240375519,0.3543568551540375,0.558814287185669,0.6903592348098755,2.354100465774536,4.847794532775879,2.23024320602417,1.7804914712905884,10.591086387634277,1.3416073322296143,-0.20967930555343628,0.0988188236951828,0.10907372087240219,24.773418426513672,-34.1597900390625,17.328086853027344,-0.016663432121276855,-0.187103271484375,0.07944071292877197,1.7971549034118652,10.778189659118652,1.2621666193008423
7_20251106_165616,1762419341596,7,0.29199549555778503,0.35369211435317993,0.5573468804359436,0.6921018362045288,2.3629143238067627,4.856756687164307,2.256680965423584,2.104891777038574,10.655726432800293,1.5319381952285767,-0.19196423888206482,0.07988201081752777,0.16954931616783142,24.731109619140625,-34.274375915527344,17.243141174316406,0.24618947505950928,-0.09797096252441406,0.21581721305847168,1.858702301979065,10.753697395324707,1.316120982170105
7_20251106_165616,1762419341615,7,0.29111796617507935,0.3535526990890503,0.5557317733764648,0.6938393712043762,2.3724358081817627,4.8649983406066895,2.282428503036499,2.2772669792175293,10.654529571533203,1.5463027954101562,-0.11438442021608353,0.036510616540908813,0.17260363698005676,24.648311614990234,-34.466285705566406,17.114593505859375,0.3348517417907715,-0.07933425903320312,0.18414545059204102,1.9424152374267578,10.733863830566406,1.3621573448181152
7_20251106_165616,1762419341636,7,0.2901410758495331,0.35394829511642456,0.5544527769088745,0.6950690150260925,2.38320255279541,4.87290096282959,2.309619188308716,2.171926498413086,10.509687423706055,1.408642053604126,-0.06734783202409744,0.020017273724079132,0.09441296011209488,24.53449249267578,-34.56025695800781,17.000202178955078,0.1836090087890625,-0.17934131622314453,0.037187814712524414,1.9883174896240234,10.6890287399292,1.3714542388916016
7_20251106_165616,1762419341656,7,0.2896583676338196,0.3542487919330597,0.553652822971344,0.6957545280456543,2.393036365509033,4.878908634185791,2.3347954750061035,2.018704414367676,10.313370704650879,1.5606672763824463,-0.1107192263007164,0.03651062026619911,0.015611410140991211,24.432861328125,-34.6534309387207,16.886302947998047,0.024309515953063965,-0.30052661895751953,0.15137040615081787,1.9943948984146118,10.613897323608398,1.4092968702316284
7_20251106_165616,1762419341673,7,0.28973644971847534,0.3538820445537567,0.5529201626777649,0.6964909434318542,2.4007911682128906,4.882681846618652,2.3553736209869385,1.9097727537155151,10.123039245605469,1.5223617553710938,-0.1107192263007164,0.03651062026619911,0.015611410140991211,24.318042755126953,-34.7603645324707,16.81219482421875,-0.06769776344299316,-0.3926868438720703,0.09045195579528809,1.9774705171585083,10.515726089477539,1.4319097995758057
7_20251106_165616,1762419341692,7,0.2899833619594574,0.3529995083808899,0.5521782636642456,0.6974239349365234,2.408336877822876,4.885246276855469,2.3770341873168945,1.7266242504119873,9.990167617797852,1.3631541728973389,-0.1211039274930954,0.055447425693273544,-0.01737528294324875,24.318042755126953,-34.7603645324707,16.81219482421875,-0.2006770372390747,-0.42044734954833984,-0.05500447750091553,1.927301287651062,10.410614967346191,1.4181586503982544
7_20251106_165616,1762419341711,7,0.29016974568367004,0.35219740867614746,0.5515798330307007,0.6982250213623047,2.408336877822876,4.885246276855469,2.3770341873168945,1.7266242504119873,9.990167617797852,1.3631541728973389,-0.12537997961044312,0.07132990658283234,0.00767016876488924,24.20282745361328,-34.86783218383789,16.792152404785156,-0.2006770372390747,-0.42044734954833984,-0.05500447750091553,1.927301287651062,10.410614967346191,1.4181586503982544
7_20251106_165616,1762419341730,7,0.2901169955730438,0.3513874113559723,0.5509613752365112,0.6991427540779114,2.4202635288238525,4.886058330535889,2.4179773330688477,1.7110626697540283,9.88482666015625,1.5702438354492188,-0.12537997961044312,0.07132990658283234,0.00767016876488924,24.098190307617188,-34.99989318847656,16.79910659790039,-0.12517738342285156,-0.3382282257080078,0.10959219932556152,1.8362400531768799,10.223054885864258,1.4606516361236572
7_20251106_165616,1762419341749,7,0.2898285686969757,0.3510168194770813,0.5498895049095154,0.7002914547920227,2.4255099296569824,4.88534688949585,2.437758684158325,1.8152059316635132,10.032063484191895,1.70670747756958,-0.1156061515212059,-0.03434968739748001,0.13717347383499146,24.04743194580078,-35.04060745239258,16.7828369140625,-0.01682734489440918,-0.15279293060302734,0.1968446969985962,1.8320332765579224,10.184856414794922,1.5098627805709839
7_20251106_165616,1762419341769,7,0.28946053981781006,0.35160717368125916,0.5485765933990479,0.701176643371582,2.430781602859497,4.884644031524658,2.4581565856933594,1.840343952178955,10.1876802444458,1.7126924991607666,-0.07345648109912872,-0.05511908605694771,0.1402277946472168,24.008350372314453,-35.09281539916992,16.739761352539062,0.006648540496826172,0.0022592544555664062,0.16226375102996826,1.833695411682129,10.185420989990234,1.5504287481307983
7_20251106_165616,1762419341788,7,0.2890499532222748,0.35247546434402466,0.5474503040313721,0.7017900943756104,2.435478687286377,4.884209632873535,2.476938486099243,1.811614751815796,10.258306503295898,1.6863574981689453,-0.08933896571397781,-0.020299797877669334,0.10052160918712616,24.023456573486328,-35.041656494140625,16.72779083251953,-0.017664551734924316,0.058307647705078125,0.10874307155609131,1.8292793035507202,10.19999885559082,1.577614426612854
7_20251106_165616,1762419341807,7,0.28876587748527527,0.3528485894203186,0.5464603304862976,0.7024907469749451,2.4396567344665527,4.8839826583862305,2.4939892292022705,1.8092206716537476,10.266685485839844,1.6372785568237305,-0.12354739010334015,0.029791109263896942,0.059593670070171356,23.971385955810547,-35.10734939575195,16.69747543334961,-0.016046881675720215,0.05334949493408203,0.04773139953613281,1.8252675533294678,10.213335990905762,1.5895471572875977
7_20251106_165616,1762419341826,7,0.28867658972740173,0.3526236116886139,0.5454998016357422,0.7033863663673401,2.4396567344665527,4.8839826583862305,2.4939892292022705,1.8092206716537476,10.266685485839844,1.6372785568237305,-0.12415825575590134,0.05422569438815117,0.03515908122062683,23.967849731445312,-35.18174743652344,16.601276397705078,-0.016046881675720215,0.05334949493408203,0.04773139953613281,1.8252675533294678,10.213335990905762,1.5895471572875977
7_20251106_165616,1762419341845,7,0.288560688495636,0.35206326842308044,0.5447279810905457,0.7043121457099915,2.444955348968506,4.8839111328125,2.514491081237793,1.9468814134597778,10.265488624572754,1.7809244394302368,-0.07284561544656754,0.018184678629040718,0.021109193563461304,23.929473876953125,-35.221397399902344,16.55846405029297,0.09729111194610596,0.04172229766845703,0.15310180187225342,1.8495903015136719,10.223766326904297,1.6278226375579834
7_20251106_165616,1762419341864,7,0.2885935306549072,0.3518620431423187,0.5441895127296448,0.7048153281211853,2.449693441390991,4.884011268615723,2.5308830738067627,2.1013007164001465,10.28703498840332,1.8132448196411133,0.001069013960659504,-0.0453452542424202,0.01866573467850685,23.987079620361328,-35.27994155883789,16.532562255859375,0.2013683319091797,0.05061531066894531,0.148337721824646,1.8999323844909668,10.236419677734375,1.6649070978164673
7_20251106_165616,1762419341883,7,0.2886318564414978,0.3522433638572693,0.5439993143081665,0.7047560214996338,2.454808473587036,4.884551048278809,2.5485966205596924,1.937304973602295,10.379207611083984,1.800077199935913,0.051159925758838654,-0.06000600382685661,0.001561521552503109,23.959381103515625,-35.34404754638672,16.503231048583984,0.02989804744720459,0.11423110961914062,0.10813605785369873,1.9074069261550903,10.264976501464844,1.6919411420822144
7_20251106_165616,1762419341902,7,0.28870633244514465,0.35262346267700195,0.5441339015960693,0.704431414604187,2.4631941318511963,4.886348724365234,2.5797722339630127,1.8319646120071411,10.338508605957031,1.8563385009765625,0.061544619500637054,-0.027630174532532692,-0.03997728228569031,23.932373046875,-35.40720748901367,16.379283905029297,-0.060732483863830566,0.033461570739746094,0.08874297142028809,1.8926970958709717,10.305047035217285,1.7675955295562744
7_20251106_165616,1762419341921,7,0.28874024748802185,0.3522976040840149,0.5445206165313721,0.704281747341156,2.466552257537842,4.886898994445801,2.5944724082946777,1.7194420099258423,10.170921325683594,1.8323975801467896,0.061544619500637054,-0.027630174532532692,-0.03997728228569031,23.891883850097656,-35.484527587890625,16.335681915283203,-0.1386040449142456,-0.1073007583618164,0.0518416166305542,1.858046054840088,10.27822208404541,1.7805559635162354
7_20251106_165616,1762419341940,7,0.28884392976760864,0.35158824920654297,0.5451370477676392,0.7041168212890625,2.4693262577056885,4.886549949645996,2.6097211837768555,1.604525089263916,9.972211837768555,1.692342758178711,0.05543597787618637,0.03162370249629021,-0.06380099803209305,23.75411605834961,-35.55632019042969,16.355998992919922,-0.20281672477722168,-0.24480819702148438,-0.07057058811187744,1.8073418140411377,10.217020034790039,1.7629133462905884
7_20251106_165616,1762419341959,7,0.2885740101337433,0.35048046708106995,0.5459645986557007,0.7041385769844055,2.4711124897003174,4.885004997253418,2.6223864555358887,1.5458697080612183,9.768712997436523,1.3631541728973389,0.06032288819551468,0.0780494213104248,-0.05280543863773346,23.731056213378906,-35.532928466796875,16.369060516357422,-0.20917773246765137,-0.3586463928222656,-0.3198072910308838,1.7550474405288696,10.127359390258789,1.6829614639282227
7_20251106_165616,1762419341979,7,0.2877810299396515,0.3498217463493347,0.5469259023666382,0.7040446400642395,2.4726412296295166,4.882187843322754,2.6330132484436035,1.670362949371338,9.708860397338867,1.0124187469482422,0.09269871562719345,0.07377336919307709,0.015000545419752598,23.63156509399414,-35.565208435058594,16.44570541381836,-0.06774759292602539,-0.33479881286621094,-0.5364341735839844,1.7381105422973633,10.043659210205078,1.5488529205322266
7_20251106_165616,1762419341999,7,0.2864510416984558,0.35042282938957214,0.5476735830307007,0.7037068605422974,2.474341630935669,4.879169940948486,2.6412558555603027,1.8978023529052734,9.796245574951172,1.2063407897949219,0.1055268868803978,-0.049010440707206726,0.24712912738323212,23.6187744140625,-35.57842254638672,16.431434631347656,0.1277533769607544,-0.19793128967285156,-0.27400970458984375,1.770048975944519,9.994176864624023,1.4803504943847656
7_20251106_165616,1762419342017,7,0.28489556908607483,0.3526811897754669,0.5479419827461243,0.7030007839202881,2.477121591567993,4.8755645751953125,2.6493234634399414,2.094118595123291,9.856098175048828,1.2721784114837646,0.12812888622283936,-0.0661146491765976,0.28072670102119446,23.486038208007812,-35.56217956542969,16.440082550048828,0.25925564765930176,-0.11046314239501953,-0.16653764247894287,1.8348629474639893,9.966561317443848,1.4387160539627075
7_20251106_165616,1762419342040,7,0.2830517590045929,0.3553081154823303,0.5478623509407043,0.702484667301178,2.4816627502441406,4.871522426605225,2.6570446491241455,2.279661178588867,9.892009735107422,1.2458434104919434,0.09941823035478592,-0.04473438486456871,0.23369011282920837,23.43970489501953,-35.52728271484375,16.398365020751953,0.3558385372161865,-0.05964088439941406,-0.1542980670928955,1.9238226413726807,9.951650619506836,1.4001414775848389
7_20251106_165616,1762419342058,7,0.2813679873943329,0.35752445459365845,0.5476410388946533,0.7022091150283813,2.486837863922119,4.867973804473877,2.662975788116455,2.4520363807678223,9.866870880126953,1.2530256509780884,0.024281872436404228,-0.03434968739748001,0.15855374932289124,23.412132263183594,-35.568023681640625,16.545272827148438,0.42257094383239746,-0.06782341003417969,-0.11769270896911621,2.029465436935425,9.934694290161133,1.3707183599472046
7_20251106_165616,1762419342075,7,0.2803853154182434,0.3593488335609436,0.5470508933067322,0.702130913734436,2.4923908710479736,4.864868640899658,2.668053388595581,2.5549826622009277,9.894402503967285,1.3870952129364014,-0.0056504979729652405,-0.07283416390419006,0.08463912457227707,23.36258316040039,-35.583892822265625,16.556564331054688,0.4204137325286865,-0.032233238220214844,0.013101577758789062,2.134568929672241,9.9266357421875,1.3739936351776123
7_20251106_165616,1762419342095,7,0.2801205515861511,0.36115187406539917,0.5462596416473389,0.7019275426864624,2.4990100860595703,4.861640930175781,2.674041986465454,2.3981690406799316,9.951862335205078,1.5917906761169434,0.01695149578154087,-0.12475766241550446,-0.014320961199700832,23.297733306884766,-35.65119171142578,16.606857299804688,0.21088004112243652,0.020181655883789062,0.17423772811889648,2.187288999557495,9.931680679321289,1.4175529479980469
7_20251106_165616,1762419342115,7,0.2806541919708252,0.3628059923648834,0.5456334948539734,0.7013481259346008,2.5054187774658203,4.858088970184326,2.68082594871521,2.1180596351623535,9.824974060058594,1.6791752576828003,0.01939495839178562,-0.11559469997882843,-0.12916353344917297,23.297733306884766,-35.65119171142578,16.606857299804688,-0.05538344383239746,-0.08536529541015625,0.209297776222229,2.173443078994751,9.91033935546875,1.4698774814605713
7_20251106_165616,1762419342132,7,0.2817833423614502,0.36321282386779785,0.5455246567726135,0.7007691860198975,2.5104169845581055,4.8542022705078125,2.6872801780700684,1.9780046939849854,9.565214157104492,1.7354365587234497,-0.00015271548181772232,-0.08199713379144669,-0.19696952402591705,23.259357452392578,-35.69084167480469,16.564044952392578,-0.15635085105895996,-0.27610015869140625,0.21244728565216064,2.1343555450439453,9.841314315795898,1.522989273071289
7_20251106_165616,1762419342151,7,0.2834227383136749,0.362597793340683,0.5457039475440979,0.7002868056297302,2.514385223388672,4.849411487579346,2.693610668182373,1.8176000118255615,9.395234107971191,1.603761076927185,0.01695149950683117,-0.06916896998882294,-0.20918682217597961,23.28292465209961,-35.701942443847656,16.578277587890625,-0.2534043788909912,-0.35686397552490234,0.06461751461029053,2.0710043907165527,9.752098083496094,1.5391435623168945
7_20251106_165616,1762419342169,7,0.2849332392215729,0.36162620782852173,0.5461000800132751,0.699867308139801,2.514385223388672,4.849411487579346,2.693610668182373,1.8176000118255615,9.395234107971191,1.603761076927185,0.02000582031905651,-0.05328649282455444,-0.20063471794128418,23.244251251220703,-35.74199676513672,16.57601547241211,-0.2534043788909912,-0.35686397552490234,0.06461751461029053,2.0710043907165527,9.752098083496094,1.5391435623168945
7_20251106_165616,1762419342188,7,0.2863946855068207,0.36062365770339966,0.5466722846031189,0.6993411779403687,2.5187947750091553,4.836698055267334,2.7061407566070557,1.5374904870986938,9.255179405212402,1.5989729166030884,-0.03924805670976639,-0.020910661667585373,-0.18108704686164856,23.316055297851562,-35.762210845947266,16.56491470336914,-0.3627084493637085,-0.3325843811035156,0.04825019836425781,1.9001989364624023,9.587763786315918,1.5507227182388306
7_20251106_165616,1762419342208,7,0.28785255551338196,0.35929960012435913,0.5469987988471985,0.6991688013076782,2.5188562870025635,4.829477787017822,2.7127110958099365,1.3986327648162842,9.294681549072266,1.808456540107727,-0.07773253321647644,0.0047456552274525166,-0.14932206273078918,23.41556167602539,-35.718318939208984,16.583145141601562,-0.4012528657913208,-0.2344655990600586,0.20618712902069092,1.799885630607605,9.529147148132324,1.6022694110870361
7_20251106_165616,1762419342226,7,0.2890779674053192,0.3576383590698242,0.547085165977478,0.6994473338127136,2.5188562870025635,4.829477787017822,2.7127110958099365,1.3986327648162842,9.294681549072266,1.808456540107727,-0.03802632540464401,0.04567359387874603,-0.0870138630270958,23.455333709716797,-35.66516876220703,16.53160858154297,-0.4012528657913208,-0.2344655990600586,0.20618712902069092,1.799885630607605,9.529147148132324,1.6022694110870361
7_20251106_165616,1762419342247,7,0.28953659534454346,0.35572460293769836,0.5473170876502991,0.7000518441200256,2.5135293006896973,4.81228494644165,2.727076530456543,1.1292966604232788,9.09357738494873,1.6372785568237305,0.01695149950683117,0.08415806293487549,0.046765509992837906,23.530269622802734,-35.623138427734375,16.57589340209961,-0.4339650869369507,-0.2946615219116211,-0.01551675796508789,1.5632617473602295,9.388238906860352,1.6527953147888184
7_20251106_165616,1762419342266,7,0.28878873586654663,0.3539985418319702,0.5477155447006226,0.700923502445221,2.5103564262390137,4.803704738616943,2.7327284812927246,1.5386874675750732,9.204902648925781,1.4206125736236572,0.04321867972612381,0.054836563766002655,0.24040961265563965,23.629871368408203,-35.5791130065918,16.580608367919922,-0.01965939998626709,-0.1466684341430664,-0.1857461929321289,1.5583468675613403,9.351571083068848,1.6063587665557861
7_20251106_165616,1762419342284,7,0.2867404520511627,0.3548036813735962,0.5474157929420471,0.7015911936759949,2.5089144706726074,4.796570301055908,2.737360715866089,2.1324238777160645,9.590353012084961,1.4218096733093262,0.0902552679181099,-0.014802016317844391,0.35830652713775635,23.718303680419922,-35.51130676269531,16.639427185058594,0.4592616558074951,0.1910257339477539,-0.14763927459716797,1.6731622219085693,9.399327278137207,1.5694489479064941
7_20251106_165616,1762419342304,7,0.28406423330307007,0.3569100797176361,0.5468282699584961,0.7020694613456726,2.5098419189453125,4.7909650802612305,2.7414629459381104,2.5382237434387207,9.963831901550293,1.3715335130691528,0.10186169296503067,-0.029462769627571106,0.28561362624168396,23.693622589111328,-35.5249137878418,16.584117889404297,0.6920492649078369,0.45160388946533203,-0.15833234786987305,1.8461744785308838,9.512228012084961,1.5298658609390259
7_20251106_165616,1762419342322,7,0.28196603059768677,0.3589400053024292,0.5464169383049011,0.7022006511688232,2.5125889778137207,4.787128448486328,2.7450833320617676,2.5262532234191895,10.054807662963867,1.4289920330047607,0.051159925758838654,-0.009915096685290337,0.06081539765000343,23.656768798828125,-35.5276985168457,16.62319564819336,0.5440630912780762,0.4340639114379883,-0.08069908618927002,1.9821901321411133,9.620743751525879,1.5096911191940308
7_20251106_165616,1762419342342,7,0.28142115473747253,0.3596087694168091,0.5464559197425842,0.7020466923713684,2.5161330699920654,4.784139156341553,2.74851131439209,2.3227548599243164,9.859688758850098,1.5056030750274658,0.051159925758838654,-0.009915096685290337,0.06081539765000343,23.607120513916016,-35.543704986572266,16.64800262451172,0.27245187759399414,0.19115543365478516,-0.0032705068588256836,2.0503029823303223,9.668533325195312,1.5088735818862915
7_20251106_165616,1762419342361,7,0.28218430280685425,0.3586278557777405,0.5471357107162476,0.7017126083374023,2.5161330699920654,4.784139156341553,2.74851131439209,2.3227548599243164,9.859688758850098,1.5056030750274658,0.02306014485657215,0.05666915699839592,-0.2763819098472595,23.508220672607422,-35.575172424316406,16.643550872802734,0.27245187759399414,0.19115543365478516,-0.0032705068588256836,2.0503029823303223,9.668533325195312,1.5088735818862915
7_20251106_165616,1762419342380,7,0.28360629081726074,0.35692504048347473,0.5483406782150269,0.7010666728019714,2.5200252532958984,4.780505657196045,2.751967430114746,2.1013007164001465,9.520923614501953,1.4661004543304443,0.02611446939408779,0.04261926934123039,-0.2831014394760132,23.493328094482422,-35.614444732666016,16.723365783691406,0.040798187255859375,-0.1180877685546875,-0.034218430519104004,2.060502529144287,9.63901138305664,1.5003188848495483
7_20251106_165616,1762419342399,7,0.2851514518260956,0.3552699685096741,0.549554169178009,0.7003300189971924,2.5226845741271973,4.776628494262695,2.7540526390075684,1.8104177713394165,9.364110946655273,1.1776114702224731,-0.029474223032593727,0.021849868819117546,-0.20735421776771545,23.495948791503906,-35.56448745727539,16.751453399658203,-0.20006787776947021,-0.21992015838623047,-0.25816595554351807,2.0104856491088867,9.584031105041504,1.4357774257659912
7_20251106_165616,1762419342418,7,0.28652745485305786,0.35430508852005005,0.550207257270813,0.6997441649436951,2.523874521255493,4.768274784088135,2.755491018295288,1.4884114265441895,9.444313049316406,1.1452913284301758,-0.08567377924919128,0.03101283870637417,-0.06563359498977661,23.497455596923828,-35.53923797607422,16.73846435546875,-0.33949029445648193,-0.07888507843017578,-0.1788245439529419,1.8279017210006714,9.523198127746582,1.3241158723831177
7_20251106_165616,1762419342437,7,0.28727662563323975,0.3535791337490082,0.5503366589546204,0.6997024416923523,2.523874521255493,4.768274784088135,2.755491018295288,1.4884114265441895,9.444313049316406,1.1452913284301758,-0.08933896571397781,0.01696295104920864,0.09380210191011429,23.506935119628906,-35.57692337036133,16.819259643554688,-0.33949029445648193,-0.07888507843017578,-0.1788245439529419,1.8279017210006714,9.523198127746582,1.3241158723831177
7_20251106_165616,1762419342456,7,0.28703945875167847,0.353638619184494,0.5499103665351868,0.7001047730445862,2.5240542888641357,4.76192569732666,2.7563159465789795,2.094118356704712,9.935102462768555,1.4026567935943604,-0.04108065366744995,-0.01846720464527607,0.19459477066993713,23.59435272216797,-35.53369140625,16.823486328125,0.22879457473754883,0.31016063690185547,0.06712055206298828,1.865323781967163,9.6249418258667,1.335536241531372
7_20251106_165616,1762419342477,7,0.286011278629303,0.35468733310699463,0.5491340756416321,0.7006042003631592,2.5261080265045166,4.761230945587158,2.755998373031616,2.3251490592956543,10.21521282196045,1.0782564878463745,-0.01603519916534424,-0.06000600382685661,0.19825994968414307,23.69536590576172,-35.46455383300781,16.828731536865234,0.3678603172302246,0.4722166061401367,-0.20582377910614014,1.9572887420654297,9.742996215820312,1.2840802669525146
7_20251106_165616,1762419342496,7,0.2850373089313507,0.3564973771572113,0.5480544567108154,0.700927734375,2.528848171234131,4.7625651359558105,2.755887269973755,2.390986919403076,10.514474868774414,1.3440014123916626,-0.08750637620687485,-0.0758884847164154,0.10052160173654556,23.766368865966797,-35.497459411621094,16.830883026123047,0.3469583988189697,0.6171836853027344,0.04793691635131836,2.0440285205841064,9.89729118347168,1.2960644960403442
7_20251106_165616,1762419342515,7,0.2850549519062042,0.35745105147361755,0.5469215512275696,0.7013196349143982,2.5323586463928223,4.7657952308654785,2.756869316101074,2.247340679168701,10.496519088745117,1.6576282978057861,-0.17608174681663513,-0.03129536658525467,-0.05647062882781029,23.778553009033203,-35.496665954589844,16.831375122070312,0.16264986991882324,0.4793825149536133,0.2892509698867798,2.084690809249878,10.017136573791504,1.3683773279190063
7_20251106_165616,1762419342538,7,0.28617388010025024,0.3570038378238678,0.5458348393440247,0.7019380927085876,2.5362462997436523,4.770538806915283,2.7607364654541016,2.0977096557617188,10.319355964660645,2.0634279251098633,-0.19929461181163788,0.004134790506213903,-0.14993295073509216,23.754169464111328,-35.509864807128906,16.735515594482422,0.010415077209472656,0.2417755126953125,0.5560405254364014,2.087294578552246,10.077580451965332,1.507387399673462
7_20251106_165616,1762419342551,7,0.28777214884757996,0.35566267371177673,0.5450109839439392,0.7026053667068481,2.5362462997436523,4.770538806915283,2.7607364654541016,2.0977096557617188,10.319355964660645,2.0634279251098633,-0.1412624567747116,-0.010525963269174099,-0.12549835443496704,23.754169464111328,-35.509864807128906,16.735515594482422,0.010415077209472656,0.2417755126953125,0.5560405254364014,2.087294578552246,10.077580451965332,1.507387399673462
7_20251106_165616,1762419342570,7,0.28909558057785034,0.3546275496482849,0.5444095730781555,0.7030513882637024,2.5401248931884766,4.7775421142578125,2.7693846225738525,1.7936590909957886,10.288232803344727,2.225029945373535,-0.043524108827114105,-0.06977984309196472,-0.06196841225028038,23.728275299072266,-35.548316955566406,16.652645111083984,-0.21263372898101807,0.14630889892578125,0.4654202461242676,2.0062928199768066,10.141923904418945,1.7596096992492676
7_20251106_165616,1762419342590,7,0.2899725139141083,0.3545403778553009,0.5440866351127625,0.7029842138290405,2.5409674644470215,4.782069206237793,2.7762629985809326,1.645224928855896,10.223591804504395,2.147221565246582,0.03527744114398956,-0.08993837237358093,-0.021651338785886765,23.789093017578125,-35.556095123291016,16.573734283447266,-0.2888542413711548,0.06533336639404297,0.31008946895599365,1.9340791702270508,10.158258438110352,1.8371320962905884
7_20251106_165616,1762419342610,7,0.2904498279094696,0.35499122738838196,0.5441076159477234,0.7025432586669922,2.540529489517212,4.785964488983154,2.7829103469848633,1.5267170667648315,10.024881362915039,1.8742942810058594,0.03527744114398956,-0.08993837237358093,-0.021651338785886765,23.762184143066406,-35.61912155151367,16.43627166748047,-0.3258897066116333,-0.10670185089111328,0.029729723930358887,1.8526067733764648,10.131583213806152,1.8445645570755005
7_20251106_165616,1762419342628,7,0.2905881106853485,0.3554716408252716,0.5443323850631714,0.7020688652992249,2.53910493850708,4.788716793060303,2.7887229919433594,1.4261648654937744,9.896797180175781,1.897038221359253,0.05360338091850281,-0.056340817362070084,0.02843957021832466,23.70315933227539,-35.59730529785156,16.366764068603516,-0.341153621673584,-0.18782901763916016,0.04197895526885986,1.7673184871673584,10.084626197814941,1.855059266090393
7_20251106_165616,1762419342647,7,0.29051798582077026,0.35600927472114563,0.5444610714912415,0.7017256021499634,2.5368881225585938,4.7908101081848145,2.794161319732666,1.4800320863723755,9.841733932495117,1.7126926183700562,0.05360338091850281,0.015741219744086266,0.07364355772733688,23.716445922851562,-35.583412170410156,16.313453674316406,-0.22982919216156006,-0.19431400299072266,-0.11389327049255371,1.7098612785339355,10.03604793548584,1.8265858888626099
7_20251106_165616,1762419342668,7,0.2897608280181885,0.35625985264778137,0.5446491241455078,0.7017655372619629,2.534825325012207,4.7923808097839355,2.799321174621582,1.7888708114624023,9.848915100097656,1.6624164581298828,0.07620537281036377,0.016352085396647453,0.13045397400856018,23.73033905029297,-35.557098388671875,16.273921966552734,0.06320762634277344,-0.1497058868408203,-0.13133561611175537,1.725663185119629,9.998620986938477,1.7937520742416382
7_20251106_165616,1762419342686,7,0.28853839635849,0.3568973243236542,0.5448118448257446,0.7018190622329712,2.533879041671753,4.793715953826904,2.8032732009887695,2.0234923362731934,10.021291732788086,1.692342758178711,0.11957677453756332,-0.02152152732014656,0.1500016450881958,23.78179168701172,-35.51544189453125,16.195579528808594,0.23826336860656738,0.018136978149414062,-0.08112752437591553,1.785228967666626,10.003154754638672,1.7734702825546265
7_20251106_165616,1762419342705,7,0.2872159779071808,0.3580768406391144,0.5450571179389954,0.7015701532363892,2.533689022064209,4.794986248016357,2.806908369064331,2.061798095703125,9.97819709777832,1.6540372371673584,0.1409570425748825,-0.03801487386226654,0.07120010256767273,23.820266723632812,-35.47565841674805,16.224876403808594,0.22125530242919922,-0.01996612548828125,-0.09554648399353027,1.8405427932739258,9.998163223266602,1.7495837211608887
7_20251106_165616,1762419342724,7,0.2864767611026764,0.35909444093704224,0.5456101894378662,0.7009221315383911,2.5335867404937744,4.79567813873291,2.809364080429077,1.8690731525421143,9.810609817504883,1.3858981132507324,0.09086612612009048,-0.0007521271472796798,-0.05769236013293266,23.820972442626953,-35.46310043334961,16.225139617919922,0.02282428741455078,-0.15004253387451172,-0.2909485101699829,1.8462488651275635,9.960652351379395,1.6768466234207153
7_20251106_165616,1762419342743,7,0.2865324318408966,0.35903578996658325,0.5463858246803284,0.7003248929977417,2.5335867404937744,4.79567813873291,2.809364080429077,1.8690731525421143,9.810609817504883,1.3858981132507324,0.09086612612009048,-0.0007521271472796798,-0.05769236013293266,23.79871368408203,-35.42701721191406,16.22494888305664,0.02282428741455078,-0.15004253387451172,-0.2909485101699829,1.8462488651275635,9.960652351379395,1.6768466234207153
7_20251106_165616,1762419342762,7,0.28727173805236816,0.3580642342567444,0.546977698802948,0.7000573873519897,2.530547618865967,4.793298721313477,2.8114421367645264,1.3746917247772217,9.417978286743164,1.488844394683838,0.0004581492394208908,0.04078667610883713,-0.13893738389015198,23.799827575683594,-35.40230941772461,16.26602554321289,-0.3243969678878784,-0.3620595932006836,-0.09005999565124512,1.6990886926651,9.780037879943848,1.578904390335083
7_20251106_165616,1762419342781,7,0.2877412736415863,0.3569689691066742,0.5472059845924377,0.7002454996109009,2.5279929637908936,4.790692329406738,2.812150239944458,1.4740468263626099,9.447903633117676,1.54151451587677,-0.0025961734354496002,0.05300396680831909,0.021720057353377342,23.834285736083984,-35.42598342895508,16.361583709716797,-0.18003344535827637,-0.26570701599121094,-0.02991187572479248,1.6540802717208862,9.713610649108887,1.5714263916015625
7_20251106_165616,1762419342801,7,0.2873421907424927,0.35660573840141296,0.5473172068595886,0.7005074620246887,2.525385856628418,4.787587642669678,2.8128256797790527,1.636845588684082,9.549654006958008,1.5606672763824463,0.07742710411548615,-0.012358556501567364,0.12068014591932297,23.82129669189453,-35.43946838378906,16.374343872070312,-0.01378774642944336,-0.1311655044555664,-0.008607268333435059,1.6506333351135254,9.680819511413574,1.5692745447158813
7_20251106_165616,1762419342819,7,0.2863280773162842,0.3574106991291046,0.5474375486373901,0.7004184126853943,2.525385856628418,4.787587642669678,2.8128256797790527,1.636845588684082,9.549654006958008,1.5606672763824463,0.0694858655333519,-0.033127959817647934,0.14694732427597046,23.811634063720703,-35.39044189453125,16.41545867919922,-0.01378774642944336,-0.1311655044555664,-0.008607268333435059,1.6506333351135254,9.680819511413574,1.5692745447158813
7_20251106_165616,1762419342839,7,0.2852995693683624,0.35851991176605225,0.5473214387893677,0.700361967086792,2.5234529972076416,4.784770965576172,2.813204765319824,1.8295705318450928,9.724422454833984,1.4828591346740723,-0.00931568630039692,-0.013580286875367165,0.09929987788200378,23.784259796142578,-35.430912017822266,16.53533172607422,0.143149733543396,0.034882545471191406,-0.06913232803344727,1.6864207983016968,9.689539909362793,1.5519914627075195
7_20251106_165616,1762419342858,7,0.28475189208984375,0.35890671610832214,0.5469462871551514,0.7006797194480896,2.522122859954834,4.7817888259887695,2.813849925994873,1.9792017936706543,10.012910842895508,1.595381736755371,-0.07162388414144516,0.035288888961076736,0.0162222757935524,23.72473907470703,-35.40977096557617,16.533405303955078,0.19140195846557617,0.22304534912109375,0.03849530220031738,1.7877998352050781,9.789865493774414,1.5568864345550537
7_20251106_165616,1762419342877,7,0.2846432030200958,0.3584642708301544,0.5465070605278015,0.7012928128242493,2.5225045680999756,4.781520843505859,2.815020799636841,2.043842315673828,10.07635498046875,1.849156379699707,-0.0850629135966301,0.058501750230789185,-0.03936641663312912,23.685672760009766,-35.45036315917969,16.585208892822266,0.204833984375,0.22919178009033203,0.23381590843200684,1.8390083312988281,9.847163200378418,1.6153404712677002
7_20251106_165616,1762419342896,7,0.28484588861465454,0.35754525661468506,0.5461799502372742,0.7019342184066772,2.5234389305114746,4.781973838806152,2.8167812824249268,2.047433376312256,10.105084419250488,1.8515503406524658,-0.01053741667419672,0.03834321349859238,-0.05463803932070732,23.619709014892578,-35.5423698425293,16.594425201416016,0.1667400598526001,0.20633697509765625,0.18896782398223877,1.8806933164596558,9.898747444152832,1.662582516670227
7_20251106_165616,1762419342915,7,0.28487274050712585,0.35666409134864807,0.5461417436599731,0.7024012207984924,2.5244665145874023,4.782736301422119,2.8185155391693115,1.9564577341079712,10.042837142944336,1.7234660387039185,0.07620538026094437,0.002302196342498064,-0.04180987551808357,23.58496856689453,-35.507484436035156,16.634296417236328,0.060611605644226074,0.11527156829833984,0.048706769943237305,1.8958461284637451,9.927565574645996,1.6747592687606812
7_20251106_165616,1762419342936,7,0.2847447991371155,0.35636356472969055,0.5465169548988342,0.7023137807846069,2.5253713130950928,4.783811092376709,2.8204002380371094,1.8259793519973755,9.996152877807617,1.6636135578155518,0.08781180530786514,-0.03190622851252556,-0.007601450197398663,23.58496856689453,-35.507484436035156,16.634296417236328,-0.0558934211730957,0.054869651794433594,-0.008916497230529785,1.8818727731704712,9.941283226013184,1.6725300550460815
7_20251106_165616,1762419342954,7,0.28455692529678345,0.35648930072784424,0.5469304919242859,0.702004075050354,2.5258049964904785,4.784645080566406,2.821972131729126,1.7625356912612915,9.944679260253906,1.7282543182373047,0.08292488008737564,-0.008693368174135685,-0.006990584544837475,23.532093048095703,-35.585872650146484,16.617233276367188,-0.09546971321105957,0.0027170181274414062,0.044579505920410156,1.858005404472351,9.941962242126465,1.6836748123168945
7_20251106_165616,1762419342972,7,0.2843520939350128,0.3563448488712311,0.5474990010261536,0.7017172574996948,2.525660991668701,4.785098075866699,2.8231003284454346,1.651210069656372,9.784274101257324,1.4768738746643066,0.09147699177265167,0.07438422739505768,-0.0198187455534935,23.532093048095703,-35.585872650146484,16.617233276367188,-0.1654362678527832,-0.12615013122558594,-0.16544079780578613,1.8166463375091553,9.91042423248291,1.6423146724700928
7_20251106_165616,1762419342991,7,0.2838102877140045,0.35547205805778503,0.5483528971672058,0.7017124891281128,2.524909734725952,4.784477710723877,2.8232803344726562,1.590160608291626,9.535287857055664,1.3368191719055176,0.07925970107316971,0.10187314450740814,0.006448439322412014,23.496845245361328,-35.56327438354492,16.629806518554688,-0.18118858337402344,-0.3001089096069336,-0.24439632892608643,1.7713491916656494,9.835396766662598,1.581215500831604
7_20251106_165616,1762419343010,7,0.2830422818660736,0.35464733839035034,0.5493530631065369,0.7016577124595642,2.524017333984375,4.783051490783691,2.8229384422302246,1.706274390220642,9.530500411987305,1.3942774534225464,0.060933761298656464,0.09271017462015152,0.08769345283508301,23.47247314453125,-35.56486129760742,16.628826141357422,-0.05205976963043213,-0.24391746520996094,-0.1495504379272461,1.7583341598510742,9.774417877197266,1.5438278913497925
7_20251106_165616,1762419343030,7,0.2818746268749237,0.3543468117713928,0.5500140190124512,0.701761782169342,2.523771047592163,4.781087875366211,2.8217124938964844,1.9708224534988403,9.597535133361816,1.2530256509780884,0.08536834269762039,0.06094520539045334,0.16466239094734192,23.42282485961914,-35.580867767333984,16.65363311767578,0.1699906587600708,-0.14150619506835938,-0.2326418161392212,1.8008317947387695,9.739041328430176,1.4856674671173096
7_20251106_165616,1762419343048,7,0.2802164554595947,0.35478729009628296,0.5503494739532471,0.7019402980804443,2.5244269371032715,4.77924919128418,2.8199145793914795,2.152773857116699,9.674145698547363,1.1812026500701904,0.13545924425125122,0.006578249391168356,0.16954931616783142,23.362201690673828,-35.572818756103516,16.705509185791016,0.28155362606048584,-0.05191612243652344,-0.24357187747955322,1.8712202310562134,9.726061820983887,1.4247745275497437
7_20251106_165616,1762419343068,7,0.2785995602607727,0.35625728964805603,0.5507263541221619,0.7015436887741089,2.5260589122772217,4.777372360229492,2.8171563148498535,2.1803059577941895,9.747166633605957,1.141700029373169,0.1256854236125946,-0.012358555570244789,0.11334976553916931,23.330493927001953,-35.475826263427734,16.814281463623047,0.24726855754852295,0.01688385009765625,-0.22645962238311768,1.9330374002456665,9.7302827835083,1.3681596517562866
7_20251106_165616,1762419343087,7,0.27742159366607666,0.35779374837875366,0.5510920882225037,0.7009410858154297,2.5260589122772217,4.777372360229492,2.8171563148498535,2.1803059577941895,9.747166633605957,1.141700029373169,0.03955349326133728,0.015741219744086266,0.04615464434027672,23.232608795166016,-35.48271942138672,16.864421844482422,0.24726855754852295,0.01688385009765625,-0.22645962238311768,1.9330374002456665,9.7302827835083,1.3681596517562866
7_20251106_165616,1762419343106,7,0.2768774926662445,0.3586214780807495,0.5511969923973083,0.700650691986084,2.52970290184021,4.774181365966797,2.809230089187622,1.9708223342895508,9.717240333557129,1.0243892669677734,-0.03558287024497986,0.0731625109910965,-0.00210366677492857,23.13412094116211,-35.50203323364258,16.90078353881836,0.009243130683898926,-0.015049934387207031,-0.20603156089782715,1.9615792036056519,9.732290267944336,1.2304208278656006
7_20251106_165616,1762419343126,7,0.2767060697078705,0.35866573452949524,0.5513834357261658,0.7005490660667419,2.52970290184021,4.774181365966797,2.809230089187622,1.9708223342895508,9.717240333557129,1.0243892669677734,-0.08445204794406891,0.11347957700490952,-0.025927390903234482,23.083782196044922,-35.51898193359375,17.020206451416016,0.009243130683898926,-0.015049934387207031,-0.20603156089782715,1.9615792036056519,9.732290267944336,1.2304208278656006
7_20251106_165616,1762419343145,7,0.2766888439655304,0.3579830527305603,0.5514301061630249,0.7008681893348694,2.533104181289673,4.77215051651001,2.8018367290496826,1.9839898347854614,9.915950775146484,1.5451056957244873,-0.08567377924919128,0.08660152554512024,-0.004547125659883022,22.993656158447266,-35.60069274902344,17.09628677368164,0.019705653190612793,0.13190746307373047,0.2556006908416748,1.9642841815948486,9.784043312072754,1.2895050048828125
7_20251106_165616,1762419343163,7,0.2766408324241638,0.35733407735824585,0.5512544512748718,0.7013563513755798,2.534844160079956,4.772281646728516,2.8001177310943604,2.0689804553985596,10.102689743041992,1.7043132781982422,-0.014202605001628399,0.006578249391168356,0.04798724129796028,22.95760726928711,-35.590789794921875,17.122112274169922,0.08375704288482666,0.2549171447753906,0.33184659481048584,1.985223412513733,9.847772598266602,1.3724666833877563
7_20251106_165616,1762419343182,7,0.2762446105480194,0.3572397828102112,0.5509709715843201,0.7017831802368164,2.534844160079956,4.772281646728516,2.8001177310943604,2.0689804553985596,10.102689743041992,1.7043132781982422,0.11163552850484848,-0.027019308879971504,0.0779196098446846,22.908466339111328,-35.594505310058594,17.174217224121094,0.08375704288482666,0.2549171447753906,0.33184659481048584,1.985223412513733,9.847772598266602,1.3724666833877563
7_20251106_165616,1762419343202,7,0.2753876745700836,0.35776594281196594,0.551180899143219,0.7016870975494385,2.539463520050049,4.774852275848389,2.799292802810669,2.1144680976867676,10.143388748168945,1.5522879362106323,0.16600248217582703,0.005967384669929743,0.052263293415308,22.883697509765625,-35.59663391113281,17.22730255126953,0.08041810989379883,0.1913013458251953,0.08118510246276855,2.0340499877929688,9.95208740234375,1.4711028337478638
7_20251106_165616,1762419343221,7,0.27427008748054504,0.3580266535282135,0.5518503785133362,0.7014656066894531,2.5415749549865723,4.776340484619141,2.7990195751190186,1.9959604740142822,9.954255104064941,1.4565240144729614,0.16600248217582703,0.005967384669929743,0.052263293415308,22.796279907226562,-35.639862060546875,17.223079681396484,-0.0304715633392334,0.0017347335815429688,-0.011663079261779785,2.0264320373535156,9.952520370483398,1.4681870937347412
7_20251106_165616,1762419343240,7,0.2734886407852173,0.3578764498233795,0.5525592565536499,0.7012892961502075,2.5415749549865723,4.776340484619141,2.7990195751190186,1.9959604740142822,9.954255104064941,1.4565240144729614,0.06215548515319824,0.09759709239006042,0.0033941157162189484,22.745731353759766,-35.66869354248047,17.274654388427734,-0.0304715633392334,0.0017347335815429688,-0.011663079261779785,2.0264320373535156,9.952520370483398,1.4681870937347412
7_20251106_165616,1762419343258,7,0.2727292776107788,0.35720840096473694,0.55319744348526,0.7014224529266357,2.543393611907959,4.777237415313721,2.7984743118286133,1.93012273311615,9.757939338684082,1.3787157535552979,0.08781180530786514,0.11714476346969604,0.03210475668311119,22.685222625732422,-35.64889907836914,17.407894134521484,-0.07704746723175049,-0.15566539764404297,-0.07157707214355469,2.0071702003479004,9.913604736328125,1.4502928256988525
7_20251106_165616,1762419343278,7,0.2715601325035095,0.3565988838672638,0.5540386438369751,0.7015222907066345,2.546536922454834,4.777301788330078,2.7963478565216064,2.1048920154571533,9.759137153625488,1.242252230644226,0.11713329702615738,0.09026671946048737,0.07181096822023392,22.579086303710938,-35.58164978027344,17.499675750732422,0.08188629150390625,-0.08583545684814453,-0.14023256301879883,2.023005723953247,9.844972610473633,1.382484793663025
7_20251106_165616,1762419343297,7,0.2701316177845001,0.3566036522388458,0.5548717975616455,0.7014129161834717,2.548943519592285,4.776953220367432,2.794644355773926,2.2389614582061768,9.766319274902344,1.257813811302185,0.12507455050945282,0.05422569811344147,0.09013690799474716,22.49368667602539,-35.58734130859375,17.50975799560547,0.17276453971862793,-0.06292247772216797,-0.09973680973052979,2.066196918487549,9.829241752624512,1.3575506210327148
7_20251106_165616,1762419343316,7,0.2687423527240753,0.3571617603302002,0.5555286407470703,0.7011426091194153,2.5516812801361084,4.776597499847412,2.792691946029663,2.2724790573120117,9.814201354980469,1.2063407897949219,0.12507455050945282,0.05422569811344147,0.09013690799474716,22.457847595214844,-35.565555572509766,17.60342788696289,0.1650257110595703,-0.012032508850097656,-0.12096786499023438,2.1074533462524414,9.826233863830566,1.3273086547851562
7_20251106_165616,1762419343335,7,0.2676757276058197,0.3577255308628082,0.5559934973716736,0.7008947134017944,2.5516812801361084,4.776597499847412,2.792691946029663,2.2724790573120117,9.814201354980469,1.2063407897949219,0.10613774508237839,0.04445185884833336,0.05592847988009453,22.444561004638672,-35.579444885253906,17.65673828125,0.1650257110595703,-0.012032508850097656,-0.12096786499023438,2.1074533462524414,9.826233863830566,1.3273086547851562
7_20251106_165616,1762419343355,7,0.2671920657157898,0.35774004459381104,0.556422233581543,0.7007315754890442,2.5573277473449707,4.774805545806885,2.7869157791137695,2.0546157360076904,9.604717254638672,1.1847939491271973,0.0065667955204844475,0.07010817527770996,-0.07785088568925858,22.36219024658203,-35.52302932739258,17.735721588134766,-0.05833172798156738,-0.16092395782470703,-0.06516158580780029,2.112947463989258,9.765641212463379,1.2499555349349976
7_20251106_165616,1762419343374,7,0.2673550248146057,0.3574591875076294,0.5568767786026001,0.7004516124725342,2.5573277473449707,4.774805545806885,2.7869157791137695,2.0546157360076904,9.604717254638672,1.1847939491271973,-0.014813468791544437,0.11592303216457367,-0.09434423595666885,22.301979064941406,-35.502830505371094,17.828411102294922,-0.05833172798156738,-0.16092395782470703,-0.06516158580780029,2.112947463989258,9.765641212463379,1.2499555349349976
7_20251106_165616,1762419343393,7,0.26735684275627136,0.35626715421676636,0.5573922395706177,0.7006481885910034,2.560957670211792,4.770833492279053,2.7821969985961914,1.9947633743286133,9.458677291870117,1.3033016920089722,0.00229074340313673,0.13058379292488098,-0.07418569922447205,22.301979064941406,-35.502830505371094,17.828411102294922,-0.06874275207519531,-0.2110128402709961,0.029161810874938965,2.0635061264038086,9.669690132141113,1.2741398811340332
7_20251106_165616,1762419343411,7,0.26709654927253723,0.35484427213668823,0.5579425096511841,0.7010314464569092,2.5623950958251953,4.768318176269531,2.7803540229797363,2.046236515045166,9.487405776977539,1.3451985120773315,0.025503603741526604,0.07621683180332184,-0.024705663323402405,22.302993774414062,-35.47825622558594,17.88300323486328,-0.013815641403198242,-0.1458272933959961,0.0568469762802124,2.0600521564483643,9.633233070373535,1.2883515357971191
7_20251106_165616,1762419343431,7,0.2667034864425659,0.35424524545669556,0.558286190032959,0.7012104392051697,2.5637502670288086,4.765361785888672,2.7782540321350098,2.0067338943481445,9.53409194946289,1.2374639511108398,0.025503603741526604,0.07621683180332184,-0.024705663323402405,22.235118865966797,-35.38310241699219,17.936237335205078,-0.04265451431274414,-0.07931232452392578,-0.04071009159088135,2.0493884086608887,9.613404273986816,1.2781740427017212
7_20251106_165616,1762419343450,7,0.2662050724029541,0.3540583550930023,0.5584699511528015,0.7013478875160217,2.5637502670288086,4.765361785888672,2.7782540321350098,2.0067338943481445,9.53409194946289,1.2374639511108398,0.03588830679655075,0.032845430076122284,0.0027832509949803352,22.19857406616211,-35.373870849609375,18.029644012451172,-0.04265451431274414,-0.07931232452392578,-0.04071009159088135,2.0493884086608887,9.613404273986816,1.2781740427017212
7_20251106_165616,1762419343468,7,0.2657121419906616,0.35399216413497925,0.5585927963256836,0.7014703750610352,2.565298080444336,4.759377479553223,2.774559497833252,1.9145610332489014,9.529303550720215,1.1656410694122314,0.017562363296747208,0.032234564423561096,0.021720057353377342,22.228191375732422,-35.27236557006836,18.086803436279297,-0.09241843223571777,-0.04539680480957031,-0.09404683113098145,2.006979465484619,9.574700355529785,1.259687900543213
7_20251106_165616,1762419343487,7,0.26506274938583374,0.35373225808143616,0.5583922266960144,0.7020066380500793,2.5659985542297363,4.756579399108887,2.772864818572998,2.048630714416504,9.614293098449707,1.3344249725341797,-0.04413497447967529,0.068275585770607,0.0779196098446846,22.190025329589844,-35.300132751464844,18.111835479736328,0.03332114219665527,0.03167438507080078,0.05978965759277344,2.0153095722198486,9.582618713378906,1.2746353149414062
7_20251106_165616,1762419343508,7,0.2643835246562958,0.35358089208602905,0.5581223964691162,0.702553391456604,2.5672028064727783,4.754252910614014,2.7715744972229004,2.155168056488037,9.765121459960938,1.4206125736236572,-0.04535670578479767,0.07194077223539352,0.07547615468502045,22.095256805419922,-35.25639343261719,18.122486114501953,0.11188673973083496,0.14600181579589844,0.11678183078765869,2.043281316757202,9.619119644165039,1.3038307428359985
7_20251106_165616,1762419343527,7,0.263633668422699,0.3533841371536255,0.5576501488685608,0.7033087611198425,2.5672028064727783,4.754252910614014,2.7715744972229004,2.155168056488037,9.765121459960938,1.4206125736236572,-0.020922116935253143,0.047506183385849,0.04920896887779236,22.04570770263672,-35.27226257324219,18.133777618408203,0.11188673973083496,0.14600181579589844,0.11678183078765869,2.043281316757202,9.619119644165039,1.3038307428359985
7_20251106_165616,1762419343546,7,0.2630496621131897,0.35329166054725647,0.5572742819786072,0.7038716077804565,2.5688018798828125,4.752889156341553,2.7711334228515625,2.1791090965270996,9.871659278869629,1.5379234552383423,0.018173225224018097,0.026125920936465263,0.017444003373384476,21.985088348388672,-35.264217376708984,18.185653686523438,0.10866212844848633,0.20203208923339844,0.18727421760559082,2.0704469680786133,9.66962718963623,1.3506492376327515
7_20251106_165616,1762419343565,7,0.2625695466995239,0.3530932068824768,0.5571792721748352,0.7042255997657776,2.5716545581817627,4.752070426940918,2.7701618671417236,2.064192295074463,9.860885620117188,1.1536705493927002,0.024281876161694527,0.012076032347977161,0.018054869025945663,21.900096893310547,-35.25775909423828,18.236549377441406,-0.017218351364135742,0.12049007415771484,-0.16552114486694336,2.0814106464385986,9.740395545959473,1.3191916942596436
7_20251106_165616,1762419343585,7,0.26219120621681213,0.35311248898506165,0.5572272539138794,0.7043188810348511,2.573153495788574,4.752158164978027,2.768970489501953,2.1013007164001465,9.841733932495117,1.1823997497558594,-0.004428768530488014,0.009021708741784096,0.040045998990535736,21.83413314819336,-35.34976577758789,18.245765686035156,0.01591205596923828,0.0810708999633789,-0.10943365097045898,2.085388660430908,9.760663032531738,1.2918334007263184
7_20251106_165616,1762419343602,7,0.26189979910850525,0.35336726903915405,0.5572538375854492,0.7042785286903381,2.574603796005249,4.752530574798584,2.7678654193878174,2.1946706771850586,9.897994995117188,1.2266905307769775,-0.04413497447967529,0.03040197305381298,0.040656860917806625,21.806732177734375,-35.4134635925293,18.175884246826172,0.08742547035217285,0.10986614227294922,-0.052114248275756836,2.1072452068328857,9.788128852844238,1.2788047790527344
7_20251106_165616,1762419343621,7,0.26156219840049744,0.3533709645271301,0.5570334196090698,0.7045764327049255,2.5763802528381348,4.753628253936768,2.7671074867248535,2.1934735774993896,10.044034004211426,1.4301888942718506,-0.06612610071897507,0.042619265615940094,0.013778815977275372,21.74188232421875,-35.48075866699219,18.226177215576172,0.06898283958435059,0.20472431182861328,0.12110722064971924,2.124490737915039,9.839309692382812,1.3090816736221313
7_20251106_165616,1762419343641,7,0.26145824790000916,0.35324910283088684,0.5566515326499939,0.7049778699874878,2.5782899856567383,4.755373954772949,2.767026901245117,2.168335437774658,10.052413940429688,1.5319381952285767,-0.01908952184021473,0.047506183385849,-0.024705663323402405,21.595550537109375,-35.49042510986328,18.233806610107422,0.03507566452026367,0.17048358917236328,0.1782851219177246,2.1332597732543945,9.881930351257324,1.353653073310852
7_20251106_165616,1762419343660,7,0.2613529562950134,0.35271868109703064,0.5566437244415283,0.7052885293960571,2.579843759536743,4.757256031036377,2.7670395374298096,2.0713744163513184,9.993758201599121,1.384701132774353,0.04321867972612381,0.028569379821419716,-0.035090360790491104,21.532123565673828,-35.52099609375,18.379505157470703,-0.04950833320617676,0.0894622802734375,0.02483844757080078,2.120882749557495,9.904295921325684,1.3598626852035522
7_20251106_165616,1762419343679,7,0.2611686885356903,0.35224536061286926,0.5569963455200195,0.7053149342536926,2.5809836387634277,4.759039878845215,2.7668864727020264,1.998354434967041,9.902782440185547,1.2997105121612549,0.04321867972612381,0.028569379821419716,-0.035090360790491104,21.54330825805664,-35.53316116333008,18.42028045654297,-0.0980226993560791,-0.0012102127075195312,-0.04812169075012207,2.09637713432312,9.903992652893066,1.347832202911377
7_20251106_165616,1762419343698,7,0.26094308495521545,0.35204392671585083,0.5575507283210754,0.7050609588623047,2.581538200378418,4.760665416717529,2.766615629196167,1.9037874937057495,9.878841400146484,1.3021047115325928,0.03527744114398956,-0.00014126242604106665,-0.006379719823598862,21.618030548095703,-35.503013610839844,18.396717071533203,-0.15407168865203857,-0.02012157440185547,-0.036581993103027344,2.057859182357788,9.89896297454834,1.3386867046356201
7_20251106_165616,1762419343716,7,0.26087814569473267,0.35195010900497437,0.5579355955123901,0.7048273086547852,2.5814661979675293,4.761805057525635,2.7664997577667236,1.8259793519973755,9.767516136169434,1.390686273574829,0.015118900686502457,0.024904189631342888,-0.008212313987314701,21.63162612915039,-35.47710418701172,18.397735595703125,-0.18550384044647217,-0.10515689849853516,0.04159963130950928,2.0114831924438477,9.872673034667969,1.3490866422653198
7_20251106_165616,1762419343736,7,0.2608722448348999,0.35155370831489563,0.5582841038703918,0.7047513723373413,2.580806255340576,4.762517929077148,2.766638994216919,1.7972502708435059,9.716043472290039,1.4421594142913818,0.011453712359070778,0.05666915699839592,0.012557086534798145,21.70443344116211,-35.48435592651367,18.34634780883789,-0.1713862419128418,-0.1253032684326172,0.07445824146270752,1.9686365127563477,9.841346740722656,1.3677011728286743
7_20251106_165616,1762419343755,7,0.26049119234085083,0.3507929742336273,0.5586223602294922,0.7050033211708069,2.579836368560791,4.763108253479004,2.766589641571045,1.866679072380066,9.801033973693848,1.3056957721710205,0.024281876161694527,0.07194077223539352,0.04004599526524544,21.66979217529297,-35.449337005615234,18.372699737548828,-0.0815659761428833,-0.032250404357910156,-0.04960429668426514,1.9482450485229492,9.833284378051758,1.3553000688552856
7_20251106_165616,1762419343775,7,0.2598356306552887,0.35005152225494385,0.5589436888694763,0.7053589820861816,2.5790131092071533,4.763638019561768,2.766583204269409,1.9672311544418335,9.832157135009766,1.3691394329071045,0.04321867972612381,0.059112612158060074,0.05104156211018562,21.623756408691406,-35.41403579711914,18.29043197631836,0.015188932418823242,-0.0009021759033203125,0.011071443557739258,1.9520422220230103,9.833059310913086,1.3580679893493652
7_20251106_165616,1762419343795,7,0.25909674167633057,0.3497254550457001,0.5593991875648499,0.7054314613342285,2.5786209106445312,4.764223098754883,2.766148090362549,2.092921495437622,9.841733932495117,1.2302818298339844,0.04688386619091034,0.05728001892566681,0.05837194249033928,21.662033081054688,-35.37451934814453,18.346759796142578,0.11270332336425781,0.006939888000488281,-0.10222887992858887,1.9802181720733643,9.834794044494629,1.3325107097625732
7_20251106_165616,1762419343813,7,0.25830891728401184,0.3495679199695587,0.5596904158592224,0.7055674195289612,2.57881498336792,4.7647905349731445,2.7654623985290527,2.188685417175293,9.871659278869629,1.1979613304138184,0.044440411031246185,0.042008399963378906,0.041878592222929,21.662033081054688,-35.37451934814453,18.346759796142578,0.16677379608154297,0.02949237823486328,-0.10763955116271973,2.02191162109375,9.842166900634766,1.305600881576538
7_20251106_165616,1762419343832,7,0.25764918327331543,0.34971222281455994,0.5600006580352783,0.7054909467697144,2.5794801712036133,4.765512466430664,2.7647323608398438,2.1934735774993896,9.897994995117188,1.2901341915130615,0.03039052151143551,0.05300396680831909,-0.015542690642178059,21.723159790039062,-35.370277404785156,18.32217788696289,0.13724970817565918,0.0446624755859375,-0.01237332820892334,2.0562238693237305,9.85333251953125,1.3025075197219849
7_20251106_165616,1762419343851,7,0.2573491036891937,0.3496297597885132,0.5603639483451843,0.7053529024124146,2.579979658126831,4.766061305999756,2.7641594409942627,2.0079307556152344,9.803428649902344,1.346395492553711,0.03039052151143551,0.05300396680831909,-0.015542690642178059,21.686813354492188,-35.36077880859375,18.388553619384766,-0.038634538650512695,-0.03992271423339844,0.03511035442352295,2.046565294265747,9.843351364135742,1.311285138130188
7_20251106_165616,1762419343870,7,0.25726473331451416,0.34882980585098267,0.560700535774231,0.7055122256278992,2.5798490047454834,4.76607608795166,2.7639315128326416,1.8259793519973755,9.658584594726562,1.4265978336334229,-0.00748309213668108,0.10309487581253052,-0.06807705760002136,21.54925537109375,-35.42068862915039,18.47671890258789,-0.17646872997283936,-0.1478128433227539,0.09225010871887207,2.002448081970215,9.806397438049316,1.3343477249145508
7_20251106_165616,1762419343889,7,0.2571219205856323,0.34758317470550537,0.5611609220504761,0.7058135271072388,2.5798490047454834,4.76607608795166,2.7639315128326416,1.8259793519973755,9.658584594726562,1.4265978336334229,0.03772089630365372,0.12019908428192139,-0.006990584544837475,21.535560607910156,-35.44673156738281,18.489215850830078,-0.17646872997283936,-0.1478128433227539,0.09225010871887207,2.002448081970215,9.806397438049316,1.3343477249145508
7_20251106_165616,1762419343909,7,0.25643566250801086,0.3463812470436096,0.5617849230766296,0.7061575651168823,2.57814884185791,4.764720439910889,2.764037847518921,1.927728533744812,9.63703727722168,1.3499866724014282,0.08903353661298752,0.12203168123960495,0.07486528903245926,21.42940902709961,-35.39109420776367,18.486122131347656,-0.023496508598327637,-0.10781574249267578,-0.0018658638000488281,1.9512250423431396,9.744853019714355,1.351852536201477
7_20251106_165616,1762419343929,7,0.25502970814704895,0.34564054012298584,0.5625296235084534,0.7064367532730103,2.57814884185791,4.764720439910889,2.764037847518921,1.927728533744812,9.63703727722168,1.3499866724014282,0.08903353661298752,0.12203168123960495,0.07486528903245926,21.394977569580078,-35.34419250488281,18.580318450927734,-0.023496508598327637,-0.10781574249267578,-0.0018658638000488281,1.9512250423431396,9.744853019714355,1.351852536201477
7_20251106_165616,1762419343947,7,0.25333037972450256,0.34555041790008545,0.563116729259491,0.7066245079040527,2.577746629714966,4.763534069061279,2.763826847076416,2.1659412384033203,9.86567497253418,1.2290846109390259,0.08292488008737564,0.07927115261554718,0.10174334049224854,21.345046997070312,-35.3489875793457,18.740550994873047,0.1510167121887207,0.0930318832397461,-0.09657514095306396,2.0149245262145996,9.772643089294434,1.3256597518920898
7_20251106_165616,1762419343967,7,0.2518755793571472,0.34567686915397644,0.5634755492210388,0.7067966461181641,2.5781450271606445,4.76328182220459,2.7632617950439453,2.13840913772583,9.824974060058594,1.2123260498046875,0.05299251526594162,0.08293633908033371,0.046765509992837906,21.28252410888672,-35.366729736328125,18.859481811523438,0.09878778457641602,0.04186439514160156,-0.0906670093536377,2.039621353149414,9.783109664916992,1.3029930591583252
7_20251106_165616,1762419343985,7,0.2508966028690338,0.34564921259880066,0.563852071762085,0.7068580985069275,2.5786960124969482,4.76311731338501,2.7623350620269775,2.1024978160858154,9.810609817504883,1.1608529090881348,0.02306014485657215,0.1037057414650917,0.004615845158696175,21.18514633178711,-35.36133575439453,18.936920166015625,0.050301313400268555,0.02200031280517578,-0.11371219158172607,2.052196502685547,9.788609504699707,1.2745651006698608
