session_id,timestamp,label,quaternion_w,quaternion_x,quaternion_y,quaternion_z,position_x,position_y,position_z,accelerometer_x,accelerometer_y,accelerometer_z,gyroscope_x,gyroscope_y,gyroscope_z,magnetometer_x,magnetometer_y,magnetometer_z,linear_acceleration_x,linear_acceleration_y,linear_acceleration_z,gravity_x,gravity_y,gravity_z
3_20251106_150809,1762412852671,3,0.25663653016090393,0.3997824490070343,0.7750043869018555,0.41674914956092834,0.6163985133171082,1.6389641761779785,-2.5840160846710205,-0.5896662473678589,8.334648132324219,-4.970434188842773,-0.05800924450159073,0.10653480887413025,0.00294742314144969,21.355331420898438,-7.552276611328125,19.496240615844727,0.0750044584274292,0.07076263427734375,0.1265268325805664,-0.6646707057952881,8.263885498046875,-5.09696102142334
3_20251106_150809,1762412852691,3,0.25617560744285583,0.39931005239486694,0.7749360799789429,0.41761183738708496,0.6167833805084229,1.6349310874938965,-2.5895743370056152,-0.6004396677017212,8.351407051086426,-4.974024772644043,-0.04579194635152817,0.12669333815574646,0.010888664051890373,21.267715454101562,-7.5957794189453125,19.5190486907959,0.03727734088897705,0.054673194885253906,0.06374025344848633,-0.6377170085906982,8.296733856201172,-5.037765026092529
3_20251106_150809,1762412852710,3,0.2554755210876465,0.3985494375228882,0.7749576568603516,0.4187256991863251,0.6172377467155457,1.6333699226379395,-2.592304229736328,-0.5609370470046997,8.394500732421875,-5.106897354125977,-0.03723984211683273,0.11875210702419281,0.039599306881427765,21.205673217773438,-7.624458312988281,19.47551918029785,0.06142395734786987,0.07821369171142578,-0.05530595779418945,-0.6223610043525696,8.31628704071045,-5.051591396331787
3_20251106_150809,1762412852729,3,0.25468167662620544,0.39803755283355713,0.7749180197715759,0.4197683036327362,0.6172377467155457,1.6333699226379395,-2.592304229736328,-0.5609370470046997,8.394500732421875,-5.106897354125977,-0.03723984211683273,0.11875210702419281,0.039599306881427765,21.120777130126953,-7.617866516113281,19.51289939880371,0.06142395734786987,0.07821369171142578,-0.05530595779418945,-0.6223610043525696,8.31628704071045,-5.051591396331787
3_20251106_150809,1762412852748,3,0.25394660234451294,0.39817366003990173,0.7746958136558533,0.42049404978752136,0.6195164322853088,1.6322165727615356,-2.5969109535217285,-0.35025641322135925,8.630319595336914,-4.912976264953613,0.004909824579954147,0.04667006433010101,0.1257312297821045,21.08303451538086,-7.621864318847656,19.67362403869629,0.1938742697238922,0.22109127044677734,0.10729217529296875,-0.5441306829452515,8.409228324890137,-5.020268440246582
3_20251106_150809,1762412852768,3,0.2531577944755554,0.39881712198257446,0.7742680907249451,0.4211471974849701,0.6195164322853088,1.6322165727615356,-2.5969109535217285,-0.35025641322135925,8.630319595336914,-4.912976264953613,0.05805505812168121,0.043004874140024185,0.12695296108722687,21.006614685058594,-7.665924072265625,19.832082748413086,0.1938742697238922,0.22109127044677734,0.10729217529296875,-0.5441306829452515,8.409228324890137,-5.020268440246582
3_20251106_150809,1762412852787,3,0.2521066963672638,0.399578720331192,0.7738769054412842,0.4217742681503296,0.624859631061554,1.6339722871780396,-2.6006102561950684,-0.14915210008621216,8.661441802978516,-5.094927787780762,0.05805505812168121,0.043004874140024185,0.12695296108722687,20.896656036376953,-7.661865234375,19.96309471130371,0.2698322832584381,0.1604595184326172,-0.06999969482421875,-0.41898438334465027,8.500982284545898,-5.024928092956543
3_20251106_150809,1762412852807,3,0.2508496344089508,0.4003012776374817,0.7736377716064453,0.4222770929336548,0.6285832524299622,1.6356191635131836,-2.6026713848114014,-0.10246716439723969,8.715310096740723,-5.1272478103637695,0.07332667708396912,0.024068070575594902,0.06708821654319763,20.87149429321289,-7.6645355224609375,20.07024574279785,0.2532137632369995,0.1714620590209961,-0.08185577392578125,-0.3556809425354004,8.543848037719727,-5.045392036437988
3_20251106_150809,1762412852826,3,0.24963730573654175,0.4010283052921295,0.7735057473182678,0.42254748940467834,0.6285832524299622,1.6356191635131836,-2.6026713848114014,-0.10246716439723969,8.715310096740723,-5.1272478103637695,0.05622246861457825,0.0320093110203743,-0.003161223605275154,20.84420394897461,-7.71649169921875,20.081724166870117,0.2532137632369995,0.1714620590209961,-0.08185577392578125,-0.3556809425354004,8.543848037719727,-5.045392036437988
3_20251106_150809,1762412852845,3,0.24874772131443024,0.40165185928344727,0.7734277844429016,0.42262256145477295,0.6369729042053223,1.6409077644348145,-2.6069860458374023,-0.2844187021255493,8.781147003173828,-5.106897354125977,0.03972911089658737,0.06316341459751129,-0.08013017475605011,20.845836639404297,-7.667877197265625,20.24497413635254,0.024922847747802734,0.14497661590576172,-0.04242753982543945,-0.30934154987335205,8.636170387268066,-5.064469814300537
3_20251106_150809,1762412852863,3,0.24810072779655457,0.4014310836791992,0.7736113667488098,0.4228765666484833,0.6369729042053223,1.6409077644348145,-2.6069860458374023,-0.2844187021255493,8.781147003173828,-5.106897354125977,0.002466365694999695,0.09187406301498413,-0.1167820543050766,20.820289611816406,-7.6594696044921875,20.501066207885742,0.024922847747802734,0.14497661590576172,-0.04242753982543945,-0.30934154987335205,8.636170387268066,-5.064469814300537
3_20251106_150809,1762412852882,3,0.2476246953010559,0.4003702998161316,0.7740936279296875,0.4232785403728485,0.6435651183128357,1.6467819213867188,-2.6108152866363525,-0.4472174048423767,8.781147003173828,-4.997966766357422,-0.007918334566056728,0.09492838382720947,-0.13266456127166748,20.793014526367188,-7.699806213378906,20.607423782348633,-0.09934917092323303,0.09814739227294922,0.05884218215942383,-0.3478682339191437,8.682999610900879,-5.056808948516846
3_20251106_150809,1762412852902,3,0.24732720851898193,0.3988732397556305,0.7746925354003906,0.4237698018550873,0.6459999084472656,1.6501924991607666,-2.6120975017547607,-0.5753016471862793,8.783540725708008,-4.881852626800537,0.015905389562249184,0.09920443594455719,-0.13327541947364807,20.757877349853516,-7.665458679199219,20.701356887817383,-0.18194672465324402,0.08043289184570312,0.13996505737304688,-0.3933549225330353,8.703107833862305,-5.021817684173584
3_20251106_150809,1762412852920,3,0.24716265499591827,0.3972969949245453,0.7753190994262695,0.4242004156112671,0.6475068926811218,1.6532033681869507,-2.612990617752075,-0.626774787902832,8.741644859313965,-4.9393110275268555,0.047670356929302216,0.108978271484375,-0.10761909186840057,20.774097442626953,-7.589591979980469,20.7304630279541,-0.18673589825630188,0.030829429626464844,0.06600522994995117,-0.44003888964653015,8.7108154296875,-5.005316257476807
3_20251106_150809,1762412852940,3,0.2468842715024948,0.3955821096897125,0.7760686874389648,0.42459431290626526,0.6485008001327515,1.6562824249267578,-2.613499879837036,-0.6363512277603149,8.678201675415039,-4.862699508666992,0.07332667708396912,0.09248492121696472,-0.06852374970912933,20.83663558959961,-7.560234069824219,20.706411361694336,-0.15704989433288574,-0.026090621948242188,0.11409330368041992,-0.4793013334274292,8.704292297363281,-4.976792812347412
3_20251106_150809,1762412852959,3,0.24641308188438416,0.3939608335494995,0.7769066691398621,0.4248429536819458,0.6490949988365173,1.6588616371154785,-2.6134560108184814,-0.5896662473678589,8.631515502929688,-4.793271064758301,0.09531781077384949,0.08576541393995285,-0.03736964985728264,20.81368637084961,-7.525093078613281,20.80083656311035,-0.0882919430732727,-0.058220863342285156,0.14681720733642578,-0.5013743042945862,8.689736366271973,-4.940088272094727
3_20251106_150809,1762412852977,3,0.24587346613407135,0.392791211605072,0.7776579260826111,0.4248639941215515,0.6495479941368103,1.6609569787979126,-2.6131110191345215,-0.5346020460128784,8.59799861907959,-4.816015243530273,0.120363250374794,0.09126318991184235,-0.02698494866490364,20.832523345947266,-7.399269104003906,20.858030319213867,-0.026582181453704834,-0.07339000701904297,0.0992584228515625,-0.5080198645591736,8.671388626098633,-4.915273666381836
3_20251106_150809,1762412852997,3,0.24520456790924072,0.39190587401390076,0.7783420085906982,0.42481547594070435,0.6501454710960388,1.6628910303115845,-2.6127543449401855,-0.4687642753124237,8.58004379272461,-4.917763710021973,0.1362457275390625,0.08881973475217819,-0.013545922935009003,20.81118392944336,-7.3387451171875,20.92595100402832,0.031404465436935425,-0.07307624816894531,-0.0019922256469726562,-0.5001687407493591,8.653120040893555,-4.915771484375
3_20251106_150809,1762412853016,3,0.2442704737186432,0.3909987509250641,0.779116690158844,0.42476943135261536,0.6510795950889587,1.6644065380096436,-2.612457513809204,-0.3562416434288025,8.569269180297852,-4.924946308135986,0.1362457275390625,0.08881973475217819,-0.013545922935009003,20.81118392944336,-7.3387451171875,20.92595100402832,0.11514168977737427,-0.06708049774169922,-0.007339954376220703,-0.47138333320617676,8.63634967803955,-4.917606353759766
3_20251106_150809,1762412853036,3,0.24327600002288818,0.39052021503448486,0.7798317670822144,0.42446812987327576,0.6524074077606201,1.6657726764678955,-2.612663507461548,-0.3418770432472229,8.587225914001465,-5.0829572677612305,0.20038652420043945,0.049113523215055466,-0.0007177647203207016,20.763748168945312,-7.3169403076171875,20.938032150268555,0.10360503196716309,-0.03929901123046875,-0.13228082656860352,-0.445482075214386,8.626524925231934,-4.950676441192627
3_20251106_150809,1762412853054,3,0.24217234551906586,0.39034295082092285,0.7805909514427185,0.42386630177497864,0.6524074077606201,1.6657726764678955,-2.612663507461548,-0.3418770432472229,8.587225914001465,-5.0829572677612305,0.2235993891954422,0.039950549602508545,0.023716824129223824,20.73082733154297,-7.244789123535156,21.019243240356445,0.10360503196716309,-0.03929901123046875,-0.13228082656860352,-0.445482075214386,8.626524925231934,-4.950676441192627
3_20251106_150809,1762412853075,3,0.24093784391880035,0.39048290252685547,0.7813845276832581,0.42297783493995667,0.6564932465553284,1.6677265167236328,-2.61627197265625,-0.08810259401798248,8.592013359069824,-5.5043182373046875,0.22115594148635864,0.016126828268170357,0.06953167915344238,20.660842895507812,-7.187309265136719,21.071683883666992,0.2589842677116394,-0.016149520874023438,-0.3844008445739746,-0.3470868766307831,8.608162879943848,-5.119917392730713
3_20251106_150809,1762412853092,3,0.23958057165145874,0.39119404554367065,0.7820781469345093,0.4218081831932068,0.6599708795547485,1.6689560413360596,-2.619433879852295,0.17285418510437012,8.770374298095703,-5.516288757324219,0.21565815806388855,-0.015027272514998913,0.11778999865055084,20.589248657226562,-7.15521240234375,21.150632858276367,0.4159528613090515,0.12976932525634766,-0.31709718704223633,-0.2430986762046814,8.640604972839355,-5.199191570281982
3_20251106_150809,1762412853112,3,0.2380743771791458,0.39260128140449524,0.7825210094451904,0.4205303192138672,0.6599708795547485,1.6689560413360596,-2.619433879852295,0.17285418510437012,8.770374298095703,-5.516288757324219,0.233984112739563,-0.03090975619852543,0.1513875424861908,20.51675033569336,-7.1359405517578125,21.256349563598633,0.4159528613090515,0.12976932525634766,-0.31709718704223633,-0.2430986762046814,8.640604972839355,-5.199191570281982
3_20251106_150809,1762412853130,3,0.23636110126972198,0.3947020471096039,0.7826135754585266,0.4193563759326935,0.6727889776229858,1.6749136447906494,-2.629995346069336,0.7498319745063782,9.255178451538086,-5.987926483154297,0.27124685049057007,-0.0816115289926529,0.19109374284744263,20.581714630126953,-7.0569000244140625,21.287416458129883,0.6829745769500732,0.4272270202636719,-0.5536303520202637,0.06685742735862732,8.827951431274414,-5.434296131134033
3_20251106_150809,1762412853150,3,0.23442146182060242,0.3974163234233856,0.7824156284332275,0.4182495176792145,0.6833247542381287,1.6807243824005127,-2.637162685394287,1.102961540222168,9.548456192016602,-5.795201301574707,0.31339651346206665,-0.19767582416534424,0.26745185256004333,20.522613525390625,-7.011993408203125,21.42118263244629,0.8288832902908325,0.5764036178588867,-0.2887239456176758,0.27407822012901306,8.972052574157715,-5.506477355957031
3_20251106_150809,1762412853169,3,0.23250813782215118,0.4014238715171814,0.7817627191543579,0.41670840978622437,0.6961386799812317,1.688098430633545,-2.643526792526245,1.4788349866867065,9.748363494873047,-5.468406677246094,0.4086914360523224,-0.2862512171268463,0.29677337408065796,20.47336196899414,-7.027458190917969,21.391923904418945,0.9638054370880127,0.6210489273071289,0.03045654296875,0.5150295495986938,9.127314567565918,-5.498863220214844
3_20251106_150809,1762412853188,3,0.23056501150131226,0.40654197335243225,0.7807387113571167,0.4147414565086365,0.7114619612693787,1.696495771408081,-2.6490819454193115,1.6631805896759033,9.6346435546875,-5.319972991943359,0.544303297996521,-0.3424507677555084,0.21919353306293488,20.526844024658203,-6.936653137207031,21.422765731811523,0.9185208678245544,0.40586280822753906,0.1431121826171875,0.7446597218513489,9.228780746459961,-5.463085174560547
3_20251106_150809,1762412853207,3,0.22982123494148254,0.411006897687912,0.7807024121284485,0.4108031392097473,0.7286245226860046,1.7051039934158325,-2.6542556285858154,1.6943039894104004,9.458677291870117,-5.4253129959106445,0.6157745122909546,-0.3332878053188324,0.09824232757091522,20.566024780273438,-6.884315490722656,21.45232582092285,0.7597154378890991,0.18391704559326172,0.030217647552490234,0.9345885515213013,9.274760246276855,-5.455530643463135
3_20251106_150809,1762412853227,3,0.22916477918624878,0.414931058883667,0.7814329862594604,0.40580564737319946,0.7479656338691711,1.7133870124816895,-2.6599161624908447,1.6512101888656616,9.167794227600098,-5.6156439781188965,0.6286026239395142,-0.3247356712818146,-0.022708894684910774,20.66943359375,-6.7887115478515625,21.322935104370117,0.573297381401062,-0.08557319641113281,-0.12809038162231445,1.0779128074645996,9.25336742401123,-5.487553596496582
3_20251106_150809,1762412853245,3,0.22867928445339203,0.41791674494743347,0.782792866230011,0.40035825967788696,0.7659581899642944,1.7197924852371216,-2.665513515472412,1.6691659688949585,8.978660583496094,-5.795201301574707,0.6231048703193665,-0.36566361784935,-0.11250600218772888,20.772052764892578,-6.694190979003906,21.301671981811523,0.473002552986145,-0.21976566314697266,-0.24611854553222656,1.1961634159088135,9.198426246643066,-5.5490827560424805
3_20251106_150809,1762412853265,3,0.22872759401798248,0.42026326060295105,0.7844823598861694,0.3945249617099762,0.7851243615150452,1.7250118255615234,-2.671762228012085,1.6057223081588745,8.759600639343262,-5.780836582183838,0.598670244216919,-0.43285873532295227,-0.20535744726657867,20.926433563232422,-6.545989990234375,21.25639533996582,0.3276470899581909,-0.3510608673095703,-0.18540334701538086,1.2780752182006836,9.110661506652832,-5.595433235168457
3_20251106_150809,1762412853284,3,0.22954651713371277,0.4220896363258362,0.7863451838493347,0.38834258913993835,0.8047880530357361,1.7283596992492676,-2.67842173576355,1.441726565361023,8.495052337646484,-5.730560302734375,0.5681270360946655,-0.4817279279232025,-0.2963762879371643,21.01806640625,-6.439033508300781,21.167325973510742,0.13092100620269775,-0.49248695373535156,-0.10810184478759766,1.3108055591583252,8.987539291381836,-5.622458457946777
3_20251106_150809,1762412853303,3,0.2312922179698944,0.4234280288219452,0.7882703542709351,0.3818933367729187,0.8047880530357361,1.7283596992492676,-2.67842173576355,1.441726565361023,8.495052337646484,-5.730560302734375,0.5565205812454224,-0.5244885087013245,-0.3635714054107666,21.320682525634766,-6.255378723144531,21.047365188598633,0.13092100620269775,-0.49248695373535156,-0.10810184478759766,1.3108055591583252,8.987539291381836,-5.622458457946777
3_20251106_150809,1762412853321,3,0.2337925285100937,0.42431768774986267,0.7902657389640808,0.37520071864128113,0.8381897211074829,1.7276405096054077,-2.6886677742004395,1.1664050817489624,7.931241989135742,-5.375036716461182,0.5693488121032715,-0.5330405831336975,-0.42710134387016296,21.61716079711914,-5.9599151611328125,20.969839096069336,-0.1140589714050293,-0.7137613296508789,0.17750310897827148,1.2804640531539917,8.645003318786621,-5.552539825439453
3_20251106_150809,1762412853341,3,0.2366883009672165,0.4247637987136841,0.7924226522445679,0.3682671785354614,0.8536866307258606,1.7229536771774292,-2.6932084560394287,0.9557244181632996,7.620008945465088,-5.462421417236328,0.608444094657898,-0.5415927171707153,-0.4936855733394623,21.87868881225586,-5.641448974609375,20.864336013793945,-0.25979167222976685,-0.8199954032897949,0.07209491729736328,1.2155160903930664,8.440004348754883,-5.534516334533691
3_20251106_150809,1762412853359,3,0.239706352353096,0.42466065287590027,0.7949329614639282,0.3609512746334076,0.8656453490257263,1.7159487009048462,-2.6969573497772217,0.6911765933036804,7.222588539123535,-5.480377197265625,0.6487612128257751,-0.5641946792602539,-0.5340027213096619,22.252498626708984,-5.277488708496094,20.69645881652832,-0.4194715619087219,-0.973933219909668,0.04331159591674805,1.1106481552124023,8.196521759033203,-5.523688793182373
3_20251106_150809,1762412853379,3,0.2429007738828659,0.424317330121994,0.7976809740066528,0.3530709445476532,0.875645637512207,1.704984426498413,-2.7012219429016113,0.3847319185733795,6.760527610778809,-5.7078166007995605,0.6896891593933105,-0.5611403584480286,-0.5437765121459961,22.67657470703125,-4.8734893798828125,20.6124324798584,-0.5807329416275024,-1.1487956047058105,-0.14730215072631836,0.9654648900032043,7.909323215484619,-5.560514450073242
3_20251106_150809,1762412853398,3,0.2460407316684723,0.4238013029098511,0.8006493449211121,0.3446984887123108,0.88297438621521,1.6888538599014282,-2.7066657543182373,0.08666662871837616,6.2098846435546875,-5.948423385620117,0.700684666633606,-0.5935162305831909,-0.5095680952072144,23.140819549560547,-4.415794372558594,20.42280387878418,-0.7030386328697205,-1.359550952911377,-0.31032752990722656,0.7897052764892578,7.5694355964660645,-5.638095855712891
3_20251106_150809,1762412853419,3,0.24914242327213287,0.42357274889945984,0.8035220503807068,0.33595606684684753,0.887031614780426,1.668108582496643,-2.713381052017212,-0.16591079533100128,5.786129474639893,-6.145936965942383,0.6780827045440674,-0.649715781211853,-0.43748602271080017,23.54816436767578,-3.8870010375976562,20.259336471557617,-0.7644928693771362,-1.4266448020935059,-0.40627288818359375,0.5985820889472961,7.212774276733398,-5.739664077758789
3_20251106_150809,1762412853438,3,0.2524428367614746,0.42389386892318726,0.8059872388839722,0.3270644247531891,0.8877831697463989,1.6432666778564453,-2.7218291759490967,-0.4220793545246124,5.523975372314453,-6.420061111450195,0.6426525115966797,-0.7114130854606628,-0.3580736219882965,23.994876861572266,-3.3172073364257812,20.00351905822754,-0.8165291547775269,-1.351038932800293,-0.5443172454833984,0.3944498300552368,6.875014305114746,-5.875743865966797
3_20251106_150809,1762412853455,3,0.2560324966907501,0.4249139130115509,0.8078542947769165,0.3182247281074524,0.8860602974891663,1.6196426153182983,-2.7304959297180176,-0.6662774085998535,5.2522454261779785,-6.715732097625732,0.6426525115966797,-0.7114130854606628,-0.3580736219882965,23.994876861572266,-3.3172073364257812,20.00351905822754,-0.8485817909240723,-1.2982149124145508,-0.6719903945922852,0.18230439722537994,6.550460338592529,-6.043741703033447
3_20251106_150809,1762412853476,3,0.2600969076156616,0.42649751901626587,0.8091209530830383,0.3094717860221863,0.8802555203437805,1.5862599611282349,-2.743673086166382,-0.9463869333267212,4.862007141113281,-6.94077730178833,0.5394164323806763,-0.9856913089752197,-0.27316340804100037,24.453460693359375,-2.758636474609375,19.693864822387695,-0.9029530882835388,-1.3507623672485352,-0.7176284790039062,-0.04343385994434357,6.212769508361816,-6.223148822784424
3_20251106_150809,1762412853495,3,0.2653568387031555,0.42875486612319946,0.8096038103103638,0.300493985414505,0.8718593716621399,1.5530266761779785,-2.757194757461548,-1.2851519584655762,4.557956695556641,-7.023374080657959,0.4661127030849457,-1.1689507961273193,-0.20596832036972046,24.98385238647461,-2.2202835083007812,19.373109817504883,-0.9933744668960571,-1.3238506317138672,-0.6401801109313965,-0.29177746176719666,5.881807327270508,-6.3831939697265625
3_20251106_150809,1762412853513,3,0.2721501886844635,0.4317054748535156,0.8091753125190735,0.2912042737007141,0.8612967133522034,1.5194766521453857,-2.7706427574157715,-1.5125912427902222,4.403537273406982,-6.902472019195557,0.36531999707221985,-1.3027302026748657,-0.10395391285419464,25.609100341796875,-1.737152099609375,18.93330955505371,-0.9766510725021362,-1.1826157569885254,-0.4154219627380371,-0.5359401702880859,5.586153030395508,-6.4870500564575195
3_20251106_150809,1762412853531,3,0.2802448868751526,0.43556874990463257,0.8075985312461853,0.2820058763027191,0.8612967133522034,1.5194766521453857,-2.7706427574157715,-1.5125912427902222,4.403537273406982,-6.902472019195557,0.23154063522815704,-1.350988507270813,-0.051419537514448166,26.198787689208984,-1.243438720703125,18.451753616333008,-0.9766510725021362,-1.1826157569885254,-0.4154219627380371,-0.5359401702880859,5.586153030395508,-6.4870500564575195
3_20251106_150809,1762412853551,3,0.2893418073654175,0.44004637002944946,0.8049174547195435,0.27340149879455566,0.8313976526260376,1.4443166255950928,-2.79746150970459,-1.884873628616333,4.295803070068359,-6.409287452697754,0.08065705001354218,-1.3210560083389282,-0.07646498084068298,26.873653411865234,-0.7675247192382812,17.797391891479492,-0.8958771824836731,-0.8367409706115723,0.08328580856323242,-0.9889964461326599,5.132544040679932,-6.492573261260986
3_20251106_150809,1762412853571,3,0.29900670051574707,0.44411471486091614,0.8016564249992371,0.26590242981910706,0.8116996884346008,1.4034309387207031,-2.809528112411499,-2.16737699508667,4.194053649902344,-6.217759609222412,-0.06656134873628616,-1.2727978229522705,-0.1363297402858734,27.517803192138672,-0.40621185302734375,17.139673233032227,-0.942704439163208,-0.7507925033569336,0.21985101699829102,-1.224672555923462,4.944846153259277,-6.437610626220703
3_20251106_150809,1762412853590,3,0.3090527653694153,0.4472541809082031,0.798176109790802,0.25954771041870117,0.7917731404304504,1.3657524585723877,-2.818389892578125,-2.4774131774902344,3.8397274017333984,-5.846673965454102,-0.19667553901672363,-1.2343133687973022,-0.19741621613502502,28.222152709960938,-0.07671356201171875,16.29438591003418,-1.002192497253418,-0.8840951919555664,0.4727497100830078,-1.4752206802368164,4.723822593688965,-6.319423675537109
3_20251106_150809,1762412853608,3,0.3195105791091919,0.44923505187034607,0.7946596741676331,0.25419843196868896,0.76798415184021,1.3247915506362915,-2.8244948387145996,-2.862863063812256,3.565603017807007,-5.305607795715332,-0.30846378207206726,-1.1658964157104492,-0.22734858095645905,28.949874877929688,0.2414093017578125,15.490365982055664,-1.1101138591766357,-0.9265758991241455,0.8110527992248535,-1.7527492046356201,4.492178916931152,-6.1166605949401855
3_20251106_150809,1762412853628,3,0.3302902281284332,0.45034459233283997,0.791042685508728,0.2496989667415619,0.76798415184021,1.3247915506362915,-2.8244948387145996,-2.862863063812256,3.565603017807007,-5.305607795715332,-0.374437153339386,-1.035171389579773,-0.20230312645435333,29.563270568847656,0.453277587890625,14.544656753540039,-1.1101138591766357,-0.9265758991241455,0.8110527992248535,-1.7527492046356201,4.492178916931152,-6.1166605949401855
3_20251106_150809,1762412853647,3,0.3406786024570465,0.45076027512550354,0.787470281124115,0.24625959992408752,0.7100600600242615,1.2424675226211548,-2.8293616771698,-3.97731614112854,3.8708505630493164,-5.413342475891113,-0.39642825722694397,-0.9325461387634277,-0.12777762115001678,30.17635726928711,0.6531295776367188,13.544618606567383,-1.5231258869171143,-0.3618345260620117,0.42216062545776367,-2.454190254211426,4.232685089111328,-5.835503101348877
3_20251106_150809,1762412853666,3,0.35024964809417725,0.45109236240386963,0.7838653326034546,0.243712916970253,0.6752184629440308,1.2027922868728638,-2.8293676376342773,-4.52077579498291,3.816983222961426,-5.2696967124938965,-0.4239172041416168,-0.8604640960693359,0.004780018702149391,30.753192901611328,0.8626174926757812,12.597440719604492,-1.653268575668335,-0.3325614929199219,0.45264530181884766,-2.867507219314575,4.149544715881348,-5.722342014312744
3_20251106_150809,1762412853686,3,0.3591276705265045,0.451895534992218,0.7799491882324219,0.24186162650585175,0.6315089464187622,1.160231351852417,-2.8279571533203125,-4.993610858917236,3.880427122116089,-5.299623012542725,-0.4599582254886627,-0.7272955775260925,0.24240639805793762,31.252784729003906,0.99212646484375,11.632219314575195,-1.700882911682129,-0.21529412269592285,0.33817529678344727,-3.2927279472351074,4.095721244812012,-5.637798309326172
3_20251106_150809,1762412853704,3,0.3670249283313751,0.45354440808296204,0.7754976153373718,0.24123360216617584,0.5915223360061646,1.1254688501358032,-2.8264122009277344,-5.077404499053955,4.052802085876465,-5.476785659790039,-0.4807276129722595,-0.6509374976158142,0.5612777471542358,31.672012329101562,0.99102783203125,10.688447952270508,-1.4277410507202148,-0.03433513641357422,0.12880992889404297,-3.6496634483337402,4.087137222290039,-5.605595588684082
3_20251106_150809,1762412853723,3,0.37353283166885376,0.4568901062011719,0.7700920104980469,0.24224567413330078,0.5479508638381958,1.0917439460754395,-2.8245718479156494,-4.915802478790283,4.500498294830322,-5.499529838562012,-0.4880580008029938,-0.6949197053909302,0.8703753352165222,32.068885803222656,1.02587890625,9.758003234863281,-1.012911081314087,0.3306889533996582,0.08485269546508789,-3.9028913974761963,4.169809341430664,-5.5843825340271
3_20251106_150809,1762412853741,3,0.3792569637298584,0.4626736342906952,0.7631224989891052,0.2444203495979309,0.5069409012794495,1.0636589527130127,-2.8227391242980957,-4.632102012634277,5.090643405914307,-5.512697219848633,-0.4880580008029938,-0.6949197053909302,0.8703753352165222,32.43042755126953,0.8818588256835938,8.971561431884766,-0.5833683013916016,0.7366671562194824,0.05734825134277344,-4.048733711242676,4.353976249694824,-5.570045471191406
3_20251106_150809,1762412853762,3,0.38495320081710815,0.4703858196735382,0.7546365857124329,0.24712729454040527,0.4601588845252991,1.0375360250473022,-2.8201024532318115,-4.445362091064453,5.847178936004639,-5.389401435852051,-0.47828415036201477,-0.9508720636367798,1.1587035655975342,32.739097595214844,0.659454345703125,8.168058395385742,-0.3173027038574219,1.1945624351501465,0.1445155143737793,-4.128059387207031,4.652616500854492,-5.53391695022583
3_20251106_150809,1762412853780,3,0.3908933997154236,0.4787239730358124,0.7453114986419678,0.2500729262828827,0.4213985800743103,1.0210925340652466,-2.815922260284424,-4.398677825927734,6.613290786743164,-4.708280563354492,-0.5124926567077637,-0.9863021969795227,1.1324362754821777,33.135684967041016,0.26801300048828125,7.3242340087890625,-0.21649456024169922,1.5685396194458008,0.6605091094970703,-4.182183265686035,5.044751167297363,-5.3687896728515625
3_20251106_150809,1762412853799,3,0.39770692586898804,0.4879523813724518,0.7348194718360901,0.2525312602519989,0.3816837668418884,1.0100003480911255,-2.808680295944214,-4.490850448608398,7.011908054351807,-4.256992340087891,-0.5754116773605347,-0.8122057914733887,0.995602548122406,33.401161193847656,-0.28313446044921875,6.580467224121094,-0.2469334602355957,1.573725700378418,0.8894381523132324,-4.243916988372803,5.438182353973389,-5.146430492401123
3_20251106_150809,1762412853819,3,0.40435856580734253,0.4959692656993866,0.7247246503829956,0.2555049955844879,0.3410836160182953,1.003262996673584,-2.797821044921875,-4.5351409912109375,6.8706560134887695,-3.9565329551696777,-0.6804804801940918,-0.5788554549217224,0.830669105052948,33.5636100769043,-0.9409637451171875,5.817150115966797,-0.23297929763793945,1.1459789276123047,0.9519181251525879,-4.302161693572998,5.724677085876465,-4.908451080322266
3_20251106_150809,1762412853838,3,0.41038021445274353,0.5019981265068054,0.7157477140426636,0.2594054639339447,0.30591174960136414,1.0001740455627441,-2.7862985134124756,-4.488455772399902,6.809606552124023,-3.999627113342285,-0.8142597675323486,-0.40842416882514954,0.7610304951667786,33.760108947753906,-1.6346206665039062,5.108577728271484,-0.14903545379638672,0.867943286895752,0.7270593643188477,-4.339420318603516,5.9416632652282715,-4.726686477661133
3_20251106_150809,1762412853857,3,0.4158119857311249,0.5059571266174316,0.7078458070755005,0.264692485332489,0.26899513602256775,1.0003962516784668,-2.7714850902557373,-4.270593166351318,7.087321758270264,-3.854783773422241,-0.9229937791824341,-0.4218631684780121,0.7463697791099548,33.91733932495117,-2.369140625,4.478839874267578,0.05506181716918945,0.9165267944335938,0.6975219249725342,-4.325654983520508,6.17079496383667,-4.552305698394775
3_20251106_150809,1762412853876,3,0.4213051199913025,0.5089768171310425,0.699977457523346,0.2710649073123932,0.23631830513477325,1.004152536392212,-2.754487991333008,-4.092232704162598,7.4667863845825195,-3.229924201965332,-0.9229937791824341,-0.4218631684780121,0.7463697791099548,33.91733932495117,-2.369140625,4.478839874267578,0.1867380142211914,1.0367932319641113,1.0579051971435547,-4.278970718383789,6.429993152618408,-4.287829399108887
3_20251106_150809,1762412853895,3,0.42790791392326355,0.511683464050293,0.6915803551673889,0.2771126925945282,0.2059485763311386,1.0111140012741089,-2.7335891723632812,-4.0335774421691895,7.666693687438965,-2.555985450744629,-0.9431522488594055,-0.5812989473342896,0.6516857743263245,34.086036682128906,-3.1270294189453125,3.7544498443603516,0.19631433486938477,0.9893603324890137,1.3854751586914062,-4.229891777038574,6.677333354949951,-3.941460609436035
3_20251106_150809,1762412853914,3,0.43556636571884155,0.5137611031532288,0.6832990646362305,0.2818402051925659,0.17735350131988525,1.0203957557678223,-2.7091360092163086,-4.136523246765137,7.649935245513916,-2.2651023864746094,-0.8900070190429688,-0.47439754009246826,0.22102612257003784,34.144161224365234,-3.9048995971679688,3.0524139404296875,0.07469463348388672,0.7780814170837402,1.3410863876342773,-4.211217880249023,6.871853828430176,-3.6061887741088867
3_20251106_150809,1762412853934,3,0.44317740201950073,0.5141327381134033,0.6764251589775085,0.2858501374721527,0.14780645072460175,1.0321921110153198,-2.6805477142333984,-4.524367332458496,7.699014663696289,-2.2459495067596436,-0.9437631368637085,-0.3082423508167267,0.04387535899877548,34.27641296386719,-4.6534271240234375,2.4079151153564453,-0.2505192756652832,0.6617288589477539,1.0881915092468262,-4.273848056793213,7.037285804748535,-3.3341410160064697
3_20251106_150809,1762412853952,3,0.45054173469543457,0.5124632716178894,0.6711048483848572,0.28984785079956055,0.1208391785621643,1.0445116758346558,-2.6539440155029297,-4.966078758239746,7.944409370422363,-2.456630229949951,-0.9688085913658142,-0.16468912363052368,-0.01110246405005455,34.311790466308594,-5.17132568359375,1.845113754272461,-0.5537843704223633,0.7256984710693359,0.7020087242126465,-4.412294387817383,7.218710899353027,-3.1586389541625977
3_20251106_150809,1762412853972,3,0.45745012164115906,0.5092616081237793,0.666879415512085,0.2943872809410095,0.09000608325004578,1.0603004693984985,-2.6239137649536133,-5.191123962402344,8.134740829467773,-2.5176796913146973,-0.9003917574882507,-0.10848957300186157,0.026160283014178276,34.36579895019531,-5.575279235839844,1.2716617584228516,-0.6230640411376953,0.7328243255615234,0.5127675533294678,-4.568059921264648,7.40191650390625,-3.030447244644165
3_20251106_150809,1762412853990,3,0.4635968506336212,0.5058712363243103,0.6631063222885132,0.29910245537757874,0.06201817840337753,1.075837254524231,-2.5968191623687744,-5.228232383728027,8.229307174682617,-2.4542360305786133,-0.9003917574882507,-0.10848957300186157,0.026160283014178276,34.46221160888672,-5.864509582519531,0.7696380615234375,-0.5281381607055664,0.6619129180908203,0.4609689712524414,-4.700094223022461,7.567394256591797,-2.9152050018310547
3_20251106_150809,1762412854010,3,0.4690370261669159,0.5032012462615967,0.659304678440094,0.3034965395927429,0.03076067939400673,1.0954211950302124,-2.5656533241271973,-5.264143943786621,8.614757537841797,-2.0711803436279297,-0.8350292444229126,-0.12559378147125244,0.11840085685253143,34.50737380981445,-6.19512939453125,0.3189258575439453,-0.45124006271362305,0.837890625,0.6752197742462158,-4.812903881072998,7.776866912841797,-2.7464001178741455
3_20251106_150809,1762412854029,3,0.47427427768707275,0.5014511346817017,0.6547342538833618,0.308113157749176,0.001260213553905487,1.116944670677185,-2.5339066982269287,-5.283297061920166,9.179764747619629,-1.4271678924560547,-0.8503007888793945,-0.22272127866744995,0.40489640831947327,34.522220611572266,-6.415252685546875,-0.11736488342285156,-0.376314640045166,1.1223182678222656,1.0553858280181885,-4.906982421875,8.057446479797363,-2.482553720474243
3_20251106_150809,1762412854047,3,0.47960105538368225,0.5007352828979492,0.648941695690155,0.3132437765598297,-0.026255160570144653,1.1396483182907104,-2.502199649810791,-5.298858642578125,9.410795211791992,-1.209304928779602,-0.709191083908081,-0.12131772935390472,0.4452134668827057,34.521568298339844,-6.68707275390625,-0.4876213073730469,-0.31350088119506836,1.0826787948608398,1.0185989141464233,-4.985357761383057,8.328116416931152,-2.2279038429260254
3_20251106_150809,1762412854066,3,0.4840974509716034,0.5005772113800049,0.6430947780609131,0.3185926079750061,-0.05450674891471863,1.1654510498046875,-2.4682469367980957,-5.225838661193848,9.434737205505371,-1.4415326118469238,-0.5631943941116333,0.052778709679841995,0.44582435488700867,34.56573486328125,-6.806098937988281,-0.8262062072753906,-0.1923847198486328,0.8852968215942383,0.6290969848632812,-5.033453941345215,8.549440383911133,-2.070629596710205
3_20251106_150809,1762412854085,3,0.48686641454696655,0.5006982088088989,0.6383404731750488,0.3237033188343048,-0.08142693340778351,1.1927374601364136,-2.4347355365753174,-5.063039779663086,9.560426712036133,-1.6127104759216309,-0.5650269985198975,0.19511020183563232,0.45804163813591003,34.55632019042969,-7.0160675048828125,-1.1821155548095703,-0.023668289184570312,0.8087892532348633,0.36633527278900146,-5.039371490478516,8.75163745880127,-1.9790457487106323
3_20251106_150809,1762412854105,3,0.48813316226005554,0.5006101727485657,0.6346250772476196,0.32919061183929443,-0.1080915555357933,1.2233340740203857,-2.399491786956787,-4.955305099487305,9.840536117553711,-1.4092121124267578,-0.6688740253448486,0.2794094979763031,0.45743080973625183,34.43301773071289,-7.296913146972656,-1.4491462707519531,0.06725311279296875,0.871119499206543,0.45586681365966797,-5.022558212280273,8.969416618347168,-1.8650789260864258
3_20251106_150809,1762412854124,3,0.4890650808811188,0.5000981688499451,0.6310216784477234,0.3354531228542328,-0.1319948434829712,1.2542800903320312,-2.3659934997558594,-4.963685035705566,10.184089660644531,-1.2488075494766235,-0.7397342920303345,0.3918086290359497,0.43055275082588196,34.36442565917969,-7.6634368896484375,-1.5398597717285156,0.047098636627197266,0.9717388153076172,0.4930170774459839,-5.010783672332764,9.212350845336914,-1.7418246269226074
3_20251106_150809,1762412854144,3,0.4899577498435974,0.49871528148651123,0.6275243759155273,0.34269171953201294,-0.1556021124124527,1.2889916896820068,-2.330901861190796,-4.913408279418945,10.451030731201172,-1.217684268951416,-0.7152997255325317,0.541470468044281,0.3963443338871002,34.30751419067383,-8.041450500488281,-1.657379150390625,0.07790040969848633,0.9909439086914062,0.4193122386932373,-4.991308689117432,9.460086822509766,-1.6369965076446533
3_20251106_150809,1762412854161,3,0.4901951253414154,0.4963836669921875,0.6247966289520264,0.3506297469139099,-0.17428354918956757,1.319247841835022,-2.3016469478607178,-4.817644119262695,10.473775863647461,-1.218881368637085,-0.6664305329322815,0.6831910610198975,0.39023566246032715,34.24184036254883,-8.357612609863281,-1.7605533599853516,0.1389317512512207,0.8109512329101562,0.33449220657348633,-4.956575870513916,9.662824630737305,-1.5533735752105713
3_20251106_150809,1762412854181,3,0.4893210530281067,0.4935532808303833,0.6230286359786987,0.3588946461677551,-0.19434744119644165,1.355921745300293,-2.2677950859069824,-4.688363075256348,10.603056907653809,-1.1733934879302979,-0.6517698168754578,0.7882598042488098,0.43605050444602966,34.108211517333984,-8.78009033203125,-1.6790637969970703,0.2145700454711914,0.7521858215332031,0.3039841651916504,-4.902933120727539,9.850871086120605,-1.4773776531219482
3_20251106_150809,1762412854199,3,0.487036794424057,0.4897771179676056,0.6224021911621094,0.3681427538394928,-0.21033112704753876,1.3897639513015747,-2.2379589080810547,-4.427406311035156,10.860422134399414,-1.1147379875183105,-0.6664305925369263,0.8951611518859863,0.49835869669914246,33.9625244140625,-9.180000305175781,-1.4218254089355469,0.38042163848876953,0.8076410293579102,0.290111780166626,-4.807827949523926,10.052781105041504,-1.4048497676849365
3_20251106_150809,1762412854219,3,0.48435747623443604,0.48679617047309875,0.6212304830551147,0.3774917721748352,-0.22496187686920166,1.4283818006515503,-2.2052557468414307,-4.070685863494873,11.005265235900879,-1.0070035457611084,-0.6682631969451904,0.964188814163208,0.5307345390319824,33.801124572753906,-9.643486022949219,-1.1663970947265625,0.5897135734558105,0.7619876861572266,0.31827688217163086,-4.660399436950684,10.243277549743652,-1.3252804279327393
3_20251106_150809,1762412854238,3,0.4809322953224182,0.4835796654224396,0.6201813220977783,0.3875950872898102,-0.23559905588626862,1.465469479560852,-2.1748907566070557,-3.724738597869873,11.05793571472168,-1.015383005142212,-0.6328330039978027,1.035659909248352,0.5386757254600525,33.55838394165039,-10.014373779296875,-0.6825141906738281,0.7485289573669434,0.6517267227172852,0.2479180097579956,-4.473267555236816,10.406208992004395,-1.2633010149002075
3_20251106_150809,1762412854257,3,0.4768092930316925,0.4801361858844757,0.619404673576355,0.3980703055858612,-0.24257676303386688,1.5028915405273438,-2.1450486183166504,-3.333303451538086,11.203975677490234,-0.9004661440849304,-0.6328330039978027,1.035659909248352,0.5386757254600525,33.3334846496582,-10.485336303710938,-0.07811546325683594,0.9119710922241211,0.6382131576538086,0.2902678847312927,-4.245274543762207,10.565762519836426,-1.1907340288162231
3_20251106_150809,1762412854277,3,0.47200265526771545,0.47660258412361145,0.6189932227134705,0.4085472822189331,-0.24257676303386688,1.5028915405273438,-2.1450486183166504,-3.333303451538086,11.203975677490234,-0.9004661440849304,-0.588850736618042,1.1187375783920288,0.5227932929992676,33.3334846496582,-10.485336303710938,-0.07811546325683594,0.9119710922241211,0.6382131576538086,0.2902678847312927,-4.245274543762207,10.565762519836426,-1.1907340288162231
3_20251106_150809,1762412854296,3,0.4663989841938019,0.4725293219089508,0.6193294525146484,0.4190692603588104,-0.24561657011508942,1.579483985900879,-2.084886074066162,-2.8006162643432617,11.089057922363281,-0.8226579427719116,-0.46423426270484924,1.3111599683761597,0.3871813416481018,32.634037017822266,-11.3194580078125,1.2311515808105469,0.964036226272583,0.2975606918334961,0.22177863121032715,-3.7646524906158447,10.791497230529785,-1.0444365739822388
3_20251106_150809,1762412854315,3,0.4600767195224762,0.46779000759124756,0.6206079125404358,0.4293573796749115,-0.2424459457397461,1.6126097440719604,-2.058232545852661,-2.5851476192474365,10.76824951171875,-0.797519862651825,-0.4202519953250885,1.3588074445724487,0.3413664996623993,32.634037017822266,-11.3194580078125,1.2311515808105469,0.9436039924621582,-0.018598556518554688,0.19753342866897583,-3.5287516117095947,10.786848068237305,-0.9950532913208008
3_20251106_150809,1762412854335,3,0.45318928360939026,0.46250125765800476,0.6226796507835388,0.43929728865623474,-0.23491869866847992,1.6488205194473267,-2.0285229682922363,-2.3313729763031006,10.636573791503906,-0.9447569847106934,-0.42208459973335266,1.4950302839279175,0.3456425368785858,32.30080032348633,-11.749366760253906,2.0349369049072266,0.9579029083251953,-0.12021923065185547,0.04023700952529907,-3.289275884628296,10.756793022155762,-0.9849939942359924
3_20251106_150809,1762412854354,3,0.4457726776599884,0.45684194564819336,0.6251339912414551,0.449209988117218,-0.23491869866847992,1.6488205194473267,-2.0285229682922363,-2.3313729763031006,10.636573791503906,-0.9447569847106934,-0.4471300542354584,1.5610036849975586,0.3871813416481018,31.819751739501953,-12.190963745117188,3.0490970611572266,0.9579029083251953,-0.12021923065185547,0.04023700952529907,-3.289275884628296,10.756793022155762,-0.9849939942359924
3_20251106_150809,1762412854373,3,0.43738940358161926,0.4505760967731476,0.6278657913208008,0.4598437547683716,-0.22307686507701874,1.6822962760925293,-2.0011229515075684,-1.8896616697311401,10.48095703125,-1.2308517694473267,-0.4721755087375641,1.4687631130218506,0.41161593794822693,31.293678283691406,-12.572677612304688,4.035581588745117,1.1196914911270142,-0.22066879272460938,-0.19668614864349365,-3.0093531608581543,10.70162582397461,-1.034165620803833
3_20251106_150809,1762412854392,3,0.4286661446094513,0.4442446529865265,0.6302561163902283,0.4708176851272583,-0.19373223185539246,1.7337015867233276,-1.9560190439224243,-1.4084481000900269,10.440258026123047,-0.4396021068096161,-0.4721755087375641,1.4687631130218506,0.41161593794822693,30.69329071044922,-12.972389221191406,5.0864410400390625,1.035688042640686,-0.16804218292236328,0.47073033452033997,-2.444136142730713,10.60830020904541,-0.910332441329956
3_20251106_150809,1762412854411,3,0.4207455813884735,0.4381968379020691,0.6320604085922241,0.48109906911849976,-0.1756906509399414,1.758031964302063,-1.9311037063598633,-1.6909517049789429,10.41990852355957,-0.1319604367017746,-0.47339722514152527,1.461432695388794,0.14894409477710724,30.10335922241211,-13.420051574707031,5.988056182861328,0.6025475263595581,-0.1507129669189453,0.6226975917816162,-2.293499231338501,10.570621490478516,-0.754658043384552
3_20251106_150809,1762412854430,3,0.4136509597301483,0.43130117654800415,0.6341859698295593,0.49059179425239563,-0.15682902932167053,1.7798259258270264,-1.9078505039215088,-1.665813684463501,10.089522361755371,-0.9064513444900513,-0.5027188062667847,1.8114582300186157,0.14894409477710724,29.48171615600586,-13.770721435546875,6.998441696166992,0.5021483898162842,-0.38487911224365234,-0.12143462896347046,-2.167962074279785,10.474401473999023,-0.7850167155265808
3_20251106_150809,1762412854449,3,0.4054574966430664,0.4221859872341156,0.6376212239265442,0.5008017420768738,-0.1357560157775879,1.7983280420303345,-1.8874790668487549,-1.0182099342346191,9.6717529296875,-1.4116063117980957,-0.5350946187973022,1.830394983291626,0.4140593707561493,28.83620834350586,-14.110694885253906,8.03514289855957,0.9198017120361328,-0.6421184539794922,-0.5012717247009277,-1.938011646270752,10.313871383666992,-0.910334587097168
3_20251106_150809,1762412854469,3,0.3950401246547699,0.412370890378952,0.6412100791931152,0.5125848054885864,-0.11080904304981232,1.8142385482788086,-1.8681812286376953,-0.14196978509426117,9.706466674804688,-0.9303923845291138,-0.5363163948059082,1.5487864017486572,0.7365959286689758,28.21426773071289,-14.461769104003906,9.086078643798828,1.4368335008621216,-0.48592376708984375,-0.01604628562927246,-1.578803300857544,10.192390441894531,-0.9143460988998413
3_20251106_150809,1762412854486,3,0.38392770290374756,0.40534308552742004,0.6426268219947815,0.5247163772583008,-0.08249303698539734,1.8281484842300415,-1.8509559631347656,0.8025021553039551,10.026079177856445,-0.9722890853881836,-0.49538835883140564,1.37102472782135,0.9558963775634766,27.46916961669922,-14.834152221679688,10.212942123413086,1.905044436454773,-0.13304901123046875,-0.04635441303253174,-1.1025422811508179,10.159128189086914,-0.9259346723556519
3_20251106_150809,1762412854508,3,0.3728230893611908,0.40145158767700195,0.6418571472167969,0.5365249514579773,-0.03791365027427673,1.84397292137146,-1.834076166152954,2.078556776046753,10.070369720458984,-1.7743122577667236,-0.47339722514152527,1.2018152475357056,1.1446536779403687,26.670860290527344,-15.320159912109375,11.07866096496582,2.544879198074341,-0.07100677490234375,-0.6787021160125732,-0.46632248163223267,10.141376495361328,-1.0956101417541504
3_20251106_150809,1762412854526,3,0.3610735535621643,0.39933377504348755,0.6399024724960327,0.5483459830284119,0.00630747526884079,1.856829047203064,-1.8229042291641235,3.4204492568969727,10.36723804473877,-1.886834740638733,-0.4959992468357086,0.8566766977310181,1.2918720245361328,25.84182357788086,-15.932388305664062,11.84614372253418,3.10941743850708,0.18068981170654297,-0.6329796314239502,0.31103184819221497,10.186548233032227,-1.2538551092147827
3_20251106_150809,1762412854546,3,0.3497360944747925,0.39981570839881897,0.6361207962036133,0.5596270561218262,0.00630747526884079,1.856829047203064,-1.8229042291641235,3.4204492568969727,10.36723804473877,-1.886834740638733,-0.4959992468357086,0.8566766977310181,1.2918720245361328,25.073505401611328,-16.552528381347656,12.548234939575195,3.10941743850708,0.18068981170654297,-0.6329796314239502,0.31103184819221497,10.186548233032227,-1.2538551092147827
3_20251106_150809,1762412854564,3,0.3400602340698242,0.40265196561813354,0.6307187080383301,0.5695825815200806,0.07299205660820007,1.8756221532821655,-1.8097244501113892,4.481035232543945,11.237492561340332,-1.1973342895507812,-0.36466333270072937,0.6001135110855103,0.6327489018440247,24.269039154052734,-17.16289520263672,13.289667129516602,3.336002826690674,0.8407554626464844,0.04521656036376953,1.1450324058532715,10.396737098693848,-1.2425508499145508
3_20251106_150809,1762412854583,3,0.3325805366039276,0.4044680893421173,0.6263465285301208,0.5774822235107422,0.1934472769498825,1.914030909538269,-1.7881046533584595,4.406818389892578,12.136476516723633,-0.9351806044578552,-0.36466333270072937,0.6001135110855103,0.6327489018440247,23.449951171875,-17.835365295410156,13.880609512329102,2.027595043182373,1.1279888153076172,0.1863744854927063,2.379223346710205,11.008487701416016,-1.1215550899505615
3_20251106_150809,1762412854601,3,0.32763323187828064,0.40197643637657166,0.6250309348106384,0.5834447145462036,0.2567754089832306,1.9355419874191284,-1.7773634195327759,3.5928244590759277,11.645686149597168,-1.0524914264678955,-0.4043695032596588,0.9611345529556274,-0.506513774394989,22.740013122558594,-18.524581909179688,14.353792190551758,0.9708809852600098,0.5097589492797852,0.05525088310241699,2.621943473815918,11.135927200317383,-1.1077423095703125
3_20251106_150809,1762412854620,3,0.32485508918762207,0.3944976031780243,0.6264969110488892,0.5885086059570312,0.3204307556152344,1.9577034711837769,-1.7662272453308105,2.67708158493042,11.351212501525879,-0.9746832251548767,-0.4000934660434723,0.9690757393836975,-0.6360170841217041,21.965618133544922,-19.067611694335938,14.800168991088867,0.04411029815673828,0.1722278594970703,0.10644727945327759,2.6329712867736816,11.178984642028809,-1.0811305046081543
3_20251106_150809,1762412854640,3,0.3235243260860443,0.3846011459827423,0.6290823817253113,0.5930171608924866,0.3823133111000061,1.9801265001296997,-1.7533409595489502,2.0498275756835938,11.26502513885498,-0.505439817905426,-0.3109072148799896,0.8499571084976196,-0.4655857980251312,21.291194915771484,-19.58930206298828,15.007436752319336,-0.46651506423950195,0.0688323974609375,0.46055251359939575,2.5163426399230957,11.196192741394043,-0.9659923315048218
3_20251106_150809,1762412854659,3,0.32225650548934937,0.3752587139606476,0.6316869258880615,0.5969114303588867,0.43362319469451904,1.9990904331207275,-1.7408000230789185,1.866679072380066,11.11180305480957,-0.3474293351173401,-0.1319238841533661,0.6838019490242004,-0.12961022555828094,20.801074981689453,-19.849273681640625,15.280916213989258,-0.5197309255599976,-0.06751155853271484,0.49485039710998535,2.3864099979400635,11.179314613342285,-0.8422797322273254
3_20251106_150809,1762412854678,3,0.3198416531085968,0.36846432089805603,0.6336764097213745,0.6003245711326599,0.43362319469451904,1.9990904331207275,-1.7408000230789185,1.866679072380066,11.11180305480957,-0.3474293351173401,0.10570250451564789,0.4803840219974518,0.2326325625181198,20.401081085205078,-20.02753448486328,15.478315353393555,-0.5197309255599976,-0.06751155853271484,0.49485039710998535,2.3864099979400635,11.179314613342285,-0.8422797322273254
3_20251106_150809,1762412854697,3,0.3157196044921875,0.3655053675174713,0.6350296139717102,0.60288006067276,0.534557044506073,2.036959648132324,-1.7108019590377808,2.295222759246826,11.26741886138916,-0.27800047397613525,0.3213377892971039,0.34232857823371887,0.45804163813591003,20.017009735107422,-20.130332946777344,15.745370864868164,-0.014308452606201172,0.08415794372558594,0.3569251298904419,2.3095312118530273,11.183260917663574,-0.6349256038665771
3_20251106_150809,1762412854717,3,0.30999913811683655,0.36600062251091003,0.6361462473869324,0.6043691039085388,0.534557044506073,2.036959648132324,-1.7108019590377808,2.295222759246826,11.26741886138916,-0.27800047397613525,0.47894081473350525,0.31789398193359375,0.553947389125824,19.622459411621094,-20.208404541015625,15.971914291381836,-0.014308452606201172,0.08415794372558594,0.3569251298904419,2.3095312118530273,11.183260917663574,-0.6349256038665771
3_20251106_150809,1762412854735,3,0.3033795654773712,0.3685667812824249,0.6374521851539612,0.604792594909668,0.5878834128379822,2.0566091537475586,-1.6947715282440186,2.533435821533203,11.122575759887695,-0.710135281085968,0.5290317535400391,0.2904050648212433,0.6290837526321411,19.622459411621094,-20.208404541015625,15.971914291381836,0.1791236400604248,-0.04854774475097656,-0.06016772985458374,2.3543121814727783,11.171123504638672,-0.6499675512313843
3_20251106_150809,1762412854754,3,0.295958548784256,0.37197422981262207,0.6390753388404846,0.604670524597168,0.6708001494407654,2.0843570232391357,-1.6745048761367798,3.304335355758667,11.005266189575195,-1.2069108486175537,0.5290317535400391,0.2904050648212433,0.6290837526321411,19.334064483642578,-20.1175537109375,16.273393630981445,0.6771564483642578,-0.10001945495605469,-0.3642963171005249,2.627178907394409,11.10528564453125,-0.8426145315170288
3_20251106_150809,1762412854774,3,0.2883490324020386,0.37612730264663696,0.6402531862258911,0.60453200340271,0.7188203930854797,2.098400831222534,-1.6655113697052002,3.64669132232666,10.953791618347168,-1.2140930891036987,0.48260602355003357,0.12363901734352112,0.6700116991996765,19.004981994628906,-20.104293823242188,16.55830192565918,0.8156099319458008,-0.12119579315185547,-0.2971828579902649,2.8310813903808594,11.074987411499023,-0.9169102311134338
3_20251106_150809,1762412854795,3,0.2811022698879242,0.3807646930217743,0.6408650875091553,0.6043936610221863,0.7699235677719116,2.111650228500366,-1.6578052043914795,3.7867462635040283,10.848451614379883,-1.2942954301834106,0.5589641332626343,0.0320093110203743,0.5453952550888062,18.647296905517578,-20.16796112060547,16.840646743774414,0.7645318508148193,-0.1812286376953125,-0.30190813541412354,3.022214412689209,11.029680252075195,-0.9923872947692871
3_20251106_150809,1762412854812,3,0.27465561032295227,0.3856443464756012,0.6416486501693726,0.6034316420555115,0.8108746409416199,2.12148118019104,-1.6527706384658813,3.773578643798828,10.86640739440918,-1.3984386920928955,0.6206613779067993,-0.0034208421129733324,0.32731661200523376,18.350852966308594,-20.21564483642578,17.17976951599121,0.6010913848876953,-0.13061904907226562,-0.32484114170074463,3.172487258911133,10.997026443481445,-1.0735975503921509
3_20251106_150809,1762412854832,3,0.26926741003990173,0.3899986743927002,0.6433442234992981,0.6012522578239441,0.8577356934547424,2.131700277328491,-1.6484770774841309,3.5317747592926025,10.744308471679688,-1.5121583938598633,0.6206613779067993,-0.0034208421129733324,0.32731661200523376,18.066286087036133,-20.274551391601562,17.465055465698242,0.2874300479888916,-0.20217514038085938,-0.3508486747741699,3.244344711303711,10.946483612060547,-1.1613097190856934
3_20251106_150809,1762412854850,3,0.2652418315410614,0.39307183027267456,0.6459839344024658,0.5982024073600769,0.8975133895874023,2.139500617980957,-1.6456847190856934,3.1271719932556152,10.565947532653809,-1.518143653869629,0.5595749616622925,0.011239911429584026,-0.057528186589479446,17.773662567138672,-20.25904083251953,17.764951705932617,-0.09373831748962402,-0.3044290542602539,-0.28546714782714844,3.2209103107452393,10.870376586914062,-1.2326765060424805
3_20251106_150809,1762412854870,3,0.2623271346092224,0.3945893347263336,0.6492394208908081,0.5949553847312927,0.8975133895874023,2.139500617980957,-1.6456847190856934,3.1271719932556152,10.565947532653809,-1.518143653869629,0.5571315288543701,-0.04679223522543907,-0.11494946479797363,17.505508422851562,-20.241806030273438,18.05231285095215,-0.09373831748962402,-0.3044290542602539,-0.28546714782714844,3.2209103107452393,10.870376586914062,-1.2326765060424805
3_20251106_150809,1762412854888,3,0.26043084263801575,0.3954918086528778,0.6525788903236389,0.5915257930755615,0.9709243178367615,2.1490609645843506,-1.642672061920166,2.4616127014160156,9.906373977661133,-1.6222870349884033,0.6457068920135498,-0.1640782654285431,-0.08990401029586792,17.303924560546875,-20.120147705078125,18.344236373901367,-0.5225322246551514,-0.6658010482788086,-0.26486456394195557,2.984144926071167,10.572175025939941,-1.3574224710464478
3_20251106_150809,1762412854908,3,0.25897106528282166,0.3967685401439667,0.6560315489768982,0.5874788165092468,1.0032496452331543,2.1498029232025146,-1.6426548957824707,2.1827001571655273,9.668161392211914,-1.6821393966674805,0.7745993137359619,-0.3180162012577057,-0.0343153215944767,17.150875091552734,-20.00719451904297,18.570276260375977,-0.6411557197570801,-0.723210334777832,-0.25977349281311035,2.8238558769226074,10.391371726989746,-1.4223659038543701
3_20251106_150809,1762412854927,3,0.257744163274765,0.3993746042251587,0.6596356630325317,0.5821929574012756,1.0032496452331543,2.1498029232025146,-1.6426548957824707,2.1827001571655273,9.668161392211914,-1.6821393966674805,0.8558443784713745,-0.42430663108825684,0.02799287624657154,17.127437591552734,-19.7481689453125,18.80412483215332,-0.6411557197570801,-0.723210334777832,-0.25977349281311035,2.8238558769226074,10.391371726989746,-1.4223659038543701
3_20251106_150809,1762412854946,3,0.2565630376338959,0.4032759964466095,0.6633166074752808,0.575808048248291,1.0325067043304443,2.1476738452911377,-1.644471287727356,1.9325166940689087,9.535287857055664,-1.9694311618804932,0.8558443784713745,-0.42430663108825684,0.02799287624657154,17.204099655151367,-19.444442749023438,18.975107192993164,-0.7130712270736694,-0.6848678588867188,-0.43765223026275635,2.645587921142578,10.220155715942383,-1.5317789316177368
3_20251106_150809,1762412854966,3,0.25547537207603455,0.4079928398132324,0.6668012142181396,0.5689027309417725,1.073075532913208,2.1385607719421387,-1.651573896408081,1.7864768505096436,9.275528907775879,-2.2184174060821533,0.811251163482666,-0.4664563238620758,0.07625119388103485,17.232524871826172,-19.131607055664062,19.171422958374023,-0.5469582080841064,-0.6296510696411133,-0.4559199810028076,2.33343505859375,9.905179977416992,-1.7624974250793457
3_20251106_150809,1762412854986,3,0.25456929206848145,0.41285061836242676,0.6699151992797852,0.5621054172515869,1.0914292335510254,2.1303513050079346,-1.6578692197799683,1.8164030313491821,9.087591171264648,-2.3848073482513428,0.7880383729934692,-0.44385430216789246,0.06097957119345665,17.39740562438965,-18.771957397460938,19.3333797454834,-0.4136255979537964,-0.6540708541870117,-0.4978480339050293,2.2300286293029785,9.74166202545166,-1.8869593143463135
3_20251106_150809,1762412855004,3,0.2536441683769226,0.4174644947052002,0.6728688478469849,0.5555497407913208,1.1067107915878296,2.1205337047576904,-1.6658329963684082,1.7625356912612915,8.863743782043457,-2.7187840938568115,0.7501647472381592,-0.4310261607170105,0.02799287810921669,17.57488250732422,-18.39936065673828,19.536638259887695,-0.37399423122406006,-0.7023344039916992,-0.6654598712921143,2.1365299224853516,9.566078186035156,-2.0533242225646973
3_20251106_150809,1762412855023,3,0.25278252363204956,0.4216947555541992,0.6757921576499939,0.5491625070571899,1.1193811893463135,2.109290361404419,-1.675089955329895,1.6966979503631592,8.588422775268555,-2.901932716369629,0.6774718761444092,-0.43408048152923584,0.0005039647221565247,17.815797805786133,-17.984588623046875,19.689077377319336,-0.3518655300140381,-0.7821245193481445,-0.678886890411377,2.0485634803771973,9.3705472946167,-2.223045825958252
3_20251106_150809,1762412855041,3,0.25230464339256287,0.4255862832069397,0.6785353422164917,0.5429626703262329,1.1193811893463135,2.109290361404419,-1.675089955329895,1.6966979503631592,8.588422775268555,-2.901932716369629,0.5919507741928101,-0.45423904061317444,0.0060017467476427555,18.080381393432617,-17.580780029296875,19.84222984313965,-0.3518655300140381,-0.7821245193481445,-0.678886890411377,2.0485634803771973,9.3705472946167,-2.223045825958252
3_20251106_150809,1762412855060,3,0.25248393416404724,0.4294973313808441,0.6806745529174805,0.5370904207229614,1.1411067247390747,2.0789520740509033,-1.7000292539596558,1.6117074489593506,8.228110313415527,-3.180845022201538,0.5290317535400391,-0.5269320011138916,0.027382012456655502,18.392187118530273,-17.210655212402344,19.915456771850586,-0.2870575189590454,-0.7426509857177734,-0.6277391910552979,1.898764967918396,8.9707612991333,-2.5531058311462402
3_20251106_150809,1762412855079,3,0.2529939115047455,0.43335068225860596,0.682377815246582,0.5315654277801514,1.149909257888794,2.062310218811035,-1.7140830755233765,1.6212838888168335,8.466323852539062,-3.0934605598449707,0.47283220291137695,-0.5947378873825073,0.024327687919139862,18.679607391357422,-16.853736877441406,19.892824172973633,-0.22198486328125,-0.4035501480102539,-0.4322836399078369,1.8432687520980835,8.869874000549316,-2.661176919937134
3_20251106_150809,1762412855098,3,0.2541027367115021,0.43752631545066833,0.6835160255432129,0.5261258482933044,1.1573899984359741,2.0458858013153076,-1.7281835079193115,1.5219287872314453,8.645880699157715,-2.934252977371216,0.4538954198360443,-0.6271137595176697,-0.06913460791110992,18.977310180664062,-16.521812438964844,19.937734603881836,-0.25707197189331055,-0.17919445037841797,-0.2184607982635498,1.7790007591247559,8.825075149536133,-2.715792179107666
3_20251106_150809,1762412855118,3,0.25601962208747864,0.4415804147720337,0.6844395399093628,0.5205796957015991,1.1634269952774048,2.028869390487671,-1.7429734468460083,1.3040658235549927,8.630319595336914,-2.9426321983337402,0.4428998529911041,-0.6051226258277893,-0.1729816198348999,19.28839874267578,-16.175865173339844,19.91581916809082,-0.3799479007720947,-0.15580463409423828,-0.1814718246459961,1.6840137243270874,8.786124229431152,-2.761160373687744
3_20251106_150809,1762412855137,3,0.2585815191268921,0.44483309984207153,0.6857244372367859,0.514821469783783,1.1675339937210083,2.0128448009490967,-1.757568120956421,1.1951344013214111,8.54293441772461,-3.215559482574463,0.41174575686454773,-0.5770228505134583,-0.20230312645435333,19.582860946655273,-15.917938232421875,19.823984146118164,-0.39110350608825684,-0.19455242156982422,-0.36351919174194336,1.586237907409668,8.737486839294434,-2.8520402908325195
3_20251106_150809,1762412855157,3,0.2613123655319214,0.44727545976638794,0.6872805953025818,0.5092208981513977,1.1701936721801758,1.9962761402130127,-1.7739883661270142,1.1101438999176025,8.558496475219727,-3.452575206756592,0.38975462317466736,-0.6271137595176697,-0.17603594064712524,19.582860946655273,-15.917938232421875,19.823984146118164,-0.38087522983551025,-0.14319229125976562,-0.48042798042297363,1.4910191297531128,8.701688766479492,-2.972147226333618
3_20251106_150809,1762412855176,3,0.2642240822315216,0.4496940076351166,0.688633382320404,0.5037310719490051,1.1701936721801758,1.9962761402130127,-1.7739883661270142,1.1101438999176025,8.558496475219727,-3.452575206756592,0.37998077273368835,-0.732182502746582,-0.136940598487854,19.928577423095703,-15.618621826171875,19.680837631225586,-0.38087522983551025,-0.14319229125976562,-0.48042798042297363,1.4910191297531128,8.701688766479492,-2.972147226333618
3_20251106_150809,1762412855194,3,0.26758790016174316,0.45278677344322205,0.6894842386245728,0.4979882836341858,1.171391487121582,1.980122447013855,-1.7912518978118896,1.0538824796676636,8.565678596496582,-3.5196099281311035,0.3812025189399719,-0.8500794172286987,-0.11372774839401245,20.2236328125,-15.359878540039062,19.507905960083008,-0.34970927238464355,-0.10880756378173828,-0.4379701614379883,1.4035917520523071,8.67448616027832,-3.0816397666931152
3_20251106_150809,1762412855215,3,0.2715952396392822,0.4566531777381897,0.6898201704025269,0.49178454279899597,1.1686574220657349,1.9501311779022217,-1.823501706123352,0.5451365113258362,8.182622909545898,-3.4860925674438477,0.3824242353439331,-0.9075006246566772,-0.09540179371833801,20.58968734741211,-15.134040832519531,19.337125778198242,-0.598059356212616,-0.3576946258544922,-0.26593637466430664,1.1431958675384521,8.54031753540039,-3.220156192779541
3_20251106_150809,1762412855232,3,0.27611562609672546,0.46100762486457825,0.6898049116134644,0.4851817786693573,1.1644474267959595,1.9342823028564453,-1.8397150039672852,0.3081207573413849,7.8163251876831055,-3.736276149749756,0.3836459815502167,-0.9160528182983398,-0.03981310501694679,21.028736114501953,-14.926803588867188,18.9930477142334,-0.6680600643157959,-0.5791940689086914,-0.41289615631103516,0.9761808514595032,8.395519256591797,-3.3233799934387207
3_20251106_150809,1762412855252,3,0.28062811493873596,0.4655870795249939,0.6895689368247986,0.4785093367099762,1.1578670740127563,1.9150025844573975,-1.8588266372680664,0.27340632677078247,7.556565284729004,-3.9804744720458984,0.3378311097621918,-0.9178853631019592,0.05059487000107765,21.49276351928711,-14.705551147460938,18.663732528686523,-0.5622196197509766,-0.6711626052856445,-0.5256755352020264,0.835625946521759,8.227727890014648,-3.454798936843872
3_20251106_150809,1762412855270,3,0.28503304719924927,0.4708590805530548,0.6887200474739075,0.471924364566803,1.1510186195373535,1.8962113857269287,-1.8768270015716553,0.3392440676689148,7.290820121765137,-4.128908157348633,0.25780782103538513,-0.9630893468856812,0.1257312297821045,21.944194793701172,-14.497245788574219,18.29311180114746,-0.39710551500320435,-0.7495260238647461,-0.5392873287200928,0.7363495826721191,8.040346145629883,-3.58962082862854
3_20251106_150809,1762412855290,3,0.2894427478313446,0.476599782705307,0.687066376209259,0.46584904193878174,1.1510186195373535,1.8962113857269287,-1.8768270015716553,0.3392440676689148,7.290820121765137,-4.128908157348633,0.17106503248214722,-1.0333389043807983,0.14405716955661774,22.41778564453125,-14.325164794921875,17.93619728088379,-0.39710551500320435,-0.7495260238647461,-0.5392873287200928,0.7363495826721191,8.040346145629883,-3.58962082862854
3_20251106_150809,1762412855309,3,0.2943482995033264,0.4827204644680023,0.6845840215682983,0.46009209752082825,1.1336697340011597,1.8521196842193604,-1.9170854091644287,0.17644533514976501,7.332716941833496,-4.002021312713623,0.07515927404165268,-1.071823239326477,0.06281216442584991,22.91473388671875,-14.176063537597656,17.525671005249023,-0.3849610984325409,-0.4354538917541504,-0.2426767349243164,0.5614064335823059,7.7681708335876465,-3.7593445777893066
3_20251106_150809,1762412855328,3,0.30013248324394226,0.48863309621810913,0.6816030144691467,0.4545057713985443,1.1232966184616089,1.8302677869796753,-1.9356261491775513,-0.13478751480579376,7.306382179260254,-3.762610912322998,-0.017692171037197113,-1.007071614265442,-0.07707585394382477,23.421146392822266,-14.076263427734375,17.10106086730957,-0.5569551587104797,-0.3694305419921875,-0.002613067626953125,0.4221676290035248,7.675812721252441,-3.759997844696045
3_20251106_150809,1762412855347,3,0.30687347054481506,0.4934469759464264,0.6786637306213379,0.4491707384586334,1.1232966184616089,1.8302677869796753,-1.9356261491775513,-0.13478751480579376,7.306382179260254,-3.762610912322998,-0.017692171037197113,-1.007071614265442,-0.07707585394382477,23.988475799560547,-13.984107971191406,16.584028244018555,-0.5569551587104797,-0.3694305419921875,-0.002613067626953125,0.4221676290035248,7.675812721252441,-3.759997844696045
3_20251106_150809,1762412855366,3,0.31386226415634155,0.49648115038871765,0.6762856841087341,0.4445611238479614,1.0976470708847046,1.7851295471191406,-1.9715696573257446,-0.5705134868621826,7.001134872436523,-4.094193935394287,-0.20644937455654144,-0.7841060161590576,-0.24872884154319763,24.529098510742188,-13.954704284667969,15.902498245239258,-0.6717061996459961,-0.45037174224853516,-0.24491310119628906,0.10119274258613586,7.451506614685059,-3.849280834197998
3_20251106_150809,1762412855386,3,0.3209151029586792,0.4981887638568878,0.6741942167282104,0.44077613949775696,1.0820469856262207,1.7619131803512573,-1.9892456531524658,-0.8661847114562988,6.853897571563721,-4.097784996032715,-0.3212919235229492,-0.7645583152770996,-0.2255159616470337,25.011322021484375,-13.867835998535156,15.354997634887695,-0.7739019393920898,-0.4780874252319336,-0.19880342483520508,-0.0922827422618866,7.331984996795654,-3.8989815711975098
3_20251106_150809,1762412855404,3,0.3283659517765045,0.4993893802165985,0.6717491745948792,0.4376518130302429,1.0645387172698975,1.7384670972824097,-2.0066094398498535,-1.0720771551132202,6.825168609619141,-4.107361793518066,-0.4190302789211273,-0.7761647701263428,-0.12105812132358551,25.45325469970703,-13.858016967773438,14.736860275268555,-0.7838355302810669,-0.4054532051086426,-0.1667041778564453,-0.2882416248321533,7.230621814727783,-3.940657615661621
3_20251106_150809,1762412855424,3,0.3360190987586975,0.5006103515625,0.6685288548469543,0.435372918844223,1.0441781282424927,1.7136428356170654,-2.023865222930908,-1.2264965772628784,6.777286052703857,-3.905060052871704,-0.48439279198646545,-0.8409163951873779,0.04082103446125984,25.95531463623047,-13.856918334960938,14.134428024291992,-0.750603973865509,-0.3626689910888672,0.028477907180786133,-0.4758926033973694,7.139955043792725,-3.9335379600524902
3_20251106_150809,1762412855443,3,0.3437640964984894,0.5025994777679443,0.6641157269477844,0.4337860345840454,1.0235068798065186,1.6905789375305176,-2.0377871990203857,-1.3126840591430664,6.89938497543335,-3.3316733837127686,-0.5088274478912354,-0.8903964757919312,0.21369574964046478,26.44235610961914,-13.91845703125,13.435571670532227,-0.6694331765174866,-0.19245624542236328,0.4814915657043457,-0.6432508826255798,7.091841220855713,-3.8131649494171143
3_20251106_150809,1762412855461,3,0.3514297306537628,0.5057364106178284,0.6584533452987671,0.43262800574302673,1.0033634901046753,1.669816255569458,-2.047757863998413,-1.2683932781219482,7.089715957641602,-2.773848295211792,-0.5375380516052246,-0.8073188662528992,0.34808599948883057,26.929386138916016,-13.991615295410156,12.641836166381836,-0.5001139640808105,-0.0016999244689941406,0.8314535617828369,-0.7682793140411377,7.091415882110596,-3.605301856994629
3_20251106_150809,1762412855481,3,0.35849207639694214,0.5097098350524902,0.6518411636352539,0.43218326568603516,0.9819824695587158,1.6500717401504517,-2.054959297180176,-1.1989644765853882,7.483545303344727,-2.585911512374878,-0.5118817687034607,-0.6423853635787964,0.439104825258255,27.340179443359375,-14.120170593261719,11.884653091430664,-0.3445481061935425,0.3137035369873047,0.8155124187469482,-0.8544163703918457,7.169841766357422,-3.401423931121826
3_20251106_150809,1762412855500,3,0.3641204535961151,0.5131756663322449,0.6453368067741394,0.4331367313861847,0.9610536098480225,1.634076714515686,-2.0603973865509033,-1.0792595148086548,8.176637649536133,-2.8899621963500977,-0.48439279198646545,-0.621005117893219,0.47270241379737854,27.676349639892578,-14.278739929199219,11.137514114379883,-0.1798744797706604,0.8054366111755371,0.40916943550109863,-0.8993850350379944,7.371201038360596,-3.2991316318511963
3_20251106_150809,1762412855519,3,0.3687388598918915,0.5170841217041016,0.6386992931365967,0.4344179034233093,0.939963698387146,1.6210724115371704,-2.0635509490966797,-0.9523721933364868,8.354997634887695,-2.5476059913635254,-0.5607509613037109,-0.5764119625091553,0.5069108009338379,27.98614501953125,-14.464820861816406,10.469964981079102,-0.042389750480651855,0.7870373725891113,0.6012206077575684,-0.909982442855835,7.567960262298584,-3.1488265991210938
3_20251106_150809,1762412855537,3,0.3733573853969574,0.5209047794342041,0.6318392753601074,0.4359375834465027,0.9219571352005005,1.6127346754074097,-2.064265727996826,-0.8997020721435547,8.69735336303711,-2.3441076278686523,-0.6212265491485596,-0.4475195109844208,0.5747168064117432,28.226146697998047,-14.817710876464844,9.755983352661133,0.008224308490753174,0.9035143852233887,0.643775224685669,-0.9079263806343079,7.793838977813721,-2.9878828525543213
3_20251106_150809,1762412855557,3,0.3775702118873596,0.5242515206336975,0.6246828436851501,0.4386027753353119,0.9040414094924927,1.6076011657714844,-2.0630266666412354,-0.548966646194458,9.000207901000977,-2.332137107849121,-0.6041223406791687,-0.4401891231536865,0.6828398108482361,28.427570343017578,-15.210517883300781,9.026222229003906,0.2871677875518799,0.9650955200195312,0.5245964527130127,-0.8361344337463379,8.035112380981445,-2.856733560562134
3_20251106_150809,1762412855577,3,0.3809494376182556,0.5277355313301086,0.6170852184295654,0.4422426223754883,0.888396680355072,1.6063132286071777,-2.059905529022217,-0.3837737739086151,9.215676307678223,-2.2172203063964844,-0.5448684692382812,-0.4982212781906128,0.6480205655097961,28.53976058959961,-15.683822631835938,8.250894546508789,0.3618885576725006,0.9444513320922852,0.5116105079650879,-0.7456623315811157,8.271224975585938,-2.7288308143615723
3_20251106_150809,1762412855595,3,0.38418251276016235,0.5318776369094849,0.6091666221618652,0.4454503655433655,0.8762446045875549,1.6078648567199707,-2.0559418201446533,-0.24850720167160034,9.348548889160156,-2.2028558254241943,-0.5295968651771545,-0.47928446531295776,0.5270693302154541,28.53976058959961,-15.683822631835938,8.250894546508789,0.3977241516113281,0.8618593215942383,0.4207799434661865,-0.6462313532829285,8.486689567565918,-2.623635768890381
3_20251106_150809,1762412855615,3,0.38772132992744446,0.5358214974403381,0.6016592979431152,0.4478544592857361,0.865150511264801,1.6128432750701904,-2.0505077838897705,-0.07613207399845123,9.585564613342285,-2.2124321460723877,-0.5943485498428345,-0.4316370189189911,0.37435320019721985,28.640975952148438,-16.133079528808594,7.50263786315918,0.45607948303222656,0.8790998458862305,0.328963041305542,-0.5322115421295166,8.706464767456055,-2.5413951873779297
3_20251106_150809,1762412855635,3,0.3916764259338379,0.5385993719100952,0.5948732495307922,0.4501401484012604,0.8562377691268921,1.6205253601074219,-2.0442543029785156,0.002873167395591736,9.67773723602295,-2.1825058460235596,-0.6664305329322815,-0.42736098170280457,0.19598066806793213,28.592140197753906,-16.655059814453125,6.787725448608398,0.42806780338287354,0.7770185470581055,0.2871115207672119,-0.4251946210861206,8.900718688964844,-2.4696173667907715
3_20251106_150809,1762412855653,3,0.39660167694091797,0.5400433540344238,0.5885933041572571,0.45234745740890503,0.8490878343582153,1.6284970045089722,-2.0382065773010254,-0.23414260149002075,9.470647811889648,-2.1849000453948975,-0.6664305329322815,-0.42736098170280457,0.19598066806793213,28.607261657714844,-17.11095428466797,6.1441650390625,0.15284159779548645,0.45594310760498047,0.22777390480041504,-0.3869841992855072,9.014704704284668,-2.4126739501953125
3_20251106_150809,1762412855672,3,0.40262770652770996,0.540504515171051,0.5829004645347595,0.45384231209754944,0.8415524363517761,1.6370782852172852,-2.0316386222839355,-0.520237386226654,9.228843688964844,-2.2291908264160156,-0.5662487745285034,-0.4786736071109772,-0.08623883128166199,28.632259368896484,-17.60399627685547,5.527336120605469,-0.10660254955291748,0.1713113784790039,0.14678645133972168,-0.4136348366737366,9.05753231048584,-2.3759772777557373
3_20251106_150809,1762412855691,3,0.40902408957481384,0.5403658151626587,0.5781759023666382,0.45433101058006287,0.8332277536392212,1.645542860031128,-2.025351047515869,-0.8386525511741638,9.171385765075684,-2.3584723472595215,-0.5240991115570068,-0.4572933316230774,-0.11983639001846313,28.625225067138672,-18.02367401123047,4.8700714111328125,-0.34001415967941284,0.09108257293701172,0.014003992080688477,-0.498638391494751,9.080303192138672,-2.37247633934021
3_20251106_150809,1762412855710,3,0.4153406322002411,0.5401363372802734,0.5741645097732544,0.4539603590965271,0.8240416049957275,1.6543300151824951,-2.0186071395874023,-0.9643427133560181,9.352140426635742,-2.0915300846099854,-0.6291677951812744,-0.4291935861110687,-0.11189514398574829,28.63541030883789,-18.354522705078125,4.201627731323242,-0.3725634813308716,0.2174701690673828,0.22475695610046387,-0.5917792320251465,9.13467025756836,-2.316287040710449
3_20251106_150809,1762412855729,3,0.4217054843902588,0.5396729707717896,0.570128321647644,0.4537304639816284,0.813987135887146,1.6635174751281738,-2.0102338790893555,-1.0756683349609375,9.44072151184082,-1.5995430946350098,-0.7678340673446655,-0.3894873559474945,-0.12105812132358551,28.672996520996094,-18.621673583984375,3.603067398071289,-0.3871113061904907,0.2448406219482422,0.5733950138092041,-0.6885570287704468,9.195880889892578,-2.172938108444214
3_20251106_150809,1762412855748,3,0.42869704961776733,0.5385540723800659,0.5654763579368591,0.4543289542198181,0.8028642535209656,1.673012614250183,-1.9997930526733398,-1.2612109184265137,9.475435256958008,-1.2667632102966309,-0.7983773350715637,-0.3345095217227936,-0.1778685450553894,28.728294372558594,-18.79931640625,2.9257469177246094,-0.4581230878829956,0.22364330291748047,0.7249399423599243,-0.8030878305435181,9.251791954040527,-1.9917031526565552
3_20251106_150809,1762412855768,3,0.4360373318195343,0.5365192294120789,0.560764491558075,0.4555894434452057,0.7906662225723267,1.6822162866592407,-1.9880561828613281,-1.397674560546875,9.318622589111328,-1.329009771347046,-0.7366800308227539,-0.22760820388793945,-0.24323105812072754,28.858627319335938,-18.934791564941406,2.279193878173828,-0.47566938400268555,0.05346488952636719,0.5301547050476074,-0.9220051765441895,9.265157699584961,-1.8591644763946533
3_20251106_150809,1762412855787,3,0.44315195083618164,0.5338069796562195,0.5567891001701355,0.45678481459617615,0.7770876884460449,1.6905454397201538,-1.975304365158081,-1.3761277198791504,8.977462768554688,-1.5253260135650635,-0.6957520246505737,-0.20195187628269196,-0.2090226411819458,28.997024536132812,-18.920120239257812,1.6898727416992188,-0.36329805850982666,-0.23015594482421875,0.2670707702636719,-1.0128296613693237,9.207618713378906,-1.7923967838287354
3_20251106_150809,1762412855806,3,0.4496016800403595,0.5307829976081848,0.5536098480224609,0.4578688442707062,0.7647396326065063,1.6968820095062256,-1.9637675285339355,-1.3126840591430664,8.88888168334961,-1.5349023342132568,-0.7537841796875,-0.25876230001449585,-0.05569558963179588,29.08666229248047,-18.920242309570312,1.0037117004394531,-0.23988354206085205,-0.2549896240234375,0.2059955596923828,-1.0728005170822144,9.143871307373047,-1.7408978939056396
3_20251106_150809,1762412855825,3,0.45576363801956177,0.5284481048583984,0.5497092008590698,0.4591752290725708,0.7514494061470032,1.7031302452087402,-1.950505018234253,-1.1570675373077393,8.99901008605957,-1.384074091911316,-0.7537841796875,-0.25876230001449585,-0.05569558963179588,29.151630401611328,-18.92235565185547,0.3571186065673828,-0.0674135684967041,-0.1158895492553711,0.285459041595459,-1.0896539688110352,9.114899635314941,-1.669533133506775
3_20251106_150809,1762412855844,3,0.46198996901512146,0.5270487070083618,0.5441561937332153,0.46117132902145386,0.7395492196083069,1.7095087766647339,-1.9361891746520996,-1.0553185939788818,9.38446044921875,-0.8142786026000977,-0.846635639667511,-0.3705505430698395,0.11290307343006134,29.202102661132812,-18.963211059570312,-0.26372337341308594,0.027468323707580566,0.21564865112304688,0.6842036247253418,-1.0827869176864624,9.168811798095703,-1.4984822273254395
3_20251106_150809,1762412855863,3,0.468520849943161,0.5263551473617554,0.5370540022850037,0.4636933207511902,0.7282963991165161,1.7174901962280273,-1.9195952415466309,-1.0636978149414062,9.869264602661133,-0.407281756401062,-1.0268406867980957,-0.3442833721637726,0.21613919734954834,29.282276153564453,-18.914031982421875,-0.9358024597167969,0.015271306037902832,0.5603618621826172,0.8729603290557861,-1.078969120979309,9.308902740478516,-1.2802420854568481
3_20251106_150809,1762412855882,3,0.47511911392211914,0.525286078453064,0.5293771624565125,0.4670076370239258,0.7180192470550537,1.7279400825500488,-1.8999416828155518,-0.9284312129020691,10.354069709777832,0.13737568259239197,-1.1496245861053467,-0.24959932267665863,0.17948731780052185,29.297489166259766,-18.94390106201172,-1.6389503479003906,0.12043029069900513,0.8361339569091797,1.13409423828125,-1.0488615036010742,9.517935752868652,-0.9967185258865356
3_20251106_150809,1762412855901,3,0.48193418979644775,0.5232256650924683,0.5215051770210266,0.4711759090423584,0.7180192470550537,1.7279400825500488,-1.8999416828155518,-0.9284312129020691,10.354069709777832,0.13737568259239197,-1.170393943786621,-0.17201949656009674,0.0994640439748764,29.298412322998047,-19.00061798095703,-2.248502731323242,0.12043029069900513,0.8361339569091797,1.13409423828125,-1.0488615036010742,9.517935752868652,-0.9967185258865356
3_20251106_150809,1762412855920,3,0.4883689284324646,0.519143283367157,0.5145562291145325,0.47667384147644043,0.7022579908370972,1.7533998489379883,-1.8500981330871582,-0.6219866275787354,10.099098205566406,1.2278876304626465,-0.9474283456802368,-0.13964366912841797,0.02188422903418541,29.25249481201172,-19.03472900390625,-2.9270706176757812,0.281818687915802,0.30414295196533203,1.4844622611999512,-0.9038053154945374,9.794955253601074,-0.25657469034194946
3_20251106_150809,1762412855940,3,0.49499765038490295,0.5153099894523621,0.5080188512802124,0.4809883236885071,0.6952804327011108,1.7673249244689941,-1.818532943725586,-0.7692235708236694,10.032064437866211,1.1333208084106445,-0.9474283456802368,-0.13964366912841797,0.02188422903418541,29.176666259765625,-19.170745849609375,-3.622246742248535,0.10766541957855225,0.18968772888183594,1.111916422843933,-0.8768889904022217,9.842376708984375,0.021404385566711426
3_20251106_150809,1762412855958,3,0.49998125433921814,0.5126491785049438,0.5032384991645813,0.4836947023868561,0.6890125274658203,1.7803536653518677,-1.788071870803833,-0.8661847114562988,10.010517120361328,0.7406885623931885,-0.1575801968574524,-0.1121547520160675,0.06647735834121704,29.150299072265625,-19.2794189453125,-4.220319747924805,0.008563399314880371,0.13451194763183594,0.5754273533821106,-0.8747481107711792,9.876005172729492,0.16526120901107788
3_20251106_150809,1762412855977,3,0.5028355717658997,0.5122030377388,0.5001547336578369,0.4844065308570862,0.6890125274658203,1.7803536653518677,-1.788071870803833,-0.8661847114562988,10.010517120361328,0.7406885623931885,0.06172024458646774,-0.0272445660084486,0.04204276576638222,29.064620971679688,-19.355064392089844,-4.752470970153809,0.008563399314880371,0.13451194763183594,0.5754273533821106,-0.8747481107711792,9.876005172729492,0.16526120901107788
3_20251106_150809,1762412855997,3,0.5038719773292542,0.5131001472473145,0.49866876006126404,0.4839119017124176,0.6777622103691101,1.8053408861160278,-1.728452205657959,-0.7823912501335144,9.99734878540039,0.2391248643398285,0.1356348693370819,0.0320093110203743,-0.03614791855216026,29.01892852783203,-19.365676879882812,-5.268315315246582,0.06064063310623169,0.10083484649658203,0.01873508095741272,-0.8430318832397461,9.896513938903809,0.22038978338241577
3_20251106_150809,1762412856018,3,0.5040130615234375,0.5140194892883301,0.4985911548137665,0.48286816477775574,0.6777622103691101,1.8053408861160278,-1.728452205657959,-0.7823912501335144,9.99734878540039,0.2391248643398285,0.13868919014930725,-0.061452992260456085,-0.16687297821044922,29.01892852783203,-19.365676879882812,-5.268315315246582,0.06064063310623169,0.10083484649658203,0.01873508095741272,-0.8430318832397461,9.896513938903809,0.22038978338241577
3_20251106_150809,1762412856035,3,0.5044448375701904,0.514650821685791,0.4991457462310791,0.48116883635520935,0.6685863137245178,1.8287453651428223,-1.6774539947509766,-0.8661847114562988,9.714845657348633,0.0870995968580246,0.10081558674573898,-0.17140863835811615,-0.3379150927066803,28.957141876220703,-19.428794860839844,-5.637026786804199,-0.033779025077819824,-0.1798543930053711,-0.06921738386154175,-0.832405686378479,9.894700050354004,0.15631698071956635
3_20251106_150809,1762412856056,3,0.5064385533332825,0.5152230858802795,0.49964821338653564,0.4779297411441803,0.6625856757164001,1.8375563621520996,-1.6519683599472046,-1.2121319770812988,9.064847946166992,0.054779261350631714,0.006742419674992561,-0.061452992260456085,-0.40327760577201843,28.900711059570312,-19.3802490234375,-5.868200302124023,-0.30378103256225586,-0.6638813018798828,-0.08123017847537994,-0.908350944519043,9.728729248046875,0.13600943982601166
3_20251106_150809,1762412856074,3,0.5093644261360168,0.5148845911026001,0.5004777312278748,0.4743034839630127,0.65626460313797,1.8423564434051514,-1.6328394412994385,-1.4910444021224976,8.764389038085938,-0.5233955979347229,-0.167354017496109,0.1395215094089508,-0.3183673918247223,28.942981719970703,-19.300498962402344,-6.067889213562012,-0.4661548137664795,-0.7714719772338867,-0.5275240540504456,-1.024889588356018,9.535861015319824,0.004128441214561462
3_20251106_150809,1762412856093,3,0.5119069814682007,0.5130152702331543,0.5016530156135559,0.47234612703323364,0.6483974456787109,1.845007300376892,-1.6161425113677979,-1.5820201635360718,8.74763011932373,-0.9016632437705994,-0.43308016657829285,0.18533635139465332,-0.16198605298995972,28.900768280029297,-19.202003479003906,-6.189385414123535,-0.44570446014404297,-0.630584716796875,-0.7246333360671997,-1.1363157033920288,9.378214836120605,-0.17702987790107727
3_20251106_150809,1762412856112,3,0.514283299446106,0.5100878477096558,0.5019250512123108,0.4726460874080658,0.6398026347160339,1.846396565437317,-1.6011158227920532,-1.5449116230010986,8.966690063476562,-0.4814988970756531,-0.43308016657829285,0.18533635139465332,-0.16198605298995972,28.92180633544922,-19.04998779296875,-6.239792823791504,-0.32687675952911377,-0.3292198181152344,-0.24357521533966064,-1.2180348634719849,9.295909881591797,-0.23792368173599243
3_20251106_150809,1762412856130,3,0.5174332857131958,0.5066749453544617,0.49996623396873474,0.47494959831237793,0.6314303874969482,1.848345398902893,-1.5861164331436157,-1.476679801940918,9.57957935333252,0.36122390627861023,-1.112972617149353,0.046059198677539825,0.15383100509643555,28.85623550415039,-18.928504943847656,-6.307677268981934,-0.2069159746170044,0.22693538665771484,0.4793180823326111,-1.2697638273239136,9.352643966674805,-0.11809417605400085
3_20251106_150809,1762412856149,3,0.5218505859375,0.5025602579116821,0.49532514810562134,0.47933095693588257,0.6225723028182983,1.8524954319000244,-1.5675663948059082,-1.4383742809295654,10.152965545654297,1.1608529090881348,-1.397635579109192,-0.029077159240841866,0.22041526436805725,28.83123779296875,-18.741180419921875,-6.440351486206055,-0.1348884105682373,0.6402568817138672,1.0231577157974243,-1.3034858703613281,9.51270866394043,0.13769522309303284
3_20251106_150809,1762412856168,3,0.5277142524719238,0.49772849678993225,0.4880432188510895,0.48538416624069214,0.6135834455490112,1.8580303192138672,-1.5461515188217163,-1.5125913619995117,10.093113899230957,1.5199676752090454,-1.5558496713638306,-0.06756163388490677,0.21369574964046478,28.753070831298828,-18.632644653320312,-6.549539566040039,-0.16728436946868896,0.4643239974975586,1.1058180332183838,-1.3453069925308228,9.628789901733398,0.4141497015953064
3_20251106_150809,1762412856188,3,0.5344240665435791,0.4914294183254242,0.47963693737983704,0.49278438091278076,0.6035474538803101,1.8655662536621094,-1.5195845365524292,-1.689754605293274,10.28703498840332,2.1089160442352295,-1.532025933265686,-0.10787870734930038,0.12145517766475677,28.623523712158203,-18.58885955810547,-6.783655166625977,-0.2755579948425293,0.5265960693359375,1.3558130264282227,-1.4141966104507446,9.760438919067383,0.7531029582023621
3_20251106_150809,1762412856207,3,0.5416223406791687,0.48473793268203735,0.4706840217113495,0.5001308917999268,0.6035474538803101,1.8655662536621094,-1.5195845365524292,-1.689754605293274,10.28703498840332,2.1089160442352295,-1.4587221145629883,-0.12925896048545837,0.006612611468881369,28.491443634033203,-18.60651397705078,-7.154253005981445,-0.2755579948425293,0.5265960693359375,1.3558130264282227,-1.4141966104507446,9.760438919067383,0.7531029582023621
3_20251106_150809,1762412856227,3,0.5497065186500549,0.47794657945632935,0.4622935950756073,0.5056425929069519,0.5935518145561218,1.8739616870880127,-1.4874365329742432,-1.4096450805664062,10.02248764038086,2.4381046295166016,-1.3383816480636597,-0.12864810228347778,0.04143190011382103,28.251998901367188,-18.59337615966797,-7.555505752563477,0.0036412477493286133,0.2096395492553711,1.3480013608932495,-1.4132863283157349,9.812848091125488,1.090103268623352
3_20251106_150809,1762412856246,3,0.557479202747345,0.471492737531662,0.4541155695915222,0.5105786919593811,0.5849111676216125,1.8818415403366089,-1.4547202587127686,-1.4311920404434204,10.054807662963867,2.9432594776153564,-1.0867054462432861,0.0020769403781741858,0.08113810420036316,28.07337188720703,-18.5880126953125,-8.035667419433594,-0.014324545860290527,0.19356822967529297,1.4825249910354614,-1.4168674945831299,9.861239433288574,1.460734486579895
3_20251106_150809,1762412856264,3,0.5637292861938477,0.4657200574874878,0.4469882845878601,0.5152820348739624,0.5681136250495911,1.8979548215866089,-1.3862254619598389,-1.6933457851409912,10.387588500976562,3.0545849800109863,-0.8069294691085815,0.17922770977020264,0.12878555059432983,27.88406753540039,-18.558197021484375,-8.529308319091797,-0.1865224838256836,0.3828296661376953,1.016425371170044,-1.5068233013153076,10.004758834838867,2.0381596088409424
3_20251106_150809,1762412856284,3,0.5678698420524597,0.4607609808444977,0.4418955147266388,0.5195685625076294,0.5591427683830261,1.908864974975586,-1.3465313911437988,-1.5185766220092773,10.662908554077148,2.970791816711426,-0.8069294691085815,0.17922770977020264,0.12878555059432983,27.716712951660156,-18.57648468017578,-9.077089309692383,-0.009402632713317871,0.526519775390625,0.7461056709289551,-1.5091739892959595,10.136388778686523,2.2246861457824707
3_20251106_150809,1762412856303,3,0.5698692202568054,0.456543892621994,0.43871793150901794,0.523777961730957,0.5518857836723328,1.9195928573608398,-1.3102457523345947,-1.3414132595062256,10.704805374145508,3.1778812408447266,-0.4905014634132385,0.39913901686668396,0.25706714391708374,27.520164489746094,-18.672508239746094,-9.546337127685547,0.1342085599899292,0.45473384857177734,0.7625560760498047,-1.4756218194961548,10.25007152557373,2.415325164794922
3_20251106_150809,1762412856321,3,0.5703839063644409,0.4529821574687958,0.43660324811935425,0.5280596613883972,0.545219898223877,1.9313551187515259,-1.2719643115997314,-1.2528315782546997,10.61622428894043,3.106058120727539,-0.47400811314582825,0.5115380883216858,0.2851669490337372,27.324020385742188,-18.756378173828125,-9.974772453308105,0.1782323122024536,0.2929229736328125,0.5525863170623779,-1.4310638904571533,10.323301315307617,2.553471803665161
3_20251106_150809,1762412856340,3,0.5692775845527649,0.44895055890083313,0.4356204569339752,0.5334802865982056,0.5392876267433167,1.9426695108413696,-1.2351810932159424,-1.2851519584655762,10.374420166015625,2.7050466537475586,-0.5118817687034607,0.5390269756317139,0.2631758153438568,27.1041259765625,-18.81780242919922,-10.295530319213867,0.1167294979095459,0.04089546203613281,0.12125968933105469,-1.401881456375122,10.333524703979492,2.583786964416504
3_20251106_150809,1762412856360,3,0.568462610244751,0.4448965787887573,0.4344381093978882,0.5386843681335449,0.5333608388900757,1.9537770748138428,-1.1981128454208374,-1.4000686407089233,10.26548957824707,2.6775145530700684,-0.5809094905853271,0.5353617668151855,0.21675007045269012,26.870254516601562,-18.894058227539062,-10.468363761901855,0.001450181007385254,-0.0544281005859375,0.0749819278717041,-1.4015188217163086,10.319917678833008,2.6025326251983643
3_20251106_150809,1762412856379,3,0.5681052207946777,0.4405084252357483,0.4330984950065613,0.5437228083610535,0.5278713703155518,1.963649034500122,-1.1636484861373901,-1.452738881111145,10.264291763305664,2.9707915782928467,-0.6652088165283203,0.5762897729873657,0.171546071767807,26.659751892089844,-18.981689453125,-10.599931716918945,-0.04097604751586914,-0.044501304626464844,0.29460692405700684,-1.4117628335952759,10.308793067932129,2.67618465423584
3_20251106_150809,1762412856398,3,0.5682504177093506,0.4354126751422882,0.43163809180259705,0.5488131046295166,0.5226501822471619,1.9720410108566284,-1.1307555437088013,-1.5257588624954224,10.108675003051758,3.43764066696167,-0.689643383026123,0.6538695096969604,0.13855940103530884,26.42249298095703,-19.08576202392578,-10.502967834472656,-0.09119689464569092,-0.16009521484375,0.6091647148132324,-1.4345619678497314,10.268770217895508,2.8284759521484375
3_20251106_150809,1762412856418,3,0.5685720443725586,0.42939844727516174,0.4303775727748871,0.554182231426239,0.5170763731002808,1.9798121452331543,-1.094168782234192,-1.4551328420639038,9.911162376403809,3.4424290657043457,-0.6578784584999084,0.7888706922531128,0.14711150527000427,26.207477569580078,-19.237525939941406,-10.500692367553711,-0.01645660400390625,-0.2860860824584961,0.4911623001098633,-1.4386762380599976,10.197248458862305,2.9512667655944824
3_20251106_150809,1762412856437,3,0.568414032459259,0.42271688580513,0.4297994077205658,0.5599003434181213,0.5121024250984192,1.9860447645187378,-1.058660626411438,-1.3330339193344116,9.818989753723145,3.198230743408203,-0.6688740253448486,0.9385325312614441,0.19659152626991272,25.92852783203125,-19.432144165039062,-10.380014419555664,0.08451390266418457,-0.30260658264160156,0.1975712776184082,-1.4175478219985962,10.121596336364746,3.000659465789795
3_20251106_150809,1762412856455,3,0.5672511458396912,0.4152761697769165,0.4300876259803772,0.5663889646530151,0.5086826682090759,1.9911620616912842,-1.0277379751205444,-1.0792595148086548,10.035654067993164,3.2293543815612793,-0.7476755380630493,1.0106145143508911,0.27600395679473877,25.92852783203125,-19.432144165039062,-10.380014419555664,0.27063071727752686,-0.06875419616699219,0.18295574188232422,-1.3498902320861816,10.104408264160156,3.046398639678955
3_20251106_150809,1762412856475,3,0.5654869079589844,0.40735897421836853,0.4303284287452698,0.5736729502677917,0.5066234469413757,1.9970678091049194,-0.9933475852012634,-0.8398496508598328,10.27027702331543,3.6219866275787354,-0.8228119611740112,0.9916777610778809,0.32242968678474426,25.684627532958984,-19.649635314941406,-10.244876861572266,0.40803247690200806,0.13269519805908203,0.46047043800354004,-1.2478821277618408,10.137581825256348,3.1615161895751953
3_20251106_150809,1762412856495,3,0.5634071826934814,0.3990916311740875,0.42995262145996094,0.5817550420761108,0.5060859322547913,2.0025103092193604,-0.9581342339515686,-0.7811941504478455,10.082340240478516,3.9978599548339844,-0.8093729019165039,0.926315188407898,0.3193753659725189,25.421894073486328,-19.768386840820312,-10.0950927734375,0.37335044145584106,-0.044193267822265625,0.6690750122070312,-1.1545445919036865,10.126533508300781,3.328784942626953
3_20251106_150809,1762412856513,3,0.5613853931427002,0.39089253544807434,0.42899635434150696,0.5899251103401184,0.5063157677650452,2.0062148571014404,-0.9259430766105652,-0.874563992023468,9.741180419921875,4.175023078918457,-0.7458429336547852,0.8743916749954224,0.2900538742542267,25.215370178222656,-19.959182739257812,-9.876858711242676,0.22398442029953003,-0.30828285217285156,0.6769905090332031,-1.098548412322998,10.049463272094727,3.498032569885254
3_20251106_150809,1762412856531,3,0.5594767928123474,0.38323381543159485,0.427947461605072,0.5974767804145813,0.506729006767273,2.0092079639434814,-0.8933937549591064,-1.019407033920288,9.835748672485352,4.297122001647949,-0.764168918132782,0.9287586808204651,0.264397531747818,24.996349334716797,-20.162796020507812,-9.713443756103516,0.06331312656402588,-0.17097187042236328,0.6392714977264404,-1.082720160484314,10.006720542907715,3.657850503921509
3_20251106_150809,1762412856552,3,0.5575418472290039,0.3755267560482025,0.4271525740623474,0.6047043800354004,0.5069659352302551,2.012714385986328,-0.8546581268310547,-1.1486883163452148,10.063186645507812,4.451541423797607,-0.8637398481369019,1.0374926328659058,0.24729330837726593,24.72515869140625,-20.432235717773438,-9.566826820373535,-0.05277454853057861,0.045172691345214844,0.6349525451660156,-1.0959137678146362,10.018013954162598,3.816588878631592
3_20251106_150809,1762412856569,3,0.5554611086845398,0.3666771948337555,0.4265249967575073,0.6124436855316162,0.5069659352302551,2.012714385986328,-0.8546581268310547,-1.1486883163452148,10.063186645507812,4.451541423797607,-0.9046677947044373,1.133398413658142,0.20880883932113647,24.414478302001953,-20.766036987304688,-9.504098892211914,-0.05277454853057861,0.045172691345214844,0.6349525451660156,-1.0959137678146362,10.018013954162598,3.816588878631592
3_20251106_150809,1762412856589,3,0.5533601641654968,0.35664132237434387,0.42597487568855286,0.6206004023551941,0.5069298148155212,2.0174436569213867,-0.7830836772918701,-1.1642498970031738,9.542470932006836,5.198500156402588,-0.9046677947044373,1.133398413658142,0.20880883932113647,24.12708282470703,-21.0997314453125,-9.29171085357666,-0.046033501625061035,-0.3863210678100586,0.9390087127685547,-1.1182163953781128,9.928791999816895,4.259491443634033
3_20251106_150809,1762412856608,3,0.550929605960846,0.3458458483219147,0.426124632358551,0.6287169456481934,0.5071746706962585,2.0170469284057617,-0.7446984052658081,-0.9954659938812256,9.19412899017334,5.302643775939941,-0.8222010135650635,1.278784155845642,0.2332434207201004,23.90644073486328,-21.34033966064453,-9.196669578552246,0.09820032119750977,-0.5877304077148438,0.8345217704772949,-1.0936663150787354,9.781859397888184,4.4681220054626465
3_20251106_150809,1762412856627,3,0.5478993654251099,0.334905207157135,0.4268415570259094,0.6367504000663757,0.5079460144042969,2.015763521194458,-0.7068328261375427,-0.8973079919815063,9.451496124267578,4.978242874145508,-0.8961156606674194,1.3698030710220337,0.3242622911930084,23.737773895263672,-21.51538848876953,-9.0577974319458,0.15708661079406738,-0.26429080963134766,0.4080967903137207,-1.0543946027755737,9.715786933898926,4.570146083831787
3_20251106_150809,1762412856646,3,0.5439566373825073,0.3235129117965698,0.42740532755851746,0.6455813050270081,0.5090572237968445,2.0162923336029053,-0.6696423292160034,-0.9164607524871826,10.352872848510742,5.01415491104126,-0.9596456289291382,1.3380380868911743,0.4384939968585968,23.463367462158203,-21.835594177246094,-8.858171463012695,0.11034703254699707,0.5096683502197266,0.3552069664001465,-1.0268077850341797,9.843204498291016,4.658947944641113
3_20251106_150809,1762412856666,3,0.5393272638320923,0.3118230104446411,0.4272753894329071,0.6552314162254333,0.5110387802124023,2.018559694290161,-0.6303603649139404,-0.7404944896697998,10.415119171142578,5.3469343185424805,-0.8985591530799866,1.3074947595596313,0.4537656009197235,23.2286376953125,-22.102783203125,-8.696566581726074,0.2290506362915039,0.4575319290161133,0.550389289855957,-0.9695451259613037,9.957587242126465,4.796545028686523
3_20251106_150809,1762412856686,3,0.5341048240661621,0.3007138669490814,0.4266076982021332,0.665063202381134,0.5110387802124023,2.018559694290161,-0.6303603649139404,-0.7404944896697998,10.415119171142578,5.3469343185424805,-0.7342365384101868,1.3142143487930298,0.38046184182167053,22.99753189086914,-22.307052612304688,-8.547158241271973,0.2290506362915039,0.4575319290161133,0.550389289855957,-0.9695451259613037,9.957587242126465,4.796545028686523
3_20251106_150809,1762412856704,3,0.5287895798683167,0.29016509652137756,0.42673033475875854,0.6738597750663757,0.5132454633712769,2.0222785472869873,-0.5883168578147888,-0.9008991122245789,10.392375946044922,5.649787902832031,-0.6151179075241089,1.3423141241073608,0.34442082047462463,22.83883285522461,-22.519119262695312,-8.395071983337402,0.05491679906845093,0.34783172607421875,0.6825942993164062,-0.9558159112930298,10.044544219970703,4.967193603515625
3_20251106_150809,1762412856724,3,0.523231565952301,0.27993056178092957,0.4280036389827728,0.6816747784614563,0.517523467540741,2.030134439468384,-0.5143386721611023,-0.7596472501754761,10.267882347106934,5.6773200035095215,-0.6151179075241089,1.3423141241073608,0.34442082047462463,22.679840087890625,-22.731582641601562,-8.202436447143555,0.15178728103637695,0.13565826416015625,0.441648006439209,-0.911434531211853,10.132224082946777,5.2356719970703125
3_20251106_150809,1762412856742,3,0.5173426270484924,0.2697041928768158,0.4298761785030365,0.6890738010406494,0.520595371723175,2.0346508026123047,-0.4798649549484253,-0.5417842864990234,10.443849563598633,5.421151161193848,-0.5821312069892883,1.433332920074463,0.33281436562538147,22.472412109375,-22.935211181640625,-7.957433700561523,0.2957201600074768,0.2493000030517578,0.14838314056396484,-0.8375044465065002,10.194549560546875,5.272768020629883
3_20251106_150809,1762412856761,3,0.511033296585083,0.2590939998626709,0.43197986483573914,0.6964974403381348,0.524395227432251,2.040346622467041,-0.4447438716888428,-0.5753016471862793,10.619815826416016,5.473821640014648,-0.5473119020462036,1.407065749168396,0.2955516278743744,22.286846160888672,-23.175460815429688,-7.658176422119141,0.20976227521896362,0.3402128219604492,0.1608428955078125,-0.7850639224052429,10.279603004455566,5.312978744506836
3_20251106_150809,1762412856780,3,0.5043759346008301,0.24824170768260956,0.4343242943286896,0.7038063406944275,0.5282225608825684,2.0470588207244873,-0.41010335087776184,-0.7057800889015198,10.753885269165039,5.777872085571289,-0.4648451507091522,1.3380380868911743,0.22713476419448853,22.050113677978516,-23.46857452392578,-7.41600227355957,0.06342709064483643,0.3794260025024414,0.3719148635864258,-0.7692071795463562,10.374459266662598,5.405957221984863
3_20251106_150809,1762412856799,3,0.4983765184879303,0.23808300495147705,0.43673965334892273,0.7100674510002136,0.5313823223114014,2.0544633865356445,-0.37567198276519775,-0.9427958726882935,10.749095916748047,5.961020469665527,-0.33961787819862366,1.3136035203933716,0.12634210288524628,21.988719940185547,-23.662940979003906,-7.1380815505981445,-0.1388709545135498,0.2997093200683594,0.44405078887939453,-0.8039249181747437,10.449386596679688,5.516969680786133
3_20251106_150809,1762412856818,3,0.4929191470146179,0.22844544053077698,0.43968772888183594,0.7152049541473389,0.5337206125259399,2.0614168643951416,-0.34250912070274353,-1.045742154121399,10.419907569885254,5.682107925415039,-0.22660790383815765,1.3826311826705933,0.07197514176368713,21.857948303222656,-23.787399291992188,-6.793938636779785,-0.19345378875732422,-0.023583412170410156,0.132110595703125,-0.8522883653640747,10.443490982055664,5.549997329711914
3_20251106_150809,1762412856837,3,0.48752427101135254,0.2187204211950302,0.4437844157218933,0.7194003462791443,0.5355360507965088,2.067126989364624,-0.3113020658493042,-1.0002542734146118,10.117053985595703,5.441501140594482,-0.22660790383815765,1.3826311826705933,0.07197514176368713,21.845916748046875,-23.954551696777344,-6.405398368835449,-0.11837273836135864,-0.26114940643310547,-0.08679723739624023,-0.8818815350532532,10.378203392028809,5.528298377990723
3_20251106_150809,1762412856858,3,0.48153913021087646,0.20879729092121124,0.4488224685192108,0.7232441902160645,0.5374346971511841,2.0715932846069336,-0.2782558500766754,-0.8841403722763062,9.92193603515625,5.611482620239258,-0.11970657855272293,1.3410923480987549,0.15505273640155792,21.823013305664062,-24.097518920898438,-6.003304481506348,-0.001807093620300293,-0.36501407623291016,0.06654739379882812,-0.8823332786560059,10.28695011138916,5.54493522644043
3_20251106_150809,1762412856876,3,0.4751954972743988,0.19959063827991486,0.45385247468948364,0.7268911600112915,0.5389821529388428,2.0741310119628906,-0.2514953911304474,-0.8817463517189026,9.840536117553711,5.48459529876709,-0.06106356531381607,1.2928341627120972,0.15383100509643555,21.823013305664062,-24.097518920898438,-6.003304481506348,0.00046950578689575195,-0.3571310043334961,-0.048272132873535156,-0.8822158575057983,10.197667121887207,5.532867431640625
3_20251106_150809,1762412856895,3,0.4687819480895996,0.19114242494106293,0.45870596170425415,0.7302718162536621,0.5403479933738708,2.075511932373047,-0.22533820569515228,-0.9499781131744385,9.7735013961792,5.285884857177734,0.02751181833446026,1.2574039697647095,0.11534653604030609,21.801334381103516,-24.204025268554688,-5.478772163391113,-0.05420982837677002,-0.33933258056640625,-0.1975860595703125,-0.8957682847976685,10.112833976745605,5.483470916748047
3_20251106_150809,1762412856914,3,0.46260353922843933,0.18326255679130554,0.46383920311927795,0.7329843044281006,0.5414311289787292,2.075331211090088,-0.20143821835517883,-0.9739190936088562,9.568806648254395,5.137451171875,0.09104175865650177,1.2164759635925293,0.10251837968826294,21.782882690429688,-24.248153686523438,-4.912370681762695,-0.06252062320709229,-0.43522167205810547,-0.27681589126586914,-0.9113984704017639,10.0040283203125,5.414267063140869
3_20251106_150809,1762412856934,3,0.4563688039779663,0.17568524181842804,0.4694536626338959,0.7351703643798828,0.54218590259552,2.073547124862671,-0.17807044088840485,-1.0194069147109985,9.476633071899414,5.239199638366699,0.09104175865650177,1.2164759635925293,0.10251837968826294,21.789409637451172,-24.278274536132812,-4.331208229064941,-0.08640676736831665,-0.42191600799560547,-0.14005374908447266,-0.9330001473426819,9.89854907989502,5.379253387451172
3_20251106_150809,1762412856951,3,0.4501667320728302,0.1686585396528244,0.4751909673213959,0.7369516491889954,0.543163001537323,2.071345567703247,-0.15966106951236725,-0.7656325101852417,9.552047729492188,5.169771194458008,0.16434551775455475,1.2262498140335083,0.1819307804107666,21.77126693725586,-24.310386657714844,-3.710477828979492,0.13389408588409424,-0.27720069885253906,-0.1675858497619629,-0.8995265960693359,9.829248428344727,5.337357044219971
3_20251106_150809,1762412856971,3,0.44350653886795044,0.16180746257305145,0.48113054037094116,0.7386702299118042,0.5456410050392151,2.068235158920288,-0.13935516774654388,-0.4436262845993042,9.615490913391113,5.248776435852051,0.17961713671684265,1.1773806810379028,0.2753930985927582,21.729766845703125,-24.31951141357422,-3.036134719848633,0.36472028493881226,-0.1710062026977539,-0.07086420059204102,-0.8083465695381165,9.786497116088867,5.319640636444092
3_20251106_150809,1762412856990,3,0.436148464679718,0.15539711713790894,0.4869493842124939,0.740612268447876,0.5493016839027405,2.065480947494507,-0.12097391486167908,-0.2892068922519684,9.805821418762207,5.339752197265625,0.17961713671684265,1.1773806810379028,0.2753930985927582,21.720706939697266,-24.389846801757812,-2.2805442810058594,0.415311723947525,0.015459060668945312,0.016089439392089844,-0.7045186161994934,9.790362358093262,5.323662757873535
3_20251106_150809,1762412857011,3,0.4283773899078369,0.15019921958446503,0.49235302209854126,0.7426449656486511,0.5545293688774109,2.0628817081451416,-0.10102589428424835,-0.29160094261169434,9.877645492553711,5.516915321350098,0.22543199360370636,1.0570403337478638,0.33892303705215454,21.62704849243164,-24.45318603515625,-1.5281219482421875,0.3303341269493103,0.06982612609863281,0.15460205078125,-0.6219350695610046,9.807819366455078,5.362313270568848
3_20251106_150809,1762412857028,3,0.4210330843925476,0.14625459909439087,0.49756258726119995,0.7441587448120117,0.5590964555740356,2.06056547164917,-0.08592639863491058,-0.3730003237724304,9.663372993469238,5.2523674964904785,0.3011792302131653,0.9385325312614441,0.27783653140068054,21.48516845703125,-24.495803833007812,-0.655487060546875,0.19914782047271729,-0.11555767059326172,-0.08795690536499023,-0.5721481442451477,9.7789306640625,5.340324401855469
3_20251106_150809,1762412857048,3,0.41466718912124634,0.14265543222427368,0.5031187534332275,0.7446959614753723,0.5643987059593201,2.0564136505126953,-0.07043870538473129,-0.5070698261260986,9.264755249023438,4.883676528930664,0.44106724858283997,0.8658396005630493,0.022495094686746597,21.406333923339844,-24.49677276611328,0.22039222717285156,0.05206263065338135,-0.41133975982666016,-0.36531829833984375,-0.55913245677948,9.676095008850098,5.248994827270508
3_20251106_150809,1762412857066,3,0.40916043519973755,0.138778418302536,0.5092805624008179,0.7442859411239624,0.5689718723297119,2.0513763427734375,-0.05866222828626633,-0.5429813265800476,9.072030067443848,4.653842926025391,0.40563711524009705,0.8016988039016724,-0.01721111312508583,21.31269073486328,-24.548492431640625,1.0676918029785156,0.012920916080474854,-0.48325252532958984,-0.4761214256286621,-0.5559022426605225,9.555282592773438,5.129964351654053
3_20251106_150809,1762412857086,3,0.40443721413612366,0.13485994935035706,0.5153953433036804,0.7433781027793884,0.5735836625099182,2.0445938110351562,-0.0475006029009819,-0.626774787902832,9.073227882385254,4.712498188018799,0.33294418454170227,0.705793023109436,0.006612611934542656,21.168792724609375,-24.628639221191406,1.9260177612304688,-0.05669808387756348,-0.38564395904541016,-0.3339729309082031,-0.5700767040252686,9.458871841430664,5.046471118927002
3_20251106_150809,1762412857105,3,0.4001074731349945,0.13117654621601105,0.5207418203353882,0.7426538467407227,0.5774227380752563,2.0371780395507812,-0.03847489506006241,-0.6878242492675781,8.987039566040039,4.664616107940674,0.32255950570106506,0.6056112051010132,0.04509709030389786,21.10324478149414,-24.61572265625,2.748586654663086,-0.09419804811477661,-0.37746620178222656,-0.3054842948913574,-0.5936262011528015,9.364505767822266,4.970100402832031
3_20251106_150809,1762412857125,3,0.3960537016391754,0.12815484404563904,0.525267481803894,0.7421669960021973,0.58073890209198,2.0287094116210938,-0.030872764065861702,-0.7656325697898865,9.018163681030273,4.50181770324707,0.37020695209503174,0.4858818054199219,0.07686205208301544,21.02368927001953,-24.64086151123047,3.5293235778808594,-0.13760513067245483,-0.27707386016845703,-0.37462615966796875,-0.6280274391174316,9.29523754119873,4.876443862915039
3_20251106_150809,1762412857144,3,0.39231154322624207,0.12621915340423584,0.5294647216796875,0.7415035367012024,0.5831308960914612,2.0209171772003174,-0.02544691041111946,-0.8470318913459778,9.240814208984375,4.353383541107178,0.37020695209503174,0.4858818054199219,0.07686205208301544,20.89891815185547,-24.606399536132812,4.309419631958008,-0.17520356178283691,-0.04353904724121094,-0.41844844818115234,-0.6718283295631409,9.284353256225586,4.77183198928833
3_20251106_150809,1762412857161,3,0.38874295353889465,0.12507803738117218,0.5336251258850098,0.740593433380127,0.5847030282020569,2.0138747692108154,-0.02249544858932495,-0.8817462921142578,9.09357738494873,4.015815734863281,0.42762821912765503,0.4229627251625061,-0.01782197877764702,20.7791748046875,-24.483901977539062,5.077846527099609,-0.16793441772460938,-0.1526203155517578,-0.6048130989074707,-0.7138118743896484,9.246197700500488,4.620628833770752
3_20251106_150809,1762412857182,3,0.38552549481391907,0.12386475503444672,0.5379729270935059,0.7393326163291931,0.5847030282020569,2.0138747692108154,-0.02249544858932495,-0.8817462921142578,9.09357738494873,4.015815734863281,0.43129339814186096,0.38020220398902893,-0.0856279581785202,20.63162612915039,-24.437255859375,5.735578536987305,-0.16793441772460938,-0.1526203155517578,-0.6048130989074707,-0.7138118743896484,9.246197700500488,4.620628833770752
3_20251106_150809,1762412857201,3,0.3833388686180115,0.1227019801735878,0.542417585849762,0.7374135255813599,0.5850220918655396,1.9967167377471924,-0.022650133818387985,-1.2348757982254028,8.911624908447266,3.8566081523895264,0.3928089439868927,0.32217004895210266,-0.09662352502346039,20.48979949951172,-24.30162811279297,6.287027359008789,-0.3637423515319824,-0.21642589569091797,-0.4793970584869385,-0.8711334466934204,9.128050804138184,4.336005210876465
3_20251106_150809,1762412857219,3,0.38149508833885193,0.12146560102701187,0.5466310381889343,0.7354604601860046,0.5850220918655396,1.9967167377471924,-0.022650133818387985,-1.2348757982254028,8.911624908447266,3.8566081523895264,0.38486769795417786,0.2635270357131958,-0.08990401029586792,20.407394409179688,-24.187278747558594,6.853918075561523,-0.3637423515319824,-0.21642589569091797,-0.4793970584869385,-0.8711334466934204,9.128050804138184,4.336005210876465
3_20251106_150809,1762412857238,3,0.37987881898880005,0.12042878568172455,0.550383448600769,0.7336668372154236,0.5806093811988831,1.9778426885604858,-0.027910716831684113,-1.3749306201934814,8.784738540649414,3.7740116119384766,0.43068256974220276,0.20060798525810242,-0.10151045024394989,20.303634643554688,-24.024017333984375,7.393850326538086,-0.33794403076171875,-0.23331832885742188,-0.38706445693969727,-1.0369865894317627,9.018056869506836,4.161076068878174
3_20251106_150809,1762412857259,3,0.3785954415798187,0.11987226456403732,0.5540543794631958,0.7316555976867676,0.5767004489898682,1.9681692123413086,-0.032562579959630966,-1.531744122505188,8.727279663085938,3.564527988433838,0.4392346441745758,0.16212350130081177,-0.11983639001846313,20.188182830810547,-23.860877990722656,7.865711212158203,-0.3958059549331665,-0.2326221466064453,-0.47723865509033203,-1.1359381675720215,8.959901809692383,4.04176664352417
3_20251106_150809,1762412857278,3,0.3776334524154663,0.11969171464443207,0.5577895045280457,0.7293406128883362,0.5704871416091919,1.95712411403656,-0.03980482369661331,-1.7651686668395996,8.69495964050293,3.3382859230041504,0.40502622723579407,0.1499062180519104,-0.13022109866142273,20.015830993652344,-23.62664031982422,8.36373519897461,-0.5033843517303467,-0.21195411682128906,-0.5627846717834473,-1.261784315109253,8.906913757324219,3.9010705947875977
3_20251106_150809,1762412857297,3,0.37686073780059814,0.119437575340271,0.5613504648208618,0.7270463109016418,0.5636370182037354,1.947620153427124,-0.04767740145325661,-1.9890168905258179,8.699748992919922,3.0988759994506836,0.38486769795417786,0.12241729348897934,-0.1363297402858734,19.916175842285156,-23.411399841308594,8.729011535644531,-0.581786036491394,-0.16573143005371094,-0.6417555809020996,-1.4072308540344238,8.865480422973633,3.740631580352783
3_20251106_150809,1762412857316,3,0.37635135650634766,0.11917237937450409,0.5646548271179199,0.7247913479804993,0.5636370182037354,1.947620153427124,-0.04767740145325661,-1.9890168905258179,8.699748992919922,3.0988759994506836,0.38486769795417786,0.12241729348897934,-0.1363297402858734,19.916175842285156,-23.411399841308594,8.729011535644531,-0.581786036491394,-0.16573143005371094,-0.6417555809020996,-1.4072308540344238,8.865480422973633,3.740631580352783
3_20251106_150809,1762412857335,3,0.3759290874004364,0.11891279369592667,0.5678202509880066,0.7225767970085144,0.5537861585617065,1.9375319480895996,-0.05781455710530281,-2.2691264152526855,8.84698486328125,3.139575481414795,0.3628765642642975,0.11447605490684509,-0.14427098631858826,19.81098175048828,-23.296485900878906,9.07866096496582,-0.6895164251327515,-0.014796257019042969,-0.48084497451782227,-1.579609990119934,8.861781120300293,3.620420455932617
3_20251106_150809,1762412857355,3,0.375711590051651,0.1186959519982338,0.570872962474823,0.7203167080879211,0.5410230755805969,1.927900791168213,-0.06922101974487305,-2.4558663368225098,8.990631103515625,3.234142541885376,0.3561570346355438,0.20060798525810242,-0.12044724822044373,19.796527862548828,-23.075820922851562,9.460886001586914,-0.7010051012039185,0.10307979583740234,-0.3090221881866455,-1.7548612356185913,8.887551307678223,3.5431647300720215
3_20251106_150809,1762412857372,3,0.37501171231269836,0.11786626279354095,0.574076235294342,0.7182689309120178,0.5170366764068604,1.913049578666687,-0.09158488363027573,-2.3062350749969482,8.806285858154297,2.588932991027832,0.3567679226398468,0.20854923129081726,-0.04653261974453926,19.71783447265625,-22.91002655029297,9.907184600830078,-0.3297044038772583,-0.0723114013671875,-0.6628038883209229,-1.97653067111969,8.878597259521484,3.251736879348755
3_20251106_150809,1762412857392,3,0.3736536502838135,0.11688823997974396,0.5774418115615845,0.7164363265037537,0.503075122833252,1.904442548751831,-0.10680481791496277,-2.230821132659912,8.663837432861328,2.477607250213623,0.34516146779060364,0.12669333815574646,0.04387536272406578,19.628250122070312,-22.731666564941406,10.272159576416016,-0.20343232154846191,-0.17180824279785156,-0.6193037033081055,-2.02738881111145,8.83564567565918,3.0969109535217285
3_20251106_150809,1762412857410,3,0.37183091044425964,0.11664806306362152,0.580548882484436,0.714911162853241,0.503075122833252,1.904442548751831,-0.10680481791496277,-2.230821132659912,8.663837432861328,2.477607250213623,0.35004839301109314,0.042394008487463,0.08174897730350494,19.585887908935547,-22.586990356445312,10.557207107543945,-0.20343232154846191,-0.17180824279785156,-0.6193037033081055,-2.02738881111145,8.83564567565918,3.0969109535217285
3_20251106_150809,1762412857430,3,0.37004441022872925,0.11744443327188492,0.5832183361053467,0.7135336995124817,0.47700628638267517,1.8857804536819458,-0.1404925435781479,-2.199697494506836,8.218534469604492,2.040684223175049,0.35493531823158264,-0.02052505500614643,0.02860374189913273,19.570026397705078,-22.391441345214844,10.938905715942383,-0.10548949241638184,-0.4322986602783203,-0.7123754024505615,-2.094208002090454,8.650833129882812,2.7530596256256104
3_20251106_150809,1762412857449,3,0.3688039183616638,0.11883135139942169,0.5856695175170898,0.7119368314743042,0.4646008014678955,1.8744186162948608,-0.1600533127784729,-2.1601948738098145,7.915679931640625,1.730648398399353,0.3207269012928009,-0.038850996643304825,-0.08746054768562317,19.587989807128906,-22.255218505859375,11.212625503540039,-0.05278944969177246,-0.5881223678588867,-0.8179289102554321,-2.107405424118042,8.503802299499512,2.548577308654785
3_20251106_150809,1762412857468,3,0.3684619069099426,0.1199350580573082,0.5880221128463745,0.7099868655204773,0.4646008014678955,1.8744186162948608,-0.1600533127784729,-2.1601948738098145,7.915679931640625,1.730648398399353,0.2645273506641388,-0.06389644742012024,-0.20596832036972046,19.592763900756836,-22.13275146484375,11.526140213012695,-0.05278944969177246,-0.5881223678588867,-0.8179289102554321,-2.107405424118042,8.503802299499512,2.548577308654785
3_20251106_150809,1762412857487,3,0.3690270483493805,0.12022499740123749,0.5901556015014648,0.7078709602355957,0.45111724734306335,1.8594985008239746,-0.1845090240240097,-2.243988513946533,7.611629486083984,1.3799128532409668,0.2645273506641388,-0.06389644742012024,-0.20596832036972046,19.626140594482422,-21.933349609375,11.842218399047852,-0.10926651954650879,-0.7137384414672852,-0.934931755065918,-2.1347219944000244,8.32536792755127,2.3148446083068848
3_20251106_150809,1762412857507,3,0.37065431475639343,0.12001679092645645,0.5918728113174438,0.7056187987327576,0.4271892309188843,1.8337620496749878,-0.2278829663991928,-2.6833057403564453,8.414850234985352,1.8132448196411133,0.028122683987021446,-0.09871573746204376,-0.372734397649765,19.63735580444336,-21.697731018066406,12.14459228515625,-0.39552807807922363,0.1557149887084961,-0.2785046100616455,-2.2877776622772217,8.259135246276855,2.091749429702759
3_20251106_150809,1762412857526,3,0.3730911910533905,0.11905606836080551,0.5928570628166199,0.7036683559417725,0.41194215416908264,1.8231923580169678,-0.24986819922924042,-3.0388293266296387,9.050483703613281,2.3495230674743652,-0.1520824134349823,-0.04679223522543907,-0.3941146433353424,19.744220733642578,-21.516250610351562,12.219793319702148,-0.6008412837982178,0.6330785751342773,0.20621895790100098,-2.437988042831421,8.417405128479004,2.1433041095733643
3_20251106_150809,1762412857547,3,0.37584808468818665,0.11680055409669876,0.5927637219429016,0.7026571035385132,0.3938728868961334,1.8158220052719116,-0.26958274841308594,-3.2914066314697266,9.364110946655273,2.8044018745422363,-0.22111013531684875,0.005742128472775221,-0.31531307101249695,19.88965606689453,-21.29485321044922,12.310773849487305,-0.6827349662780762,0.7573642730712891,0.5288782119750977,-2.6086716651916504,8.606746673583984,2.2755236625671387
3_20251106_150809,1762412857566,3,0.3783406913280487,0.11385775357484818,0.5918832421302795,0.702544629573822,0.37827473878860474,1.8120145797729492,-0.2831697463989258,-3.3835794925689697,9.453888893127441,2.9923386573791504,-0.13436733186244965,0.006352993194013834,-0.17420333623886108,20.01001739501953,-21.087600708007812,12.400508880615234,-0.6199262142181396,0.6777133941650391,0.5734519958496094,-2.76365327835083,8.776175498962402,2.418886661529541
3_20251106_150809,1762412857582,3,0.37985503673553467,0.11139661818742752,0.5909882187843323,0.7028754353523254,0.3610760271549225,1.8095557689666748,-0.29541870951652527,-3.376397132873535,9.332986831665039,2.994732618331909,0.013461930677294731,-0.024801107123494148,-0.05080867186188698,20.077091217041016,-20.97088623046875,12.432369232177734,-0.49019503593444824,0.4454488754272461,0.4606766700744629,-2.886202096939087,8.887537956237793,2.5340559482574463
3_20251106_150809,1762412857601,3,0.3803893029689789,0.11027584224939346,0.5907276272773743,0.7029823064804077,0.34253063797950745,1.8079969882965088,-0.3069271445274353,-3.3596384525299072,9.218070030212402,2.8163721561431885,0.11914151906967163,-0.04068358987569809,0.032879795879125595,20.193912506103516,-20.838027954101562,12.425907135009766,-0.37874913215637207,0.26442527770996094,0.22585296630859375,-2.980889320373535,8.953644752502441,2.5905191898345947
3_20251106_150809,1762412857621,3,0.38022172451019287,0.11039700359106064,0.5911500453948975,0.7026987671852112,0.32308492064476013,1.8069109916687012,-0.31890618801116943,-3.2770421504974365,9.109138488769531,2.4357106685638428,0.13502401113510132,-0.002199112670496106,0.06403389573097229,20.248294830322266,-20.734390258789062,12.429981231689453,-0.2369222640991211,0.12439537048339844,-0.12384676933288574,-3.0401198863983154,8.984743118286133,2.5595574378967285
3_20251106_150809,1762412857640,3,0.3798663318157196,0.11126536875963211,0.5919178128242493,0.7021074891090393,0.3051183223724365,1.806337833404541,-0.3305891156196594,-3.192051410675049,9.133079528808594,2.241788625717163,0.08126792311668396,0.07476983964443207,0.06525562703609467,20.36370849609375,-20.62664794921875,12.422990798950195,-0.12154507637023926,0.11866950988769531,-0.2542150020599365,-3.0705063343048096,9.014410018920898,2.4960036277770996
