session_id,timestamp,label,quaternion_w,quaternion_x,quaternion_y,quaternion_z,position_x,position_y,position_z,accelerometer_x,accelerometer_y,accelerometer_z,gyroscope_x,gyroscope_y,gyroscope_z,magnetometer_x,magnetometer_y,magnetometer_z,linear_acceleration_x,linear_acceleration_y,linear_acceleration_z,gravity_x,gravity_y,gravity_z
3_20251106_214940,1762436942819,3,0.287018358707428,0.48843881487846375,0.6902063488960266,0.4501812756061554,0.17482179403305054,2.3311209678649902,2.172175884246826,0.8025021553039551,7.760064125061035,-3.793734550476074,0.2873775064945221,-0.018677188083529472,-0.19090668857097626,30.941736221313477,-17.184532165527344,24.169662475585938,0.402800977230072,1.4929084777832031,-1.2861948013305664,0.39970117807388306,6.267155647277832,-2.507539749145508
3_20251106_214940,1762436942840,3,0.2869803011417389,0.48688971996307373,0.6922194957733154,0.44879043102264404,0.1447610855102539,2.353029727935791,1.9894163608551025,0.04476989805698395,7.840266227722168,-4.018779754638672,0.006990582682192326,0.10655009001493454,-0.1884632259607315,31.010643005371094,-17.018936157226562,24.33774185180664,-0.27216506004333496,1.0274758338928223,-0.9846229553222656,0.3169349730014801,6.812790393829346,-3.0341567993164062
3_20251106_214940,1762436942857,3,0.286841481924057,0.484931081533432,0.693638265132904,0.44880926609039307,0.13126878440380096,2.365931749343872,1.909974455833435,0.02681417018175125,7.857025146484375,-4.07623815536499,-0.11762581765651703,0.1193782389163971,-0.07667497545480728,31.010643005371094,-17.018936157226562,24.33774185180664,-0.23209667205810547,0.8353877067565918,-0.833665132522583,0.2589108347892761,7.021637439727783,-3.2425730228424072
3_20251106_214940,1762436942876,3,0.28674963116645813,0.4832785129547119,0.6940715909004211,0.4499790370464325,0.11589843034744263,2.3838300704956055,1.8193762302398682,0.16327780485153198,8.165863990783691,-3.8380253314971924,-0.26545509696006775,0.09250019490718842,0.051606617867946625,31.017000198364258,-16.894309997558594,24.434993743896484,-0.07650643587112427,0.9153814315795898,-0.4763617515563965,0.23978424072265625,7.250482559204102,-3.361663579940796
3_20251106_214940,1762436942895,3,0.28694114089012146,0.4821600317955017,0.6932305097579956,0.45234715938568115,0.10238166898488998,2.4040122032165527,1.736839771270752,0.36917030811309814,8.718900680541992,-3.6429061889648438,-0.38946062326431274,0.1346498429775238,0.14445804059505463,31.030101776123047,-16.86907196044922,24.50359344482422,0.103508859872818,1.1747345924377441,-0.22499418258666992,0.26566144824028015,7.544166088104248,-3.417912006378174
3_20251106_214940,1762436942913,3,0.28703221678733826,0.48111823201179504,0.6914949417114258,0.45604002475738525,0.09132037311792374,2.42590594291687,1.662663221359253,0.7139204740524292,9.058862686157227,-3.374767303466797,-0.4083974361419678,0.10044143348932266,0.16889263689517975,31.00704002380371,-16.845680236816406,24.51665496826172,0.3586072325706482,1.2117571830749512,0.0345158576965332,0.355313241481781,7.847105503082275,-3.40928316116333
3_20251106_214940,1762436942932,3,0.2873162627220154,0.48029398918151855,0.6894263029098511,0.45984604954719543,0.08164574205875397,2.451615333557129,1.5893014669418335,0.8719310164451599,9.215677261352539,-3.037199020385742,-0.2978309094905853,0.03385717794299126,0.15911878645420074,30.94692611694336,-16.825347900390625,24.595829010009766,0.41329425573349,1.0948572158813477,0.2976672649383545,0.4586367607116699,8.120820045471191,-3.3348662853240967
3_20251106_214940,1762436942952,3,0.2877461910247803,0.48029354214668274,0.6874325275421143,0.4625546634197235,0.08164574205875397,2.451615333557129,1.5893014669418335,0.8719310164451599,9.215677261352539,-3.037199020385742,-0.14144954085350037,0.010644317604601383,0.1560644656419754,30.88489532470703,-16.84241485595703,24.647178649902344,0.41329425573349,1.0948572158813477,0.2976672649383545,0.4586367607116699,8.120820045471191,-3.3348662853240967
3_20251106_214940,1762436942970,3,0.2873706817626953,0.4803929626941681,0.6863037943840027,0.4643573760986328,0.06686685979366302,2.508749008178711,1.45429265499115,0.7187086939811707,9.38326358795166,-3.305338144302368,-0.06448058784008026,-0.008292488753795624,0.16522744297981262,30.857999801635742,-16.893829345703125,24.604591369628906,0.1336948275566101,0.8217544555664062,-0.014427900314331055,0.5850138664245605,8.561509132385254,-3.290910243988037
3_20251106_214940,1762436942991,3,0.28673309087753296,0.4808782637119293,0.6854047775268555,0.46557551622390747,0.059886738657951355,2.540343761444092,1.3885666131973267,0.572668731212616,9.373686790466309,-3.354417324066162,-0.07425442337989807,0.0265268012881279,0.20065759122371674,30.703914642333984,-17.0416259765625,24.609317779541016,-0.009876132011413574,0.6497421264648438,-0.05080556869506836,0.5825448632240295,8.723944664001465,-3.3036117553710938
3_20251106_214940,1762436943010,3,0.28578540682792664,0.4814133644104004,0.6844223737716675,0.4670480489730835,0.054003454744815826,2.570542097091675,1.3286464214324951,0.7342703342437744,9.337775230407715,-3.5232009887695312,-0.07425442337989807,0.0265268012881279,0.20065759122371674,30.580142974853516,-17.29991912841797,24.599624633789062,0.12138038873672485,0.49106407165527344,-0.17567133903503418,0.6128899455070496,8.846711158752441,-3.347529649734497
3_20251106_214940,1762436943030,3,0.28451356291770935,0.4819764494895935,0.6831892132759094,0.4690450429916382,0.04886672645807266,2.6041769981384277,1.2647241353988647,0.9234040975570679,9.421568870544434,-3.6476941108703613,-0.13839522004127502,0.09983057528734207,0.28251349925994873,30.446300506591797,-17.521331787109375,24.590232849121094,0.2484113574028015,0.4598855972290039,-0.24013137817382812,0.6749927401542664,8.96168327331543,-3.407562732696533
3_20251106_214940,1762436943048,3,0.28304776549339294,0.48263072967529297,0.6817156672477722,0.47139716148376465,0.046020761132240295,2.633098840713501,1.2118932008743286,1.2178783416748047,9.584367752075195,-3.7243056297302246,-0.13778436183929443,0.0882241427898407,0.26113322377204895,30.299665451049805,-17.755958557128906,24.566570281982422,0.4343085289001465,0.49814796447753906,-0.25339436531066895,0.7835698127746582,9.086219787597656,-3.4709112644195557
3_20251106_214940,1762436943067,3,0.2816786468029022,0.48317113518714905,0.6803420186042786,0.47364282608032227,0.046020761132240295,2.633098840713501,1.2118932008743286,1.2178783416748047,9.584367752075195,-3.7243056297302246,-0.04920897260308266,0.034468043595552444,0.18782943487167358,30.217681884765625,-17.923561096191406,24.51964569091797,0.4343085289001465,0.49814796447753906,-0.25339436531066895,0.7835698127746582,9.086219787597656,-3.4709112644195557
3_20251106_214940,1762436943086,3,0.2805737555027008,0.4837995767593384,0.6795005798339844,0.4748634397983551,0.045068349689245224,2.6666829586029053,1.1528748273849487,1.4405295848846436,9.542470932006836,-3.609388828277588,-0.04920897260308266,0.034468043595552444,0.18782943487167358,30.12230110168457,-18.116806030273438,24.444671630859375,0.5255678296089172,0.36500072479248047,-0.11078214645385742,0.9149617552757263,9.177470207214355,-3.4986066818237305
3_20251106_214940,1762436943105,3,0.2795121669769287,0.48439517617225647,0.6794001460075378,0.47502604126930237,0.047379542142152786,2.722446918487549,1.0571274757385254,1.503973126411438,9.52212142944336,-4.028356075286865,0.06257927417755127,0.003924805670976639,0.10780616849660873,30.00316619873047,-18.28760528564453,24.477375030517578,0.38309621810913086,0.21674633026123047,-0.39668965339660645,1.1208769083023071,9.305375099182129,-3.631666421890259
3_20251106_214940,1762436943124,3,0.2781347632408142,0.48477473855018616,0.6796831488609314,0.475042462348938,0.05036313459277153,2.750288963317871,1.0072232484817505,1.5757960081100464,9.398824691772461,-4.543087482452393,0.08090521395206451,0.05829176679253578,0.12368864566087723,29.882312774658203,-18.49553680419922,24.455223083496094,0.36393535137176514,0.07475948333740234,-0.7291367053985596,1.2118606567382812,9.324065208435059,-3.813950777053833
3_20251106_214940,1762436943143,3,0.2765110731124878,0.48528751730918884,0.6797861456871033,0.4753193259239197,0.05474037677049637,2.77646803855896,0.9600011706352234,1.8989994525909424,9.779486656188965,-4.751374244689941,0.08090521395206451,0.05829176679253578,0.12368864566087723,29.837902069091797,-18.636184692382812,24.46436309814453,0.5497109889984131,0.3643369674682617,-0.74993896484375,1.3492884635925293,9.415149688720703,-4.001435279846191
3_20251106_214940,1762436943162,3,0.2752229869365692,0.4866997301578522,0.6789034008979797,0.47588425874710083,0.05474037677049637,2.77646803855896,0.9600011706352234,1.8989994525909424,9.779486656188965,-4.751374244689941,0.00882317777723074,-0.002794706029817462,0.21959440410137177,29.821796417236328,-18.700302124023438,24.516616821289062,0.5497109889984131,0.3643369674682617,-0.74993896484375,1.3492884635925293,9.415149688720703,-4.001435279846191
3_20251106_214940,1762436943181,3,0.2745404839515686,0.48924392461776733,0.6772799491882324,0.4759829640388489,0.07541239261627197,2.835681915283203,0.8595370650291443,3.333064556121826,10.455820083618164,-4.854320526123047,0.20063470304012299,-0.4462825059890747,0.3057263493537903,29.713735580444336,-18.89501190185547,24.50873565673828,1.3870233297348022,0.7177410125732422,-0.5847268104553223,1.946041226387024,9.738079071044922,-4.269593715667725
3_20251106_214940,1762436943201,3,0.2746771275997162,0.4937478303909302,0.675613522529602,0.4736157953739166,0.09185996651649475,2.8662545680999756,0.8113744854927063,3.6897852420806885,10.722761154174805,-4.981207847595215,0.4382610619068146,-0.7523257732391357,0.22081612050533295,29.696813583374023,-18.983436584472656,24.479366302490234,1.3949952125549316,0.787745475769043,-0.5692915916442871,2.294790029525757,9.935015678405762,-4.411916255950928
3_20251106_214940,1762436943220,3,0.27592533826828003,0.49976542592048645,0.6745202541351318,0.46810486912727356,0.11207161098718643,2.899418592453003,0.7613065838813782,3.5329718589782715,10.78740119934082,-5.038665771484375,0.5017910003662109,-0.7633212804794312,0.03633499890565872,29.690765380859375,-19.096046447753906,24.436443328857422,0.9905455112457275,0.6819086074829102,-0.5013995170593262,2.542426347732544,10.10549259185791,-4.537266254425049
3_20251106_214940,1762436943239,3,0.27770671248435974,0.5048155784606934,0.6744628548622131,0.46167099475860596,0.13210085034370422,2.931601047515869,0.7151190638542175,3.194206714630127,10.926259994506836,-4.902202606201172,0.281268835067749,-0.5666228532791138,-0.16158518195152283,29.774744033813477,-19.12708282470703,24.330955505371094,0.5214242935180664,0.6566133499145508,-0.2919492721557617,2.6727824211120605,10.269646644592285,-4.61025333404541
3_20251106_214940,1762436943260,3,0.28017815947532654,0.5071132183074951,0.6748659014701843,0.45704755187034607,0.15393632650375366,2.967721700668335,0.6668913960456848,2.91290020942688,10.96456527709961,-4.529919624328613,-0.041878592222929,-0.33082908391952515,-0.28009289503097534,29.774744033813477,-19.12708282470703,24.330955505371094,0.192094087600708,0.5559349060058594,0.06426668167114258,2.720806121826172,10.40863037109375,-4.594186305999756
3_20251106_214940,1762436943279,3,0.28328317403793335,0.5067112445831299,0.6750422716140747,0.45531558990478516,0.17274540662765503,3.0007565021514893,0.6278908252716064,2.735736846923828,11.133349418640137,-3.700364589691162,-0.22941406071186066,-0.2001040130853653,-0.3118578791618347,29.897592544555664,-19.11779022216797,24.200698852539062,0.01194453239440918,0.5797758102416992,0.715057373046875,2.723792314529419,10.553573608398438,-4.415421962738037
3_20251106_214940,1762436943298,3,0.2865663170814514,0.5048425793647766,0.6749860644340515,0.4554201364517212,0.19075846672058105,3.03377628326416,0.5950649976730347,2.7764365673065186,11.150108337402344,-2.8755974769592285,-0.22941406071186066,-0.2001040130853653,-0.3118578791618347,30.058706283569336,-19.080596923828125,24.031890869140625,0.042115211486816406,0.47722816467285156,1.2318596839904785,2.734321355819702,10.672880172729492,-4.107457160949707
3_20251106_214940,1762436943316,3,0.2894948720932007,0.5031073689460754,0.6745994091033936,0.45606064796447754,0.20691180229187012,3.0644688606262207,0.570435643196106,2.710598945617676,11.068708419799805,-2.11188006401062,-0.03943513333797455,-0.3033401668071747,-0.1114942654967308,30.231597900390625,-19.054763793945312,23.82276153564453,-0.018977880477905273,0.3166627883911133,1.596461534500122,2.729576826095581,10.752045631408691,-3.708341598510742
3_20251106_214940,1762436943334,3,0.29177457094192505,0.5032905340194702,0.6740052103996277,0.4552837014198303,0.20691180229187012,3.0644688606262207,0.570435643196106,2.710598945617676,11.068708419799805,-2.11188006401062,0.3344140648841858,-0.4982060194015503,0.13224075734615326,30.40045738220215,-19.10400390625,23.58501434326172,-0.018977880477905273,0.3166627883911133,1.596461534500122,2.729576826095581,10.752045631408691,-3.708341598510742
3_20251106_214940,1762436943353,3,0.2925001084804535,0.5068010687828064,0.6732832193374634,0.4519801735877991,0.23622006177902222,3.120697259902954,0.5372486114501953,2.642367362976074,10.069172859191895,-2.1094861030578613,0.7388065457344055,-0.6869632005691528,0.4431709349155426,30.68643569946289,-19.019981384277344,23.300254821777344,-0.027276277542114258,-0.5270566940307617,0.9468479156494141,2.6696436405181885,10.596229553222656,-3.0563340187072754
3_20251106_214940,1762436943372,3,0.29122430086135864,0.5141806602478027,0.6722060441970825,0.446033239364624,0.25140827894210815,3.1436257362365723,0.523847222328186,3.14752197265625,9.530500411987305,-2.755892753601074,0.9953697323799133,-0.9282547831535339,0.7406620383262634,30.784122467041016,-19.3385009765625,22.786163330078125,0.38230252265930176,-0.8525838851928711,0.24035286903381348,2.7652194499969482,10.383084297180176,-2.9962456226348877
3_20251106_214940,1762436943391,3,0.2889563739299774,0.525343120098114,0.669912576675415,0.4378766119480133,0.2680912911891937,3.161830425262451,0.5104222297668457,3.586838960647583,9.07921314239502,-3.2490768432617188,1.0711169242858887,-1.105405569076538,0.9104824066162109,31.06981658935547,-19.243270874023438,22.63683319091797,0.6572954654693604,-1.0430974960327148,-0.20226502418518066,2.9295434951782227,10.122310638427734,-3.046811819076538
3_20251106_214940,1762436943411,3,0.2864890992641449,0.5384637713432312,0.6664958596229553,0.4286769926548004,0.2875221073627472,3.1751646995544434,0.4952688217163086,3.8334312438964844,8.520191192626953,-3.6153740882873535,1.0210258960723877,-1.168324589729309,0.9141476154327393,31.27706527709961,-19.241249084472656,22.53677749633789,0.7231101989746094,-1.2816963195800781,-0.4548497200012207,3.110321044921875,9.801887512207031,-3.160524368286133
3_20251106_214940,1762436943430,3,0.28449153900146484,0.5516904592514038,0.6624779105186462,0.4193151891231537,0.30693724751472473,3.1817445755004883,0.4798818528652191,3.795125722885132,7.813930988311768,-3.784158229827881,0.8976313471794128,-1.1383923292160034,0.8225178718566895,31.482891082763672,-19.275955200195312,22.34131622314453,0.5478436946868896,-1.5903658866882324,-0.49890708923339844,3.247282028198242,9.404296875,-3.2852511405944824
3_20251106_214940,1762436943450,3,0.28317466378211975,0.5638182163238525,0.6583532691001892,0.410477876663208,0.30693724751472473,3.1817445755004883,0.4798818528652191,3.795125722885132,7.813930988311768,-3.784158229827881,0.8976313471794128,-1.1383923292160034,0.8225178718566895,31.62637710571289,-19.339744567871094,22.14287567138672,0.5478436946868896,-1.5903658866882324,-0.49890708923339844,3.247282028198242,9.404296875,-3.2852511405944824
3_20251106_214940,1762436943469,3,0.28184759616851807,0.5744685530662537,0.6544455289840698,0.4028012156486511,0.34342288970947266,3.1742377281188965,0.44355055689811707,2.7788305282592773,6.664763450622559,-4.492811679840088,0.6679462194442749,-0.8598378896713257,0.7333316802978516,31.816791534423828,-19.4376220703125,21.90505599975586,-0.3934662342071533,-1.8109512329101562,-0.8502159118652344,3.1722967624664307,8.475714683532715,-3.6425957679748535
3_20251106_214940,1762436943488,3,0.2802230715751648,0.5841223001480103,0.650538980960846,0.3963271677494049,0.35775336623191833,3.160780191421509,0.42143961787223816,2.6543374061584473,5.924987316131592,-5.214632034301758,0.6679462194442749,-0.8598378896713257,0.7333316802978516,31.996017456054688,-19.523330688476562,21.62645721435547,-0.41436767578125,-2.0405821800231934,-1.257629156112671,3.0687050819396973,7.965569496154785,-3.957002878189087
3_20251106_214940,1762436943507,3,0.27865099906921387,0.5929068922996521,0.6466320157051086,0.39074552059173584,0.3705950081348419,3.140958547592163,0.3940871059894562,2.787209987640381,5.400679588317871,-6.270429611206055,0.5665426850318909,-0.752936601638794,0.7046210169792175,32.10536193847656,-19.764373779296875,21.409820556640625,-0.22519612312316895,-2.0519118309020996,-1.8507413864135742,3.01240611076355,7.452591419219971,-4.4196882247924805
3_20251106_214940,1762436943525,3,0.2787756323814392,0.6020893454551697,0.6413909196853638,0.38521459698677063,0.38137099146842957,3.1177804470062256,0.3658027648925781,2.695037364959717,5.2845659255981445,-5.908921241760254,0.1022854745388031,-1.2428501844406128,0.7021775245666504,32.22557067871094,-20.041213989257812,21.084754943847656,-0.2538950443267822,-1.7344207763671875,-1.1913862228393555,2.948932409286499,7.018986701965332,-4.717535018920898
3_20251106_214940,1762436943545,3,0.28264403343200684,0.6116603016853333,0.634236216545105,0.3791152834892273,0.3904392123222351,3.089858293533325,0.33633875846862793,2.315572738647461,5.313294887542725,-5.118868350982666,-0.19825996458530426,-1.3399776220321655,0.5952762365341187,32.35239791870117,-20.440811157226562,20.554794311523438,-0.5066876411437988,-1.364553451538086,-0.32106685638427734,2.8222603797912598,6.6778483390808105,-4.797801494598389
3_20251106_214940,1762436943564,3,0.28916940093040466,0.6198835968971252,0.6263071894645691,0.3739849328994751,0.3965406119823456,3.0583736896514893,0.30717965960502625,1.8463292121887207,5.506019592285156,-4.697506904602051,-0.3815194070339203,-1.1964243650436401,0.40102124214172363,32.50258255004883,-20.86339569091797,19.971221923828125,-0.7807450294494629,-0.9374632835388184,0.08023595809936523,2.6270742416381836,6.443482875823975,-4.777742862701416
3_20251106_214940,1762436943582,3,0.2967389225959778,0.6257951259613037,0.6190769076347351,0.37022995948791504,0.3965406119823456,3.0583736896514893,0.30717965960502625,1.8463292121887207,5.506019592285156,-4.697506904602051,-0.3815194070339203,-1.1964243650436401,0.40102124214172363,32.68639373779297,-21.34557342529297,19.306705474853516,-0.7807450294494629,-0.9374632835388184,0.08023595809936523,2.6270742416381836,6.443482875823975,-4.777742862701416
3_20251106_214940,1762436943602,3,0.30450281500816345,0.6291958093643188,0.6134114861488342,0.3675825595855713,0.39687222242355347,2.994267225265503,0.258196622133255,0.937768816947937,5.2989301681518555,-4.635260581970215,-0.4743708074092865,-0.9954499006271362,0.17866647243499756,32.90886306762695,-21.79930877685547,18.549571990966797,-1.1568092107772827,-0.7351951599121094,0.0502018928527832,2.0945780277252197,6.034125328063965,-4.685462474822998
3_20251106_214940,1762436943620,3,0.31261304020881653,0.6308715343475342,0.6087933778762817,0.3655746579170227,0.3907536566257477,2.9635753631591797,0.23742569983005524,0.29136204719543457,5.440181732177734,-4.442535400390625,-0.6081501841545105,-0.9838435053825378,-0.14692442119121552,33.175331115722656,-22.34911346435547,17.670642852783203,-1.4425727128982544,-0.4751548767089844,0.19434165954589844,1.733934760093689,5.915336608886719,-4.636877059936523
3_20251106_214940,1762436943640,3,0.32233187556266785,0.6318672895431519,0.6044897437095642,0.36254385113716125,0.378348171710968,2.9312121868133545,0.21861475706100464,-0.5513607263565063,5.337235927581787,-3.9014689922332764,-0.5629462003707886,-1.0809710025787354,-0.2611561119556427,33.43251419067383,-22.8609619140625,16.683883666992188,-1.8282363414764404,-0.4624805450439453,0.5883266925811768,1.276875615119934,5.799716472625732,-4.489795684814453
3_20251106_214940,1762436943660,3,0.3328613042831421,0.6326378583908081,0.6005830764770508,0.3581516742706299,0.3574881851673126,2.8971047401428223,0.20172332227230072,-1.5042120218276978,5.225910186767578,-3.858375072479248,-0.48658809065818787,-1.0174410343170166,-0.2929210662841797,33.79281234741211,-23.277610778808594,15.608283996582031,-2.224870204925537,-0.45904541015625,0.5051364898681641,0.7206580638885498,5.684955596923828,-4.363511562347412
3_20251106_214940,1762436943680,3,0.34279194474220276,0.6330767869949341,0.5972872376441956,0.3534903824329376,0.3574881851673126,2.8971047401428223,0.20172332227230072,-1.5042120218276978,5.225910186767578,-3.858375072479248,-0.48658809065818787,-1.0174410343170166,-0.2929210662841797,33.79281234741211,-23.277610778808594,15.608283996582031,-2.224870204925537,-0.45904541015625,0.5051364898681641,0.7206580638885498,5.684955596923828,-4.363511562347412
3_20251106_214940,1762436943698,3,0.3517986238002777,0.633613109588623,0.5939438939094543,0.3492890000343323,0.29683154821395874,2.830569267272949,0.17152279615402222,-2.2667324542999268,4.988894462585449,-4.380289077758789,-0.5134661793708801,-0.9025984406471252,-0.10049870610237122,34.1778678894043,-23.70374298095703,14.384719848632812,-1.9575135707855225,-0.47305917739868164,-0.025677204132080078,-0.3092188239097595,5.461953639984131,-4.354611873626709
3_20251106_214940,1762436943717,3,0.360685795545578,0.6345791816711426,0.5896810293197632,0.3456750810146332,0.26238954067230225,2.8016395568847656,0.15819896757602692,-2.576768159866333,5.504822731018066,-4.533511161804199,-0.6783996224403381,-0.9325308203697205,-0.022918881848454475,34.566246032714844,-24.067359924316406,13.189510345458984,-1.8140394687652588,0.034295082092285156,-0.14311933517456055,-0.7627286911010742,5.470527648925781,-4.390391826629639
3_20251106_214940,1762436943735,3,0.37050333619117737,0.6355571150779724,0.5841472744941711,0.34287962317466736,0.2221786081790924,2.7740700244903564,0.1463010609149933,-2.83054256439209,5.995613098144531,-3.857178211212158,-0.851885199546814,-1.0467625856399536,-0.05346211791038513,34.918663024902344,-24.43254852294922,11.911731719970703,-1.6542510986328125,0.42006826400756836,0.4265708923339844,-1.1762914657592773,5.575544834136963,-4.283749103546143
3_20251106_214940,1762436943754,3,0.3821141719818115,0.6360504627227783,0.5777110457420349,0.34011539816856384,0.178907573223114,2.749859094619751,0.13820460438728333,-3.0244646072387695,6.297269344329834,-3.1150074005126953,-0.9661169648170471,-0.9416937828063965,-0.15058961510658264,35.29011535644531,-24.671646118164062,10.664115905761719,-1.4785385131835938,0.5773797035217285,0.9349932670593262,-1.5459260940551758,5.7198896408081055,-4.0500006675720215
3_20251106_214940,1762436943774,3,0.39413687586784363,0.6349002122879028,0.571901261806488,0.338358998298645,0.1333199143409729,2.7291064262390137,0.1338401585817337,-3.1788840293884277,6.539073467254639,-2.837291955947876,-1.008266568183899,-0.697958767414093,-0.28314724564552307,35.646053314208984,-24.97405242919922,9.387657165527344,-1.3063663244247437,0.6553468704223633,0.9701669216156006,-1.872517704963684,5.883726596832275,-3.8074588775634766
3_20251106_214940,1762436943793,3,0.4055749773979187,0.6319035291671753,0.5675309896469116,0.3378097712993622,0.1333199143409729,2.7291064262390137,0.1338401585817337,-3.1788840293884277,6.539073467254639,-2.837291955947876,-1.038809895515442,-0.45911067724227905,-0.43341994285583496,35.997337341308594,-25.162620544433594,7.950887680053711,-1.3063663244247437,0.6553468704223633,0.9701669216156006,-1.872517704963684,5.883726596832275,-3.8074588775634766
3_20251106_214940,1762436943813,3,0.4161455035209656,0.6266984939575195,0.565222442150116,0.33851948380470276,0.07652761042118073,2.7115466594696045,0.1320399045944214,-3.679250478744507,7.315958499908447,-2.991711139678955,-1.0559141635894775,-0.37725478410720825,-0.545208215713501,36.36041259765625,-25.350936889648438,6.568674087524414,-1.4453861713409424,1.1457858085632324,0.6525981426239014,-2.2338643074035645,6.170172691345215,-3.6443092823028564
3_20251106_214940,1762436943832,3,0.42700356245040894,0.6208863258361816,0.5632962584495544,0.3389180302619934,-0.027811303734779358,2.6938109397888184,0.13578835129737854,-4.574643135070801,7.460801124572754,-2.2746787071228027,-0.9868863224983215,-0.4352869391441345,-0.48473256826400757,36.69135284423828,-25.466026306152344,5.159540176391602,-1.5321903228759766,0.8135528564453125,0.9878413677215576,-3.042452812194824,6.647248268127441,-3.2625200748443604
3_20251106_214940,1762436943851,3,0.43759042024612427,0.615754246711731,0.5609530806541443,0.3386634588241577,-0.08434748649597168,2.690161943435669,0.1412762701511383,-4.677589416503906,7.90610408782959,-2.4961328506469727,-0.8421114087104797,-0.4908756613731384,-0.3063600957393646,36.98432922363281,-25.608604431152344,3.7484073638916016,-1.3081092834472656,1.007084846496582,0.613109827041626,-3.3694801330566406,6.899019241333008,-3.1092426776885986
3_20251106_214940,1762436943871,3,0.4470532238483429,0.6121639609336853,0.5577667355537415,0.3380753695964813,-0.14555537700653076,2.6905641555786133,0.15056036412715912,-4.90622615814209,8.231701850891113,-1.860499620437622,-0.778581440448761,-0.5360796451568604,-0.22878031432628632,37.3071174621582,-25.6494140625,2.367399215698242,-1.2293968200683594,1.066145896911621,0.9989943504333496,-3.6768293380737305,7.165555953979492,-2.8594939708709717
3_20251106_214940,1762436943890,3,0.4561197757720947,0.609459400177002,0.5539899468421936,0.3370596170425415,-0.2011747807264328,2.6945061683654785,0.16214607656002045,-5.011566638946533,8.626728057861328,-1.3780888319015503,-0.8940348625183105,-0.35709625482559204,-0.22144992649555206,37.622344970703125,-25.615135192871094,0.9334182739257812,-1.0677900314331055,1.1689376831054688,1.1851242780685425,-3.9437766075134277,7.457790374755859,-2.5632131099700928
3_20251106_214940,1762436943909,3,0.4649369418621063,0.6055470108985901,0.5505223870277405,0.3377448618412018,-0.2628718614578247,2.7045750617980957,0.177847221493721,-4.926576137542725,9.40121841430664,-1.421182632446289,-1.058968424797058,-0.1127503514289856,-0.2086217701435089,37.92507553100586,-25.593666076660156,-0.5553817749023438,-0.7862396240234375,1.5547428131103516,0.9136242866516113,-4.140336513519287,7.846475601196289,-2.3348069190979004
3_20251106_214940,1762436943926,3,0.47343310713768005,0.6001074314117432,0.5473942160606384,0.34072235226631165,-0.3148556053638458,2.7170751094818115,0.19289541244506836,-5.125286102294922,9.835748672485352,-1.2559897899627686,-1.058968424797058,-0.1127503514289856,-0.2086217701435089,38.23194885253906,-25.485374450683594,-1.9342041015625,-0.7879595756530762,1.5914182662963867,0.863053560256958,-4.337326526641846,8.244330406188965,-2.1190433502197266
3_20251106_214940,1762436943946,3,0.4813985824584961,0.5931981205940247,0.5453556180000305,0.3449037969112396,-0.3148556053638458,2.7170751094818115,0.19289541244506836,-5.125286102294922,9.835748672485352,-1.2559897899627686,-1.1463220119476318,0.31790924072265625,-0.38760510087013245,38.478736877441406,-25.333518981933594,-3.044095993041992,-0.7879595756530762,1.5914182662963867,0.863053560256958,-4.337326526641846,8.244330406188965,-2.1190433502197266
3_20251106_214940,1762436943965,3,0.48863282799720764,0.5848835706710815,0.5447497367858887,0.34985265135765076,-0.43453049659729004,2.755497455596924,0.23456820845603943,-5.520312309265137,9.846521377563477,-1.1434671878814697,-1.1964130401611328,0.49750348925590515,-0.31002527475357056,38.789485931396484,-25.115585327148438,-4.082635879516602,-0.7722415924072266,1.0566215515136719,0.5734224319458008,-4.74807071685791,8.789899826049805,-1.7168896198272705
3_20251106_214940,1762436943985,3,0.4949449896812439,0.5760021805763245,0.5443207025527954,0.3563227355480194,-0.495062917470932,2.780179977416992,0.2568662166595459,-5.555027008056641,10.299005508422852,-1.2140930891036987,-1.1964130401611328,0.49750348925590515,-0.31002527475357056,39.10185241699219,-24.86065673828125,-5.052801132202148,-0.6455650329589844,1.207284927368164,0.4022371768951416,-4.909461975097656,9.091720581054688,-1.6163302659988403
3_20251106_214940,1762436944002,3,0.4998699724674225,0.5678486824035645,0.5431915521621704,0.36417144536972046,-0.495062917470932,2.780179977416992,0.2568662166595459,-5.555027008056641,10.299005508422852,-1.2140930891036987,-1.1683132648468018,0.6813737750053406,0.15178842842578888,39.368011474609375,-24.547462463378906,-5.888446807861328,-0.6455650329589844,1.207284927368164,0.4022371768951416,-4.909461975097656,9.091720581054688,-1.6163302659988403
3_20251106_214940,1762436944022,3,0.5032650828361511,0.5607528686523438,0.541130542755127,0.37344104051589966,-0.5969901084899902,2.8351263999938965,0.3004753589630127,-3.995271682739258,11.134546279907227,-0.5401542782783508,-1.1780869960784912,0.7424602508544922,0.3350478410720825,39.519195556640625,-24.30663299560547,-6.486533164978027,0.7442412376403809,1.3769330978393555,0.76861971616745,-4.739512920379639,9.757613182067871,-1.3087739944458008
3_20251106_214940,1762436944041,3,0.5056284070014954,0.554304838180542,0.5381951332092285,0.3839688301086426,-0.6399705410003662,2.8684754371643066,0.3257458508014679,-3.1992340087890625,11.584636688232422,-0.10323125869035721,-1.1780869960784912,0.7424602508544922,0.3350478410720825,39.71934509277344,-24.03913116455078,-6.919934272766113,1.2322230339050293,1.461618423461914,0.9644342064857483,-4.431457042694092,10.123018264770508,-1.067665457725525
3_20251106_214940,1762436944061,3,0.5071495771408081,0.5478901267051697,0.5354444980621338,0.3948605954647064,-0.6776148080825806,2.907050132751465,0.3537844717502594,-2.6761231422424316,11.842002868652344,-0.15709847211837769,-1.0516380071640015,0.950154185295105,0.3271065950393677,39.91509246826172,-23.824012756347656,-7.138131141662598,1.4042673110961914,1.375187873840332,0.7284535765647888,-4.080390453338623,10.466814994812012,-0.8855520486831665
3_20251106_214940,1762436944079,3,0.5074663758277893,0.5409932732582092,0.5337443947792053,0.4061047434806824,-0.7042410969734192,2.9431228637695312,0.37877601385116577,-1.822627067565918,11.722297668457031,-0.47192245721817017,-1.0516380071640015,0.950154185295105,0.3271065950393677,40.0333251953125,-23.666046142578125,-7.144065856933594,1.8062107563018799,1.0043859481811523,0.33090370893478394,-3.628837823867798,10.717911720275879,-0.8028261661529541
3_20251106_214940,1762436944100,3,0.5063230395317078,0.5335373282432556,0.5326485633850098,0.4186411499977112,-0.7234933376312256,2.9851701259613037,0.40572524070739746,-0.7165535688400269,12.023954391479492,-0.6155683994293213,-1.0992854833602905,1.193278431892395,0.46577292680740356,40.1507682800293,-23.5091552734375,-7.0418701171875,2.329827308654785,1.0448341369628906,0.14980626106262207,-3.0463809967041016,10.979120254516602,-0.7653746604919434
3_20251106_214940,1762436944118,3,0.5046117901802063,0.5260910391807556,0.5310240387916565,0.43198224902153015,-0.7234933376312256,2.9851701259613037,0.40572524070739746,-0.7165535688400269,12.023954391479492,-0.6155683994293213,-1.123109221458435,1.0698837041854858,0.372310608625412,40.1507682800293,-23.5091552734375,-7.0418701171875,2.329827308654785,1.0448341369628906,0.14980626106262207,-3.0463809967041016,10.979120254516602,-0.7653746604919434
3_20251106_214940,1762436944137,3,0.5037828683853149,0.5186253786087036,0.528954029083252,0.44434016942977905,-0.7311357855796814,3.074075937271118,0.46192440390586853,0.5630922913551331,13.155165672302246,1.0842416286468506,-1.0327012538909912,1.0613316297531128,0.06626736372709274,40.165489196777344,-23.446922302246094,-6.904897689819336,2.3512415885925293,1.451467514038086,1.3461700677871704,-1.7881492376327515,11.70369815826416,-0.2619284689426422
3_20251106_214940,1762436944156,3,0.5036882162094116,0.510003924369812,0.5284856557846069,0.4548594057559967,-0.7248767018318176,3.120800256729126,0.4941209554672241,0.3667761981487274,12.904982566833496,1.2099318504333496,-0.9135825634002686,1.3081209659576416,-0.19151756167411804,40.141056060791016,-23.413803100585938,-6.607728958129883,1.7239404916763306,0.9610271453857422,1.1774883270263672,-1.3571642637252808,11.943955421447754,0.032443568110466
3_20251106_214940,1762436944176,3,0.5027371048927307,0.4992559552192688,0.5308908224105835,0.4649234414100647,-0.7132567167282104,3.169525384902954,0.5288453698158264,0.4062788188457489,12.602128982543945,0.8639846444129944,-0.9135825634002686,1.3081209659576416,-0.19151756167411804,40.17597198486328,-23.378868103027344,-6.0918474197387695,1.4107544422149658,0.5265388488769531,0.6652328968048096,-1.0044755935668945,12.075590133666992,0.1987517774105072
3_20251106_214940,1762436944194,3,0.5005364418029785,0.48827624320983887,0.5342840552330017,0.4749632775783539,-0.6987012028694153,3.212759017944336,0.560102105140686,0.8719310760498047,12.714652061462402,0.8352554440498352,-0.6851191520690918,1.2885732650756836,-0.017421098425984383,40.236080169677734,-23.318038940429688,-5.493359565734863,1.5011253356933594,0.5112495422363281,0.5092029571533203,-0.6291942596435547,12.203402519226074,0.3260524868965149
3_20251106_214940,1762436944214,3,0.49750104546546936,0.4793747067451477,0.536743700504303,0.4843539595603943,-0.6769686341285706,3.2605855464935303,0.5949853658676147,1.465667486190796,12.924135208129883,0.9477781057357788,-0.47620341181755066,1.0784357786178589,0.13162988424301147,40.197410583496094,-23.26531982421875,-4.72308349609375,1.675889492034912,0.5765857696533203,0.49738049507141113,-0.21022197604179382,12.347549438476562,0.4503976106643677
3_20251106_214940,1762436944232,3,0.4937303066253662,0.4731658101081848,0.5384044647216797,0.49240753054618835,-0.6528987884521484,3.303583860397339,0.6259262561798096,2.018704414367676,13.203048706054688,0.9034872651100159,-0.47620341181755066,1.0784357786178589,0.13162988424301147,40.17363739013672,-23.173324584960938,-4.032623291015625,1.7831411361694336,0.6843996047973633,0.3624717593193054,0.235563263297081,12.518649101257324,0.5410155057907104
3_20251106_214940,1762436944252,3,0.48912227153778076,0.46844568848609924,0.5402976870536804,0.49939611554145813,-0.6230192184448242,3.3484609127044678,0.6585124135017395,2.328740119934082,13.159954071044922,1.109379768371582,-0.1860426813364029,0.8756287693977356,0.09681060165166855,40.19972229003906,-23.053443908691406,-3.299123764038086,1.6745414733886719,0.5130443572998047,0.45469141006469727,0.6541985869407654,12.646909713745117,0.6546883583068848
3_20251106_214940,1762436944271,3,0.485164999961853,0.4645695984363556,0.5421915054321289,0.5047953724861145,-0.5899704098701477,3.391684055328369,0.691199541091919,2.3538782596588135,12.861888885498047,1.2853460311889648,-0.15122337639331818,0.9562628865242004,-0.0552947074174881,40.125213623046875,-22.97893524169922,-2.4351768493652344,1.3597437143325806,0.1719837188720703,0.5045261383056641,0.9941345453262329,12.689905166625977,0.7808198928833008
3_20251106_214940,1762436944291,3,0.4812490940093994,0.45958730578422546,0.5452746152877808,0.5097591876983643,-0.5899704098701477,3.391684055328369,0.691199541091919,2.3538782596588135,12.861888885498047,1.2853460311889648,-0.060204535722732544,1.0136841535568237,-0.13837231695652008,40.114959716796875,-22.83794403076172,-1.540426254272461,1.3597437143325806,0.1719837188720703,0.5045261383056641,0.9941345453262329,12.689905166625977,0.7808198928833008
3_20251106_214940,1762436944310,3,0.47693750262260437,0.4541717767715454,0.5494378805160522,0.5141756534576416,-0.5488308072090149,3.4375240802764893,0.7282803058624268,2.295222759246826,12.226255416870117,1.0866358280181885,0.08090521395206451,0.9080045819282532,-0.10233129560947418,40.06403350830078,-22.76293182373047,-0.5673694610595703,1.0408706665039062,-0.37092018127441406,0.24465274810791016,1.25435209274292,12.597175598144531,0.8419830799102783
3_20251106_214940,1762436944329,3,0.47241342067718506,0.4501537084579468,0.5535925626754761,0.5174190998077393,-0.477637380361557,3.502997398376465,0.7848348617553711,2.253325939178467,11.60977554321289,0.5288107991218567,0.2104085236787796,0.7174147367477417,-0.012534182518720627,39.88964080810547,-22.72124481201172,0.4272880554199219,0.6431738138198853,-0.6694755554199219,-0.23433071374893188,1.6101521253585815,12.279251098632812,0.7631415128707886
3_20251106_214940,1762436944351,3,0.4677787125110626,0.4480566084384918,0.5572240948677063,0.5195475816726685,-0.43459710478782654,3.535008430480957,0.814099907875061,2.3371195793151855,11.534360885620117,0.3827707767486572,0.2104085236787796,0.7174147367477417,-0.012534182518720627,39.66970443725586,-22.643577575683594,1.2720966339111328,0.5815739631652832,-0.5959129333496094,-0.304296612739563,1.7555456161499023,12.130273818969727,0.6870673894882202
3_20251106_214940,1762436944368,3,0.46313151717185974,0.44700631499290466,0.5606175661087036,0.5209630727767944,-0.40544381737709045,3.5546481609344482,0.8320215344429016,2.501115322113037,11.490070343017578,0.08231139928102493,0.29043182730674744,0.6044048070907593,-0.010090721771121025,39.4965934753418,-22.600135803222656,2.091043472290039,0.5964558124542236,-0.5121622085571289,-0.4838048219680786,1.9046595096588135,12.002232551574707,0.566116213798523
3_20251106_214940,1762436944385,3,0.45865777134895325,0.44582194089889526,0.5641246438026428,0.5221486687660217,-0.36993566155433655,3.575773239135742,0.8513021469116211,2.8279097080230713,11.488872528076172,0.09907008707523346,0.2629428803920746,0.5732507109642029,-0.0858379453420639,39.28623580932617,-22.560020446777344,3.003131866455078,0.7386000156402588,-0.4106884002685547,-0.3736369013786316,2.0893096923828125,11.899560928344727,0.47270700335502625
3_20251106_214940,1762436944404,3,0.4547728896141052,0.44428831338882446,0.5676838159561157,0.5229957699775696,-0.32947075366973877,3.596161365509033,0.8709402084350586,3.070910930633545,11.27100944519043,0.23792782425880432,0.31608814001083374,0.4895622730255127,-0.17135901749134064,39.078285217285156,-22.481826782226562,3.8754634857177734,0.7852809429168701,-0.5028409957885742,-0.1878233253955841,2.285629987716675,11.773850440979004,0.4257511496543884
3_20251106_214940,1762436944423,3,0.4514668881893158,0.44293510913848877,0.5714665055274963,0.5228883028030396,-0.2907539904117584,3.6132278442382812,0.8875833749771118,3.086472511291504,11.287769317626953,0.032035328447818756,0.4223785698413849,0.39121299982070923,-0.24771709740161896,38.9852294921875,-22.319793701171875,4.618629455566406,0.6406741142272949,-0.38886547088623047,-0.3149726688861847,2.445798397064209,11.676634788513184,0.34700798988342285
3_20251106_214940,1762436944443,3,0.44855213165283203,0.4420568346977234,0.5756514668464661,0.521547794342041,-0.25267183780670166,3.627779722213745,0.9018569588661194,2.9200825691223145,11.0711030960083,-0.2133598029613495,0.4987366497516632,0.27087268233299255,-0.28986674547195435,38.80607986450195,-22.164398193359375,5.466493606567383,0.379427433013916,-0.48442554473876953,-0.4482942223548889,2.5406551361083984,11.55552864074707,0.23493443429470062
3_20251106_214940,1762436944461,3,0.44618138670921326,0.44191160798072815,0.579845666885376,0.5190523266792297,-0.21535426378250122,3.6401336193084717,0.913943886756897,2.955994129180908,11.019630432128906,-0.301941454410553,0.5372211337089539,0.14381283521652222,-0.3277403712272644,38.69065475463867,-21.97803497314453,6.128108978271484,0.33227109909057617,-0.42871856689453125,-0.4295007288455963,2.623723030090332,11.448348999023438,0.12755927443504333
3_20251106_214940,1762436944480,3,0.4444565773010254,0.44225946068763733,0.5839220285415649,0.5156548619270325,-0.21535426378250122,3.6401336193084717,0.913943886756897,2.955994129180908,11.019630432128906,-0.301941454410553,0.5421081185340881,0.07539597898721695,-0.4474698603153229,38.64137649536133,-21.71100616455078,6.658597946166992,0.33227109909057617,-0.42871856689453125,-0.4295007288455963,2.623723030090332,11.448348999023438,0.12755927443504333
3_20251106_214940,1762436944499,3,0.4436664879322052,0.4423123598098755,0.5881931185722351,0.511418342590332,-0.14461077749729156,3.658442735671997,0.9327916502952576,2.6399731636047363,10.689244270324707,-0.4635430574417114,0.5213386416435242,0.0729525238275528,-0.6435574293136597,38.6787109375,-21.413436889648438,7.206563949584961,-0.027522563934326172,-0.5206851959228516,-0.40569397807121277,2.6674957275390625,11.209929466247559,-0.05784907191991806
3_20251106_214940,1762436944520,3,0.44389548897743225,0.44113272428512573,0.5931621789932251,0.5064753890037537,-0.11176028847694397,3.6636879444122314,0.939109742641449,2.1827001571655273,10.306188583374023,-0.7604113817214966,0.4626956880092621,0.0931110605597496,-0.8543057441711426,38.78029251098633,-21.060997009277344,7.690456390380859,-0.3878364562988281,-0.7229928970336914,-0.5620498657226562,2.5705366134643555,11.029181480407715,-0.19836151599884033
3_20251106_214940,1762436944540,3,0.4452652335166931,0.43840348720550537,0.5987963080406189,0.5009832978248596,-0.08196882158517838,3.6649482250213623,0.9422042965888977,1.6823333501815796,9.84412670135498,-1.155437707901001,0.40283092856407166,0.06562215089797974,-1.0021350383758545,38.898990631103516,-20.61986541748047,8.176687240600586,-0.7105625867843628,-0.9480438232421875,-0.7656610012054443,2.3928959369659424,10.792170524597168,-0.38977673649787903
3_20251106_214940,1762436944559,3,0.44772982597351074,0.4346628785133362,0.6046582460403442,0.49496933817863464,-0.05956313759088516,3.6621789932250977,0.943091869354248,1.2262576818466187,9.38805103302002,-1.0357327461242676,0.3655681610107422,0.01186604704707861,-1.05405855178833,39.078392028808594,-19.985313415527344,8.479612350463867,-0.9333106279373169,-1.123295783996582,-0.5167648196220398,2.1595683097839355,10.511346817016602,-0.5189679265022278
3_20251106_214940,1762436944576,3,0.45082756876945496,0.4306192100048065,0.6103920340538025,0.4886135458946228,-0.04319923371076584,3.656637668609619,0.9420750141143799,0.9389657974243164,9.060060501098633,-1.3254187107086182,0.3655681610107422,0.01186604704707861,-1.05405855178833,39.078392028808594,-19.985313415527344,8.479612350463867,-0.9764820337295532,-1.1610288619995117,-0.6451606750488281,1.9154478311538696,10.221089363098145,-0.68025803565979
3_20251106_214940,1762436944596,3,0.45391181111335754,0.4266687333583832,0.6159388422966003,0.4822210967540741,-0.028450001031160355,3.646172523498535,0.9375543594360352,0.7510290145874023,8.815861701965332,-1.7934648990631104,0.4022200405597687,-0.16100867092609406,-0.9630396366119385,39.28075408935547,-19.374282836914062,8.782989501953125,-0.931535005569458,-1.1241817474365234,-0.8905655145645142,1.6825640201568604,9.940043449401855,-0.9028993844985962
3_20251106_214940,1762436944615,3,0.45746657252311707,0.4240420162677765,0.6206271648406982,0.4751153588294983,-0.028450001031160355,3.646172523498535,0.9375543594360352,0.7510290145874023,8.815861701965332,-1.7934648990631104,0.3948896825313568,-0.3906938433647156,-0.9001206159591675,39.54885482788086,-18.694740295410156,8.914426803588867,-0.931535005569458,-1.1241817474365234,-0.8905655145645142,1.6825640201568604,9.940043449401855,-0.9028993844985962
3_20251106_214940,1762436944635,3,0.46208202838897705,0.4228561222553253,0.6239889860153198,0.4672372341156006,-0.012067672796547413,3.6194305419921875,0.9237949252128601,0.23749485611915588,8.82903003692627,-1.6342573165893555,0.37839633226394653,-0.5122559070587158,-0.9013423323631287,39.869224548339844,-17.949241638183594,9.04914665222168,-0.9679380655288696,-0.7158365249633789,-0.4609825611114502,1.2054328918457031,9.544866561889648,-1.1732747554779053
3_20251106_214940,1762436944653,3,0.4674302637577057,0.4220093786716461,0.6267107129096985,0.45896705985069275,-0.009514096193015575,3.603189468383789,0.9154003262519836,-0.03662945330142975,8.564481735229492,-1.6354544162750244,0.37228766083717346,-0.5623468160629272,-0.9703700542449951,40.306800842285156,-17.08196258544922,9.028461456298828,-0.9936498999595642,-0.7843074798583984,-0.36974382400512695,0.9570204615592957,9.34878921508789,-1.2657105922698975
3_20251106_214940,1762436944672,3,0.47324496507644653,0.42069926857948303,0.6295086741447449,0.45030009746551514,-0.01064200047403574,3.584968328475952,0.906151533126831,-0.338285893201828,8.331056594848633,-1.730021357536316,0.28065797686576843,-0.532414436340332,-1.0699410438537598,40.72110366821289,-16.20317840576172,8.952993392944336,-1.0362451076507568,-0.8141860961914062,-0.3714486360549927,0.6979591846466064,9.145242691040039,-1.3585727214813232
3_20251106_214940,1762436944691,3,0.47976362705230713,0.4183627963066101,0.6322641968727112,0.4416349232196808,-0.015466282144188881,3.5643768310546875,0.8958830237388611,-0.6698685884475708,7.949197769165039,-1.8988053798675537,0.1645936816930771,-0.47988006472587585,-1.1750097274780273,41.199440002441406,-15.281394958496094,8.745607376098633,-1.0942622423171997,-0.9568357467651367,-0.4321861267089844,0.4243936538696289,8.906033515930176,-1.4666192531585693
3_20251106_214940,1762436944711,3,0.4868028163909912,0.4145698547363281,0.6351410150527954,0.4333021938800812,-0.024843474850058556,3.5397555828094482,0.8836783766746521,-1.0732742547988892,7.580506324768066,-2.1035008430480957,0.0870138630270958,-0.5275275707244873,-1.2538113594055176,41.65519714355469,-14.34716796875,8.388824462890625,-1.198134422302246,-1.0604219436645508,-0.5095052719116211,0.12486010789871216,8.640928268432617,-1.5939955711364746
3_20251106_214940,1762436944729,3,0.49473026394844055,0.41013264656066895,0.6376996040344238,0.4247027337551117,-0.03709052503108978,3.5151264667510986,0.8722688555717468,-1.592793583869934,7.1878743171691895,-1.989781141281128,0.028370849788188934,-0.6338179707527161,-1.3130651712417603,42.170066833496094,-13.446235656738281,7.993152618408203,-1.374122977256775,-1.162442684173584,-0.31662845611572266,-0.21867060661315918,8.350317001342773,-1.6731526851654053
3_20251106_214940,1762436944749,3,0.5036847591400146,0.40541210770606995,0.6396997570991516,0.4156043231487274,-0.05547259747982025,3.4846818447113037,0.8601471781730652,-2.01295804977417,6.887414932250977,-1.6988980770111084,0.006990580819547176,-0.7700408101081848,-1.3607125282287598,42.68057632446289,-12.431060791015625,7.3966217041015625,-1.4354300498962402,-1.1703214645385742,-0.02059626579284668,-0.5775280594825745,8.05773639678955,-1.6783018112182617
3_20251106_214940,1762436944767,3,0.5137114524841309,0.40073221921920776,0.6410284042358398,0.4057053327560425,-0.07603850960731506,3.4548678398132324,0.8503602743148804,-2.546842098236084,6.521117687225342,-1.4439265727996826,0.028370846062898636,-0.8555618524551392,-1.4108035564422607,43.218475341796875,-11.363792419433594,6.775094985961914,-1.5754512548446655,-1.229295253753662,0.1875002384185791,-0.9713908433914185,7.750412940979004,-1.6314268112182617
3_20251106_214940,1762436944786,3,0.5026652812957764,0.3614875078201294,0.6621290445327759,0.4221842586994171,-0.1033288985490799,3.4210236072540283,0.8410080671310425,-3.4015352725982666,6.311634063720703,-1.4630794525146484,-0.0046158479526638985,-0.8598378896713257,-1.4352381229400635,32.42829895019531,-8.903022766113281,10.368288040161133,-1.9441156387329102,-1.1510229110717773,0.13467788696289062,-1.4574196338653564,7.4626569747924805,-1.597757339477539
3_20251106_214940,1762436944805,3,0.5137772560119629,0.3559247553348541,0.6628853678703308,0.412229984998703,-0.1370386779308319,3.38472843170166,0.8326670527458191,-4.294533729553223,5.952519416809082,-1.3996357917785645,-0.07914134860038757,-0.8604487776756287,-1.393699288368225,32.922447204589844,-7.785743713378906,9.448497772216797,-2.269691228866577,-1.2081098556518555,0.15849721431732178,-2.0248425006866455,7.1606292724609375,-1.5581330060958862
3_20251106_214940,1762436944825,3,0.525005578994751,0.3502204716205597,0.6630256175994873,0.40263116359710693,-0.1370386779308319,3.38472843170166,0.8326670527458191,-4.294533729553223,5.952519416809082,-1.3996357917785645,-0.09563468396663666,-0.8244077563285828,-1.3032913208007812,33.42182540893555,-6.580162048339844,8.490007400512695,-2.269691228866577,-1.2081098556518555,0.15849721431732178,-2.0248425006866455,7.1606292724609375,-1.5581330060958862
3_20251106_214940,1762436944844,3,0.5358301401138306,0.3449377417564392,0.6627472639083862,0.39328116178512573,-0.1853523701429367,3.3394086360931396,0.8236962556838989,-5.078600883483887,5.69395637512207,-1.5025819540023804,-0.09563468396663666,-0.8244077563285828,-1.3032913208007812,33.815956115722656,-5.306114196777344,7.501653671264648,-2.443006753921509,-1.1733384132385254,0.0444408655166626,-2.635594129562378,6.867294788360596,-1.547022819519043
3_20251106_214940,1762436944862,3,0.5460199117660522,0.3402138352394104,0.6619217395782471,0.3846770226955414,-0.2781546413898468,3.2627878189086914,0.8090328574180603,-6.388173580169678,5.164860725402832,-1.7575535774230957,-0.12190186977386475,-0.8079144358634949,-1.1597380638122559,34.2457275390625,-4.0541229248046875,6.446662902832031,-2.498755693435669,-1.1332263946533203,-0.13167524337768555,-3.889417886734009,6.298087120056152,-1.6258783340454102
3_20251106_214940,1762436944881,3,0.5558326840400696,0.3363815248012543,0.6598994731903076,0.3773992955684662,-0.2781546413898468,3.2627878189086914,0.8090328574180603,-6.388173580169678,5.164860725402832,-1.7575535774230957,-0.3247089684009552,-0.8714443445205688,-0.6661593914031982,34.56419372558594,-2.8578948974609375,5.224006652832031,-2.498755693435669,-1.1332263946533203,-0.13167524337768555,-3.889417886734009,6.298087120056152,-1.6258783340454102
3_20251106_214940,1762436944902,3,0.5652257800102234,0.3338278532028198,0.6562853455543518,0.37197884917259216,-0.4026085436344147,3.171480655670166,0.7960400581359863,-6.773623466491699,4.958968162536621,-1.0105947256088257,-0.4279451072216034,-0.9032093286514282,-0.3436228632926941,34.85395812988281,-1.7387313842773438,4.012302398681641,-1.843210220336914,-0.8602919578552246,0.47326552867889404,-4.930413246154785,5.819260120391846,-1.4838602542877197
3_20251106_214940,1762436944920,3,0.5741428732872009,0.33301302790641785,0.6509000062942505,0.3684989809989929,-0.4026085436344147,3.171480655670166,0.7960400581359863,-6.773623466491699,4.958968162536621,-1.0105947256088257,-0.520796537399292,-0.9221460819244385,-0.05957076698541641,35.147762298583984,-0.7574386596679688,2.8522491455078125,-1.843210220336914,-0.8602919578552246,0.47326552867889404,-4.930413246154785,5.819260120391846,-1.4838602542877197
3_20251106_214940,1762436944939,3,0.5824931859970093,0.33350473642349243,0.6440280675888062,0.36702054738998413,-0.5291663408279419,3.0842790603637695,0.7924249172210693,-6.115245819091797,5.63530158996582,-0.45516377687454224,-0.5806612968444824,-1.003391146659851,0.10902789980173111,35.384151458740234,0.05811309814453125,1.6192207336425781,-0.7058143615722656,-0.04265451431274414,0.7068223357200623,-5.409431457519531,5.6779561042785645,-1.1619861125946045
3_20251106_214940,1762436944960,3,0.5907803773880005,0.3348487615585327,0.6359045505523682,0.3667154312133789,-0.5927566885948181,3.043118953704834,0.7956043481826782,-5.697475433349609,6.099756240844727,0.05837041139602661,-0.623421847820282,-1.01316499710083,0.16217312216758728,35.46383285522461,0.6759109497070312,0.36283302307128906,-0.23043537139892578,0.33744001388549805,0.9762852191925049,-5.467040061950684,5.7623162269592285,-0.9179148077964783
3_20251106_214940,1762436944979,3,0.5990747213363647,0.3364737927913666,0.6271731853485107,0.3668087422847748,-0.6524269580841064,3.005868673324585,0.8026261925697327,-5.22344446182251,6.371486663818359,0.3983324468135834,-0.6496890187263489,-0.9820108413696289,0.1462906450033188,35.57272720336914,1.1701126098632812,-0.8541746139526367,0.19487619400024414,0.4873361587524414,1.0529978275299072,-5.418320655822754,5.884150505065918,-0.6546653509140015
3_20251106_214940,1762436944997,3,0.6073479652404785,0.3379019498825073,0.6183003783226013,0.3669542074203491,-0.702122151851654,2.9759507179260254,0.8116059303283691,-4.8810882568359375,6.6683549880981445,0.5539488792419434,-0.6753453612327576,-1.0082780122756958,0.12429951876401901,35.57272720336914,1.1701126098632812,-0.8541746139526367,0.42978620529174805,0.6273632049560547,0.9668914079666138,-5.3108744621276855,6.04099178314209,-0.4129425287246704
3_20251106_214940,1762436945016,3,0.6157706379890442,0.33902794122695923,0.6091597676277161,0.36716607213020325,-0.702122151851654,2.9759507179260254,0.8116059303283691,-4.8810882568359375,6.6683549880981445,0.5539488792419434,-0.6753453612327576,-1.0082780122756958,0.12429951876401901,35.65904998779297,1.4638214111328125,-2.197542190551758,0.42978620529174805,0.6273632049560547,0.9668914079666138,-5.3108744621276855,6.04099178314209,-0.4129425287246704
3_20251106_214940,1762436945035,3,0.6247364282608032,0.3398445248603821,0.5997440814971924,0.36676573753356934,-0.7958011031150818,2.925626277923584,0.8394374847412109,-4.877496719360352,7.265682220458984,1.0507242679595947,-0.7248253226280212,-0.956965446472168,-0.10966167598962784,35.66974639892578,1.7145538330078125,-3.490579605102539,0.26491212844848633,0.8152122497558594,0.9666250944137573,-5.142408847808838,6.450469970703125,0.08409914374351501
3_20251106_214940,1762436945054,3,0.6336881518363953,0.33920082449913025,0.5911932587623596,0.3658860921859741,-0.8379892110824585,2.9058070182800293,0.8569983243942261,-4.918196678161621,7.203435897827148,1.2219023704528809,-0.8017943501472473,-0.8115795850753784,-0.2770386040210724,35.612857818603516,1.8362808227539062,-4.8427734375,0.17936992645263672,0.6023726463317871,0.9102425575256348,-5.097566604614258,6.601063251495361,0.3116597831249237
3_20251106_214940,1762436945073,3,0.6427372097969055,0.3368583619594574,0.5835594534873962,0.3645184636116028,-0.8778483867645264,2.887465476989746,0.8765823841094971,-5.017551422119141,6.7784833908081055,1.3691394329071045,-0.8017943501472473,-0.8115795850753784,-0.2770386040210724,35.568973541259766,1.9831085205078125,-6.112852096557617,0.06401252746582031,0.1419358253479004,0.8459837436676025,-5.081563949584961,6.636547565460205,0.523155689239502
3_20251106_214940,1762436945092,3,0.6518174409866333,0.3328360319137573,0.5764937996864319,0.36333051323890686,-0.8778483867645264,2.887465476989746,0.8765823841094971,-5.017551422119141,6.7784833908081055,1.3691394329071045,-1.0052123069763184,-0.7236150503158569,-0.43769600987434387,35.40593719482422,2.160472869873047,-7.468140602111816,0.06401252746582031,0.1419358253479004,0.8459837436676025,-5.081563949584961,6.636547565460205,0.523155689239502
3_20251106_214940,1762436945112,3,0.6605479717254639,0.3264874815940857,0.5698928833007812,0.36373671889305115,-0.9554966688156128,2.852327346801758,0.9227595329284668,-5.549041748046875,6.592940807342529,1.9688611030578613,-1.0626336336135864,-0.8170773983001709,-0.5232170820236206,35.287445068359375,2.513458251953125,-8.561452865600586,-0.35779285430908203,-0.03231334686279297,1.0045440196990967,-5.191248893737793,6.625254154205322,0.9643170833587646
3_20251106_214940,1762436945131,3,0.6709579825401306,0.3208320736885071,0.5619790554046631,0.3620244860649109,-0.994086503982544,2.8353018760681152,0.9494162797927856,-6.2971978187561035,6.203899383544922,2.4823954105377197,-1.0620226860046387,-0.7901993989944458,-0.6301183700561523,35.10601806640625,3.0494956970214844,-9.59968376159668,-0.8847589492797852,-0.3370838165283203,1.2144626379013062,-5.412438869476318,6.540983200073242,1.2679327726364136
3_20251106_214940,1762436945150,3,0.6814068555831909,0.3142034709453583,0.5545545220375061,0.359764039516449,-1.0355486869812012,2.8169188499450684,0.9781444072723389,-7.162664413452148,5.73585319519043,2.508730411529541,-1.0907334089279175,-0.6545873880386353,-0.6093490123748779,34.854278564453125,3.619384765625,-10.734679222106934,-1.4001803398132324,-0.64410400390625,0.992638111114502,-5.762484073638916,6.37995719909668,1.516092300415039
3_20251106_214940,1762436945169,3,0.6911895275115967,0.306919664144516,0.5477275252342224,0.3578433692455292,-1.0797975063323975,2.7968995571136475,1.0075026750564575,-7.533749580383301,5.448561668395996,2.2693207263946533,-1.2074085474014282,-0.5562381744384766,-0.3650031089782715,34.58333969116211,4.310691833496094,-11.611207008361816,-1.4170122146606445,-0.7451162338256836,0.6025828123092651,-6.116737365722656,6.19367790222168,1.6667379140853882
3_20251106_214940,1762436945190,3,0.6999176144599915,0.2996552586555481,0.5404533743858337,0.35809525847435,-1.1249891519546509,2.7761192321777344,1.0380446910858154,-7.266807556152344,5.551507949829102,2.63322377204895,-1.3094229698181152,-0.6350396871566772,0.032669804990291595,34.330421447753906,5.103519439697266,-12.512165069580078,-0.9200558662414551,-0.5137357711791992,0.7731887102127075,-6.346751689910889,6.065243721008301,1.8600350618362427
3_20251106_214940,1762436945207,3,0.7077997326850891,0.2938626706600189,0.5312468409538269,0.3611662685871124,-1.1691416501998901,2.7558388710021973,1.0724225044250488,-6.791579246520996,5.868725776672363,3.814711332321167,-1.2819340229034424,-0.7798146605491638,0.413849413394928,34.04188919067383,5.941631317138672,-13.156729698181152,-0.3558616638183594,-0.15721464157104492,1.5637409687042236,-6.435717582702637,6.025940418243408,2.2509703636169434
3_20251106_214940,1762436945225,3,0.7149192690849304,0.2906429171562195,0.5199422836303711,0.3661654591560364,-1.1691416501998901,2.7558388710021973,1.0724225044250488,-6.791579246520996,5.868725776672363,3.814711332321167,-1.1756435632705688,-0.7700408101081848,0.6636930704116821,33.7467155456543,6.666328430175781,-13.763120651245117,-0.3558616638183594,-0.15721464157104492,1.5637409687042236,-6.435717582702637,6.025940418243408,2.2509703636169434
3_20251106_214940,1762436945245,3,0.7207419276237488,0.2891813814640045,0.5081117153167725,0.37246161699295044,-1.2126364707946777,2.736696243286133,1.1136573553085327,-6.21938943862915,6.4002156257629395,4.506605625152588,-1.1622045040130615,-0.6069399118423462,0.7412729263305664,33.42203903198242,7.301265716552734,-14.345308303833008,0.17306280136108398,0.2994198799133301,1.8045082092285156,-6.392452239990234,6.100795745849609,2.7020974159240723
3_20251106_214940,1762436945264,3,0.7252869009971619,0.2874981462955475,0.4970480501651764,0.3797985315322876,-1.2495832443237305,2.7210822105407715,1.156538724899292,-5.551435947418213,6.706660270690918,4.7675628662109375,-1.2629971504211426,-0.4016893804073334,0.6930146217346191,33.1027946472168,7.81182861328125,-14.970193862915039,0.6728129386901855,0.4846916198730469,1.6523723602294922,-6.224248886108398,6.221968650817871,3.1151905059814453
3_20251106_214940,1762436945283,3,0.729159951210022,0.28415611386299133,0.48700612783432007,0.3878222703933716,-1.3054769039154053,2.6986331939697266,1.2475253343582153,-4.507608890533447,7.142386436462402,5.148223876953125,-1.2629971504211426,-0.4016893804073334,0.6930146217346191,32.81711196899414,8.072944641113281,-15.44971752166748,1.1480636596679688,0.6176052093505859,1.3411707878112793,-5.655672550201416,6.524781227111816,3.8070530891418457
3_20251106_214940,1762436945303,3,0.7331159710884094,0.2790875732898712,0.4774908125400543,0.39579492807388306,-1.3273330926895142,2.690957546234131,1.2985498905181885,-4.633298873901367,7.245332717895508,5.88560676574707,-1.38700270652771,-0.24836233258247375,0.4266775846481323,32.601749420166016,8.311824798583984,-15.737598419189453,0.8178987503051758,0.5764408111572266,1.6628427505493164,-5.451197624206543,6.668891906738281,4.222764015197754
3_20251106_214940,1762436945322,3,0.7373132705688477,0.2731057405471802,0.4685106575489044,0.40284010767936707,-1.3273330926895142,2.690957546234131,1.2985498905181885,-4.633298873901367,7.245332717895508,5.88560676574707,-1.3167533874511719,-0.06815722584724426,0.35764986276626587,32.3687744140625,8.46133804321289,-15.960236549377441,0.8178987503051758,0.5764408111572266,1.6628427505493164,-5.451197624206543,6.668891906738281,4.222764015197754
3_20251106_214940,1762436945341,3,0.7406521439552307,0.2663881182670593,0.46117860078811646,0.40961694717407227,-1.3642504215240479,2.6769514083862305,1.4069422483444214,-4.8810882568359375,6.42535400390625,5.115903854370117,-1.3363010883331299,-0.04250091314315796,0.4114059507846832,32.1643180847168,8.486316680908203,-16.048879623413086,0.36123085021972656,-0.2263469696044922,0.4693336486816406,-5.242319107055664,6.651700973510742,4.646570205688477
3_20251106_214940,1762436945360,3,0.7435697913169861,0.2595053017139435,0.4538755714893341,0.41684284806251526,-1.3642504215240479,2.6769514083862305,1.4069422483444214,-4.8810882568359375,6.42535400390625,5.115903854370117,-1.4389262199401855,-0.14023926854133606,0.5213615894317627,32.026451110839844,8.414390563964844,-16.015045166015625,0.36123085021972656,-0.2263469696044922,0.4693336486816406,-5.242319107055664,6.651700973510742,4.646570205688477
3_20251106_214940,1762436945380,3,0.7465702891349792,0.25271424651145935,0.4452725946903229,0.424853652715683,-1.3924025297164917,2.662194013595581,1.51188325881958,-4.7853240966796875,6.510344505310059,6.212400913238525,-1.4829084873199463,-0.13657407462596893,0.5555700063705444,31.814367294311523,8.324600219726562,-15.930353164672852,0.3043513298034668,-0.0724644660949707,1.1157078742980957,-5.089675426483154,6.582808971405029,5.09669303894043
3_20251106_214940,1762436945400,3,0.7493531703948975,0.24558250606060028,0.43637365102767944,0.4332863986492157,-1.4052222967147827,2.6547558307647705,1.5726077556610107,-4.794900894165039,6.6492018699646,6.634959697723389,-1.5165060758590698,0.02286161482334137,0.5140312314033508,31.71418571472168,8.291378021240234,-15.759092330932617,0.23581981658935547,0.05311441421508789,1.2306132316589355,-5.0307207107543945,6.596087455749512,5.404346466064453
3_20251106_214940,1762436945419,3,0.7515738010406494,0.23723801970481873,0.4284422695636749,0.4419187903404236,-1.4157946109771729,2.648022174835205,1.6281585693359375,-4.867920875549316,6.472039222717285,6.627777099609375,-1.583701252937317,0.22994473576545715,0.4938727021217346,31.538389205932617,8.226795196533203,-15.44262409210205,0.13023996353149414,-0.09923887252807617,0.9787445068359375,-4.9981608390808105,6.571278095245361,5.6490325927734375
3_20251106_214940,1762436945437,3,0.7530161142349243,0.22737064957618713,0.4216749370098114,0.4510648846626282,-1.4254547357559204,2.6405739784240723,1.6799777746200562,-5.05705451965332,6.0075836181640625,6.389564514160156,-1.6056923866271973,0.2220035195350647,0.5897784233093262,31.538389205932617,8.226795196533203,-15.44262409210205,-0.04711484909057617,-0.4509553909301758,0.5924253463745117,-5.009939670562744,6.458539009094238,5.7971391677856445
3_20251106_214940,1762436945456,3,0.7538871765136719,0.21762703359127045,0.4145500361919403,0.4609130620956421,-1.4254547357559204,2.6405739784240723,1.6799777746200562,-5.05705451965332,6.0075836181640625,6.389564514160156,-1.6227965354919434,0.041187554597854614,0.8475633859634399,31.447118759155273,8.178306579589844,-14.91971492767334,-0.04711484909057617,-0.4509553909301758,0.5924253463745117,-5.009939670562744,6.458539009094238,5.7971391677856445
3_20251106_214940,1762436945475,3,0.7540989518165588,0.20935970544815063,0.4055655002593994,0.4722498655319214,-1.4420480728149414,2.625155210494995,1.7907127141952515,-4.2538347244262695,6.701871871948242,7.472894191741943,-1.6227965354919434,0.041187554597854614,0.8475633859634399,31.351606369018555,8.042861938476562,-14.493267059326172,0.5905880928039551,0.23923873901367188,1.1806964874267578,-4.844422817230225,6.46263313293457,6.2921977043151855
3_20251106_214940,1762436945494,3,0.7532980442047119,0.20253752171993256,0.3952105641365051,0.485107421875,-1.4454821348190308,2.6205742359161377,1.8492885828018188,-3.658900737762451,7.245332717895508,8.271326065063477,-1.619131326675415,-0.05960512533783913,1.1120678186416626,31.276334762573242,7.833797454833984,-14.080937385559082,0.9484176635742188,0.62615966796875,1.5833024978637695,-4.60731840133667,6.619173049926758,6.688023567199707
3_20251106_214940,1762436945513,3,0.7517341375350952,0.1966671347618103,0.3846020996570587,0.4982961118221283,-1.4455064535140991,2.618556261062622,1.9070816040039062,-3.362032651901245,7.473968505859375,8.74894905090332,-1.4254872798919678,0.01003345474600792,1.1206198930740356,31.146074295043945,7.508678436279297,-13.68646240234375,0.9962284564971924,0.6838359832763672,1.648740291595459,-4.3582611083984375,6.790132522583008,7.100208759307861
3_20251106_214940,1762436945531,3,0.7489250302314758,0.19035114347934723,0.3755027949810028,0.5117376446723938,-1.4424329996109009,2.6180245876312256,1.968044638633728,-3.2291600704193115,7.333914279937744,8.19710922241211,-1.4254872798919678,0.01003345474600792,1.1206198930740356,31.03434944152832,7.084419250488281,-13.266084671020508,0.9032809734344482,0.435025691986084,0.8775205612182617,-4.13244104385376,6.89888858795166,7.319588661193848
3_20251106_214940,1762436945551,3,0.7465265989303589,0.18474720418453217,0.36748960614204407,0.5229893922805786,-1.4359221458435059,2.6191318035125732,2.031540632247925,-3.001720666885376,7.4380574226379395,8.15281867980957,-1.2941513061523438,0.11204786598682404,1.0344879627227783,30.96333122253418,6.536418914794922,-12.711223602294922,0.904576301574707,0.4313349723815918,0.6665840148925781,-3.906296968460083,7.006722450256348,7.486234664916992
3_20251106_214940,1762436945570,3,0.7437938451766968,0.1795235574245453,0.35938990116119385,0.5342105031013489,-1.4274795055389404,2.6224377155303955,2.089460849761963,-2.738369941711426,7.96475887298584,8.960826873779297,-1.2709383964538574,0.0521831214427948,1.0534248352050781,30.843259811401367,5.973224639892578,-12.212652206420898,0.9343416690826416,0.7664289474487305,1.179673671722412,-3.6727116107940674,7.198329925537109,7.781153202056885
3_20251106_214940,1762436945590,3,0.7408857941627502,0.1743098795413971,0.35108980536460876,0.5453808307647705,-1.4156546592712402,2.6290576457977295,2.15665602684021,-2.7144289016723633,8.228110313415527,9.773622512817383,-1.204354166984558,0.1914602518081665,0.9269757866859436,30.74030113220215,5.274162292480469,-11.783584594726562,0.7666261196136475,0.8238239288330078,1.5939750671386719,-3.4810550212860107,7.4042863845825195,8.179647445678711
3_20251106_214940,1762436945608,3,0.7379557490348816,0.1684759557247162,0.34417489171028137,0.5555005073547363,-1.4034147262573242,2.636967420578003,2.2204840183258057,-2.909547805786133,8.109601974487305,9.340291023254395,-1.0858464241027832,0.45657554268836975,0.8267939686775208,30.583242416381836,4.460258483886719,-11.494016647338867,0.45720577239990234,0.5642528533935547,0.9285154342651367,-3.366753578186035,7.54534912109375,8.411775588989258
3_20251106_214940,1762436945628,3,0.7342702150344849,0.16163519024848938,0.3398340344429016,0.5650081038475037,-1.3899776935577393,2.645824670791626,2.286163091659546,-2.972991466522217,7.857025146484375,9.020678520202637,-1.0174295902252197,0.5848571062088013,0.865278422832489,30.34169578552246,3.66510009765625,-11.126256942749023,0.31500983238220215,0.24934101104736328,0.4871225357055664,-3.288001298904419,7.607684135437012,8.53355598449707
3_20251106_214940,1762436945648,3,0.7296754717826843,0.15465004742145538,0.3367781341075897,0.574662983417511,-1.3755016326904297,2.6534831523895264,2.3491220474243164,-2.7252023220062256,7.3590521812438965,8.719022750854492,-0.9575648307800293,0.5860788822174072,1.0460944175720215,30.123620986938477,2.85870361328125,-10.730748176574707,0.4502391815185547,-0.19890546798706055,0.14837360382080078,-3.1754415035247803,7.557957649230957,8.570649147033691
3_20251106_214940,1762436945665,3,0.7238965034484863,0.14862577617168427,0.33379271626472473,0.5852065086364746,-1.3755016326904297,2.6534831523895264,2.3491220474243164,-2.7252023220062256,7.3590521812438965,8.719022750854492,-0.9575648307800293,0.5860788822174072,1.0460944175720215,29.893163681030273,2.0512428283691406,-10.308696746826172,0.4502391815185547,-0.19890546798706055,0.14837360382080078,-3.1754415035247803,7.557957649230957,8.570649147033691
3_20251106_214940,1762436945684,3,0.717289388179779,0.144502192735672,0.3296125829219818,0.596632719039917,-1.3600456714630127,2.6603517532348633,2.406710624694824,-2.3038406372070312,7.542201042175293,8.85069751739502,-0.8335592746734619,0.3203527331352234,1.290440320968628,29.693227767944336,1.145172119140625,-9.833220481872559,0.6972808837890625,-0.01260519027709961,0.22403907775878906,-3.0011215209960938,7.554806232452393,8.62665843963623
3_20251106_214940,1762436945705,3,0.7104089856147766,0.14153192937374115,0.3250053822994232,0.6079961657524109,-1.3227474689483643,2.674504518508911,2.5141103267669678,-1.571246862411499,7.853433609008789,9.025466918945312,-0.7620881199836731,0.39426735043525696,1.1529957056045532,29.48591423034668,0.3028411865234375,-9.53262710571289,0.9446148872375488,0.20433712005615234,0.2353191375732422,-2.515861749649048,7.649096488952637,8.79014778137207
3_20251106_214940,1762436945722,3,0.7036423087120056,0.13814958930015564,0.3214090168476105,0.6184645891189575,-1.3021539449691772,2.68131947517395,2.562011241912842,-1.5592762231826782,7.702605247497559,8.468839645385742,-0.7706401944160461,0.526824951171875,1.025325059890747,29.32050895690918,-0.6500015258789062,-9.164865493774414,0.7652684450149536,0.04280662536621094,-0.2570466995239258,-2.324544668197632,7.659798622131348,8.725886344909668
3_20251106_214940,1762436945742,3,0.6971365213394165,0.13358356058597565,0.31878042221069336,0.6281203627586365,-1.2775441408157349,2.6887524127960205,2.611300468444824,-1.3797187805175781,7.738516807556152,8.30723762512207,-0.8231745958328247,0.546983540058136,0.9905056953430176,29.120969772338867,-1.5555343627929688,-8.743453979492188,0.7558605670928955,0.06297445297241211,-0.3349189758300781,-2.1355793476104736,7.67554235458374,8.642156600952148
3_20251106_214940,1762436945761,3,0.6906867027282715,0.12842178344726562,0.31605517864227295,0.6376274824142456,-1.2523863315582275,2.695692539215088,2.6545467376708984,-1.061303734779358,7.760063648223877,8.191123962402344,-0.7400969862937927,0.5023903846740723,0.9648493528366089,28.922542572021484,-2.4363555908203125,-8.280965805053711,0.8594205379486084,0.06761693954467773,-0.3608264923095703,-1.9207242727279663,7.692446708679199,8.551950454711914
3_20251106_214940,1762436945780,3,0.6842369437217712,0.12399712204933167,0.31356143951416016,0.6466248631477356,-1.2523863315582275,2.695692539215088,2.6545467376708984,-1.061303734779358,7.760063648223877,8.191123962402344,-0.6393043398857117,0.39365649223327637,0.8909347653388977,28.70850372314453,-3.3806228637695312,-7.833804130554199,0.8594205379486084,0.06761693954467773,-0.3608264923095703,-1.9207242727279663,7.692446708679199,8.551950454711914
3_20251106_214940,1762436945799,3,0.6782578229904175,0.12068845331668854,0.3110327422618866,0.6547207832336426,-1.1976463794708252,2.7097036838531494,2.7314817905426025,-0.8841404318809509,7.837871551513672,8.20907974243164,-0.6393043398857117,0.39365649223327637,0.8909347653388977,28.49445152282715,-4.3365020751953125,-7.481520652770996,0.6576678156852722,0.09211444854736328,-0.19836902618408203,-1.5418082475662231,7.745757102966309,8.407448768615723
3_20251106_214940,1762436945821,3,0.6733133792877197,0.11833840608596802,0.3079931437969208,0.661653459072113,-1.1682486534118652,2.7168891429901123,2.7690682411193848,-1.0110276937484741,7.813930511474609,8.572982788085938,-0.5348464846611023,0.19512546062469482,0.6227651834487915,28.35974884033203,-5.1863555908203125,-7.205280303955078,0.4246244430541992,0.054538726806640625,0.13242721557617188,-1.4356521368026733,7.759391784667969,8.440555572509766
3_20251106_214940,1762436945839,3,0.6692900657653809,0.11614151298999786,0.30511966347694397,0.6674308776855469,-1.139251947402954,2.7231640815734863,2.805840253829956,-1.0840476751327515,7.578112602233887,8.79084587097168,-0.5348464846611023,0.19512546062469482,0.6227651834487915,28.35974884033203,-5.1863555908203125,-7.205280303955078,0.2812836170196533,-0.14502334594726562,0.28023242950439453,-1.3653312921524048,7.723135948181152,8.510613441467285
3_20251106_214940,1762436945857,3,0.665800929069519,0.11323574185371399,0.3030242621898651,0.672356367111206,-1.1139116287231445,2.7273261547088623,2.837961435317993,-1.1427030563354492,7.234559059143066,8.787254333496094,-0.43771892786026,0.3252396285533905,0.423012375831604,28.12030601501465,-5.9554595947265625,-6.931606292724609,0.1781024932861328,-0.39086151123046875,0.2213125228881836,-1.320805549621582,7.625420570373535,8.56594181060791
3_20251106_214940,1762436945876,3,0.6623632311820984,0.11005979031324387,0.3017655611038208,0.6768303513526917,-1.0880975723266602,2.7299118041992188,2.870802164077759,-1.1738263368606567,7.046622276306152,8.795633316040039,-0.43771892786026,0.3252396285533905,0.423012375831604,27.84794044494629,-6.65240478515625,-6.576722145080566,0.11758339405059814,-0.46303844451904297,0.18375301361083984,-1.2914097309112549,7.509660720825195,8.6118803024292
3_20251106_214940,1762436945895,3,0.6590893864631653,0.10745488107204437,0.30111995339393616,0.6807212829589844,-1.063796877861023,2.7300796508789062,2.9013259410858154,-1.372536540031433,6.675537109375,8.36589241027832,-0.23613359034061432,0.29164206981658936,0.33382612466812134,27.569015502929688,-7.2613067626953125,-6.315094947814941,-0.06490147113800049,-0.6672987937927246,-0.1967906951904297,-1.3076350688934326,7.342835903167725,8.56268310546875
3_20251106_214940,1762436945914,3,0.6560861468315125,0.10540984570980072,0.30098631978034973,0.683993399143219,-1.063796877861023,2.7300796508789062,2.9013259410858154,-1.372536540031433,6.675537109375,8.36589241027832,-0.23613359034061432,0.29164206981658936,0.33382612466812134,27.320186614990234,-7.779640197753906,-6.158769607543945,-0.06490147113800049,-0.6672987937927246,-0.1967906951904297,-1.3076350688934326,7.342835903167725,8.56268310546875
3_20251106_214940,1762436945934,3,0.6533210873603821,0.10351385176181793,0.3006148338317871,0.6870859861373901,-1.0201489925384521,2.72247314453125,2.955690860748291,-1.6993310451507568,6.227840423583984,8.217458724975586,-0.27522891759872437,0.2226143777370453,0.3356587290763855,27.172977447509766,-8.216407775878906,-5.983420372009277,-0.26524150371551514,-0.7436676025390625,-0.1922140121459961,-1.4340895414352417,6.971508026123047,8.409672737121582
3_20251106_214940,1762436945952,3,0.6507453918457031,0.10163699835538864,0.29984039068222046,0.6901420950889587,-1.0025365352630615,2.716005563735962,2.978391408920288,-1.665813684463501,6.148835182189941,8.340755462646484,-0.27156373858451843,0.226890429854393,0.36375850439071655,26.991819381713867,-8.617218017578125,-5.8763322830200195,-0.1853792667388916,-0.6581382751464844,-0.055133819580078125,-1.4804344177246094,6.806973457336426,8.395889282226562
3_20251106_214940,1762436945971,3,0.6477127075195312,0.09967005997896194,0.29909148812294006,0.6935981512069702,-0.9852228760719299,2.707458257675171,3.0012009143829346,-1.6071581840515137,6.0554656982421875,8.412578582763672,-0.21902936697006226,0.23910772800445557,0.3881931006908417,26.8255672454834,-8.967140197753906,-5.754181861877441,-0.10137903690338135,-0.6012063026428223,0.0133514404296875,-1.5057791471481323,6.65667200088501,8.399227142333984
3_20251106_214940,1762436945991,3,0.6444143652915955,0.0980006754398346,0.29870927333831787,0.6970643997192383,-0.9679044485092163,2.6967084407806396,3.0233705043792725,-1.5042120218276978,5.932168960571289,8.188729286193848,-0.21902936697006226,0.23910772800445557,0.3881931006908417,26.64461898803711,-9.356063842773438,-5.579248428344727,0.0012537240982055664,-0.5796027183532715,-0.1683979034423828,-1.5054657459259033,6.5117716789245605,8.35712718963623
3_20251106_214940,1762436946010,3,0.640828013420105,0.0963931754231453,0.2986954152584076,0.7005918025970459,-0.9529821276664734,2.6856508255004883,3.041008710861206,-1.4587241411209106,5.753808975219727,7.822432518005371,-0.16954933106899261,0.20795363187789917,0.4291210174560547,26.51784324645996,-9.653236389160156,-5.468087196350098,0.03739333152770996,-0.6063699722290039,-0.42775535583496094,-1.4961174726486206,6.3601789474487305,8.250187873840332
3_20251106_214940,1762436946029,3,0.6372129321098328,0.09532921016216278,0.2983822226524353,0.704159140586853,-0.9529821276664734,2.6856508255004883,3.041008710861206,-1.4587241411209106,5.753808975219727,7.822432518005371,-0.1750471144914627,0.13098466396331787,0.46577292680740356,26.380685806274414,-9.925552368164062,-5.410953521728516,0.03739333152770996,-0.6063699722290039,-0.42775535583496094,-1.4961174726486206,6.3601789474487305,8.250187873840332
3_20251106_214940,1762436946049,3,0.6334916353225708,0.09481797367334366,0.29755616188049316,0.7079253196716309,-0.9203948378562927,2.6585476398468018,3.0720818042755127,-1.1857969760894775,5.814858436584473,7.51957893371582,-0.20314688980579376,0.06440041959285736,0.47188156843185425,26.264488220214844,-10.247314453125,-5.272796630859375,0.2210139036178589,-0.35838985443115234,-0.4911470413208008,-1.4068108797073364,6.173248291015625,8.010725975036621
3_20251106_214940,1762436946067,3,0.6299670934677124,0.09466960281133652,0.2961433529853821,0.711672842502594,-0.9057974815368652,2.6461095809936523,3.0842299461364746,-1.1247472763061523,5.934563636779785,8.029521942138672,-0.20314688980579376,0.06440041959285736,0.47188156843185425,26.1688289642334,-10.642295837402344,-5.189308166503906,0.22565090656280518,-0.1909475326538086,0.015036582946777344,-1.3503981828689575,6.125511169433594,8.014485359191895
3_20251106_214940,1762436946086,3,0.6268954277038574,0.09484490752220154,0.2938043475151062,0.715321958065033,-0.8907244205474854,2.6331064701080322,3.0973267555236816,-1.1917821168899536,5.932169437408447,8.347936630249023,-0.24468569457530975,-0.05166388303041458,0.37841925024986267,25.939729690551758,-11.033592224121094,-5.097434043884277,0.12689292430877686,-0.15467357635498047,0.26676082611083984,-1.3186750411987305,6.086843013763428,8.081175804138184
3_20251106_214940,1762436946105,3,0.6242567896842957,0.09495547413825989,0.29145124554634094,0.7185701727867126,-0.8907244205474854,2.6331064701080322,3.0973267555236816,-1.1917821168899536,5.932169437408447,8.347936630249023,-0.24468569457530975,-0.05166388303041458,0.37841925024986267,25.72663688659668,-11.36090087890625,-5.04429817199707,0.12689292430877686,-0.15467357635498047,0.26676082611083984,-1.3186750411987305,6.086843013763428,8.081175804138184
3_20251106_214940,1762436946123,3,0.6217767000198364,0.09474097192287445,0.2895166575908661,0.7215247750282288,-0.8638957738876343,2.607775926589966,3.1230180263519287,-1.3761277198791504,5.970475196838379,8.502357482910156,-0.21902936697006226,-0.01867718994617462,0.31855452060699463,25.53862190246582,-11.674064636230469,-4.989917755126953,-0.03581202030181885,-0.046512603759765625,0.3023080825805664,-1.3403156995773315,6.0169878005981445,8.20004940032959
3_20251106_214940,1762436946143,3,0.6196286678314209,0.09402009844779968,0.2875365614891052,0.7242535948753357,-0.8638957738876343,2.607775926589966,3.1230180263519287,-1.3761277198791504,5.970475196838379,8.502357482910156,-0.253237783908844,0.005146535113453865,0.27640485763549805,25.362693786621094,-11.986572265625,-4.921530723571777,-0.03581202030181885,-0.046512603759765625,0.3023080825805664,-1.3403156995773315,6.0169878005981445,8.20004940032959
3_20251106_214940,1762436946163,3,0.6176334619522095,0.09291490912437439,0.28588375449180603,0.7267504334449768,-0.8398616313934326,2.583081007003784,3.151860475540161,-1.633493185043335,5.939351558685303,8.635229110717773,-0.24896173179149628,0.047296199947595596,0.23058997094631195,25.21333885192871,-12.271293640136719,-4.959765434265137,-0.21502196788787842,-0.054476261138916016,0.28119659423828125,-1.4184712171554565,5.993827819824219,8.354032516479492
3_20251106_214940,1762436946182,3,0.6157007813453674,0.09210620075464249,0.28459829092025757,0.7289943695068359,-0.830037534236908,2.571276903152466,3.166910171508789,-1.8022773265838623,5.98603630065918,8.651987075805664,-0.12617792189121246,0.05523744225502014,0.2232595831155777,25.074857711791992,-12.5802001953125,-5.011553764343262,-0.30704498291015625,-0.00623321533203125,0.23836326599121094,-1.495232343673706,5.992269515991211,8.413623809814453
3_20251106_214940,1762436946200,3,0.61359041929245,0.09157657623291016,0.28387805819511414,0.7311182022094727,-0.8225178122520447,2.5606207847595215,3.1799046993255615,-1.852553367614746,5.76338529586792,8.465248107910156,-0.03882427141070366,0.09555452316999435,0.2593006491661072,24.91744613647461,-12.790512084960938,-5.035179138183594,-0.2858567237854004,-0.1831073760986328,0.041298866271972656,-1.5666966438293457,5.946492671966553,8.423949241638184
3_20251106_214940,1762436946219,3,0.6110358834266663,0.09134335815906525,0.284000039100647,0.7332363128662109,-0.8155086040496826,2.5488121509552,3.192533016204834,-1.760380506515503,5.537143230438232,8.277311325073242,0.04730765521526337,0.09921970218420029,0.3319935202598572,24.73818588256836,-12.952583312988281,-5.018179893493652,-0.1549471616744995,-0.32747936248779297,-0.1173105239868164,-1.6054333448410034,5.864622592926025,8.394621849060059
3_20251106_214940,1762436946240,3,0.6078900098800659,0.09174251556396484,0.2846779227256775,0.7355348467826843,-0.8155086040496826,2.5488121509552,3.192533016204834,-1.760380506515503,5.537143230438232,8.277311325073242,0.11694623529911041,0.10532835870981216,0.3918582797050476,24.73818588256836,-12.952583312988281,-5.018179893493652,-0.1549471616744995,-0.32747936248779297,-0.1173105239868164,-1.6054333448410034,5.864622592926025,8.394621849060059
3_20251106_214940,1762436946260,3,0.6042404174804688,0.09264647215604782,0.2858003079891205,0.7379893660545349,-0.7990688681602478,2.5217630863189697,3.212785005569458,-1.0816535949707031,5.491655349731445,7.508805751800537,0.13466130197048187,0.01919642463326454,0.37414318323135376,24.629623413085938,-13.372528076171875,-5.030323028564453,0.3921027183532715,-0.23812437057495117,-0.6377882957458496,-1.4737563133239746,5.7297797203063965,8.146594047546387
3_20251106_214940,1762436946279,3,0.6008315086364746,0.09423501789569855,0.2865622937679291,0.7402724623680115,-0.7901211977005005,2.5093448162078857,3.2187042236328125,-1.027786374092102,5.573054313659668,7.559081554412842,0.06929878890514374,-0.11580467969179153,0.27090704441070557,24.629623413085938,-13.372528076171875,-5.030323028564453,0.3567758798599243,-0.1253800392150879,-0.47001028060913086,-1.3845622539520264,5.698434352874756,8.029091835021973
3_20251106_214940,1762436946297,3,0.5986529588699341,0.09623511880636215,0.2861781418323517,0.7419268488883972,-0.7901211977005005,2.5093448162078857,3.2187042236328125,-1.027786374092102,5.573054313659668,7.559081554412842,0.06929878890514374,-0.11580467969179153,0.27090704441070557,24.532140731811523,-13.591827392578125,-5.0112104415893555,0.3567758798599243,-0.1253800392150879,-0.47001028060913086,-1.3845622539520264,5.698434352874756,8.029091835021973
3_20251106_214940,1762436946315,3,0.5976568460464478,0.09731364250183105,0.28511154651641846,0.7429991364479065,-0.7727588415145874,2.486898899078369,3.229092836380005,-1.3007135391235352,5.618542671203613,8.164789199829102,-0.09196949750185013,-0.05532906949520111,-0.023529745638370514,24.437562942504883,-13.772377014160156,-5.0994367599487305,0.02321028709411621,-0.05113029479980469,0.11691570281982422,-1.3239238262176514,5.669672966003418,8.047873497009277
3_20251106_214940,1762436946335,3,0.5975561738014221,0.09714687615633011,0.2841717302799225,0.7434618473052979,-0.7727588415145874,2.486898899078369,3.229092836380005,-1.3007135391235352,5.618542671203613,8.164789199829102,-0.09196949750185013,-0.05532906949520111,-0.023529745638370514,24.355987548828125,-13.927825927734375,-5.105546951293945,0.02321028709411621,-0.05113029479980469,0.11691570281982422,-1.3239238262176514,5.669672966003418,8.047873497009277
3_20251106_214940,1762436946354,3,0.597966730594635,0.09670206159353256,0.28336483240127563,0.7434977293014526,-0.7579408288002014,2.4645302295684814,3.240924596786499,-1.6921488046646118,5.516793251037598,8.394622802734375,-0.0724218338727951,-0.07732019573450089,-0.12798762321472168,24.33616065979004,-14.055000305175781,-5.027579307556152,-0.26669156551361084,-0.10684490203857422,0.2529478073120117,-1.425457239151001,5.623638153076172,8.141674995422363
3_20251106_214940,1762436946372,3,0.5986050963401794,0.0971393808722496,0.2823903560638428,0.7432977557182312,-0.7579408288002014,2.4645302295684814,3.240924596786499,-1.6921488046646118,5.516793251037598,8.394622802734375,-0.0724218338727951,-0.07732019573450089,-0.12798762321472168,24.26616668701172,-14.222076416015625,-5.046978950500488,-0.26669156551361084,-0.10684490203857422,0.2529478073120117,-1.425457239151001,5.623638153076172,8.141674995422363
3_20251106_214940,1762436946391,3,0.5997822284698486,0.0972767025232315,0.28155481815338135,0.7426475882530212,-0.748324453830719,2.443183660507202,3.255141496658325,-1.829809308052063,5.492852210998535,8.50115966796875,-0.03576994687318802,-0.028451021760702133,-0.14814616739749908,24.247426986694336,-14.347763061523438,-5.117690086364746,-0.2649141550064087,-0.08925724029541016,0.23121929168701172,-1.5648951530456543,5.582109451293945,8.269940376281738
3_20251106_214940,1762436946410,3,0.6003223061561584,0.09695132821798325,0.281172513961792,0.7423985004425049,-0.7450031638145447,2.4328794479370117,3.2627813816070557,-1.8130507469177246,5.4713053703308105,8.523902893066406,-0.02172005921602249,-0.018066324293613434,-0.15364395081996918,24.235031127929688,-14.360443115234375,-5.186025619506836,-0.19852447509765625,-0.08864355087280273,0.2031698226928711,-1.6145262718200684,5.559948921203613,8.320733070373535
3_20251106_214940,1762436946430,3,0.6009250283241272,0.09656993299722672,0.28094810247421265,0.742045521736145,-0.7421252727508545,2.422156572341919,3.2716758251190186,-1.760380506515503,5.422226428985596,8.733386993408203,-0.02172005921602249,-0.018066324293613434,-0.15364395081996918,24.283775329589844,-14.357269287109375,-5.184063911437988,-0.11668336391448975,-0.11017847061157227,0.3301229476928711,-1.6436971426010132,5.532404899597168,8.403264045715332
3_20251106_214940,1762436946449,3,0.6014830470085144,0.09626567363739014,0.2808905243873596,0.741654634475708,-0.7397988438606262,2.4122097492218018,3.2798500061035156,-1.742424726486206,5.434196949005127,8.456869125366211,0.0558597594499588,0.027748528867959976,-0.17930026352405548,24.36443519592285,-14.22625732421875,-5.246063232421875,-0.07898211479187012,-0.07856607437133789,0.042883872985839844,-1.663442611694336,5.512763023376465,8.413985252380371
3_20251106_214940,1762436946469,3,0.6020105481147766,0.09588600695133209,0.28116315603256226,0.7411723136901855,-0.7378471493721008,2.4015729427337646,3.287357807159424,-1.7867156267166138,5.285762786865234,8.19471549987793,0.06685532629489899,0.03019198775291443,-0.20495657622814178,24.441680908203125,-14.146286010742188,-5.228020668029785,-0.09861838817596436,-0.18160057067871094,-0.1754159927368164,-1.6880972385406494,5.467363357543945,8.370131492614746
3_20251106_214940,1762436946488,3,0.6028716564178467,0.09570417553186417,0.28173476457595825,0.7402783632278442,-0.7364351749420166,2.3912811279296875,3.2938098907470703,-1.8154447078704834,5.215136528015137,8.25217342376709,0.025316525250673294,0.035078905522823334,-0.2086217701435089,24.499488830566406,-13.980003356933594,-5.209111213684082,-0.10187792778015137,-0.2017817497253418,-0.09436702728271484,-1.713566780090332,5.4169182777404785,8.346540451049805
3_20251106_214940,1762436946507,3,0.6037358045578003,0.09512342512607574,0.2821555435657501,0.7394882440567017,-0.7354521155357361,2.380763053894043,3.299571990966797,-1.8441739082336426,5.146904945373535,8.212671279907227,0.025316525250673294,0.035078905522823334,-0.2086217701435089,24.54509925842285,-13.826126098632812,-5.28557014465332,-0.10448575019836426,-0.21601057052612305,-0.10709476470947266,-1.7396881580352783,5.362915515899658,8.3197660446167
3_20251106_214940,1762436946527,3,0.604497492313385,0.09449324011802673,0.28254202008247375,0.7387988567352295,-0.73515784740448,2.3693082332611084,3.3040988445281982,-1.9662730693817139,5.054732322692871,7.913408279418945,0.03325776383280754,0.041187554597854614,-0.19273929297924042,24.652257919311523,-13.644241333007812,-5.250918388366699,-0.18126797676086426,-0.24654626846313477,-0.3250856399536133,-1.7850050926208496,5.301278591156006,8.238493919372559
3_20251106_214940,1762436946544,3,0.6050377488136292,0.09417975693941116,0.2829572260379791,0.7382376194000244,-0.73515784740448,2.3693082332611084,3.3040988445281982,-1.9662730693817139,5.054732322692871,7.913408279418945,0.061357542872428894,0.021029017865657806,-0.1573091298341751,24.734846115112305,-13.464218139648438,-5.190215110778809,-0.18126797676086426,-0.24654626846313477,-0.3250856399536133,-1.7850050926208496,5.301278591156006,8.238493919372559
3_20251106_214940,1762436946564,3,0.6053556799888611,0.09372438490390778,0.2831421196460724,0.7379639148712158,-0.735543966293335,2.358372688293457,3.307033061981201,-2.0225343704223633,5.083461284637451,7.818841457366943,-0.033326487988233566,-0.0015729765873402357,-0.07423151284456253,24.76898765563965,-13.286964416503906,-5.172022819519043,-0.19002342224121094,-0.1742539405822754,-0.335721492767334,-1.8325109481811523,5.257715225219727,8.154562950134277
3_20251106_214940,1762436946584,3,0.6055343747138977,0.09314146637916565,0.28311648964881897,0.737900972366333,-0.7370156049728394,2.3385190963745117,3.310384511947632,-1.9339526891708374,5.187604904174805,7.861935138702393,-0.049819838255643845,-0.006459894590079784,-0.06873372942209244,24.789731979370117,-13.135353088378906,-5.181880950927734,-0.061475276947021484,-0.03950786590576172,-0.1939854621887207,-1.872477412223816,5.227112770080566,8.055920600891113
3_20251106_214940,1762436946601,3,0.6057033538818359,0.09267197549343109,0.2828770577907562,0.7379132509231567,-0.738186240196228,2.328610420227051,3.3117926120758057,-2.0021843910217285,5.168452262878418,8.084587097167969,-0.049819838255643845,-0.006459894590079784,-0.06873372942209244,24.79266357421875,-13.073379516601562,-5.09946346282959,-0.10376560688018799,-0.04692840576171875,0.022933006286621094,-1.8984187841415405,5.215380668640137,8.061654090881348
3_20251106_214940,1762436946621,3,0.606032133102417,0.09216020256280899,0.2822520434856415,0.7379466891288757,-0.7398906946182251,2.318570137023926,3.3137543201446533,-2.074007272720337,5.172043323516846,8.243794441223145,-0.11640408635139465,-0.01867718994617462,-0.08950313180685043,24.82438087463379,-12.945816040039062,-5.136391639709473,-0.1404707431793213,-0.03466987609863281,0.14571285247802734,-1.9335365295410156,5.2067131996154785,8.098081588745117
3_20251106_214940,1762436946641,3,0.6063695549964905,0.09125174582004547,0.2814463675022125,0.7380901575088501,-0.7420541048049927,2.309255838394165,3.315977096557617,-2.1613919734954834,5.114584922790527,8.262947082519531,-0.09502382576465607,-0.03211621195077896,-0.08828140050172806,24.83999252319336,-12.882369995117188,-5.121065139770508,-0.18228435516357422,-0.07370233535766602,0.13189220428466797,-1.9791076183319092,5.188287258148193,8.131054878234863
3_20251106_214940,1762436946659,3,0.6068125367164612,0.09048173576593399,0.28066062927246094,0.7381200194358826,-0.7449936866760254,2.3003036975860596,3.318716526031494,-2.3014469146728516,5.150496006011963,8.359907150268555,-0.09502382576465607,-0.03211621195077896,-0.08828140050172806,24.86848258972168,-12.817184448242188,-5.199861526489258,-0.2578713893890381,-0.030232906341552734,0.18308162689208984,-2.0435755252838135,5.180728912353516,8.176825523376465
3_20251106_214940,1762436946679,3,0.606971263885498,0.09002000093460083,0.2797768712043762,0.7383814454078674,-0.7487390637397766,2.2914016246795654,3.322387456893921,-2.308629035949707,5.197181224822998,8.483203887939453,-0.07425442337989807,-0.0559399351477623,0.022285107523202896,24.908353805541992,-12.763900756835938,-5.264915466308594,-0.21204280853271484,0.013161659240722656,0.2451028823852539,-2.096586227416992,5.184019565582275,8.2381010055542
3_20251106_214940,1762436946699,3,0.606708824634552,0.0894954577088356,0.27905645966529846,0.7389333248138428,-0.7525451183319092,2.2831010818481445,3.3269729614257812,-2.1781506538391113,5.23548698425293,8.59931755065918,-0.06936750560998917,-0.02967275306582451,0.06993255764245987,24.908353805541992,-12.763900756835938,-5.264915466308594,-0.06525158882141113,0.04117393493652344,0.2889728546142578,-2.1128990650177,5.194313049316406,8.310344696044922
3_20251106_214940,1762436946717,3,0.6059752702713013,0.08892827481031418,0.2784591317176819,0.7398285269737244,-0.7556799650192261,2.276155471801758,3.3315491676330566,-2.0644311904907227,5.255836486816406,8.576573371887207,-0.043100323528051376,0.0033139411825686693,0.10230838507413864,24.92426109313965,-12.700050354003906,-5.290138244628906,0.03877425193786621,0.04921913146972656,0.2129831314086914,-2.103205442428589,5.20661735534668,8.363590240478516
3_20251106_214940,1762436946735,3,0.6049167513847351,0.08855752646923065,0.27803850173950195,0.7408966422080994,-0.7583562731742859,2.270061731338501,3.3360848426818848,-1.9806376695632935,5.411452770233154,8.440110206604004,-0.043100323528051376,0.0033139411825686693,0.10230838507413864,24.95184898376465,-12.647689819335938,-5.342166900634766,0.09805428981781006,0.16386795043945312,0.06121635437011719,-2.0786919593811035,5.247584819793701,8.378893852233887
3_20251106_214940,1762436946755,3,0.6037231087684631,0.088349848985672,0.2777653634548187,0.741996705532074,-0.7606684565544128,2.2641384601593018,3.3406946659088135,-1.9100115299224854,5.415043830871582,8.320405006408691,-0.02905043587088585,0.024083342403173447,0.11574741452932358,25.00390625,-12.593612670898438,-5.406730651855469,0.13494443893432617,0.13396692276000977,-0.04679107666015625,-2.0449559688568115,5.281076908111572,8.367196083068848
3_20251106_214940,1762436946775,3,0.6026578545570374,0.08839444071054459,0.2777370512485504,0.7428674697875977,-0.7622691988945007,2.2590131759643555,3.344975471496582,-1.8489621877670288,5.446167469024658,8.334769248962402,-0.03515908494591713,0.040576688945293427,0.08825849741697311,25.017995834350586,-12.567031860351562,-5.473293304443359,0.15679490566253662,0.13207244873046875,-0.025941848754882812,-2.0057570934295654,5.3140950202941895,8.360711097717285
3_20251106_214940,1762436946792,3,0.6016559600830078,0.08842666447162628,0.2777673602104187,0.7436639666557312,-0.7630360126495361,2.25520658493042,3.3484935760498047,-1.7663657665252686,5.465320587158203,8.38863754272461,-0.04737637937068939,0.041187554597854614,0.0687108263373375,25.004499435424805,-12.592803955078125,-5.487828254699707,0.1915130615234375,0.12098026275634766,0.022340774536132812,-1.957878828048706,5.3443403244018555,8.366296768188477
3_20251106_214940,1762436946812,3,0.6011530756950378,0.08856756240129471,0.27765408158302307,0.744096040725708,-0.7634636759757996,2.2510762214660645,3.352442502975464,-1.816641926765442,5.385117530822754,8.371878623962402,-0.04737637937068939,0.041187554597854614,0.0687108263373375,24.944063186645508,-12.596099853515625,-5.557861328125,0.11298954486846924,0.03262186050415039,0.0044651031494140625,-1.9296314716339111,5.3524956703186035,8.367413520812988
3_20251106_214940,1762436946831,3,0.6005030274391174,0.08897756785154343,0.27758464217185974,0.7445977926254272,-0.7640848159790039,2.2470767498016357,3.3556277751922607,-2.015352249145508,5.253442764282227,8.229429244995117,0.010044905357062817,0.0008704822976142168,0.055271804332733154,24.905303955078125,-12.624679565429688,-5.451730728149414,-0.06857657432556152,-0.07924270629882812,-0.11038780212402344,-1.9467756748199463,5.332685470581055,8.33981704711914
3_20251106_214940,1762436946851,3,0.5998128652572632,0.08948837220668793,0.2775847315788269,0.7450926899909973,-0.7640848159790039,2.2470767498016357,3.3556277751922607,-2.015352249145508,5.253442764282227,8.229429244995117,0.005768852308392525,0.0008704822976142168,0.11330395191907883,24.829565048217773,-12.679405212402344,-5.482761383056641,-0.06857657432556152,-0.07924270629882812,-0.11038780212402344,-1.9467756748199463,5.332685470581055,8.33981704711914
3_20251106_214940,1762436946870,3,0.5986669063568115,0.08971446007490158,0.27769461274147034,0.7459456920623779,-0.765175461769104,2.2423148155212402,3.3582613468170166,-2.0775985717773438,5.164860725402832,8.127679824829102,0.005768852308392525,0.0008704822976142168,0.11330395191907883,24.777889251708984,-12.744560241699219,-5.567140579223633,-0.10465824604034424,-0.1342601776123047,-0.1697092056274414,-1.9729403257369995,5.299120903015137,8.297389030456543
3_20251106_214940,1762436946890,3,0.5969403982162476,0.09018127620220184,0.27779853343963623,0.7472332119941711,-0.7665277719497681,2.234100818634033,3.361499786376953,-1.7651686668395996,5.342023849487305,8.167182922363281,0.044253330677747726,-0.03150534629821777,0.26052236557006836,24.76449203491211,-12.77020263671875,-5.595191955566406,0.16725730895996094,0.04450368881225586,-0.07739448547363281,-1.9324259757995605,5.297520160675049,8.244577407836914
3_20251106_214940,1762436946910,3,0.5948867201805115,0.09124932438135147,0.27790024876594543,0.7487020492553711,-0.7658961415290833,2.2309963703155518,3.362475633621216,-1.5425175428390503,5.468911170959473,8.114513397216797,0.05891408771276474,-0.024785835295915604,0.27151793241500854,24.696624755859375,-12.88800048828125,-5.518921852111816,0.3119267225265503,0.13711261749267578,-0.10405158996582031,-1.8544442653656006,5.331798553466797,8.218564987182617
3_20251106_214940,1762436946928,3,0.5927914381027222,0.09273744374513626,0.27799850702285767,0.75014328956604,-0.7637280225753784,2.2281508445739746,3.3633530139923096,-1.3605660200119019,5.473699569702148,8.168379783630371,0.05891408771276474,-0.024785835295915604,0.27151793241500854,24.677587509155273,-13.01409912109375,-5.549084663391113,0.3951026201248169,0.11352062225341797,-0.04014778137207031,-1.7556686401367188,5.3601789474487305,8.208527565002441
3_20251106_214940,1762436946946,3,0.5909268856048584,0.09443964809179306,0.27796781063079834,0.7514122724533081,-0.7607834935188293,2.2260947227478027,3.3643343448638916,-1.3126840591430664,5.51320219039917,8.302449226379395,0.01676441729068756,-0.030894480645656586,0.13224075734615326,24.637306213378906,-13.079536437988281,-5.524843215942383,0.35438764095306396,0.12241888046264648,0.07513713836669922,-1.6670717000961304,5.390783309936523,8.227312088012695
3_20251106_214940,1762436946965,3,0.5897353291511536,0.09588320553302765,0.27763378620147705,0.7522885799407959,-0.7572854161262512,2.2241060733795166,3.36569881439209,-1.4683005809783936,5.417438507080078,8.36589241027832,-0.002172389067709446,-0.010735947638750076,0.007624355144798756,24.603363037109375,-13.256523132324219,-5.570068359375,0.15901684761047363,0.02132415771484375,0.11086463928222656,-1.6273174285888672,5.396114349365234,8.255027770996094
3_20251106_214940,1762436946983,3,0.589439868927002,0.09678531438112259,0.2772778868675232,0.7525358200073242,-0.7572854161262512,2.2241060733795166,3.36569881439209,-1.4683005809783936,5.417438507080078,8.36589241027832,-0.04554378241300583,0.03507890924811363,-0.0760641098022461,24.562068939208984,-13.346534729003906,-5.600419998168945,0.15901684761047363,0.02132415771484375,0.11086463928222656,-1.6273174285888672,5.396114349365234,8.255027770996094
3_20251106_214940,1762436947003,3,0.5895488858222961,0.0965120941400528,0.2769714295864105,0.7525984048843384,-0.7515414953231812,2.2199957370758057,3.370591640472412,-1.8393858671188354,5.263018608093262,8.534677505493164,-0.049819834530353546,0.09250019490718842,-0.10966167598962784,24.582014083862305,-13.420562744140625,-5.5739898681640625,-0.1627291440963745,-0.10356855392456055,0.17169761657714844,-1.676656723022461,5.366587162017822,8.362979888916016
3_20251106_214940,1762436947022,3,0.5897514820098877,0.09534630924463272,0.2769615352153778,0.7525919079780579,-0.7502180337905884,2.2169268131256104,3.3729333877563477,-2.0632338523864746,5.003259181976318,8.288084030151367,-0.018054872751235962,0.06317868828773499,-0.08767054229974747,24.541227340698242,-13.498291015625,-5.577044486999512,-0.309261679649353,-0.2906622886657715,-0.05991649627685547,-1.7539721727371216,5.29392147064209,8.348000526428223
3_20251106_214940,1762436947041,3,0.58982914686203,0.09431290626525879,0.27707797288894653,0.7526184320449829,-0.7502180337905884,2.2169268131256104,3.3729333877563477,-2.0632338523864746,5.003259181976318,8.288084030151367,-0.013778818771243095,0.013087776489555836,-0.03819049894809723,24.523191452026367,-13.611427307128906,-5.647491455078125,-0.309261679649353,-0.2906622886657715,-0.05991649627685547,-1.7539721727371216,5.29392147064209,8.348000526428223
3_20251106_214940,1762436947060,3,0.5897164940834045,0.0933326855301857,0.27705955505371094,0.7528356313705444,-0.7532172799110413,2.2068915367126465,3.375352144241333,-2.658167600631714,4.60105037689209,8.066631317138672,-0.057150211185216904,0.04607447236776352,0.014954731799662113,24.510583877563477,-13.635986328125,-5.783672332763672,-0.6217789649963379,-0.4725499153137207,-0.18697166442871094,-2.036388635635376,5.0736002922058105,8.253602981567383
3_20251106_214940,1762436947079,3,0.5892153978347778,0.09144725650548935,0.27710437774658203,0.7534425854682922,-0.7532172799110413,2.2068915367126465,3.375352144241333,-2.658167600631714,4.60105037689209,8.066631317138672,-0.057150211185216904,0.04607447236776352,0.014954731799662113,24.489723205566406,-13.586402893066406,-5.87821102142334,-0.6217789649963379,-0.4725499153137207,-0.18697166442871094,-2.036388635635376,5.0736002922058105,8.253602981567383
3_20251106_214940,1762436947099,3,0.5880353450775146,0.08853621780872345,0.2770496904850006,0.7547312378883362,-0.763853907585144,2.1922996044158936,3.376148223876953,-2.7299904823303223,4.731529235839844,8.243793487548828,-0.140227809548378,0.11754564940929413,0.20493364334106445,24.456069946289062,-13.550033569335938,-5.987020492553711,-0.4387338161468506,-0.19249486923217773,0.014023780822753906,-2.2912566661834717,4.9240241050720215,8.229769706726074
3_20251106_214940,1762436947119,3,0.5860196352005005,0.08554886281490326,0.276874840259552,0.7567051649093628,-0.763853907585144,2.1922996044158936,3.376148223876953,-2.7299904823303223,4.731529235839844,8.243793487548828,-0.1090737134218216,0.11204785853624344,0.349708616733551,24.456069946289062,-13.550033569335938,-5.987020492553711,-0.4387338161468506,-0.19249486923217773,0.014023780822753906,-2.2912566661834717,4.9240241050720215,8.229769706726074
3_20251106_214940,1762436947137,3,0.5830047130584717,0.08339772373437881,0.2768019735813141,0.7592964172363281,-0.7736192941665649,2.180654764175415,3.3774619102478027,-1.7484099864959717,5.428211688995361,8.345542907714844,-0.040045998990535736,0.01186604704707861,0.42484498023986816,24.38224983215332,-13.567352294921875,-5.990226745605469,0.4391639232635498,0.38281965255737305,0.08347892761230469,-2.1875739097595215,5.045392036437988,8.262063980102539
3_20251106_214940,1762436947155,3,0.5795615315437317,0.08339965343475342,0.27654632925987244,0.7620203495025635,-0.7751734256744385,2.1778576374053955,3.3788909912109375,-1.3629601001739502,5.73465633392334,8.556222915649414,0.0008819345384836197,-0.0455552376806736,0.3350478708744049,24.38224983215332,-13.567352294921875,-5.990226745605469,0.6596910953521729,0.5514116287231445,0.23532772064208984,-2.022651195526123,5.183244705200195,8.320895195007324
3_20251106_214940,1762436947174,3,0.5769902467727661,0.08497028052806854,0.27615082263946533,0.7639391422271729,-0.7746919989585876,2.1768808364868164,3.381150245666504,-1.2791666984558105,5.849573135375977,8.622060775756836,-0.043711189180612564,0.04973966255784035,0.11941259354352951,24.295438766479492,-13.598159790039062,-5.9806718826293945,0.59478759765625,0.5330624580383301,0.24093246459960938,-1.8739542961120605,5.3165106773376465,8.381128311157227
3_20251106_214940,1762436947194,3,0.5758373141288757,0.08582019060850143,0.2759079337120056,0.7648013234138489,-0.7729774117469788,2.1768112182617188,3.383636236190796,-1.4683005809783936,5.614951133728027,8.455671310424805,-0.043711189180612564,0.04973966255784035,0.11941259354352951,24.265737533569336,-13.688186645507812,-5.929435729980469,0.3245229721069336,0.2387523651123047,0.05963420867919922,-1.7928235530853271,5.376198768615723,8.396037101745605
3_20251106_214940,1762436947213,3,0.5757672190666199,0.0852067768573761,0.27610498666763306,0.7648515701293945,-0.7729774117469788,2.1768112182617188,3.383636236190796,-1.4683005809783936,5.614951133728027,8.455671310424805,-0.10479766130447388,0.1761886477470398,-0.1121051236987114,24.137758255004883,-13.78564453125,-5.773992538452148,0.3245229721069336,0.2387523651123047,0.05963420867919922,-1.7928235530853271,5.376198768615723,8.396037101745605
3_20251106_214940,1762436947232,3,0.5759148597717285,0.08396591246128082,0.27635622024536133,0.7647868990898132,-0.7692833542823792,2.176931381225586,3.3881187438964844,-1.7376365661621094,5.391103267669678,8.465248107910156,-0.07730874419212341,0.10166316479444504,-0.04124481976032257,24.01087760925293,-13.870010375976562,-5.672350883483887,0.027466893196105957,0.005516529083251953,0.0575103759765625,-1.7651034593582153,5.385586738586426,8.407737731933594
3_20251106_214940,1762436947251,3,0.5760723948478699,0.08325822651386261,0.2763650417327881,0.7647424936294556,-0.7692833542823792,2.176931381225586,3.3881187438964844,-1.7376365661621094,5.391103267669678,8.465248107910156,-0.00889190100133419,0.040576688945293427,0.04671970009803772,23.940797805786133,-14.025611877441406,-5.583356857299805,0.027466893196105957,0.005516529083251953,0.0575103759765625,-1.7651034593582153,5.385586738586426,8.407737731933594
3_20251106_214940,1762436947270,3,0.575293779373169,0.08332505822181702,0.27646028995513916,0.7652866840362549,-0.7673035860061646,2.177067279815674,3.390385866165161,-1.7208778858184814,5.407861709594727,8.40300178527832,0.02042960748076439,0.004535670392215252,0.10902789980173111,23.90666961669922,-14.191253662109375,-5.506671905517578,0.03538048267364502,0.017820358276367188,-0.0037889480590820312,-1.7562583684921265,5.390041351318359,8.406790733337402
3_20251106_214940,1762436947289,3,0.5741413831710815,0.08400827646255493,0.27657613158226013,0.7660351991653442,-0.7636600136756897,2.177001476287842,3.392477512359619,-1.718483805656433,5.296536445617676,8.097753524780273,-0.016222277656197548,0.008811723440885544,0.1352950781583786,23.914329528808594,-14.266204833984375,-5.467216491699219,0.02494192123413086,-0.07248353958129883,-0.21214771270751953,-1.743425726890564,5.369019985198975,8.309901237487793
3_20251106_214940,1762436947309,3,0.5729045271873474,0.08455941081047058,0.2765732407569885,0.7669011354446411,-0.7636600136756897,2.177001476287842,3.392477512359619,-1.718483805656433,5.296536445617676,8.097753524780273,-0.016222277656197548,0.008811723440885544,0.1352950781583786,23.87354278564453,-14.34393310546875,-5.470272064208984,0.02494192123413086,-0.07248353958129883,-0.21214771270751953,-1.743425726890564,5.369019985198975,8.309901237487793
3_20251106_214940,1762436947328,3,0.5715966820716858,0.08459658175706863,0.27637162804603577,0.7679449319839478,-0.7613660097122192,2.1765618324279785,3.393249988555908,-1.6430697441101074,5.286959648132324,8.326390266418457,-0.05531761795282364,0.06501128524541855,0.13407334685325623,23.809892654418945,-14.397994995117188,-5.487296104431152,0.08028483390808105,-0.06564807891845703,0.01319122314453125,-1.7233545780181885,5.352607727050781,8.313199043273926
3_20251106_214940,1762436947350,3,0.5701646208763123,0.08443829417228699,0.2761400640010834,0.769109308719635,-0.7549617290496826,2.175093412399292,3.394490957260132,-1.317472219467163,5.258230209350586,8.25576400756836,-0.007670171558856964,-0.001572975656017661,0.10841703414916992,23.77031707763672,-14.450874328613281,-5.462790489196777,0.2844717502593994,-0.06155109405517578,-0.04882526397705078,-1.6019439697265625,5.319781303405762,8.30458927154541
3_20251106_214940,1762436947368,3,0.5690718293190002,0.08515404909849167,0.2757473886013031,0.7699801325798035,-0.7506294250488281,2.174435615539551,3.395493268966675,-1.254028558731079,5.359979629516602,8.496371269226074,0.00027106981724500656,-0.04005745053291321,0.04977402091026306,23.780487060546875,-14.487617492675781,-5.4766082763671875,0.27833235263824463,0.032158851623535156,0.1534252166748047,-1.5323609113693237,5.327820777893066,8.34294605255127
3_20251106_214940,1762436947385,3,0.5684832334518433,0.08623255044221878,0.2751884460449219,0.7704946994781494,-0.7466537952423096,2.1737473011016846,3.3960723876953125,-1.398871660232544,5.269003868103027,8.218655586242676,-0.0046158479526638985,0.004535670392215252,-0.049796923995018005,23.80173110961914,-14.54827880859375,-5.531012535095215,0.10679137706756592,-0.04705333709716797,-0.09943199157714844,-1.5056630373001099,5.316057205200195,8.318087577819824
3_20251106_214940,1762436947404,3,0.5684943199157715,0.08604922890663147,0.2751864790916443,0.7705077528953552,-0.7466537952423096,2.1737473011016846,3.3960723876953125,-1.398871660232544,5.269003868103027,8.218655586242676,-0.040656864643096924,-0.010125081986188889,-0.10294216126203537,23.78752899169922,-14.58660888671875,-5.545810699462891,0.10679137706756592,-0.04705333709716797,-0.09943199157714844,-1.5056630373001099,5.316057205200195,8.318087577819824
3_20251106_214940,1762436947424,3,0.5690037608146667,0.08562427014112473,0.27491968870162964,0.7702742218971252,-0.7391527891159058,2.170423984527588,3.395052194595337,-1.6706018447875977,5.102614402770996,8.182744979858398,-0.09196950495243073,-0.0815962478518486,-0.09316832572221756,23.73627471923828,-14.627998352050781,-5.494499206542969,-0.1166694164276123,-0.13181495666503906,-0.050803184509277344,-1.5539324283599854,5.234429359436035,8.233548164367676
3_20251106_214940,1762436947443,3,0.5696328282356262,0.0854010134935379,0.27391642332077026,0.770191490650177,-0.7363284230232239,2.1685950756073,3.395242929458618,-1.6837693452835083,5.19598388671875,8.50235652923584,-0.07608702033758163,-0.10358738154172897,-0.06079249829053879,23.74937629699707,-14.602767944335938,-5.425899505615234,-0.10386955738067627,-0.030755996704101562,0.21504688262939453,-1.579899787902832,5.226739883422852,8.287309646606445
3_20251106_214940,1762436947462,3,0.570023775100708,0.0854756087064743,0.272879421710968,0.7702620625495911,-0.7339532375335693,2.1669540405273438,3.395531177520752,-1.6921486854553223,5.261821746826172,8.326390266418457,-0.07608702033758163,-0.10358738154172897,-0.06079249829053879,23.750391006469727,-14.578193664550781,-5.371306419372559,-0.08979916572570801,0.028065204620361328,0.031264305114746094,-1.6023495197296143,5.2337565422058105,8.295125961303711
3_20251106_214940,1762436947480,3,0.5702922344207764,0.08610158413648605,0.272132009267807,0.7702580094337463,-0.7319541573524475,2.165613889694214,3.3955020904541016,-1.6586313247680664,5.289353847503662,8.177955627441406,-0.005837577395141125,-0.1274111121892929,-0.04063395410776138,23.78544044494629,-14.601058959960938,-5.356846809387207,-0.04502534866333008,0.04447746276855469,-0.09373664855957031,-1.6136059761047363,5.244876384735107,8.271692276000977
3_20251106_214940,1762436947501,3,0.5706191062927246,0.08699547499418259,0.27153101563453674,0.7701275944709778,-0.7297850847244263,2.1643378734588623,3.395087480545044,-1.6275080442428589,5.307309627532959,8.15760612487793,-0.030272167176008224,-0.15978693962097168,-0.05162952095270157,23.788259506225586,-14.550827026367188,-5.355791091918945,-0.011121630668640137,0.04994630813598633,-0.09126853942871094,-1.6163864135742188,5.257363319396973,8.24887466430664
3_20251106_214940,1762436947519,3,0.5711624622344971,0.08807389438152313,0.27072638273239136,0.7698854804039001,-0.7279165387153625,2.163339376449585,3.3946518898010254,-1.5748378038406372,5.273792266845703,8.20907974243164,-0.02477438375353813,-0.19338449835777283,-0.06140335649251938,23.777273178100586,-14.53839111328125,-5.4235992431640625,0.033238887786865234,0.013143062591552734,-0.03183555603027344,-1.6080766916275024,5.26064920425415,8.240915298461914
3_20251106_214940,1762436947540,3,0.571907103061676,0.08945424109697342,0.2698157727718353,0.7694931030273438,-0.7257667183876038,2.1623144149780273,3.3943283557891846,-1.5496997833251953,5.270200729370117,8.285690307617188,-0.03271562606096268,-0.21659736335277557,-0.06751200556755066,23.792476654052734,-14.487098693847656,-5.449085235595703,0.04670155048370361,0.007641315460205078,0.03582000732421875,-1.596401333808899,5.262559413909912,8.249870300292969
3_20251106_214940,1762436947558,3,0.5727196335792542,0.09091629087924957,0.26863858103752136,0.76912921667099,-0.7257667183876038,2.1623144149780273,3.3943283557891846,-1.5496997833251953,5.270200729370117,8.285690307617188,-0.04859810695052147,-0.16284126043319702,-0.06934460252523422,23.759950637817383,-14.414405822753906,-5.421939849853516,0.04670155048370361,0.007641315460205078,0.03582000732421875,-1.596401333808899,5.262559413909912,8.249870300292969
3_20251106_214940,1762436947576,3,0.5734654664993286,0.09188997745513916,0.26757681369781494,0.7688277959823608,-0.7215427160263062,2.16072678565979,3.396153450012207,-1.5209705829620361,5.3312506675720215,8.608894348144531,-0.05409589037299156,-0.09931132942438126,-0.08828140050172806,23.759950637817383,-14.414405822753906,-5.421939849853516,0.049041748046875,0.05373048782348633,0.2372455596923828,-1.5700123310089111,5.277520179748535,8.371648788452148
3_20251106_214940,1762436947597,3,0.5740600824356079,0.09220798313617706,0.2666332423686981,0.768673837184906,-0.719361424446106,2.1604950428009033,3.3985581398010254,-1.6047639846801758,5.428211212158203,8.679519653320312,-0.05409589037299156,-0.09931132942438126,-0.08828140050172806,23.7049560546875,-14.317512512207031,-5.46282958984375,-0.0278012752532959,0.12055253982543945,0.24629688262939453,-1.5769627094268799,5.307658672332764,8.433222770690918
3_20251106_214940,1762436947614,3,0.5748750567436218,0.09229621291160583,0.2660844326019287,0.768244206905365,-0.7180473208427429,2.1603896617889404,3.4006223678588867,-1.742424726486206,5.340826988220215,8.531085968017578,-0.005837577395141125,-0.024174971505999565,-0.16036345064640045,23.69395637512207,-14.316688537597656,-5.625514984130859,-0.1323695182800293,0.026534557342529297,0.07829093933105469,-1.6100552082061768,5.3142924308776855,8.452795028686523
3_20251106_214940,1762436947634,3,0.5758846998214722,0.09221576154232025,0.2661096453666687,0.7674885988235474,-0.717272162437439,2.160017728805542,3.40277099609375,-1.838188648223877,5.230698585510254,8.40060806274414,0.006990580819547176,-0.013790271244943142,-0.14509184658527374,23.697763442993164,-14.265113830566406,-5.759621620178223,-0.18250679969787598,-0.06687498092651367,-0.04174995422363281,-1.655681848526001,5.297573566436768,8.442358016967773
3_20251106_214940,1762436947653,3,0.5767650604248047,0.0919574722647667,0.26641717553138733,0.7667514085769653,-0.7171390056610107,2.1590683460235596,3.404444456100464,-1.8621296882629395,5.073884963989258,8.345542907714844,0.02348393201828003,-0.04494437202811241,-0.08705966919660568,23.691301345825195,-14.176925659179688,-5.866394996643066,-0.16515827178955078,-0.17895126342773438,-0.0774526596069336,-1.6969714164733887,5.252836227416992,8.422995567321777
3_20251106_214940,1762436947672,3,0.5775315165519714,0.09205058217048645,0.26666495203971863,0.766076922416687,-0.7174491882324219,2.157573699951172,3.405677080154419,-1.8561444282531738,5.036776542663574,8.29287338256836,0.02348393201828003,-0.04494437202811241,-0.08705966919660568,23.635997772216797,-14.092056274414062,-5.961613655090332,-0.12733840942382812,-0.17284774780273438,-0.10409736633300781,-1.7288060188293457,5.209624290466309,8.396970748901367
3_20251106_214940,1762436947691,3,0.5776078701019287,0.09254567325115204,0.26674866676330566,0.7659305334091187,-0.7180144190788269,2.155919313430786,3.4064345359802246,-1.8274153470993042,5.124161243438721,8.246188163757324,0.054638028144836426,-0.09442440420389175,-0.02108628675341606,23.620071411132812,-13.954574584960938,-6.054305076599121,-0.0788874626159668,-0.06837034225463867,-0.12062549591064453,-1.7485278844833374,5.192531585693359,8.366813659667969
3_20251106_214940,1762436947710,3,0.577533483505249,0.0929492712020874,0.266571968793869,0.7659993171691895,-0.7184558510780334,2.154284954071045,3.4079036712646484,-1.7136956453323364,5.169649124145508,8.640016555786133,0.024705659598112106,-0.09870046377182007,0.005180895794183016,23.6612548828125,-13.876312255859375,-6.105315208435059,0.02786576747894287,-0.018306255340576172,0.21856212615966797,-1.7415614128112793,5.187955379486084,8.421454429626465
3_20251106_214940,1762436947729,3,0.5777052640914917,0.09284202754497528,0.2661605179309845,0.7660258412361145,-0.7186312675476074,2.1526424884796143,3.4105591773986816,-1.6526460647583008,5.155284404754639,8.880624771118164,-0.04920896887779236,-0.06449203938245773,-0.014366773888468742,23.703439712524414,-13.785087585449219,-6.196610450744629,0.07113230228424072,-0.02613687515258789,0.3673362731933594,-1.7237783670425415,5.181421279907227,8.513288497924805
3_20251106_214940,1762436947749,3,0.5779842734336853,0.0924656018614769,0.2655634880065918,0.7660681009292603,-0.7188425064086914,2.1509644985198975,3.4138925075531006,-1.7400306463241577,5.13852596282959,8.808801651000977,0.021040473133325577,-0.04616609960794449,-0.08156189322471619,23.794466018676758,-13.6905517578125,-6.299459457397461,-0.013001799583435059,-0.0343165397644043,0.23641014099121094,-1.7270288467407227,5.172842502593994,8.572391510009766
3_20251106_214940,1762436947769,3,0.5783728957176208,0.09246940165758133,0.2652202248573303,0.7658932209014893,-0.7196281552314758,2.1489274501800537,3.4173879623413086,-1.91599702835083,5.054732322692871,8.625652313232422,0.06685532629489899,-0.044333506375551224,-0.07178805768489838,23.774112701416016,-13.628677368164062,-6.366702079772949,-0.15117454528808594,-0.09448814392089844,0.04260826110839844,-1.7648224830627441,5.1492204666137695,8.583044052124023
3_20251106_214940,1762436947787,3,0.5787316560745239,0.09264779835939407,0.2653232216835022,0.7655649185180664,-0.7196281552314758,2.1489274501800537,3.4173879623413086,-1.91599702835083,5.054732322692871,8.625652313232422,0.056470632553100586,-0.016844594851136208,-0.027194933965802193,23.802404403686523,-13.563766479492188,-6.418466567993164,-0.15117454528808594,-0.09448814392089844,0.04260826110839844,-1.7648224830627441,5.1492204666137695,8.583044052124023
