session_id,timestamp,label,quaternion_w,quaternion_x,quaternion_y,quaternion_z,position_x,position_y,position_z,accelerometer_x,accelerometer_y,accelerometer_z,gyroscope_x,gyroscope_y,gyroscope_z,magnetometer_x,magnetometer_y,magnetometer_z,linear_acceleration_x,linear_acceleration_y,linear_acceleration_z,gravity_x,gravity_y,gravity_z
5_20251106_150034,1762412397602,5,0.23118765652179718,0.32139840722084045,0.7442125678062439,0.5379619002342224,0.8603615164756775,2.0062763690948486,-1.9977531433105469,0.05314924567937851,9.419174194335938,-3.227530002593994,0.08342503011226654,-0.025339433923363686,0.05246182531118393,21.24323272705078,-17.113021850585938,27.10424041748047,0.08228719234466553,-0.00461578369140625,-0.11946845054626465,-0.029137950390577316,9.423789978027344,-3.1080615520477295
5_20251106_150034,1762412397623,5,0.23078607022762299,0.32218387722969055,0.744600236415863,0.5371274352073669,0.8590990304946899,2.0056183338165283,-1.9994882345199585,0.061528585851192474,9.377277374267578,-3.231121063232422,0.08342503011226654,-0.025339433923363686,0.05246182531118393,21.246856689453125,-17.050094604492188,27.092044830322266,0.07253323495388031,-0.03721046447753906,-0.09844756126403809,-0.011004645377397537,9.414487838745117,-3.132673501968384
5_20251106_150034,1762412397641,5,0.23045246303081512,0.3229038119316101,0.7448307275772095,0.536518394947052,0.8583734035491943,2.004955530166626,-2.0012850761413574,0.11180466413497925,9.362913131713867,-3.2885794639587402,0.046162284910678864,-0.00029397860635071993,0.040855392813682556,21.23578453063965,-17.02618408203125,27.13262939453125,0.09824744611978531,-0.041259765625,-0.1247248649597168,0.013557215221226215,9.404172897338867,-3.1638545989990234
5_20251106_150034,1762412397660,5,0.23004120588302612,0.32337433099746704,0.7449861168861389,0.536195695400238,0.8580527305603027,2.0042243003845215,-2.0030691623687744,0.1632777899503708,9.362913131713867,-3.1952097415924072,0.035777583718299866,-0.015565595589578152,0.02924896590411663,21.239913940429688,-16.950973510742188,27.147727966308594,0.11977645754814148,-0.03300762176513672,-0.02508401870727539,0.04350132867693901,9.395920753479004,-3.170125722885132
5_20251106_150034,1762412397678,5,0.22974100708961487,0.3239177167415619,0.7451108694076538,0.5358229279518127,0.8579744100570679,2.0034725666046143,-2.0046675205230713,0.13215450942516327,9.389248847961426,-3.100642681121826,0.022338561713695526,-0.003959166817367077,-0.0031268633902072906,21.285541534423828,-16.998428344726562,27.18918228149414,0.07092254608869553,-0.005337715148925781,0.05558633804321289,0.06123196333646774,9.394586563110352,-3.156229019165039
5_20251106_150034,1762412397697,5,0.2295481413602829,0.3243289291858673,0.7451922297477722,0.5355436205863953,0.8579744100570679,2.0034725666046143,-2.0046675205230713,0.13215450942516327,9.389248847961426,-3.100642681121826,0.019895100966095924,0.022918879985809326,-0.030004912987351418,21.21272087097168,-17.002792358398438,27.14569091796875,0.07092254608869553,-0.005337715148925781,0.05558633804321289,0.06123196333646774,9.394586563110352,-3.156229019165039
5_20251106_150034,1762412397717,5,0.2294064164161682,0.3242652416229248,0.7452987432479858,0.5354946851730347,0.8575570583343506,2.0014498233795166,-2.007685899734497,-0.010294362902641296,9.286301612854004,-3.2035889625549316,0.026614613831043243,0.02536233887076378,-0.02328539825975895,21.167388916015625,-16.954925537109375,27.06368637084961,-0.05458713322877884,-0.0773468017578125,-0.04199361801147461,0.04429277032613754,9.363648414611816,-3.161595344543457
5_20251106_150034,1762412397737,5,0.2292822152376175,0.3239476978778839,0.7454840540885925,0.5354821085929871,0.8570883870124817,2.0000524520874023,-2.009493350982666,-0.01268845796585083,9.264755249023438,-3.26104736328125,0.03822104632854462,0.008258127607405186,-7.2539784014225e-05,21.144723892211914,-16.930999755859375,27.022686004638672,-0.04558498412370682,-0.07911396026611328,-0.07956147193908691,0.03289652615785599,9.34386920928955,-3.181485891342163
5_20251106_150034,1762412397755,5,0.22933517396450043,0.3240475058555603,0.7456348538398743,0.5351889729499817,0.8570883870124817,2.0000524520874023,-2.009493350982666,-0.01268845796585083,9.264755249023438,-3.26104736328125,0.04066450521349907,-0.005791760981082916,0.018253400921821594,21.144723892211914,-16.930999755859375,27.022686004638672,-0.04558498412370682,-0.07911396026611328,-0.07956147193908691,0.03289652615785599,9.34386920928955,-3.181485891342163
5_20251106_150034,1762412397775,5,0.2291153073310852,0.3240523338317871,0.7459660768508911,0.5348185896873474,0.8564610481262207,1.99714195728302,-2.013262987136841,0.09624302387237549,9.319820404052734,-3.2550621032714844,0.03822104260325432,-0.01739819161593914,0.030470697209239006,21.10877227783203,-16.92095947265625,27.034996032714844,0.049352046102285385,-0.007155418395996094,-0.04632258415222168,0.0468909777700901,9.32697582244873,-3.2087395191192627
5_20251106_150034,1762412397795,5,0.2291216254234314,0.3246361017227173,0.7460352778434753,0.5343650579452515,0.8564610481262207,1.99714195728302,-2.013262987136841,0.09624302387237549,9.319820404052734,-3.2550621032714844,0.03333412855863571,-0.01251127291470766,0.023751184344291687,21.1445255279541,-16.9312744140625,27.049720764160156,0.049352046102285385,-0.007155418395996094,-0.04632258415222168,0.0468909777700901,9.32697582244873,-3.2087395191192627
5_20251106_150034,1762412397812,5,0.2288142442703247,0.3248814642429352,0.7462415099143982,0.5340596437454224,0.8568692207336426,1.9943785667419434,-2.0167627334594727,0.17764237523078918,9.301864624023438,-3.28977632522583,0.029668934643268585,0.005814668722450733,0.007868701592087746,21.219348907470703,-16.900985717773438,27.01264190673828,0.08827756345272064,-0.01626300811767578,-0.0685265064239502,0.08936481177806854,9.318127632141113,-3.22124981880188
5_20251106_150034,1762412397833,5,0.22871048748493195,0.32535091042518616,0.74622642993927,0.5338393449783325,0.8573033809661865,1.9930113554000854,-2.018998146057129,0.11659286916255951,9.33059310913086,-3.3448410034179688,0.020505964756011963,0.0009277508361265063,-0.008013781160116196,21.23133659362793,-16.90045166015625,27.040164947509766,0.021782442927360535,0.009972572326660156,-0.09887290000915527,0.09481042623519897,9.3206205368042,-3.2459681034088135
5_20251106_150034,1762412397851,5,0.22874696552753448,0.325883686542511,0.7461621761322021,0.5335884094238281,0.8576269149780273,1.99175226688385,-2.0212244987487793,0.06990794092416763,9.311440467834473,-3.322096824645996,0.0021800240501761436,0.016810232773423195,-0.018398480489850044,21.19830322265625,-16.840057373046875,27.04001235961914,-0.019921988248825073,-0.007344245910644531,-0.06090283393859863,0.0898299291729927,9.318784713745117,-3.2611939907073975
5_20251106_150034,1762412397870,5,0.22853311896324158,0.3258926570415497,0.746366024017334,0.5333894491195679,0.8579279780387878,1.9906127452850342,-2.0234196186065674,0.09384892135858536,9.316227912902832,-3.338855743408203,-0.0277523472905159,0.036968767642974854,-0.01656588725745678,21.237483978271484,-16.7877197265625,27.06957244873047,0.003215193748474121,-0.0020456314086914062,-0.06212949752807617,0.09063372761011124,9.318273544311523,-3.276726245880127
5_20251106_150034,1762412397889,5,0.22847875952720642,0.3257793188095093,0.7464488744735718,0.5333660840988159,0.8579279780387878,1.9906127452850342,-2.0234196186065674,0.09384892135858536,9.316227912902832,-3.338855743408203,-0.04363482818007469,0.029638390988111496,-0.011678969487547874,21.322193145751953,-16.782974243164062,27.154102325439453,0.003215193748474121,-0.0020456314086914062,-0.06212949752807617,0.09063372761011124,9.318273544311523,-3.276726245880127
5_20251106_150034,1762412397909,5,0.22847682237625122,0.3256823420524597,0.7463755011558533,0.5335288047790527,0.858262836933136,1.9884382486343384,-2.0279483795166016,0.04955810308456421,9.337776184082031,-3.2395005226135254,-0.04363482818007469,0.025973202660679817,-0.0037377281114459038,21.335493087768555,-16.757476806640625,27.19567108154297,-0.02801215648651123,0.013630867004394531,0.03569912910461426,0.07757025957107544,9.324145317077637,-3.2751996517181396
5_20251106_150034,1762412397927,5,0.22825653851032257,0.32527756690979004,0.7464081048965454,0.5338242650032043,0.8583382964134216,1.9875595569610596,-2.029873847961426,0.0675138384103775,9.352140426635742,-3.256258964538574,-0.042413100600242615,0.027194933965802193,0.010923024266958237,21.36268424987793,-16.705657958984375,27.197708129882812,-0.00804513692855835,0.022396087646484375,0.015152692794799805,0.07555897533893585,9.329744338989258,-3.271411657333374
5_20251106_150034,1762412397946,5,0.22814103960990906,0.3250292241573334,0.746321439743042,0.5341460704803467,0.8585127592086792,1.9869505167007446,-2.0315892696380615,0.11300172656774521,9.411993026733398,-3.229923963546753,-0.042413100600242615,0.027194933965802193,0.010923024266958237,21.30255699157715,-16.696929931640625,27.182003021240234,0.029954202473163605,0.06579875946044922,0.033190011978149414,0.0830475240945816,9.34619426727295,-3.2631139755249023
5_20251106_150034,1762412397966,5,0.22804102301597595,0.32495802640914917,0.7461393475532532,0.5344862937927246,0.8587891459465027,1.9866069555282593,-2.0330145359039307,0.11659286916255951,9.433539390563965,-3.167677402496338,-0.03691531717777252,0.00520380400121212,0.020085996016860008,21.242740631103516,-16.676193237304688,27.220626831054688,0.026836276054382324,0.06987667083740234,0.07634925842285156,0.08975659310817719,9.363662719726562,-3.2440266609191895
5_20251106_150034,1762412397986,5,0.2280210256576538,0.3251422941684723,0.7459107041358948,0.5347018837928772,0.8592074513435364,1.986531376838684,-2.0340585708618164,0.15130729973316193,9.449101448059082,-3.1557068824768066,-0.025308888405561447,0.003982074558734894,0.03596847876906395,21.195295333862305,-16.666000366210938,27.137832641601562,0.04924056679010391,0.06835079193115234,0.07065582275390625,0.10206673294305801,9.38075065612793,-3.226362705230713
5_20251106_150034,1762412398004,5,0.2279006838798523,0.3252761960029602,0.7456597089767456,0.5350217223167419,0.8598910570144653,1.986499309539795,-2.035142183303833,0.20637157559394836,9.395233154296875,-3.25985050201416,-0.010648135095834732,0.0021494803950190544,0.051240094006061554,21.18482780456543,-16.629669189453125,27.19219970703125,0.08344388008117676,0.011586189270019531,-0.026790142059326172,0.1229276955127716,9.383646965026855,-3.233060359954834
5_20251106_150034,1762412398023,5,0.22764727473258972,0.32546043395996094,0.7453811764717102,0.5354055762290955,0.8609040379524231,1.9866254329681396,-2.0362188816070557,0.25545060634613037,9.44072151184082,-3.250274181365967,0.0009582946076989174,-0.0375567227602005,0.08789197355508804,21.134279251098633,-16.658493041992188,27.2437744140625,0.10601833462715149,0.04566001892089844,-0.01377105712890625,0.14943227171897888,9.395061492919922,-3.2365031242370605
5_20251106_150034,1762412398041,5,0.22731879353523254,0.32603690028190613,0.7450922131538391,0.5355965495109558,0.8625189661979675,1.987001657485962,-2.0373780727386475,0.4350079894065857,9.501770973205566,-3.313717842102051,0.007066941820085049,-0.05466093495488167,0.13553942739963531,21.0836181640625,-16.699066162109375,27.2139892578125,0.22846058011054993,0.08536720275878906,-0.06177163124084473,0.20654740929603577,9.416403770446777,-3.251946210861206
5_20251106_150034,1762412398060,5,0.22695355117321014,0.32725444436073303,0.744651198387146,0.535622239112854,0.8658424019813538,1.9878430366516113,-2.0391039848327637,0.827640175819397,9.585565567016602,-3.4573633670806885,0.01806250773370266,-0.10291925072669983,0.1929607093334198,21.042125701904297,-16.789352416992188,27.210670471191406,0.49687421321868896,0.1353292465209961,-0.16433358192443848,0.330765962600708,9.450236320495605,-3.29302978515625
5_20251106_150034,1762412398080,5,0.2264561802148819,0.3290694057941437,0.7439280152320862,0.5357257127761841,0.8722512722015381,1.9893453121185303,-2.041260242462158,1.5159435272216797,9.706466674804688,-3.48130464553833,0.02111683040857315,-0.17744474112987518,0.23205605149269104,20.95178985595703,-16.882949829101562,27.21890640258789,0.9481420516967773,0.2049846649169922,-0.1506197452545166,0.5678014755249023,9.501482009887695,-3.3306849002838135
5_20251106_150034,1762412398099,5,0.22593489289283752,0.3321574032306671,0.7428529262542725,0.5355318784713745,0.8836422562599182,1.9921948909759521,-2.0442638397216797,2.20664119720459,9.944679260253906,-3.609388828277588,0.02111683040857315,-0.17744474112987518,0.23205605149269104,20.97455406188965,-16.90673828125,27.24639129638672,1.311071753501892,0.35455799102783203,-0.2229633331298828,0.8955694437026978,9.590121269226074,-3.386425495147705
5_20251106_150034,1762412398118,5,0.2254962921142578,0.3365158438682556,0.7411563396453857,0.5353463888168335,0.8980100154876709,1.9958728551864624,-2.0474605560302734,2.7752394676208496,10.094310760498047,-3.641709089279175,-0.028974076732993126,-0.4340079426765442,0.14286980032920837,20.97978973388672,-17.0313720703125,27.230724334716797,1.5037360191345215,0.4033517837524414,-0.20422673225402832,1.2715034484863281,9.690958976745605,-3.4374823570251465
5_20251106_150034,1762412398137,5,0.22569219768047333,0.3421894907951355,0.7386753559112549,0.5350963473320007,0.9185952544212341,2.0008504390716553,-2.0510735511779785,3.054152011871338,10.051217079162598,-3.516018867492676,-0.05768471956253052,-0.6056609749794006,-0.021452805027365685,21.040510177612305,-17.039291381835938,27.165332794189453,1.4261188507080078,0.2882070541381836,-0.06282925605773926,1.62803316116333,9.763010025024414,-3.4531896114349365
5_20251106_150034,1762412398157,5,0.22884607315063477,0.3457013964653015,0.7369033098220825,0.5339415073394775,0.943047046661377,2.006662607192993,-2.0536234378814697,3.238497734069824,10.1194486618042,-3.1628894805908203,-0.11144080758094788,-0.7431055307388306,-0.2590791583061218,21.15862274169922,-17.117630004882812,27.006195068359375,1.2883715629577637,0.28515148162841797,0.2322402000427246,1.9501261711120605,9.834297180175781,-3.395129680633545
5_20251106_150034,1762412398176,5,0.23419933021068573,0.34861791133880615,0.7351953387260437,0.5320752263069153,0.9682324528694153,2.013498306274414,-2.053382635116577,3.086472511291504,10.413923263549805,-2.4686007499694824,-0.11144080758094788,-0.7431055307388306,-0.2590791583061218,21.15862274169922,-17.117630004882812,27.006195068359375,0.9090771675109863,0.4637012481689453,0.7412230968475342,2.1773953437805176,9.95022201538086,-3.2098238468170166
5_20251106_150034,1762412398195,5,0.24168004095554352,0.3498680293560028,0.7337718605995178,0.5298697352409363,0.9936083555221558,2.0212249755859375,-2.05012845993042,2.705810785293579,10.399558067321777,-2.1070919036865234,-0.17558161914348602,-0.5036465525627136,-0.9432476758956909,21.362333297729492,-17.19000244140625,26.809940338134766,0.4227323532104492,0.3594684600830078,0.882185697555542,2.28307843208313,10.04008960723877,-2.9892776012420654
5_20251106_150034,1762412398215,5,0.25012192130088806,0.34778428077697754,0.7335171699523926,0.5276719331741333,0.9936083555221558,2.0212249755859375,-2.05012845993042,2.705810785293579,10.399558067321777,-2.1070919036865234,-0.07784324884414673,-0.3564281165599823,-1.2138607501983643,21.645294189453125,-17.156478881835938,26.551158905029297,0.4227323532104492,0.3594684600830078,0.882185697555542,2.28307843208313,10.04008960723877,-2.9892776012420654
5_20251106_150034,1762412398234,5,0.25849053263664246,0.3421642482280731,0.7351040244102478,0.525098443031311,1.0399396419525146,2.0360934734344482,-2.0410375595092773,1.7218360900878906,9.88243293762207,-2.773848295211792,0.0339449904859066,-0.42606669664382935,-1.2444039583206177,21.946487426757812,-17.009552001953125,26.335792541503906,-0.4310181140899658,-0.14150428771972656,0.10474038124084473,2.1528542041778564,10.023937225341797,-2.8785886764526367
5_20251106_150034,1762412398253,5,0.2671703100204468,0.33559805154800415,0.7377658486366272,0.5212442278862,1.057877540588379,2.041686534881592,-2.037370443344116,1.3579330444335938,9.711254119873047,-3.0982487201690674,0.0339449904859066,-0.42606669664382935,-1.2444039583206177,22.411922454833984,-16.76318359375,26.007003784179688,-0.635936975479126,-0.25014686584472656,-0.17572808265686035,1.9938700199127197,9.961400985717773,-2.922520637512207
5_20251106_150034,1762412398272,5,0.2758188545703888,0.33034124970436096,0.7404061555862427,0.5163307189941406,1.057877540588379,2.041686534881592,-2.037370443344116,1.3579330444335938,9.711254119873047,-3.0982487201690674,0.30944499373435974,-0.8225179314613342,-0.8760524988174438,22.928415298461914,-16.4757080078125,25.653934478759766,-0.635936975479126,-0.25014686584472656,-0.17572808265686035,1.9938700199127197,9.961400985717773,-2.922520637512207
5_20251106_150034,1762412398290,5,0.2845628261566162,0.32788312435150146,0.7424876689910889,0.5101261734962463,1.0842430591583252,2.0500147342681885,-2.0346884727478027,1.1544346809387207,9.704071998596191,-3.636920928955078,0.44322437047958374,-1.032044529914856,-0.6732454299926758,23.502914428710938,-16.02166748046875,25.292743682861328,-0.5381962060928345,-0.1673717498779297,-0.4962880611419678,1.6926308870315552,9.871443748474121,-3.1406328678131104
5_20251106_150034,1762412398309,5,0.2934879660606384,0.32857775688171387,0.7439242005348206,0.5024721622467041,1.0946741104125977,2.0532000064849854,-2.036172866821289,1.25259268283844,9.69090461730957,-3.8535871505737305,0.47804364562034607,-1.157882571220398,-0.5895569920539856,24.08839988708496,-15.580062866210938,24.999359130859375,-0.3520306348800659,-0.14443111419677734,-0.5703635215759277,1.6046233177185059,9.835335731506348,-3.2832236289978027
5_20251106_150034,1762412398329,5,0.302449494600296,0.3313833773136139,0.7447536587715149,0.49401557445526123,1.103590965270996,2.0554585456848145,-2.039416551589966,1.1065527200698853,9.530500411987305,-3.861966371536255,0.4157354235649109,-1.178652048110962,-0.6750780344009399,24.802162170410156,-15.040603637695312,24.50998306274414,-0.3984564542770386,-0.2438678741455078,-0.4629940986633301,1.5050091743469238,9.774368286132812,-3.398972272872925
5_20251106_150034,1762412398348,5,0.3119279444217682,0.3344714343547821,0.7451696395874023,0.4853370189666748,1.1093202829360962,2.05608868598938,-2.043433666229248,0.6600532531738281,9.261164665222168,-3.796128511428833,0.26301926374435425,-1.083967924118042,-0.8479527831077576,25.536779403686523,-14.337783813476562,24.09210968017578,-0.6759648323059082,-0.41056251525878906,-0.31772494316101074,1.3360180854797363,9.671727180480957,-3.4784035682678223
5_20251106_150034,1762412398368,5,0.3221764862537384,0.33623117208480835,0.7454466223716736,0.4769279360771179,1.1093202829360962,2.05608868598938,-2.043433666229248,0.6600532531738281,9.261164665222168,-3.796128511428833,0.06754255294799805,-0.9507995247840881,-0.9805103540420532,26.205942153930664,-13.714675903320312,23.710750579833984,-0.6759648323059082,-0.41056251525878906,-0.31772494316101074,1.3360180854797363,9.671727180480957,-3.4784035682678223
5_20251106_150034,1762412398387,5,0.33272722363471985,0.3354840576648712,0.7457446455955505,0.4696892499923706,1.1084269285202026,2.051316499710083,-2.05133318901062,-0.6339570879936218,8.75002384185791,-3.2538650035858154,-0.09739093482494354,-0.913536787033081,-1.0519815683364868,27.000375747680664,-13.0325927734375,23.254253387451172,-1.3686144351959229,-0.6232156753540039,0.2107396125793457,0.7346572875976562,9.373239517211914,-3.464604616165161
5_20251106_150034,1762412398404,5,0.343614786863327,0.3328014314174652,0.7457698583602905,0.46368032693862915,1.1009873151779175,2.046264886856079,-2.051786184310913,-1.2516345977783203,8.569269180297852,-2.378821849822998,-0.1615317314863205,-0.886047899723053,-1.0446512699127197,27.81977653503418,-12.348114013671875,22.717639923095703,-1.5890334844589233,-0.6431760787963867,0.8686261177062988,0.3373989164829254,9.212445259094238,-3.247447967529297
5_20251106_150034,1762412398425,5,0.3550274074077606,0.3292960226535797,0.7452874779701233,0.4583298861980438,1.0858592987060547,2.0378482341766357,-2.048326015472412,-1.7160897254943848,8.371756553649902,-2.065195083618164,-0.1615317314863205,-0.886047899723053,-1.0446512699127197,28.604536056518555,-11.628608703613281,22.207378387451172,-1.6427909135818481,-0.672551155090332,0.9458022117614746,-0.07329881191253662,9.044307708740234,-3.0109972953796387
5_20251106_150034,1762412398443,5,0.36573612689971924,0.3255968987941742,0.7447536587715149,0.4533935785293579,1.0686701536178589,2.028419017791748,-2.0432589054107666,-2.0512635707855225,7.998276710510254,-2.097515344619751,-0.00942640658468008,-0.7663183808326721,-0.9017088413238525,29.414159774780273,-10.906845092773438,21.630516052246094,-1.5823718309402466,-0.8368253707885742,0.730785608291626,-0.4688917398452759,8.835102081298828,-2.828300952911377
5_20251106_150034,1762412398462,5,0.37528806924819946,0.3220403492450714,0.7445863485336304,0.44837486743927,1.0460638999938965,2.016569137573242,-2.035709857940674,-2.4259400367736816,7.96236515045166,-1.9287315607070923,0.01500818133354187,-0.8329026103019714,-0.775870680809021,30.22367286682129,-10.196823120117188,20.972293853759766,-1.5656386613845825,-0.6981897354125977,0.7196553945541382,-0.8603013753890991,8.660554885864258,-2.6483869552612305
5_20251106_150034,1762412398481,5,0.3845779299736023,0.31971609592437744,0.7441655993461609,0.4428306818008423,1.0460638999938965,2.016569137573242,-2.035709857940674,-2.4259400367736816,7.96236515045166,-1.9287315607070923,0.01500818133354187,-0.8329026103019714,-0.775870680809021,30.888673782348633,-9.459205627441406,20.363040924072266,-1.5656386613845825,-0.6981897354125977,0.7196553945541382,-0.8603013753890991,8.660554885864258,-2.6483869552612305
5_20251106_150034,1762412398500,5,0.39365389943122864,0.3180609345436096,0.7430195808410645,0.4379448890686035,1.0173953771591187,2.003309965133667,-2.025780200958252,-2.8544836044311523,8.19698715209961,-1.8652880191802979,-0.21589869260787964,-0.8500068783760071,-0.6372044086456299,31.537752151489258,-8.797050476074219,19.684133529663086,-1.5953457355499268,-0.37085437774658203,0.6264791488647461,-1.2591378688812256,8.567841529846191,-2.491767168045044
5_20251106_150034,1762412398519,5,0.402927041053772,0.3163810968399048,0.741029679775238,0.4340827167034149,0.98358553647995,1.989953875541687,-2.014187812805176,-3.4218850135803223,8.317890167236328,-1.7814944982528687,-0.29714369773864746,-0.8384004235267639,-0.5614571571350098,32.17766571044922,-8.085189819335938,18.978759765625,-1.730197787284851,-0.19996070861816406,0.5682181119918823,-1.6916872262954712,8.517850875854492,-2.349712610244751
5_20251106_150034,1762412398538,5,0.41241174936294556,0.3146199882030487,0.7382954359054565,0.43110403418540955,0.9130519032478333,1.9662132263183594,-1.9876168966293335,-3.7917733192443848,8.259233474731445,-1.0393239259719849,-0.2690439224243164,-0.8261831402778625,-0.4600536525249481,32.77778625488281,-7.4380950927734375,18.230045318603516,-1.3461620807647705,-0.1758575439453125,0.8991715908050537,-2.4456112384796143,8.435091018676758,-1.9384955167770386
5_20251106_150034,1762412398557,5,0.4214314818382263,0.31317993998527527,0.7351647019386292,0.42877352237701416,0.872631847858429,1.9540547132492065,-1.9702565670013428,-3.8420493602752686,8.332254409790039,-0.8609635233879089,-0.10533218085765839,-0.9318627119064331,-0.4179040193557739,33.358184814453125,-6.918037414550781,17.5457820892334,-1.1171505451202393,-0.08226966857910156,0.8620255589485168,-2.7248988151550293,8.41452407836914,-1.7229890823364258
5_20251106_150034,1762412398577,5,0.43001681566238403,0.3127058744430542,0.7319860458374023,0.4260246753692627,0.8274692296981812,1.941238522529602,-1.9497333765029907,-4.2849578857421875,8.1981840133667,-0.6826031804084778,0.14390063285827637,-1.1444435119628906,-0.46799492835998535,33.865150451660156,-6.414764404296875,16.804248809814453,-1.2480473518371582,-0.17307186126708984,0.8323087096214294,-3.0369105339050293,8.371255874633789,-1.5149118900299072
5_20251106_150034,1762412398596,5,0.4392186999320984,0.3138313293457031,0.7288368344306946,0.42118126153945923,0.7810164093971252,1.9281558990478516,-1.9289474487304688,-5.112118721008301,7.818718910217285,-0.6897854208946228,0.14390063285827637,-1.1444435119628906,-0.46799492835998535,33.865150451660156,-6.414764404296875,16.804248809814453,-1.6601667404174805,-0.4420299530029297,0.6601012349128723,-3.4519519805908203,8.260748863220215,-1.3498866558074951
5_20251106_150034,1762412398615,5,0.4493825435638428,0.3163253366947174,0.7259451746940613,0.4135180115699768,0.7291949987411499,1.9139235019683838,-1.9075868129730225,-6.255300521850586,7.603250503540039,-0.7616084218025208,0.535464882850647,-1.438880443572998,-0.5529050827026367,34.37079620361328,-5.948081970214844,15.953792572021484,-2.242678642272949,-0.5259990692138672,0.47062259912490845,-4.012621879577637,8.129249572753906,-1.2322310209274292
5_20251106_150034,1762412398634,5,0.4600932002067566,0.31968608498573303,0.7232908010482788,0.4036898612976074,0.6707146167755127,1.8984439373016357,-1.8854053020477295,-7.38411808013916,7.415313720703125,-0.5437454581260681,0.5904427170753479,-1.3478615283966064,-0.4967055320739746,34.86607360839844,-5.4449310302734375,15.144186019897461,-2.6971969604492188,-0.5711488723754883,0.5507884621620178,-4.686921119689941,7.986462593078613,-1.094533920288086
5_20251106_150034,1762412398653,5,0.47072863578796387,0.3237258195877075,0.7205849885940552,0.3929038643836975,0.6707146167755127,1.8984439373016357,-1.8854053020477295,-7.38411808013916,7.415313720703125,-0.5437454581260681,0.5947187542915344,-1.0289901494979858,-0.40568670630455017,35.399803161621094,-4.9252166748046875,14.17411994934082,-2.6971969604492188,-0.5711488723754883,0.5507884621620178,-4.686921119689941,7.986462593078613,-1.094533920288086
5_20251106_150034,1762412398673,5,0.479366272687912,0.32716113328933716,0.7187455892562866,0.38285547494888306,0.6018877029418945,1.8803437948226929,-1.8628485202789307,-8.090377807617188,7.1244306564331055,-0.9710921049118042,0.5324105620384216,-0.8005267977714539,-0.2694638669490814,35.90613555908203,-4.4575958251953125,13.229049682617188,-2.7227654457092285,-0.6896257400512695,0.09875345230102539,-5.367612361907959,7.814056396484375,-1.0698455572128296
5_20251106_150034,1762412398691,5,0.48569008708000183,0.33018139004707336,0.7177243828773499,0.3741084039211273,0.5273588299751282,1.859458327293396,-1.8430407047271729,-8.375275611877441,6.600123405456543,-1.6031341552734375,0.40657246112823486,-0.7785356640815735,-0.08864792436361313,36.39947509765625,-4.01507568359375,12.201864242553711,-2.406130790710449,-0.9711461067199707,-0.4266308546066284,-5.969144821166992,7.571269512176514,-1.176503300666809
5_20251106_150034,1762412398711,5,0.4909018874168396,0.3334513008594513,0.7163649201393127,0.3669426739215851,0.3812797963619232,1.8168132305145264,-1.8134562969207764,-8.686508178710938,6.780877590179443,-1.6558042764663696,0.2868430018424988,-0.793196439743042,0.008479565382003784,36.843170166015625,-3.5769424438476562,11.294363021850586,-1.772247314453125,-0.4602670669555664,-0.2732352018356323,-6.9142608642578125,7.24114465713501,-1.3825690746307373
5_20251106_150034,1762412398729,5,0.4960981607437134,0.33736783266067505,0.7139125466346741,0.3611072897911072,0.30762091279029846,1.7960011959075928,-1.8001458644866943,-8.985770225524902,6.881429672241211,-1.2200783491134644,0.2868430018424988,-0.793196439743042,0.008479565382003784,37.16681671142578,-3.12109375,10.328420639038086,-1.6572074890136719,-0.28777217864990234,0.12999260425567627,-7.3285627365112305,7.169201850891113,-1.3500709533691406
5_20251106_150034,1762412398749,5,0.5010805726051331,0.3407951593399048,0.711266040802002,0.3561987578868866,0.30762091279029846,1.7960011959075928,-1.8001458644866943,-8.985770225524902,6.881429672241211,-1.2200783491134644,0.19704586267471313,-0.30816981196403503,-0.05505036562681198,37.510704040527344,-2.7388687133789062,9.348358154296875,-1.6572074890136719,-0.28777217864990234,0.12999260425567627,-7.3285627365112305,7.169201850891113,-1.3500709533691406
5_20251106_150034,1762412398767,5,0.5046260356903076,0.34288349747657776,0.7097734212875366,0.3521437346935272,0.14700986444950104,1.7529654502868652,-1.774145245552063,-9.549581527709961,6.964025974273682,-1.6318632364273071,0.19704586267471313,-0.30816981196403503,-0.05505036562681198,37.79106903076172,-2.3873443603515625,8.527511596679688,-1.4565019607543945,-0.11541604995727539,-0.23684775829315186,-8.093079566955566,7.079442024230957,-1.3950154781341553
5_20251106_150034,1762412398787,5,0.5062170624732971,0.34326937794685364,0.7097542881965637,0.34951290488243103,0.061741434037685394,1.7316741943359375,-1.762271761894226,-9.688438415527344,7.009513854980469,-1.5061731338500977,0.09625318646430969,-0.02411770448088646,-0.04955258220434189,37.990882873535156,-2.1550827026367188,7.850025177001953,-1.2762870788574219,-0.055942535400390625,-0.08892607688903809,-8.412151336669922,7.065456390380859,-1.4172470569610596
5_20251106_150034,1762412398806,5,0.5066291093826294,0.34266215562820435,0.7102532386779785,0.348496675491333,-0.01892184466123581,1.7125910520553589,-1.7509526014328003,-9.763853073120117,7.113656997680664,-1.1973342895507812,-0.015535052865743637,0.13898319005966187,0.01580994203686714,38.0833740234375,-2.0701370239257812,7.449554443359375,-1.0813617706298828,0.03856039047241211,0.17593026161193848,-8.682491302490234,7.075096607208252,-1.3732645511627197
5_20251106_150034,1762412398826,5,0.5060544013977051,0.3416370749473572,0.7109599709510803,0.34889674186706543,-0.01892184466123581,1.7125910520553589,-1.7509526014328003,-9.763853073120117,7.113656997680664,-1.1973342895507812,-0.014924188144505024,0.4163157641887665,0.23022346198558807,38.10155487060547,-2.0031890869140625,7.113456726074219,-1.0813617706298828,0.03856039047241211,0.17593026161193848,-8.682491302490234,7.075096607208252,-1.3732645511627197
5_20251106_150034,1762412398845,5,0.5042396783828735,0.3408817648887634,0.7119119763374329,0.35031890869140625,-0.1776619851589203,1.6778682470321655,-1.7267498970031738,-8.947464942932129,7.318352222442627,-1.124314308166504,0.08831194043159485,0.5372669100761414,0.3414008617401123,38.12641906738281,-2.0009307861328125,7.046855926513672,-0.0853109359741211,0.1650686264038086,0.14113306999206543,-8.862154006958008,7.153283596038818,-1.2654473781585693
5_20251106_150034,1762412398864,5,0.5008353590965271,0.34078559279441833,0.7133992910385132,0.3522648811340332,-0.24791479110717773,1.663703441619873,-1.7161657810211182,-8.375275611877441,7.584097862243652,-1.4654734134674072,0.14634409546852112,0.6050729155540466,0.4409717917442322,38.161865234375,-2.02325439453125,7.00724983215332,0.38950252532958984,0.3446512222290039,-0.1600208282470703,-8.764778137207031,7.239446640014648,-1.305452585220337
5_20251106_150034,1762412398882,5,0.4959859848022461,0.34148862957954407,0.7153105735778809,0.354561984539032,-0.30903953313827515,1.6526085138320923,-1.7070223093032837,-7.910820007324219,7.910892009735107,-1.4606852531433105,0.14084631204605103,0.6417247653007507,0.48923009634017944,38.163307189941406,-2.1878585815429688,7.220569610595703,0.68316650390625,0.5371565818786621,-0.12418615818023682,-8.593986511230469,7.373735427856445,-1.3364990949630737
5_20251106_150034,1762412398901,5,0.490479052066803,0.34281474351882935,0.7171618938446045,0.3571934103965759,-0.36715590953826904,1.6437184810638428,-1.6980758905410767,-7.435591697692871,8.188608169555664,-1.4175915718078613,0.09442059695720673,0.7632868885993958,0.4965605139732361,38.103126525878906,-2.3573760986328125,7.526050567626953,0.9267158508300781,0.6518983840942383,-0.06487393379211426,-8.36230754852295,7.536709785461426,-1.352717638015747
5_20251106_150034,1762412398921,5,0.48439455032348633,0.344000905752182,0.7191151976585388,0.3604145348072052,-0.42093029618263245,1.6374725103378296,-1.689173936843872,-6.934027671813965,8.406471252441406,-1.367315411567688,0.038831911981105804,0.9361615777015686,0.47762370109558105,37.97418975830078,-2.645904541015625,8.029447555541992,1.1426239013671875,0.6958093643188477,-0.011678099632263184,-8.076651573181152,7.710661888122559,-1.3556373119354248
5_20251106_150034,1762412398940,5,0.4771084189414978,0.343871533870697,0.7217692732810974,0.36492326855659485,-0.42093029618263245,1.6374725103378296,-1.689173936843872,-6.934027671813965,8.406471252441406,-1.367315411567688,0.007066941820085049,1.1243079900741577,0.43058711290359497,37.830047607421875,-2.9857254028320312,8.558330535888672,1.1426239013671875,0.6958093643188477,-0.011678099632263184,-8.076651573181152,7.710661888122559,-1.3556373119354248
5_20251106_150034,1762412398958,5,0.46910253167152405,0.3432933986186981,0.7247903943061829,0.369826078414917,-0.49997803568840027,1.6324307918548584,-1.6717708110809326,-5.813589572906494,8.576452255249023,-0.9387717843055725,0.02172769606113434,1.2739698886871338,0.3792744576931,37.577064514160156,-3.2967758178710938,9.25930404663086,1.5427827835083008,0.5734500885009766,0.29533153772354126,-7.356372356414795,8.003002166748047,-1.2341033220291138
5_20251106_150034,1762412398977,5,0.4598797857761383,0.34151536226272583,0.7287007570266724,0.3753306269645691,-0.5288453102111816,1.633540153503418,-1.6619380712509155,-5.125286102294922,8.94514274597168,-0.8262490630149841,0.09930750727653503,1.3411649465560913,0.33468133211135864,37.320274353027344,-3.6594009399414062,10.094383239746094,1.7848691940307617,0.7537126541137695,0.32628339529037476,-6.910155296325684,8.19143009185791,-1.1525324583053589
5_20251106_150034,1762412398998,5,0.44996902346611023,0.33921512961387634,0.7331809997558594,0.38066598773002625,-0.5512038469314575,1.6374638080596924,-1.6522293090820312,-4.537534713745117,9.014572143554688,-1.3361921310424805,0.26240837574005127,1.3827037811279297,0.2998620569705963,36.978271484375,-4.0274505615234375,10.912513732910156,1.8980965614318848,0.6585140228271484,-0.14692771434783936,-6.435631275177002,8.356058120727539,-1.1892644166946411
5_20251106_150034,1762412399017,5,0.4391850531101227,0.33684998750686646,0.7383456826210022,0.38534948229789734,-0.5512038469314575,1.6374638080596924,-1.6522293090820312,-4.537534713745117,9.014572143554688,-1.3361921310424805,0.26240837574005127,1.3827037811279297,0.2998620569705963,36.51292419433594,-4.417076110839844,11.833606719970703,1.8980965614318848,0.6585140228271484,-0.14692771434783936,-6.435631275177002,8.356058120727539,-1.1892644166946411
5_20251106_150034,1762412399036,5,0.4277554452419281,0.33494246006011963,0.7441944479942322,0.3886045217514038,-0.5713515281677246,1.645919919013977,-1.6425042152404785,-4.065897464752197,8.441184997558594,-2.522468090057373,0.49575871229171753,1.429740309715271,0.28214699029922485,36.014862060546875,-4.7226715087890625,12.903755187988281,1.5409541130065918,0.009471893310546875,-0.9645280838012695,-5.606851577758789,8.431713104248047,-1.5579400062561035
5_20251106_150034,1762412399054,5,0.41573667526245117,0.33340293169021606,0.7505190372467041,0.3908025324344635,-0.5732364654541016,1.649312138557434,-1.644510269165039,-3.7163591384887695,8.200578689575195,-3.403496265411377,0.4468895494937897,1.498157262802124,0.4360848665237427,36.014862060546875,-4.7226715087890625,12.903755187988281,1.5123939514160156,-0.1849069595336914,-1.476444959640503,-5.228753089904785,8.385485649108887,-1.927051305770874
5_20251106_150034,1762412399074,5,0.4027038812637329,0.33223122358322144,0.7567719221115112,0.3933805227279663,-0.5685368180274963,1.651225209236145,-1.653035283088684,-3.062770366668701,7.898921966552734,-4.0714497566223145,0.3015037477016449,1.487161636352539,0.6511092782020569,35.480857849121094,-5.006614685058594,14.08108901977539,1.7327861785888672,-0.3892507553100586,-1.7155187129974365,-4.795556545257568,8.288172721862793,-2.355931043624878
5_20251106_150034,1762412399093,5,0.3887784481048584,0.33189862966537476,0.7620881199836731,0.3973868489265442,-0.5575510859489441,1.651315689086914,-1.6656689643859863,-2.3373584747314453,7.691831588745117,-4.156440734863281,0.09442059695720673,1.4431793689727783,0.8502511978149414,34.93586730957031,-5.2781219482421875,15.190616607666016,1.9665584564208984,-0.47707271575927734,-1.4404077529907227,-4.303916931152344,8.168904304504395,-2.7160329818725586
5_20251106_150034,1762412399111,5,0.37479329109191895,0.33272063732147217,0.7657319903373718,0.40308988094329834,-0.5407699346542358,1.6502577066421509,-1.680963397026062,-1.5042119026184082,7.7061967849731445,-4.309662818908691,-0.11938206851482391,1.4474554061889648,1.0078542232513428,34.31908416748047,-5.517799377441406,16.4061222076416,2.2397639751434326,-0.3701658248901367,-1.2749037742614746,-3.743975877761841,8.076362609863281,-3.034759044647217
5_20251106_150034,1762412399131,5,0.3607547879219055,0.334230899810791,0.7677027583122253,0.4108261466026306,-0.5132526755332947,1.6479136943817139,-1.7007430791854858,-0.5190403461456299,7.6726789474487305,-4.230657577514648,-0.11938206851482391,1.4474554061889648,1.0078542232513428,33.644493103027344,-5.923759460449219,17.602718353271484,2.579948663711548,-0.32294654846191406,-0.956718921661377,-3.0989890098571777,7.9956254959106445,-3.2739386558532715
5_20251106_150034,1762412399150,5,0.3466346263885498,0.33590564131736755,0.7682777643203735,0.42042961716651917,-0.47860753536224365,1.6446822881698608,-1.721242070198059,0.4769047498703003,7.588885307312012,-4.239037036895752,-0.40526673197746277,1.3985862731933594,1.1440770626068115,32.893653869628906,-6.396736145019531,18.74098777770996,2.860714912414551,-0.3253922462463379,-0.7720787525177002,-2.38381028175354,7.91427755355835,-3.4669582843780518
5_20251106_150034,1762412399170,5,0.33267033100128174,0.337695837020874,0.7677169442176819,0.43116432428359985,-0.43300962448120117,1.6408401727676392,-1.7444921731948853,1.2190752029418945,7.71337890625,-4.3719096183776855,-0.4712401330471039,1.355825662612915,1.1196424961090088,32.124488830566406,-6.983245849609375,19.84935760498047,2.8823084831237793,-0.1607189178466797,-0.7239608764648438,-1.6632331609725952,7.87409782409668,-3.647948741912842
5_20251106_150034,1762412399188,5,0.3190362751483917,0.33946388959884644,0.7663737535476685,0.4423249661922455,-0.3855612576007843,1.6373451948165894,-1.7658677101135254,1.7733092308044434,7.788793087005615,-4.255795478820801,-0.5414896011352539,1.32894766330719,1.0347323417663574,31.364473342895508,-7.631072998046875,20.88931655883789,2.7492339611053467,-0.06824350357055664,-0.48627734184265137,-0.9759247303009033,7.857036590576172,-3.7695181369781494
5_20251106_150034,1762412399207,5,0.30596911907196045,0.34087440371513367,0.7645263075828552,0.4535273611545563,-0.32863855361938477,1.6336827278137207,-1.7879208326339722,2.4292922019958496,7.799566268920898,-3.9948391914367676,-0.5860827565193176,1.274580717086792,0.9186680316925049,30.44936180114746,-8.451271057128906,21.879409790039062,2.7241735458374023,-0.04597616195678711,-0.18025684356689453,-0.2948813736438751,7.8455424308776855,-3.814582347869873
5_20251106_150034,1762412399227,5,0.29371488094329834,0.34149518609046936,0.7623423933982849,0.4647006392478943,-0.2623099088668823,1.6297823190689087,-1.8100998401641846,2.799180746078491,7.767246246337891,-3.8559811115264893,-0.5378243923187256,1.2147159576416016,0.7628974914550781,29.52849769592285,-9.383674621582031,22.786029815673828,2.475249767303467,-0.0626368522644043,-0.03311896324157715,0.3239309787750244,7.829883098602295,-3.822862148284912
5_20251106_150034,1762412399247,5,0.282284140586853,0.3412255048751831,0.7602365612983704,0.47531163692474365,-0.19200217723846436,1.6258465051651,-1.8315361738204956,2.723766326904297,7.7540788650512695,-3.9433655738830566,-0.43642085790634155,1.1438556909561157,0.5716968774795532,28.560400009155273,-10.29400634765625,23.67770004272461,1.9198682308197021,-0.06064319610595703,-0.09640264511108398,0.80389803647995,7.814722061157227,-3.8469629287719727
5_20251106_150034,1762412399266,5,0.2717820405960083,0.3402222692966461,0.7586867213249207,0.484538733959198,-0.12417540699243546,1.6213135719299316,-1.8518990278244019,2.3981690406799316,7.457210540771484,-4.217490196228027,-0.3673931360244751,1.0742170810699463,0.43119797110557556,27.63921546936035,-11.250038146972656,24.435115814208984,1.2754168510437012,-0.2860088348388672,-0.29642176628112793,1.1227521896362305,7.743219375610352,-3.9210684299468994
5_20251106_150034,1762412399284,5,0.26225119829177856,0.3383563160896301,0.7578529715538025,0.49233949184417725,-0.06076889485120773,1.6154714822769165,-1.8716659545898438,2.0821480751037598,7.027469635009766,-4.505979061126709,-0.3673931360244751,1.0742170810699463,0.43119797110557556,26.746421813964844,-12.141021728515625,25.12725067138672,0.7675167322158813,-0.5725998878479004,-0.467928409576416,1.3146313428878784,7.600069522857666,-4.038050651550293
5_20251106_150034,1762412399303,5,0.25368136167526245,0.33639997243881226,0.7572404742240906,0.49906685948371887,0.004295505583286285,1.6064262390136719,-1.8926894664764404,1.8547085523605347,6.438521385192871,-4.476052761077881,-0.29775452613830566,0.7260240912437439,0.4654063880443573,25.861974716186523,-12.89306640625,25.741191864013672,0.4320617914199829,-0.9292383193969727,-0.3504014015197754,1.4226467609405518,7.367759704589844,-4.1256513595581055
5_20251106_150034,1762412399322,5,0.24618743360042572,0.3354783058166504,0.7563143968582153,0.5048114061355591,0.0666615217924118,1.594062089920044,-1.9130680561065674,1.6248750686645508,5.993218898773193,-4.273751735687256,-0.29775452613830566,0.7260240912437439,0.4654063880443573,25.053857803344727,-13.589584350585938,26.305065155029297,0.1617826223373413,-1.099632740020752,-0.11848020553588867,1.4630924463272095,7.092851638793945,-4.155271530151367
5_20251106_150034,1762412399341,5,0.23983781039714813,0.33608826994895935,0.7546671628952026,0.5099018812179565,0.12563714385032654,1.5787475109100342,-1.9322503805160522,1.3639183044433594,5.792114734649658,-4.090602874755859,-0.34295853972435,0.43341997265815735,0.6382811069488525,24.259733200073242,-14.259658813476562,26.81589126586914,-0.07933926582336426,-1.0405898094177246,0.05173492431640625,1.4432575702667236,6.832704544067383,-4.142337799072266
5_20251106_150034,1762412399362,5,0.23429805040359497,0.33806854486465454,0.7522034049034119,0.5147854685783386,0.12563714385032654,1.5787475109100342,-1.9322503805160522,1.3639183044433594,5.792114734649658,-4.090602874755859,-0.4083210825920105,0.45480021834373474,0.6596614122390747,23.59781837463379,-14.756927490234375,27.17285919189453,-0.07933926582336426,-1.0405898094177246,0.05173492431640625,1.4432575702667236,6.832704544067383,-4.142337799072266
5_20251106_150034,1762412399379,5,0.22899317741394043,0.3405035436153412,0.7491808533668518,0.5199495553970337,0.23044070601463318,1.539483666419983,-1.961381435394287,1.1951342821121216,4.833277702331543,-3.0647313594818115,-0.5030050873756409,0.6001860499382019,0.5881901979446411,22.934492111206055,-15.279312133789062,27.529296875,-0.15190398693084717,-1.3732900619506836,0.7559366226196289,1.3470382690429688,6.206567764282227,-3.8206679821014404
5_20251106_150034,1762412399398,5,0.22335682809352875,0.34189796447753906,0.7460258603096008,0.5259875655174255,0.2824528217315674,1.5121842622756958,-1.972346544265747,1.3722976446151733,4.399946212768555,-3.0647315979003906,-0.5030050873756409,0.6001860499382019,0.5881901979446411,22.323423385620117,-15.747344970703125,27.794139862060547,0.020207524299621582,-1.4452972412109375,0.6047492027282715,1.3520901203155518,5.845243453979492,-3.669480800628662
5_20251106_150034,1762412399418,5,0.21775780618190765,0.3414440155029297,0.7429807186126709,0.5328950881958008,0.3305611312389374,1.4828932285308838,-1.9814926385879517,0.9234042167663574,4.741105079650879,-3.2514710426330566,-0.708866536617279,0.5922448039054871,0.19173899292945862,21.750518798828125,-16.187606811523438,28.033946990966797,-0.34294867515563965,-0.8833103179931641,0.3344078063964844,1.266352891921997,5.624415397644043,-3.585878849029541
5_20251106_150034,1762412399437,5,0.21360720694065094,0.3394084572792053,0.7400104403495789,0.5399615168571472,0.3706207871437073,1.4542152881622314,-1.9885437488555908,0.042375802993774414,4.806942939758301,-3.1473278999328613,-0.8347046971321106,0.5684210658073425,0.026805508881807327,21.21576690673828,-16.611724853515625,28.15384292602539,-0.9791817665100098,-0.6539778709411621,0.35084080696105957,1.0215575695037842,5.460920810699463,-3.498168706893921
5_20251106_150034,1762412399456,5,0.2114304155111313,0.335909903049469,0.7369428873062134,0.5471534729003906,0.4044933617115021,1.4238698482513428,-1.9947000741958618,-0.5034787058830261,4.330516815185547,-3.3005499839782715,-0.9183931350708008,0.6551638245582581,0.05673787742853165,21.21576690673828,-16.611724853515625,28.15384292602539,-1.2200291156768799,-0.9043231010437012,0.158095121383667,0.716550350189209,5.234839916229248,-3.4586451053619385
5_20251106_150034,1762412399475,5,0.2097921371459961,0.33117520809173584,0.7336717247962952,0.5550099015235901,0.4044933617115021,1.4238698482513428,-1.9947000741958618,-0.5034787058830261,4.330516815185547,-3.3005499839782715,-0.9843664765357971,0.5995751619338989,0.3053598403930664,20.77527618408203,-17.09185791015625,28.235797882080078,-1.2200291156768799,-0.9043231010437012,0.158095121383667,0.716550350189209,5.234839916229248,-3.4586451053619385
5_20251106_150034,1762412399495,5,0.2071831226348877,0.32678934931755066,0.7297466397285461,0.5636964440345764,0.46412259340286255,1.359699010848999,-2.007667064666748,0.7953197956085205,5.184013366699219,-3.3508262634277344,-1.0595028400421143,0.21534126996994019,0.5845249891281128,20.34011459350586,-17.483566284179688,28.265533447265625,0.20880597829818726,0.13793039321899414,0.1293354034423828,0.5865138173103333,5.046082973480225,-3.480161666870117
5_20251106_150034,1762412399513,5,0.2048334777355194,0.32563209533691406,0.724004864692688,0.572559118270874,0.492806077003479,1.3356412649154663,-2.0116167068481445,1.7733092308044434,6.297269821166992,-2.9234795570373535,-1.018574833869934,-0.19943588972091675,0.6932589411735535,19.892457962036133,-17.888076782226562,28.240447998046875,0.9494363069534302,1.0009493827819824,0.4453456401824951,0.8238729238510132,5.29632043838501,-3.3688251972198486
5_20251106_150034,1762412399532,5,0.20448993146419525,0.32842016220092773,0.7163611054420471,0.5806469321250916,0.492806077003479,1.3356412649154663,-2.0116167068481445,1.7733092308044434,6.297269821166992,-2.9234795570373535,-0.7858355045318604,-0.5971089005470276,0.5869684219360352,19.438852310180664,-18.405059814453125,28.158924102783203,0.9494363069534302,1.0009493827819824,0.4453456401824951,0.8238729238510132,5.29632043838501,-3.3688251972198486
5_20251106_150034,1762412399552,5,0.20619218051433563,0.33360809087753296,0.7085301280021667,0.5866646766662598,0.5566191673278809,1.3045654296875,-2.01010799407959,1.4740468263626099,7.821113586425781,-1.498990774154663,-0.5610372424125671,-0.8005267977714539,0.4440261125564575,19.093793869018555,-18.951217651367188,27.945858001708984,0.34103238582611084,1.712397575378418,1.3458945751190186,1.133014440536499,6.108716011047363,-2.8448853492736816
5_20251106_150034,1762412399570,5,0.21026897430419922,0.3402930200099945,0.701774537563324,0.5894913673400879,0.5867108106613159,1.3001389503479004,-2.002821445465088,1.1604198217391968,8.69495964050293,-1.2512016296386719,-0.589747965335846,-0.5824480652809143,0.43791747093200684,18.87240219116211,-19.463775634765625,27.684158325195312,0.021924257278442383,2.0689949989318848,1.274946928024292,1.1384955644607544,6.625964641571045,-2.526148557662964
5_20251106_150034,1762412399589,5,0.21441084146499634,0.34636563062667847,0.6958609819412231,0.5914696455001831,0.6164976358413696,1.3055185079574585,-1.993087649345398,1.5757960081100464,10.119449615478516,-1.501384973526001,-0.958710253238678,-0.2171509563922882,0.5338232517242432,18.63779640197754,-20.013320922851562,27.272499084472656,0.3498404026031494,2.794788360595703,0.8198108673095703,1.225955605506897,7.3246612548828125,-2.3211958408355713
5_20251106_150034,1762412399609,5,0.21654722094535828,0.35009506344795227,0.6892498135566711,0.5962175726890564,0.6164976358413696,1.3055185079574585,-1.993087649345398,1.5757960081100464,10.119449615478516,-1.501384973526001,-1.4388498067855835,-0.10841703414916992,0.6077378988265991,18.435617446899414,-20.635696411132812,26.847209930419922,0.3498404026031494,2.794788360595703,0.8198108673095703,1.225955605506897,7.3246612548828125,-2.3211958408355713
5_20251106_150034,1762412399628,5,0.21797320246696472,0.3518689274787903,0.680212676525116,0.6049683094024658,0.6818914413452148,1.3539669513702393,-1.9612559080123901,2.5106916427612305,13.213821411132812,0.21278978884220123,-1.7632189989089966,-0.2018793374300003,0.6651591062545776,18.291847229003906,-21.303924560546875,26.382770538330078,0.8727943897247314,4.031072616577148,1.8197907209396362,1.637897253036499,9.182748794555664,-1.6070009469985962
5_20251106_150034,1762412399647,5,0.22040294110774994,0.35323768854141235,0.6682752966880798,0.616485059261322,0.7160000801086426,1.3980754613876343,-1.9337236881256104,2.8219244480133057,14.852581977844238,2.098142623901367,-1.8279706239700317,-0.2531919777393341,0.6627156734466553,18.127826690673828,-22.123092651367188,25.860607147216797,0.9472217559814453,4.535866737365723,2.9641149044036865,1.8747026920318604,10.316715240478516,-0.8659722805023193
5_20251106_150034,1762412399667,5,0.22406502068042755,0.3550122380256653,0.6544926166534424,0.6288089156150818,0.7160000801086426,1.3980754613876343,-1.9337236881256104,2.8219244480133057,14.852581977844238,2.098142623901367,-1.8279706239700317,-0.2531919777393341,0.6627156734466553,17.951297760009766,-22.966690063476562,25.18874740600586,0.9472217559814453,4.535866737365723,2.9641149044036865,1.8747026920318604,10.316715240478516,-0.8659722805023193
5_20251106_150034,1762412399686,5,0.22710636258125305,0.3557420074939728,0.6409786343574524,0.6411058306694031,0.7941079139709473,1.530238151550293,-1.8480552434921265,3.951939105987549,16.75948143005371,3.1323931217193604,-1.3893697261810303,0.1481461524963379,0.5258820056915283,17.903867721557617,-23.90106201171875,24.425556182861328,1.4322819709777832,4.230242729187012,2.529458522796631,2.5196571350097656,12.5292387008667,0.6029345989227295
5_20251106_150034,1762412399705,5,0.22812296450138092,0.3546115458011627,0.6293711066246033,0.6527653336524963,0.7941079139709473,1.530238151550293,-1.8480552434921265,3.951939105987549,16.75948143005371,3.1323931217193604,-1.0802721977233887,0.1371505856513977,0.45257821679115295,17.764787673950195,-24.741058349609375,23.633522033691406,1.4322819709777832,4.230242729187012,2.529458522796631,2.5196571350097656,12.5292387008667,0.6029345989227295
5_20251106_150034,1762412399723,5,0.2279229760169983,0.3531651496887207,0.619979202747345,0.6625339984893799,0.881442666053772,1.6931253671646118,-1.753334641456604,4.995766639709473,17.823657989501953,2.2860794067382812,-0.8835738301277161,0.06079249829053879,0.3206314444541931,17.498022079467773,-25.678115844726562,22.956378936767578,1.652510643005371,3.4635066986083984,1.0465681552886963,3.3432559967041016,14.360151290893555,1.239511251449585
5_20251106_150034,1762412399742,5,0.22781261801719666,0.3524782061576843,0.6123043298721313,0.670032799243927,0.9302390217781067,1.7852580547332764,-1.7036877870559692,5.058012962341309,17.74345588684082,2.3435378074645996,-0.754681408405304,0.07484238594770432,0.06895516812801361,17.232160568237305,-26.602340698242188,22.25246810913086,1.3718056678771973,2.706644058227539,0.8832212686538696,3.6862072944641113,15.036811828613281,1.46031653881073
5_20251106_150034,1762412399761,5,0.22849969565868378,0.35127392411231995,0.6062135100364685,0.6759435534477234,0.9302390217781067,1.7852580547332764,-1.7036877870559692,5.058012962341309,17.74345588684082,2.3435378074645996,-0.6062412858009338,0.13104194402694702,-0.2034904807806015,17.082019805908203,-27.406814575195312,21.595897674560547,1.3718056678771973,2.706644058227539,0.8832212686538696,3.6862072944641113,15.036811828613281,1.46031653881073
5_20251106_150034,1762412399781,5,0.23051773011684418,0.34873050451278687,0.6018434762954712,0.6804653406143188,1.0299242734909058,1.974875569343567,-1.6017053127288818,4.24162483215332,16.177715301513672,2.3435378074645996,-0.3979363739490509,0.1731916069984436,-0.36170443892478943,16.914358139038086,-28.087570190429688,20.968017578125,0.2815375328063965,0.57025146484375,0.5505138635635376,3.960087299346924,15.607463836669922,1.793023943901062
5_20251106_150034,1762412399800,5,0.23285876214504242,0.34467607736587524,0.5996198654174805,0.6836894154548645,1.0726197957992554,2.0554096698760986,-1.5564823150634766,3.8298401832580566,15.060868263244629,2.113704204559326,-0.1303776204586029,0.05590558052062988,-0.3543740510940552,16.790613174438477,-28.62835693359375,20.398578643798828,-0.10419750213623047,-0.43727684020996094,0.25654423236846924,3.934037685394287,15.49814510345459,1.857159972190857
5_20251106_150034,1762412399819,5,0.23508179187774658,0.34089741110801697,0.599111020565033,0.6852675080299377,1.1164535284042358,2.1362829208374023,-1.5082181692123413,3.5281834602355957,14.137943267822266,2.0311079025268555,0.17138954997062683,-0.15728621184825897,-0.26396608352661133,16.743732452392578,-29.078094482421875,19.996124267578125,-0.32468318939208984,-1.0881614685058594,0.1391582489013672,3.8528666496276855,15.226104736328125,1.8919496536254883
5_20251106_150034,1762412399837,5,0.23705385625362396,0.3393774926662445,0.5999276041984558,0.6846278309822083,1.1528400182724,2.20041561126709,-1.4669426679611206,3.4096758365631104,13.18988037109375,1.895841121673584,0.42612016201019287,-0.3356587290763855,-0.17966677248477936,16.686504364013672,-29.25518798828125,19.801239013671875,-0.3545525074005127,-1.6289796829223633,0.003113269805908203,3.764228343963623,14.818860054016113,1.8927278518676758
5_20251106_150034,1762412399857,5,0.23866280913352966,0.34034988284111023,0.6018331050872803,0.6819083094596863,1.1898645162582397,2.2606773376464844,-1.4242161512374878,3.3091235160827637,12.373493194580078,1.6157317161560059,0.42612016201019287,-0.3356587290763855,-0.17966677248477936,16.72032928466797,-29.31451416015625,19.693260192871094,-0.36408400535583496,-1.9562931060791016,-0.22159695625305176,3.6732075214385986,14.32978630065918,1.8373286724090576
5_20251106_150034,1762412399877,5,0.23995201289653778,0.3431762158870697,0.6046657562255859,0.6775193810462952,1.1898645162582397,2.2606773376464844,-1.4242161512374878,3.3091235160827637,12.373493194580078,1.6157317161560059,0.7810325026512146,-0.496316134929657,-0.15889737010002136,16.72032928466797,-29.31451416015625,19.693260192871094,-0.36408400535583496,-1.9562931060791016,-0.22159695625305176,3.6732075214385986,14.32978630065918,1.8373286724090576
5_20251106_150034,1762412399896,5,0.24103009700775146,0.3470369577407837,0.6084302663803101,0.6717755794525146,1.227224588394165,2.313680648803711,-1.380919337272644,3.3115177154541016,11.61935043334961,1.469691514968872,0.8494493365287781,-0.45111218094825745,-0.20654481649398804,16.831796646118164,-29.293319702148438,19.549259185791016,-0.2893517017364502,-2.1683483123779297,-0.2941097021102905,3.6008694171905518,13.787698745727539,1.7638012170791626
5_20251106_150034,1762412399914,5,0.24190188944339752,0.35075148940086365,0.61296546459198,0.6653797626495361,1.2807981967926025,2.371340036392212,-1.3225923776626587,3.4180550575256348,10.336114883422852,0.771811842918396,0.8494493365287781,-0.45111218094825745,-0.20654481649398804,17.021438598632812,-29.156097412109375,19.586288452148438,-0.10397720336914062,-2.272791862487793,-0.6672414541244507,3.5220322608947754,12.608906745910645,1.4390532970428467
5_20251106_150034,1762412399934,5,0.24286624789237976,0.354251891374588,0.6178690791130066,0.6586041450500488,1.3086957931518555,2.389927864074707,-1.2953624725341797,3.4396018981933594,9.907570838928223,0.6102101802825928,0.8622775673866272,-0.4810445010662079,-0.26213347911834717,17.26939582824707,-28.840301513671875,19.669523239135742,-0.06594419479370117,-2.161068916320801,-0.6630744934082031,3.5055460929870605,12.068639755249023,1.273284673690796
5_20251106_150034,1762412399952,5,0.24444836378097534,0.357582688331604,0.6228628158569336,0.6514763832092285,1.3325598239898682,2.399461507797241,-1.2744004726409912,3.510227680206299,9.486209869384766,0.3312976658344269,0.8567797541618347,-0.5457962155342102,-0.40079978108406067,17.540624618530273,-28.536026000976562,19.807538986206055,0.0037453174591064453,-2.065943717956543,-0.7535896301269531,3.5064823627471924,11.552153587341309,1.0848872661590576
5_20251106_150034,1762412399973,5,0.24667832255363464,0.3606696128845215,0.6279251575469971,0.6440320014953613,1.3567105531692505,2.4025423526763916,-1.2566826343536377,3.586839199066162,9.19053840637207,-0.11879289895296097,0.8769382834434509,-0.647199809551239,-0.43806254863739014,17.87883186340332,-28.11517333984375,19.99093246459961,0.0642852783203125,-1.889291763305664,-0.9629441499710083,3.5225539207458496,11.079830169677734,0.8441512584686279
5_20251106_150034,1762412399991,5,0.24948951601982117,0.3639472723007202,0.6329393982887268,0.6361486315727234,1.3808784484863281,2.3989007472991943,-1.2425544261932373,3.5281834602355957,8.868532180786133,-0.336655855178833,0.9172553420066833,-0.7724270224571228,-0.48815345764160156,18.21714973449707,-27.68255615234375,20.255687713623047,0.004503726959228516,-1.769038200378418,-0.9446457624435425,3.523679733276367,10.63757038116455,0.6079899072647095
5_20251106_150034,1762412400009,5,0.2531888782978058,0.3678724467754364,0.6379059553146362,0.6274083256721497,1.401234745979309,2.390137195587158,-1.2336262464523315,3.398902416229248,8.343027114868164,-0.6718297004699707,0.9508529305458069,-0.8445090651512146,-0.5412986874580383,18.62343406677246,-27.13201904296875,20.43065643310547,-0.09982180595397949,-1.8356342315673828,-1.0238556861877441,3.4987242221832275,10.178661346435547,0.35202598571777344
5_20251106_150034,1762412400029,5,0.25753363966941833,0.37208473682403564,0.6430224180221558,0.6178604364395142,1.4221673011779785,2.3739964962005615,-1.228126049041748,3.3163058757781982,7.9120893478393555,-0.9387717247009277,0.9374138712882996,-0.8823826909065247,-0.5846700668334961,19.05379295349121,-26.580291748046875,20.64715576171875,-0.1459348201751709,-1.8132572174072266,-1.0326381921768188,3.462240695953369,9.725346565246582,0.09386646747589111
5_20251106_150034,1762412400048,5,0.2624245584011078,0.3763717710971832,0.6481791734695435,0.6077346205711365,1.4402251243591309,2.3536269664764404,-1.2270889282226562,3.1582956314086914,7.6104326248168945,-1.3373892307281494,0.8360103368759155,-0.9220889210700989,-0.6457565426826477,19.596845626831055,-25.970916748046875,20.842090606689453,-0.24315595626831055,-1.6919307708740234,-1.1450045108795166,3.401451587677002,9.302363395690918,-0.19238466024398804
5_20251106_150034,1762412400067,5,0.267858624458313,0.3803158402442932,0.6530033349990845,0.5976606607437134,1.4559180736541748,2.328556776046753,-1.2293765544891357,2.8686094284057617,7.217800617218018,-1.3852711915969849,0.7040635943412781,-1.029600977897644,-0.7587665319442749,20.129009246826172,-25.348968505859375,20.955703735351562,-0.42627382278442383,-1.667649745941162,-0.9543092250823975,3.2948832511901855,8.88545036315918,-0.4309619665145874
5_20251106_150034,1762412400086,5,0.27473434805870056,0.3838813006877899,0.6571058630943298,0.5876802206039429,1.4559180736541748,2.328556776046753,-1.2293765544891357,2.8686094284057617,7.217800617218018,-1.3852711915969849,0.5947187542915344,-1.055868148803711,-0.8821611404418945,20.737701416015625,-24.671234130859375,20.99221420288086,-0.42627382278442383,-1.667649745941162,-0.9543092250823975,3.2948832511901855,8.88545036315918,-0.4309619665145874
5_20251106_150034,1762412400106,5,0.2832986116409302,0.38675591349601746,0.6606550216674805,0.577664852142334,1.4679688215255737,2.298640727996826,-1.234604835510254,2.253325939178467,6.662369728088379,-1.5444786548614502,0.5702841877937317,-1.0735833644866943,-0.9139261245727539,21.407718658447266,-23.988983154296875,20.977115631103516,-0.8332459926605225,-1.7784643173217773,-0.8908133506774902,3.0865719318389893,8.440834045410156,-0.65366530418396
5_20251106_150034,1762412400125,5,0.2924344837665558,0.38870424032211304,0.6640440821647644,0.5678349733352661,1.478023886680603,2.224910259246826,-1.2575668096542358,1.1209173202514648,6.050677299499512,-2.4398715496063232,0.4780436158180237,-1.1658238172531128,-0.9114826917648315,22.054563522338867,-23.295089721679688,20.893718719482422,-1.3417167663574219,-1.601332187652588,-1.182626724243164,2.4626340866088867,7.6520094871521,-1.2572448253631592
5_20251106_150034,1762412400144,5,0.302360475063324,0.3909018635749817,0.6670331358909607,0.5575308799743652,1.478023886680603,2.224910259246826,-1.2575668096542358,1.1209173202514648,6.050677299499512,-2.4398715496063232,0.3375447392463684,-1.1878149509429932,-0.8033596277236938,22.80350685119629,-22.53057861328125,20.666885375976562,-1.3417167663574219,-1.601332187652588,-1.182626724243164,2.4626340866088867,7.6520094871521,-1.2572448253631592
5_20251106_150034,1762412400162,5,0.3127315044403076,0.39319002628326416,0.6688666343688965,0.5479215979576111,1.4683226346969604,2.1438162326812744,-1.2876979112625122,0.2159479558467865,6.146441459655762,-1.9287314414978027,0.2807343602180481,-1.1829280853271484,-0.7581556439399719,23.683059692382812,-21.831588745117188,20.335731506347656,-1.512191891670227,-0.9149155616760254,-0.3797626495361328,1.728139877319336,7.061357021331787,-1.54896879196167
5_20251106_150034,1762412400182,5,0.3230838477611542,0.39575129747390747,0.6696745157241821,0.5390118956565857,1.4544516801834106,2.098757743835449,-1.3041704893112183,-0.41010889410972595,6.044692039489746,-1.816209077835083,0.28867557644844055,-1.0595333576202393,-0.7428840398788452,24.551822662353516,-21.119888305664062,19.90973663330078,-1.7105990648269653,-0.8133316040039062,-0.21379220485687256,1.300490140914917,6.858023643493652,-1.6024168729782104
5_20251106_150034,1762412400200,5,0.3331717252731323,0.3979682922363281,0.6703201532363892,0.5303665399551392,1.4544516801834106,2.098757743835449,-1.3041704893112183,-0.41010889410972595,6.044692039489746,-1.816209077835083,0.31372106075286865,-0.9581298828125,-0.6365935802459717,25.344242095947266,-20.475341796875,19.43893051147461,-1.7105990648269653,-0.8133316040039062,-0.21379220485687256,1.300490140914917,6.858023643493652,-1.6024168729782104
5_20251106_150034,1762412400220,5,0.3418528437614441,0.39948877692222595,0.671345055103302,0.5223420262336731,1.4138221740722656,2.012291431427002,-1.3365107774734497,-0.8590023517608643,6.002795219421387,-1.902396559715271,0.32349488139152527,-0.9941709041595459,-0.43195390701293945,26.150863647460938,-19.792465209960938,18.98292350769043,-1.3897364139556885,-0.5301094055175781,-0.16000187397003174,0.5307340621948242,6.532904624938965,-1.7423946857452393
5_20251106_150034,1762412400239,5,0.3495681583881378,0.4019191563129425,0.6718860268592834,0.5146185159683228,1.3893909454345703,1.9702597856521606,-1.3518154621124268,-0.6866272687911987,6.100953102111816,-1.7755093574523926,0.3882465362548828,-1.1554391384124756,-0.18944060802459717,26.97258186340332,-19.282989501953125,18.443103790283203,-0.9738890528678894,-0.34556102752685547,-0.026491761207580566,0.2872617840766907,6.446514129638672,-1.749017596244812
5_20251106_150034,1762412400257,5,0.35652172565460205,0.40623852610588074,0.6713082790374756,0.507156491279602,1.3654557466506958,1.9318516254425049,-1.3654898405075073,-0.5034787654876709,6.211081504821777,-1.7084743976593018,0.49392610788345337,-1.4382696151733398,0.03291415423154831,27.762365341186523,-18.70001220703125,17.849332809448242,-0.6325924396514893,-0.18834590911865234,0.03243458271026611,0.12911368906497955,6.39942741394043,-1.7409089803695679
5_20251106_150034,1762412400277,5,0.363429456949234,0.41347572207450867,0.6693559288978577,0.4989182949066162,1.3380857706069946,1.8902130126953125,-1.3810153007507324,-0.563331127166748,6.0387067794799805,-2.099909543991089,0.5330214500427246,-1.6966652870178223,0.20945405960083008,28.530488967895508,-18.2930908203125,17.197311401367188,-0.5539558529853821,-0.288576602935791,-0.2872004508972168,-0.00937526673078537,6.3272833824157715,-1.812709093093872
5_20251106_150034,1762412400296,5,0.37078291177749634,0.42359447479248047,0.6658316254615784,0.48964884877204895,1.3110828399658203,1.8523712158203125,-1.3958215713500977,-0.848228931427002,6.231431484222412,-2.1023037433624268,0.44322437047958374,-1.986825942993164,0.3401791453361511,29.187517166137695,-17.930038452148438,16.44546890258789,-0.6710829734802246,-0.07668161392211914,-0.23167574405670166,-0.17714598774909973,6.308113098144531,-1.870627999305725
5_20251106_150034,1762412400317,5,0.3791526257991791,0.4358944892883301,0.6603321433067322,0.47979241609573364,1.2790483236312866,1.8128618001937866,-1.4110934734344482,-1.2755755186080933,6.375077724456787,-1.7886767387390137,0.2605758011341095,-2.055853843688965,0.38965916633605957,29.714200973510742,-17.74884033203125,15.495800018310547,-0.8787436485290527,0.05357170104980469,0.06556105613708496,-0.3968318700790405,6.321506023406982,-1.8542377948760986
5_20251106_150034,1762412400337,5,0.3888850212097168,0.44902467727661133,0.6528443694114685,0.47004202008247375,1.2482819557189941,1.7801463603973389,-1.4232091903686523,-1.5748379230499268,6.774892330169678,-1.485823392868042,0.06937514245510101,-1.9177982807159424,0.3829396367073059,30.260011672973633,-17.665969848632812,14.490934371948242,-0.9424048662185669,0.36270904541015625,0.2947314977645874,-0.6324330568313599,6.4121832847595215,-1.7805548906326294
5_20251106_150034,1762412400355,5,0.3989051878452301,0.4610060453414917,0.6443501710891724,0.46169352531433105,1.2163435220718384,1.7513132095336914,-1.433667540550232,-1.6203256845474243,7.2309675216674805,-1.3972415924072266,-0.0637933611869812,-1.7443127632141113,0.29375338554382324,30.260011672973633,-17.665969848632812,14.490934371948242,-0.7903140783309937,0.6550273895263672,0.30665063858032227,-0.8300116062164307,6.575940132141113,-1.7038922309875488
5_20251106_150034,1762412400373,5,0.4088866412639618,0.47120150923728943,0.6356338858604431,0.4546981155872345,1.1851252317428589,1.7265311479568481,-1.4433152675628662,-1.8345975875854492,7.05021333694458,-1.799450159072876,-0.16397519409656525,-1.7424801588058472,0.23083432018756866,30.79593849182129,-17.557571411132812,13.364459991455078,-0.8036688566207886,0.37941884994506836,-0.07644641399383545,-1.0309287309646606,6.670794486999512,-1.7230037450790405
5_20251106_150034,1762412400393,5,0.41897132992744446,0.47965288162231445,0.6271899938583374,0.44836241006851196,1.1487032175064087,1.7019333839416504,-1.4526907205581665,-2.1721653938293457,7.184283256530762,-1.4570941925048828,-0.33501729369163513,-1.9086353778839111,0.3481203615665436,31.274747848510742,-17.614517211914062,12.124462127685547,-0.9129893779754639,0.41079139709472656,0.21272766590118408,-1.2591760158538818,6.773491859436035,-1.669821858406067
5_20251106_150034,1762412400410,5,0.4300973117351532,0.488094687461853,0.6174184083938599,0.442237913608551,1.1167587041854858,1.6838011741638184,-1.4578379392623901,-2.4127721786499023,7.56135368347168,-0.5664893388748169,-0.43764257431030273,-1.9941564798355103,0.5106104016304016,31.592390060424805,-17.755111694335938,10.673761367797852,-0.9228769540786743,0.6302890777587891,0.8826659917831421,-1.489895224571228,6.931064605712891,-1.449155330657959
5_20251106_150034,1762412400430,5,0.4420738220214844,0.49732884764671326,0.6053683161735535,0.4367653429508209,1.0779410600662231,1.6671439409255981,-1.4595391750335693,-2.514521598815918,8.117981910705566,-0.11639879643917084,-0.40099066495895386,-1.862209677696228,0.5857467651367188,31.830968856811523,-18.012939453125,9.163677215576172,-0.819701075553894,0.9495339393615723,1.0662052631378174,-1.694820523262024,7.168447971343994,-1.1826040744781494
5_20251106_150034,1762412400450,5,0.45353394746780396,0.5069025754928589,0.5923251509666443,0.4318653345108032,1.0410106182098389,1.6560657024383545,-1.4577683210372925,-2.38643741607666,8.609970092773438,0.022458933293819427,-0.3722800612449646,-1.4816408157348633,0.5497057437896729,32.05866241455078,-18.258193969726562,7.572269439697266,-0.5532935857772827,1.1532177925109863,0.9640503525733948,-1.8331438302993774,7.456752300262451,-0.9415914416313171
5_20251106_150034,1762412400469,5,0.4630941152572632,0.5153303146362305,0.5803495645523071,0.4279869794845581,1.0032387971878052,1.6488680839538574,-1.4544750452041626,-2.1099190711975098,8.733264923095703,-0.44079917669296265,-0.4095427989959717,-1.114511251449585,0.4818997383117676,32.27930450439453,-18.6290283203125,5.978221893310547,-0.2214202880859375,1.021209716796875,0.40063387155532837,-1.8884987831115723,7.712055206298828,-0.841433048248291
5_20251106_150034,1762412400487,5,0.47060492634773254,0.5214990377426147,0.5703268647193909,0.4257899224758148,0.9717074036598206,1.6451020240783691,-1.451406717300415,-1.5784289836883545,8.681792259216309,-0.7388644814491272,-0.5824175477027893,-1.1310045719146729,0.6089595556259155,31.96375274658203,-18.91924285888672,3.811343193054199,0.2480558156967163,0.7757892608642578,0.08205485343933105,-1.8264847993850708,7.906002998352051,-0.8209193348884583
5_20251106_150034,1762412400507,5,0.47726768255233765,0.5264325737953186,0.5607197880744934,0.4250619113445282,0.9429759979248047,1.6454278230667114,-1.4453755617141724,-0.7740118503570557,9.40121841430664,0.2558835446834564,-0.5824175477027893,-1.1310045719146729,0.6089595556259155,31.91973876953125,-19.23328399658203,2.3162193298339844,0.8419783115386963,1.1961727142333984,0.8614423274993896,-1.615990161895752,8.205045700073242,-0.6055587530136108
5_20251106_150034,1762412400526,5,0.48553988337516785,0.5327680706977844,0.5474603772163391,0.4250839352607727,0.9178922772407532,1.6528105735778809,-1.4320167303085327,-0.4160940945148468,10.526445388793945,1.8048654794692993,-0.9245017766952515,-1.8658747673034668,0.9760892987251282,31.783573150634766,-19.678184509277344,0.7879905700683594,0.9599169492721558,1.8571195602416992,1.9283394813537598,-1.3760110139846802,8.669325828552246,-0.12347394227981567
5_20251106_150034,1762412400545,5,0.49578356742858887,0.5408498048782349,0.5300775766372681,0.42508572340011597,0.8966365456581116,1.6669169664382935,-1.4122493267059326,-0.8721699714660645,11.382335662841797,2.6870908737182617,-0.8066049218177795,-1.849992275238037,0.7170826196670532,31.62514877319336,-20.086997985839844,-0.7404279708862305,0.4030728340148926,2.170408248901367,2.2484519481658936,-1.275242805480957,9.21192741394043,0.43863898515701294
5_20251106_150034,1762412400564,5,0.5069148540496826,0.5488467216491699,0.5121344327926636,0.4237014353275299,0.8750633597373962,1.6867884397506714,-1.3875707387924194,-1.7783362865447998,11.570272445678711,2.588932991027832,-0.8066049218177795,-1.849992275238037,0.7170826196670532,31.272254943847656,-20.496238708496094,-2.249396324157715,-0.4024747610092163,1.8866758346557617,1.7202352285385132,-1.3758615255355835,9.68359661102295,0.8686977624893188
5_20251106_150034,1762412400584,5,0.5176446437835693,0.5542247295379639,0.49758943915367126,0.42105069756507874,0.8480417132377625,1.7102628946304321,-1.356894850730896,-3.1681106090545654,10.86880111694336,2.84151029586792,-0.7009252905845642,-1.5134057998657227,0.263821005821228,30.885116577148438,-20.86992645263672,-3.786076545715332,-1.4337992668151855,0.9481639862060547,1.5782500505447388,-1.7343113422393799,9.920637130737305,1.2632602453231812
5_20251106_150034,1762412400604,5,0.5283206701278687,0.555851399898529,0.4874640703201294,0.4174749255180359,0.8125356435775757,1.7321418523788452,-1.3240246772766113,-4.969669818878174,9.781881332397461,2.4895777702331543,-0.7064231038093567,-1.083967924118042,-0.18027763068675995,30.525493621826172,-21.16815948486328,-5.171513557434082,-2.588286876678467,-0.11100482940673828,0.9810540676116943,-2.381382942199707,9.8928861618042,1.50852370262146
5_20251106_150034,1762412400621,5,0.5381887555122375,0.5537975430488586,0.4814365804195404,0.41458410024642944,0.775353193283081,1.746941328048706,-1.296605110168457,-6.256497859954834,8.587225914001465,1.9078116416931152,-0.7027578949928284,-0.5787829160690308,-0.3323829174041748,30.12741470336914,-21.27001190185547,-6.41952657699585,-3.1000919342041016,-1.0445280075073242,0.3194303512573242,-3.1564059257507324,9.631753921508789,1.588381290435791
5_20251106_150034,1762412400640,5,0.5452130436897278,0.5493563413619995,0.4785711169242859,0.4146324694156647,0.726439356803894,1.7576181888580322,-1.2675416469573975,-6.5952630043029785,7.795975685119629,1.5702437162399292,-0.8261525630950928,0.16036343574523926,0.4024873375892639,29.70638656616211,-21.33672332763672,-7.573114395141602,-2.7510857582092285,-1.468623161315918,-0.014510154724121094,-3.84417724609375,9.264598846435547,1.5847538709640503
5_20251106_150034,1762412400659,5,0.5496482253074646,0.5451391935348511,0.47531047463417053,0.4180789291858673,0.6753627061843872,1.7646416425704956,-1.2406641244888306,-5.523903846740723,8.127558708190918,1.3176662921905518,-1.0399551391601562,0.46885010600090027,1.0096869468688965,29.24488067626953,-21.469139099121094,-8.67542839050293,-1.3437814712524414,-0.909632682800293,-0.213670015335083,-4.180122375488281,9.037191390991211,1.5313363075256348
5_20251106_150034,1762412400678,5,0.5513307452201843,0.5414520502090454,0.4698638916015625,0.42672237753868103,0.6283848285675049,1.772109031677246,-1.214399814605713,-3.617003917694092,9.327001571655273,1.7976832389831543,-1.3032379150390625,0.6417247653007507,1.436070442199707,28.773834228515625,-21.52916717529297,-9.560388565063477,0.45049476623535156,0.23184871673583984,0.21307754516601562,-4.067498683929443,9.095152854919434,1.5846056938171387
5_20251106_150034,1762412400697,5,0.5507532358169556,0.5378330945968628,0.4619166851043701,0.44049903750419617,0.5900298357009888,1.781868815422058,-1.186049461364746,-1.7807303667068481,10.066778182983398,2.823554515838623,-1.4223564863204956,0.7058656215667725,1.6559817790985107,28.299785614013672,-21.628074645996094,-10.324495315551758,1.82941472530365,0.7772998809814453,0.9911590814590454,-3.610145092010498,9.289478302001953,1.8323954343795776
5_20251106_150034,1762412400716,5,0.5491725206375122,0.5339224934577942,0.45166170597076416,0.45753470063209534,0.5622704029083252,1.7941961288452148,-1.1557339429855347,-0.4472174048423767,10.403148651123047,3.0653586387634277,-1.2073321342468262,0.534823477268219,1.762882947921753,27.79355239868164,-21.831993103027344,-10.79433536529541,2.5303421020507812,0.8909358978271484,0.9863705635070801,-2.9775595664978027,9.512212753295898,2.0789880752563477
5_20251106_150034,1762412400736,5,0.5463963150978088,0.530862033367157,0.4402804374694824,0.47517335414886475,0.54358971118927,1.8094720840454102,-1.1246323585510254,0.00885842740535736,10.482154846191406,2.337552547454834,-1.006968379020691,0.38699424266815186,1.8203043937683105,27.79355239868164,-21.831993103027344,-10.79433536529541,2.389134407043457,0.7759532928466797,0.20685148239135742,-2.3802759647369385,9.706201553344727,2.1307010650634766
5_20251106_150034,1762412400755,5,0.5423611402511597,0.5303371548652649,0.42829224467277527,0.4910728931427002,0.5341522097587585,1.8265632390975952,-1.0986460447311401,0.3248794674873352,10.910697937011719,1.3715335130691528,-1.1047067642211914,0.4865652024745941,1.7543308734893799,27.245643615722656,-22.114845275878906,-11.145584106445312,2.1641244888305664,0.963597297668457,-0.6073340177536011,-1.8392449617385864,9.947100639343262,1.978867530822754
5_20251106_150034,1762412400775,5,0.5380724668502808,0.5303484201431274,0.4157804250717163,0.5062955617904663,0.5341522097587585,1.8265632390975952,-1.0986460447311401,0.3248794674873352,10.910697937011719,1.3715335130691528,-1.2983509302139282,0.5586472153663635,1.4391248226165771,26.545860290527344,-22.50768280029297,-11.504830360412598,2.1641244888305664,0.963597297668457,-0.6073340177536011,-1.8392449617385864,9.947100639343262,1.978867530822754
5_20251106_150034,1762412400794,5,0.5349006652832031,0.5282654762268066,0.403885155916214,0.5212423801422119,0.5367759466171265,1.8781239986419678,-1.0506867170333862,0.6253388524055481,13.062993049621582,2.3471288681030273,-1.600728988647461,0.5800274610519409,0.9376047849655151,25.76230239868164,-23.082176208496094,-11.76258373260498,1.5493706464767456,2.1719093322753906,0.3707144260406494,-0.9240317940711975,10.891083717346191,1.976414442062378
5_20251106_150034,1762412400812,5,0.5347392559051514,0.5232243537902832,0.39286911487579346,0.5347374081611633,0.5415864586830139,1.9076488018035889,-1.0259909629821777,-0.2963891625404358,13.352678298950195,4.15706729888916,-1.9012744426727295,0.8170430064201355,0.3921026289463043,24.866968154907227,-23.68987274169922,-11.930665969848633,0.5021141171455383,1.9692764282226562,1.7445223331451416,-0.7985032796859741,11.383401870727539,2.4125449657440186
5_20251106_150034,1762412400832,5,0.5384418368339539,0.5135576128959656,0.38341838121414185,0.5471099615097046,0.545026957988739,1.9480146169662476,-0.9872671365737915,-1.4563300609588623,13.08932876586914,5.319402694702148,-1.841409683227539,1.164014220237732,0.07750727981328964,24.102855682373047,-24.12610626220703,-12.117444038391113,-0.5262614488601685,1.364741325378418,2.325486183166504,-0.9300686120986938,11.724587440490723,2.9939165115356445
5_20251106_150034,1762412400851,5,0.5436545610427856,0.4989376366138458,0.37749192118644714,0.5594647526741028,0.5445566177368164,1.985794186592102,-0.946755588054657,-2.1793479919433594,12.848721504211426,5.628241062164307,-1.5402534008026123,1.3906450271606445,0.1563088297843933,23.376304626464844,-24.54700469970703,-12.343035697937012,-0.9994235038757324,0.8993072509765625,2.107459545135498,-1.179924488067627,11.949414253234863,3.5207815170288086
5_20251106_150034,1762412400869,5,0.5473103523254395,0.48293909430503845,0.3748040795326233,0.5716144442558289,0.5414837002754211,2.02056884765625,-0.9046577215194702,-2.2559590339660645,12.2633638381958,5.810192584991455,-1.2507035732269287,1.5769587755203247,0.5643664598464966,22.71582794189453,-24.86414337158203,-12.496482849121094,-0.8608276844024658,0.25115966796875,1.831528663635254,-1.3951313495635986,12.01220417022705,3.978663921356201
5_20251106_150034,1762412400888,5,0.547218382358551,0.4678524136543274,0.37373605370521545,0.5847969651222229,0.5378303527832031,2.0548417568206787,-0.8561601042747498,-1.6035668849945068,11.794120788574219,6.268662452697754,-0.9721491932868958,1.6985208988189697,1.158126950263977,22.173187255859375,-25.02385711669922,-12.601799964904785,-0.16674840450286865,-0.17446613311767578,1.8319988250732422,-1.4368184804916382,11.968586921691895,4.436663627624512
5_20251106_150034,1762412400909,5,0.54218590259552,0.4551914632320404,0.37257611751556396,0.6000185012817383,0.5378303527832031,2.0548417568206787,-0.8561601042747498,-1.6035668849945068,11.794120788574219,6.268662452697754,-0.8237091302871704,1.883612871170044,1.610777735710144,21.666919708251953,-25.169837951660156,-12.583734512329102,-0.16674840450286865,-0.17446613311767578,1.8319988250732422,-1.4368184804916382,11.968586921691895,4.436663627624512
5_20251106_150034,1762412400927,5,0.5320063233375549,0.4444693922996521,0.3708615303039551,0.6179627776145935,0.5376191735267639,2.0925562381744385,-0.7961839437484741,-0.401729553937912,11.972480773925781,6.238736152648926,-0.6880971193313599,2.0296096801757812,1.6975204944610596,21.156225204467773,-25.391441345214844,-12.540220260620117,0.828071117401123,0.0031147003173828125,1.4416580200195312,-1.2298007011413574,11.969366073608398,4.7970781326293945
5_20251106_150034,1762412400946,5,0.5186108946800232,0.4341423511505127,0.369239866733551,0.6373578906059265,0.5548145174980164,2.1538264751434326,-0.6948162913322449,2.033068895339966,12.678740501403809,6.4661760330200195,-0.6880971193313599,2.0296096801757812,1.6975204944610596,20.768293380737305,-25.592262268066406,-12.518570899963379,2.2531421184539795,0.4823446273803711,1.1051878929138184,-0.22007322311401367,12.196395874023438,5.360988140106201
5_20251106_150034,1762412400965,5,0.5041775107383728,0.42359688878059387,0.36922013759613037,0.6557798981666565,0.5548145174980164,2.1538264751434326,-0.6948162913322449,2.033068895339966,12.678740501403809,6.4661760330200195,-0.3148587644100189,2.255018711090088,1.2424262762069702,20.41926383972168,-25.942481994628906,-12.30889892578125,2.2531421184539795,0.4823446273803711,1.1051878929138184,-0.22007322311401367,12.196395874023438,5.360988140106201
5_20251106_150034,1762412400985,5,0.48966696858406067,0.41229814291000366,0.3716822564601898,0.672375500202179,0.5757451057434082,2.1862969398498535,-0.6380791664123535,2.5310416221618652,12.26456069946289,6.298588752746582,-0.1713055670261383,2.1957647800445557,1.0023564100265503,19.96541404724121,-26.413414001464844,-11.97036361694336,2.2008919715881348,0.054531097412109375,0.7500801086425781,0.33014971017837524,12.210029602050781,5.548508644104004
5_20251106_150034,1762412401004,5,0.4757433235645294,0.40062272548675537,0.3758174479007721,0.6869723200798035,0.6029530763626099,2.2157812118530273,-0.5808615684509277,2.739327907562256,11.761800765991211,6.639747619628906,-0.14748182892799377,2.1707191467285156,0.7042545080184937,19.43423080444336,-26.952842712402344,-11.541476249694824,1.9273425340652466,-0.3585824966430664,0.8729910850524902,0.8119853734970093,12.120383262634277,5.766756534576416
5_20251106_150034,1762412401022,5,0.4631705582141876,0.3889866769313812,0.3809988796710968,0.699286937713623,0.6587913036346436,2.2600433826446533,-0.473344087600708,1.9720194339752197,11.178836822509766,7.969669342041016,-0.23788982629776,2.347259044647217,0.3676680326461792,18.912921905517578,-27.52942657470703,-11.085858345031738,0.6451256275177002,-0.6575584411621094,1.513671875,1.3268938064575195,11.836395263671875,6.455997467041016
5_20251106_150034,1762412401041,5,0.45254698395729065,0.37494876980781555,0.3870592713356018,0.7104926109313965,0.6587913036346436,2.2600433826446533,-0.473344087600708,1.9720194339752197,11.178836822509766,7.969669342041016,0.012564726173877716,2.613596200942993,0.3640028238296509,18.487606048583984,-28.11328887939453,-10.518449783325195,0.6451256275177002,-0.6575584411621094,1.513671875,1.3268938064575195,11.836395263671875,6.455997467041016
5_20251106_150034,1762412401060,5,0.4421836733818054,0.358267605304718,0.39498957991600037,0.7211803793907166,0.687163233757019,2.274897336959839,-0.41548460721969604,1.353144884109497,9.748363494873047,7.526761054992676,0.44261348247528076,2.663076162338257,0.8478077054023743,18.083051681518555,-28.746864318847656,-9.842987060546875,0.02100086212158203,-1.6704254150390625,0.8566107749938965,1.332144021987915,11.41878890991211,6.670150279998779
5_20251106_150034,1762412401079,5,0.42697811126708984,0.34218713641166687,0.40582817792892456,0.7320526838302612,0.7418799996376038,2.2806179523468018,-0.31798869371414185,2.1300296783447266,8.641092300415039,4.915996551513672,0.4762110412120819,2.4743189811706543,1.407970666885376,17.794837951660156,-29.236656188964844,-9.011528015136719,0.6393535137176514,-1.7497634887695312,-1.240830898284912,1.4906761646270752,10.39085578918457,6.156827449798584
5_20251106_150034,1762412401098,5,0.40754976868629456,0.33053553104400635,0.41560840606689453,0.7429125905036926,0.7418799996376038,2.2806179523468018,-0.31798869371414185,2.1300296783447266,8.641092300415039,4.915996551513672,0.28256693482398987,2.3356528282165527,1.5521347522735596,17.428178787231445,-29.81964874267578,-8.130792617797852,0.6393535137176514,-1.7497634887695312,-1.240830898284912,1.4906761646270752,10.39085578918457,6.156827449798584
5_20251106_150034,1762412401117,5,0.38620394468307495,0.3211628198623657,0.42219042778015137,0.7546232342720032,0.7740857005119324,2.279449701309204,-0.2768651843070984,3.6095829010009766,10.065581321716309,5.4546685218811035,0.30394721031188965,2.2397470474243164,1.268693447113037,17.051151275634766,-30.366172790527344,-7.2092084884643555,1.6951253414154053,-0.2602195739746094,-0.5617275238037109,1.9144575595855713,10.325800895690918,6.0163960456848145
5_20251106_150034,1762412401137,5,0.36590471863746643,0.3117610514163971,0.42757102847099304,0.7655728459358215,0.812061071395874,2.2798328399658203,-0.2373717576265335,4.604331016540527,10.869998931884766,6.171701431274414,0.47926536202430725,2.2226428985595703,0.8655227422714233,16.74654769897461,-30.90886688232422,-6.190067291259766,2.1518988609313965,0.43535804748535156,0.12424421310424805,2.452432155609131,10.434640884399414,6.047457218170166
5_20251106_150034,1762412401156,5,0.3479679524898529,0.30166304111480713,0.4343641698360443,0.7741094827651978,0.9063384532928467,2.2849483489990234,-0.16792073845863342,5.430294990539551,10.780220031738281,4.734045028686523,0.6350358128547668,2.146895408630371,0.5704751014709473,16.529769897460938,-31.39617156982422,-5.125888347625732,1.9586939811706543,0.1713733673095703,-0.9871029853820801,3.4716010093688965,10.608846664428711,5.7211480140686035
5_20251106_150034,1762412401175,5,0.3322625160217285,0.2908565402030945,0.44317665696144104,0.780127227306366,0.9580689668655396,2.2880501747131348,-0.14162179827690125,5.618231773376465,10.792190551757812,4.514985084533691,0.6112121343612671,1.856123924255371,0.4195915460586548,16.529769897460938,-31.39617156982422,-5.125888347625732,1.7173047065734863,0.14667510986328125,-0.964930534362793,3.9009270668029785,10.645515441894531,5.479915618896484
5_20251106_150034,1762412401194,5,0.31858623027801514,0.28100088238716125,0.45237892866134644,0.7841521501541138,1.0117931365966797,2.2922301292419434,-0.11777115613222122,5.57034969329834,11.095043182373047,5.066824913024902,0.472545862197876,1.5537458658218384,0.1563088297843933,16.251567840576172,-31.88813018798828,-3.996580123901367,1.335538387298584,0.3596220016479492,-0.330472469329834,4.234811305999756,10.735421180725098,5.397297382354736
5_20251106_150034,1762412401214,5,0.3079144060611725,0.2726934254169464,0.4600241780281067,0.7868956327438354,1.0683619976043701,2.2962589263916016,-0.09505978971719742,5.170535087585449,10.685653686523438,5.022534370422363,0.4927043914794922,1.5348091125488281,-0.24564015865325928,15.923620223999023,-32.39623260498047,-2.828948974609375,0.7485790252685547,-0.039813995361328125,-0.29981040954589844,4.4219560623168945,10.725467681884766,5.322344779968262
5_20251106_150034,1762412401233,5,0.3005407452583313,0.26357176899909973,0.467465341091156,0.7884677052497864,1.1206612586975098,2.297457218170166,-0.07556269317865372,4.87606143951416,9.836944580078125,4.957893371582031,0.6112121343612671,1.434016466140747,-0.46860575675964355,15.628082275390625,-32.77582550048828,-1.7928600311279297,0.3632841110229492,-0.7108192443847656,-0.2915611267089844,4.512777328491211,10.54776382446289,5.249454498291016
5_20251106_150034,1762412401251,5,0.2954868674278259,0.2531674802303314,0.4763372242450714,0.78847736120224,1.1678675413131714,2.295093297958374,-0.05954089015722275,4.568419456481934,9.1498384475708,4.629901885986328,0.6576378345489502,1.204942226409912,-0.4203474521636963,15.395700454711914,-33.102027893066406,-0.6721658706665039,0.044513702392578125,-1.1183404922485352,-0.49564170837402344,4.5239057540893555,10.268178939819336,5.125543594360352
5_20251106_150034,1762412401271,5,0.29142799973487854,0.24375620484352112,0.4855169951915741,0.7873536944389343,1.2168419361114502,2.2883903980255127,-0.04369177669286728,4.242822170257568,8.88409423828125,4.775941848754883,0.6075469255447388,0.8384232521057129,-0.26885300874710083,15.256473541259766,-33.284400939941406,0.4413490295410156,-0.2248668670654297,-1.1072673797607422,-0.2796812057495117,4.467689037322998,9.991361618041992,5.0556230545043945
5_20251106_150034,1762412401290,5,0.2879297137260437,0.23735111951828003,0.4933384358882904,0.7857341170310974,1.2589826583862305,2.2793490886688232,-0.02980387583374977,3.717317581176758,8.90085220336914,4.904026031494141,0.6075469255447388,0.8384232521057129,-0.26885300874710083,15.358551025390625,-33.276023864746094,1.5813941955566406,-0.6002969741821289,-0.8724069595336914,-0.1212778091430664,4.317614555358887,9.773259162902832,5.025303840637207
5_20251106_150034,1762412401309,5,0.2850740849971771,0.23343463242053986,0.49949172139167786,0.7840593457221985,1.2959932088851929,2.268300771713257,-0.017645929008722305,3.2157537937164307,8.876911163330078,4.647857666015625,0.6081578135490417,0.7974953055381775,-0.26824212074279785,15.404619216918945,-33.195335388183594,2.6259565353393555,-0.881488561630249,-0.7170782089233398,-0.3019571304321289,4.09724235534668,9.593989372253418,4.949814796447754
5_20251106_150034,1762412401329,5,0.2824151813983917,0.2295006513595581,0.5055937767028809,0.7822697758674622,1.2959932088851929,2.268300771713257,-0.017645929008722305,3.2157537937164307,8.876911163330078,4.647857666015625,0.6881811022758484,1.0381760597229004,-0.18394282460212708,15.477470397949219,-33.074974060058594,3.6317434310913086,-0.881488561630249,-0.7170782089233398,-0.3019571304321289,4.09724235534668,9.593989372253418,4.949814796447754
5_20251106_150034,1762412401347,5,0.27840766310691833,0.22362010180950165,0.5129386782646179,0.780626118183136,1.3582030534744263,2.2393696308135986,-0.003245800733566284,3.446784257888794,8.24606704711914,3.6782479286193848,0.7822542786598206,0.9703699946403503,0.12515471875667572,15.576398849487305,-32.927513122558594,4.598488807678223,-0.3714756965637207,-0.9195537567138672,-0.8601522445678711,3.8182599544525146,9.165620803833008,4.538400173187256
5_20251106_150034,1762412401367,5,0.2721235752105713,0.21823962032794952,0.5208439826965332,0.7791288495063782,1.3877760171890259,2.221078872680664,-0.0012294447515159845,3.8154754638671875,8.297538757324219,3.390955924987793,0.8134083151817322,0.7022004127502441,0.44158267974853516,15.690643310546875,-32.717002868652344,5.621109962463379,-0.002227783203125,-0.6944656372070312,-0.9179553985595703,3.8177032470703125,8.99200439453125,4.308911323547363
5_20251106_150034,1762412401386,5,0.2641482353210449,0.21634189784526825,0.5279244780540466,0.777635931968689,1.4148995876312256,2.2026236057281494,-0.0029955583158880472,3.9758801460266113,8.281978607177734,3.0019149780273438,0.8134083151817322,0.7022004127502441,0.44158267974853516,15.730670928955078,-32.52436065673828,6.6945905685424805,0.1265413761138916,-0.5680208206176758,-1.0455970764160156,3.8493387699127197,8.84999942779541,4.047512054443359
5_20251106_150034,1762412401405,5,0.25553056597709656,0.21760177612304688,0.5338793396949768,0.7760969400405884,1.4406561851501465,2.1835227012634277,-0.008671839721500874,3.8454017639160156,8.278387069702148,2.590129852294922,0.7474349141120911,0.31613394618034363,0.4409717917442322,15.660701751708984,-32.36249542236328,7.614449501037598,-0.0031495094299316406,-0.4572896957397461,-1.1659057140350342,3.8485512733459473,8.735676765441895,3.756035566329956
5_20251106_150034,1762412401424,5,0.24791941046714783,0.22035549581050873,0.5392118096351624,0.7740995287895203,1.4636088609695435,2.1642963886260986,-0.018120266497135162,3.2959561347961426,8.341830253601074,2.2776999473571777,0.5281345248222351,0.22633683681488037,0.11293742805719376,15.542285919189453,-32.203407287597656,8.49179744720459,-0.4420759677886963,-0.3150777816772461,-1.1826684474945068,3.738032102584839,8.65690803527832,3.4603683948516846
5_20251106_150034,1762412401443,5,0.24303489923477173,0.22236615419387817,0.5436256527900696,0.7719835042953491,1.4820301532745361,2.144805669784546,-0.029841840267181396,2.504706382751465,8.210155487060547,2.459651470184326,0.5281345248222351,0.22633683681488037,0.11293742805719376,15.352445602416992,-32.035179138183594,9.231305122375488,-0.9866607189178467,-0.35740184783935547,-0.8005735874176025,3.4913671016693115,8.567557334899902,3.2602250576019287
5_20251106_150034,1762412401461,5,0.24165046215057373,0.22241267561912537,0.5469692349433899,0.7700404524803162,1.494310975074768,2.1255879402160645,-0.04206487908959389,1.7457771301269531,7.886951446533203,2.5805535316467285,0.27829086780548096,0.16708296537399292,-0.34460023045539856,15.196950912475586,-31.902366638183594,9.985007286071777,-1.3964719772338867,-0.5444850921630859,-0.5437371730804443,3.14224910736084,8.431436538696289,3.124290704727173
5_20251106_150034,1762412401481,5,0.24239352345466614,0.22091050446033478,0.5499218106269836,0.7681340575218201,1.5012784004211426,2.102741241455078,-0.05758792161941528,1.1699963808059692,7.58888578414917,2.2621383666992188,0.27829086780548096,0.16708296537399292,-0.34460023045539856,15.028762817382812,-31.78264617919922,10.710923194885254,-1.577802300453186,-0.6740403175354004,-0.6897218227386475,2.7477986812591553,8.26292610168457,2.951860189437866
5_20251106_150034,1762412401500,5,0.24351857602596283,0.21910949051380157,0.5528729557991028,0.7661730647087097,1.5012784004211426,2.102741241455078,-0.05758792161941528,1.1699963808059692,7.58888578414917,2.2621383666992188,0.21842613816261292,-0.0009048433275893331,-0.2285359501838684,14.960769653320312,-31.618080139160156,11.360457420349121,-1.577802300453186,-0.6740403175354004,-0.6897218227386475,2.7477986812591553,8.26292610168457,2.951860189437866
5_20251106_150034,1762412401518,5,0.24467797577381134,0.2181897759437561,0.5553897023200989,0.7642435431480408,1.5016202926635742,2.077592372894287,-0.07552424818277359,0.7761670351028442,7.5589599609375,2.2202415466308594,0.08403588831424713,-0.00945694837719202,-0.14912353456020355,14.894866943359375,-31.43907928466797,11.821026802062988,-1.5773054361343384,-0.5631732940673828,-0.5852947235107422,2.3534724712371826,8.122133255004883,2.8055362701416016
5_20251106_150034,1762412401538,5,0.2457941323518753,0.21781495213508606,0.5567947626113892,0.762968897819519,1.490654706954956,2.0352694988250732,-0.10461577773094177,0.6516739130020142,7.835477828979492,2.8630571365356445,0.010121267288923264,0.06262508779764175,-0.07520890235900879,14.900644302368164,-31.30364227294922,12.094256401062012,-1.0897257328033447,-0.16679668426513672,0.07396960258483887,1.7413996458053589,8.002274513244629,2.7890875339508057
5_20251106_150034,1762412401558,5,0.24638670682907104,0.2171548306941986,0.5573252439498901,0.7625784873962402,1.4799418449401855,2.0128185749053955,-0.11879843473434448,0.669629693031311,7.867798328399658,3.0043091773986816,-0.04363483190536499,0.07117719948291779,0.009090431034564972,14.900644302368164,-31.30364227294922,12.094256401062012,-0.8574159145355225,-0.10758066177368164,0.17217731475830078,1.5270456075668335,7.97537899017334,2.832131862640381
5_20251106_150034,1762412401577,5,0.24624015390872955,0.21636447310447693,0.5573936104774475,0.7628004550933838,1.4678882360458374,1.9926949739456177,-0.13147073984146118,0.6576591730117798,8.025809288024902,2.8786187171936035,-0.12243637442588806,0.005814668722450733,0.10377446562051773,15.050460815429688,-30.96031951904297,12.552815437316895,-0.6955091953277588,0.04034423828125,0.037189483642578125,1.3531683683395386,7.985465049743652,2.8414292335510254
5_20251106_150034,1762412401595,5,0.24575431644916534,0.21615760028362274,0.5566607117652893,0.7635506391525269,1.4678882360458374,1.9926949739456177,-0.13147073984146118,0.6576591730117798,8.025809288024902,2.8786187171936035,-0.2079574465751648,-0.12918643653392792,0.14225894212722778,15.050460815429688,-30.96031951904297,12.552815437316895,-0.6955091953277588,0.04034423828125,0.037189483642578125,1.3531683683395386,7.985465049743652,2.8414292335510254
5_20251106_150034,1762412401615,5,0.24541033804416656,0.21687820553779602,0.5549418330192566,0.7647072672843933,1.4529743194580078,1.9740877151489258,-0.14502345025539398,0.41226404905319214,8.48427963256836,2.5518243312835693,-0.311193585395813,-0.18049907684326172,0.10743964463472366,15.102840423583984,-30.882606506347656,12.637457847595215,-0.7527233958244324,0.3990516662597656,-0.23168396949768066,1.1649874448776245,8.085227966308594,2.78350830078125
5_20251106_150034,1762412401634,5,0.2459622621536255,0.2183053344488144,0.5523185133934021,0.7660219669342041,1.419457197189331,1.949925422668457,-0.17026767134666443,-0.05817633867263794,9.437129974365234,2.429725408554077,-0.3680039942264557,-0.08031725883483887,0.03535761684179306,15.226617813110352,-30.837257385253906,12.670186042785645,-0.8132777810096741,0.9289960861206055,-0.24519085884094238,0.7551014423370361,8.508133888244629,2.6749162673950195
5_20251106_150034,1762412401654,5,0.24695193767547607,0.21882739663124084,0.5493298172950745,0.7677018046379089,1.3983993530273438,1.9425933361053467,-0.18416860699653625,-0.21259570121765137,9.546062469482422,2.385434627532959,-0.3270760476589203,-0.025950297713279724,0.01580994203686714,15.292160034179688,-30.769020080566406,12.52527904510498,-0.774157702922821,0.8303432464599609,-0.23158550262451172,0.5615620017051697,8.715719223022461,2.6170201301574707
5_20251106_150034,1762412401673,5,0.2479153573513031,0.21829530596733093,0.5466963648796082,0.7694207429885864,1.3784562349319458,1.938722848892212,-0.19696903228759766,-0.2257632464170456,9.68970775604248,2.2453794479370117,-0.2549940347671509,-0.007624355144798756,0.1001092717051506,15.244800567626953,-30.77031707763672,12.334090232849121,-0.6298602223396301,0.7791910171508789,-0.29731273651123047,0.40409696102142334,8.910516738891602,2.542692184448242
5_20251106_150034,1762412401691,5,0.2483808994293213,0.21791595220565796,0.5446070432662964,0.7708584666252136,1.3569989204406738,1.9376952648162842,-0.21134981513023376,-0.12760519981384277,9.950664520263672,1.9796347618103027,-0.2134552299976349,-0.016176462173461914,0.2033454179763794,15.242759704589844,-30.831077575683594,12.130026817321777,-0.4253617227077484,0.832118034362793,-0.45044589042663574,0.29775652289390564,9.118546485900879,2.4300806522369385
5_20251106_150034,1762412401711,5,0.24786947667598724,0.2181420475244522,0.5427888035774231,0.7722402811050415,1.3347142934799194,1.939987063407898,-0.22718729078769684,0.02561710774898529,10.210424423217773,1.9509053230285645,-0.2067357301712036,-0.03083721362054348,0.2540471851825714,15.191776275634766,-30.895286560058594,11.951033592224121,-0.21771153807640076,0.8735027313232422,-0.38334012031555176,0.24332864582538605,9.336921691894531,2.334245443344116
5_20251106_150034,1762412401729,5,0.24684935808181763,0.21902504563331604,0.5409666895866394,0.7735944986343384,1.3155227899551392,1.9444304704666138,-0.24117411673069,0.1872187852859497,10.345691680908203,2.1532068252563477,-0.2128443717956543,-0.02045251615345478,0.2503819763660431,15.142498016357422,-30.933982849121094,11.732020378112793,-0.044887885451316833,0.8070163726806641,-0.14483094215393066,0.23210667073726654,9.538675308227539,2.2980377674102783
5_20251106_150034,1762412401749,5,0.24570892751216888,0.22012145817279816,0.5391119122505188,0.774940013885498,1.3155227899551392,1.9444304704666138,-0.24117411673069,0.1872187852859497,10.345691680908203,2.1532068252563477,-0.22506165504455566,0.02536233887076378,0.20456713438034058,15.000968933105469,-31.103660583496094,11.493416786193848,-0.044887885451316833,0.8070163726806641,-0.14483094215393066,0.23210667073726654,9.538675308227539,2.2980377674102783
5_20251106_150034,1762412401768,5,0.24464169144630432,0.2208694964647293,0.5372825860977173,0.7763340473175049,1.2778695821762085,1.9600015878677368,-0.2684350609779358,0.4409932494163513,10.233168601989746,2.617661952972412,-0.2287268489599228,0.07362065464258194,0.1312633752822876,14.874853134155273,-31.210166931152344,11.297173500061035,0.15284019708633423,0.41823673248291016,0.2503345012664795,0.2881530523300171,9.814931869506836,2.3673274517059326
5_20251106_150034,1762412401786,5,0.24371229112148285,0.22085049748420715,0.535605788230896,0.7777890563011169,1.2625237703323364,1.9673405885696411,-0.2786332070827484,0.46852537989616394,9.832157135009766,2.778066635131836,-0.2287268489599228,0.07362065464258194,0.1312633752822876,14.724662780761719,-31.31786346435547,11.059399604797363,0.14429786801338196,0.013780593872070312,0.32859134674072266,0.324227511882782,9.818376541137695,2.4494752883911133
5_20251106_150034,1762412401807,5,0.24304446578025818,0.22017492353916168,0.534276008605957,0.7791030406951904,1.2471206188201904,1.9744559526443481,-0.28778401017189026,0.5858361721038818,9.610702514648438,2.980368137359619,-0.1560339480638504,0.07300978899002075,0.05185095965862274,14.62040901184082,-31.46099090576172,10.917410850524902,0.20928692817687988,-0.1661396026611328,0.4247143268585205,0.37654924392700195,9.77684211730957,2.5556538105010986
5_20251106_150034,1762412401826,5,0.24259944260120392,0.2193957269191742,0.5333024263381958,0.7801279425621033,1.2471206188201904,1.9744559526443481,-0.28778401017189026,0.5858361721038818,9.610702514648438,2.980368137359619,-0.18535545468330383,0.027194933965802193,0.04513145238161087,14.539426803588867,-31.615638732910156,10.83020305633545,0.20928692817687988,-0.1661396026611328,0.4247143268585205,0.37654924392700195,9.77684211730957,2.5556538105010986
5_20251106_150034,1762412401845,5,0.24243247509002686,0.21897420287132263,0.532194197177887,0.7810544967651367,1.2223293781280518,1.9885659217834473,-0.29743286967277527,0.7881375551223755,10.119447708129883,3.7093710899353027,-0.22383993864059448,0.04063396155834198,0.006036107428371906,14.412817001342773,-31.72283172607422,10.70154094696045,0.26954543590545654,0.2615957260131836,0.8044562339782715,0.518592119216919,9.8578519821167,2.9049148559570312
5_20251106_150034,1762412401864,5,0.2426004856824875,0.21847079694271088,0.5306956171989441,0.7821621894836426,1.2223293781280518,1.9885659217834473,-0.29743286967277527,0.7881375551223755,10.119447708129883,3.7093710899353027,-0.22383993864059448,0.04063396155834198,0.006036107428371906,14.310791015625,-31.816551208496094,10.641705513000488,0.26954543590545654,0.2615957260131836,0.8044562339782715,0.518592119216919,9.8578519821167,2.9049148559570312
5_20251106_150034,1762412401882,5,0.24291162192821503,0.21749559044837952,0.5292996168136597,0.7832825183868408,1.2037293910980225,2.0035464763641357,-0.29442843794822693,0.7175116539001465,10.069171905517578,4.105594158172607,-0.06745855510234833,0.08400535583496094,-0.005570322275161743,14.221147537231445,-31.909202575683594,10.555327415466309,0.11792361736297607,0.11800765991210938,0.7692008018493652,0.5995880365371704,9.951164245605469,3.336393356323242
5_20251106_150034,1762412401901,5,0.24287869036197662,0.21643291413784027,0.5285720825195312,0.7840780019760132,1.2037293910980225,2.0035464763641357,-0.29442843794822693,0.7175116539001465,10.069171905517578,4.105594158172607,0.04127537086606026,0.06873373687267303,0.034135885536670685,14.184379577636719,-31.92346954345703,10.486010551452637,0.11792361736297607,0.11800765991210938,0.7692008018493652,0.5995880365371704,9.951164245605469,3.336393356323242
5_20251106_150034,1762412401921,5,0.24238060414791107,0.21578331291675568,0.5286317467689514,0.7843708992004395,1.1860723495483398,2.017102003097534,-0.2869914174079895,0.5415453910827637,9.73160457611084,3.43764066696167,0.07609465718269348,0.07239892333745956,0.0799507349729538,14.15727424621582,-31.98676300048828,10.375578880310059,-0.04002022743225098,-0.16177749633789062,0.02534317970275879,0.5815656185150146,9.89338207244873,3.412297487258911
5_20251106_150034,1762412401939,5,0.24150730669498444,0.21570320427417755,0.5291650891304016,0.7843026518821716,1.1787506341934204,2.021824598312378,-0.2839514911174774,0.6959647536277771,9.567608833312988,3.340679883956909,0.07059687376022339,0.12432241439819336,0.1104939728975296,14.083650588989258,-32.003807067871094,10.34533977508545,0.091519296169281,-0.2606182098388672,-0.05729413032531738,0.6044454574584961,9.828227043151855,3.3979740142822266
5_20251106_150034,1762412401959,5,0.24017353355884552,0.2155565470457077,0.5297797918319702,0.78433758020401,1.1721556186676025,2.0258584022521973,-0.2815234065055847,0.8767192363739014,9.572397232055664,3.171895742416382,0.062044765800237656,0.12371156364679337,0.13431769609451294,14.048402786254883,-31.98120880126953,10.35791301727295,0.21781903505325317,-0.2046642303466797,-0.1808626651763916,0.6589002013206482,9.777061462402344,3.3527584075927734
5_20251106_150034,1762412401978,5,0.23848938941955566,0.21531686186790466,0.5303772687911987,0.7845134735107422,1.1665430068969727,2.0292046070098877,-0.27927759289741516,0.9820595979690552,9.550849914550781,3.2927980422973633,0.03822104260325432,0.08156189322471619,0.1312633752822876,13.97477912902832,-31.998268127441406,10.32767391204834,0.2585275173187256,-0.18096923828125,-0.047968387603759766,0.7235320806503296,9.731819152832031,3.340766429901123
5_20251106_150034,1762412401997,5,0.23690396547317505,0.21540841460227966,0.5307405591011047,0.7847229838371277,1.1665430068969727,2.0292046070098877,-0.27927759289741516,0.9820595979690552,9.550849914550781,3.2927980422973633,0.04005363583564758,0.06567941606044769,0.09338975697755814,13.97477912902832,-31.998268127441406,10.32767391204834,0.2585275173187256,-0.18096923828125,-0.047968387603759766,0.7235320806503296,9.731819152832031,3.340766429901123
5_20251106_150034,1762412402017,5,0.23568852245807648,0.21564865112304688,0.5309539437294006,0.784878671169281,1.1583058834075928,2.032478094100952,-0.27603602409362793,0.9329805374145508,9.281514167785645,3.2377336025238037,0.039442773908376694,0.06140336021780968,0.043909721076488495,13.937713623046875,-32.01293182373047,10.298905372619629,0.1273435354232788,-0.31232738494873047,-0.0661325454711914,0.805637001991272,9.593841552734375,3.303866147994995
5_20251106_150034,1762412402036,5,0.23485414683818817,0.21570684015750885,0.5312793254852295,0.7848925590515137,1.1550365686416626,2.0323069095611572,-0.27509766817092896,0.8862956166267395,9.18814468383789,3.155137062072754,0.039442773908376694,0.06140336021780968,0.043909721076488495,13.890069961547852,-32.003013610839844,10.243142127990723,0.06452685594558716,-0.3245573043823242,-0.11898326873779297,0.8217687606811523,9.512701988220215,3.274120330810547
5_20251106_150034,1762412402054,5,0.2343708872795105,0.21560361981391907,0.5315821766853333,0.7848603129386902,1.1521676778793335,2.031353712081909,-0.2745048701763153,0.8515812158584595,9.188143730163574,3.171895980834961,-0.000874299556016922,0.014977640472352505,0.04329885542392731,13.853216171264648,-32.00580596923828,10.282219886779785,0.023849964141845703,-0.2596464157104492,-0.08177947998046875,0.8277312517166138,9.447790145874023,3.2536754608154297
5_20251106_150034,1762412402074,5,0.23398874700069427,0.2156268209218979,0.5317052006721497,0.7848846912384033,1.1493628025054932,2.0297741889953613,-0.2738786041736603,0.8539752960205078,9.220464706420898,3.265265703201294,-0.04119137302041054,0.0021494803950190544,0.053683556616306305,13.815656661987305,-32.021156311035156,10.321032524108887,0.020995259284973145,-0.18185997009277344,0.009272336959838867,0.8329800367355347,9.402324676513672,3.255993366241455
5_20251106_150034,1762412402094,5,0.23373371362686157,0.21590566635131836,0.5314580202102661,0.7850513458251953,1.1465321779251099,2.027907371520996,-0.27284494042396545,0.8671427965164185,9.340168952941895,3.3682119846343994,-0.06134990602731705,0.0033712098374962807,0.03291415423154831,13.740636825561523,-32.051719665527344,10.38514232635498,0.027330219745635986,-0.049724578857421875,0.08977484703063965,0.8398125767707825,9.389893531799316,3.2784371376037598
5_20251106_150034,1762412402112,5,0.2335360199213028,0.21602551639080048,0.5309721231460571,0.7854059934616089,1.1465321779251099,2.027907371520996,-0.27284494042396545,0.8671427965164185,9.340168952941895,3.3682119846343994,-0.0637933611869812,0.03513617813587189,0.01947513222694397,13.727041244506836,-32.07762908935547,10.384123802185059,0.027330219745635986,-0.049724578857421875,0.08977484703063965,0.8398125767707825,9.389893531799316,3.2784371376037598
5_20251106_150034,1762412402130,5,0.23345303535461426,0.2159145027399063,0.5304832458496094,0.7857913970947266,1.1423314809799194,2.0247557163238525,-0.26993677020072937,0.8850985765457153,9.38805103302002,3.2892065048217773,-0.04974347725510597,0.058349039405584335,0.018253400921821594,13.639822006225586,-32.12059783935547,10.352866172790527,0.0291745662689209,0.004183769226074219,-0.03141331672668457,0.8559240102767944,9.383867263793945,3.320619821548462
5_20251106_150034,1762412402151,5,0.2332238256931305,0.21551185846328735,0.5301240682601929,0.7862122654914856,1.1402230262756348,2.023202896118164,-0.2685670852661133,0.855172336101532,9.402416229248047,3.297585964202881,-0.06806942075490952,0.046742603182792664,0.01275561936199665,13.627338409423828,-32.121788024902344,10.392924308776855,-0.000601351261138916,0.01483917236328125,-0.018426895141601562,0.8557736873626709,9.387577056884766,3.3160128593444824
5_20251106_150034,1762412402170,5,0.23299691081047058,0.21510504186153412,0.5297957062721252,0.7866122126579285,1.1381890773773193,2.0219619274139404,-0.2670271396636963,0.8455959558486938,9.464662551879883,3.3945469856262207,-0.08578449487686157,0.046742603182792664,0.012144753709435463,13.615659713745117,-32.11029815673828,10.419730186462402,-0.008142173290252686,0.06166839599609375,0.06282734870910645,0.8537381291389465,9.402994155883789,3.3317196369171143
5_20251106_150034,1762412402188,5,0.23289307951927185,0.21467366814613342,0.5293029546737671,0.787092387676239,1.1365077495574951,2.0212056636810303,-0.2656877040863037,0.8360195159912109,9.514938354492188,3.375394344329834,-0.07539980113506317,0.04429914802312851,0.021307725459337234,13.63691520690918,-32.159339904785156,10.460204124450684,-0.014174878597259521,0.0895547866821289,0.03493976593017578,0.8501943945884705,9.425383567810059,3.340454578399658
5_20251106_150034,1762412402207,5,0.23281440138816833,0.21429689228534698,0.5287646651268005,0.7875800132751465,1.134523630142212,2.0208001136779785,-0.26407718658447266,0.8156696557998657,9.570003509521484,3.377788543701172,-0.08028671145439148,0.043077416718006134,0.02985983155667782,13.59994888305664,-32.17388153076172,10.417920112609863,-0.027619779109954834,0.11569595336914062,0.029867172241210938,0.8432894349098206,9.454307556152344,3.347921371459961
5_20251106_150034,1762412402227,5,0.23264922201633453,0.21399573981761932,0.5282575488090515,0.7880508303642273,1.1326348781585693,2.020799398422241,-0.26217982172966003,0.8420047760009766,9.58077621459961,3.468764305114746,-0.09372574090957642,0.04002309590578079,0.031081560999155045,13.574970245361328,-32.187889099121094,10.403159141540527,-0.0010277032852172852,0.10117530822753906,0.09667444229125977,0.8430324792861938,9.47960090637207,3.3720898628234863
5_20251106_150034,1762412402246,5,0.2324555367231369,0.21367807686328888,0.5276550054550171,0.7885977029800415,1.1326348781585693,2.020799398422241,-0.26217982172966003,0.8420047760009766,9.58077621459961,3.468764305114746,-0.09372574090957642,0.04002309590578079,0.031081560999155045,13.625419616699219,-32.15918731689453,10.365099906921387,-0.0010277032852172852,0.10117530822753906,0.09667444229125977,0.8430324792861938,9.47960090637207,3.3720898628234863
5_20251106_150034,1762412402265,5,0.23240388929843903,0.21339847147464752,0.5272793769836426,0.7889397740364075,1.1292072534561157,2.0214192867279053,-0.2574038505554199,0.8084874153137207,9.614294052124023,3.5561485290527344,-0.04974347725510597,0.011923315934836864,0.021918591111898422,13.648382186889648,-32.182716369628906,10.365553855895996,-0.027088642120361328,0.09827041625976562,0.11741447448730469,0.835576057434082,9.516023635864258,3.4387340545654297
5_20251106_150034,1762412402285,5,0.23244185745716095,0.2132090926170349,0.5269249081611633,0.7892165780067444,1.1292072534561157,2.0214192867279053,-0.2574038505554199,0.8084874153137207,9.614294052124023,3.5561485290527344,-0.04974347725510597,0.011923315934836864,0.021918591111898422,13.707803726196289,-32.20398712158203,10.380993843078613,-0.027088642120361328,0.09827041625976562,0.11741447448730469,0.835576057434082,9.516023635864258,3.4387340545654297
5_20251106_150034,1762412402303,5,0.23239365220069885,0.21305064857006073,0.5267858505249023,0.7893663644790649,1.1256334781646729,2.022521734237671,-0.251929372549057,0.7330732941627502,9.477829933166504,3.466370105743408,0.0009582946076989174,0.04857520014047623,0.02924896590411663,13.734376907348633,-32.17620086669922,10.274373054504395,-0.0738375186920166,-0.040149688720703125,-0.003189563751220703,0.8069108128547668,9.517979621887207,3.469559669494629
5_20251106_150034,1762412402322,5,0.23218941688537598,0.2127619832754135,0.5268635153770447,0.7894524931907654,1.1237798929214478,2.02284574508667,-0.24965141713619232,0.8240489959716797,9.465860366821289,3.3227243423461914,0.0009582946076989174,0.04857520014047623,0.02924896590411663,13.630544662475586,-32.295570373535156,10.268073081970215,0.013710498809814453,-0.041695594787597656,-0.11746835708618164,0.8103384971618652,9.507555961608887,3.440192699432373
5_20251106_150034,1762412402341,5,0.2317838966846466,0.21234416961669922,0.5271667242050171,0.7894816994667053,1.1224665641784668,2.023142099380493,-0.24780946969985962,0.9413598775863647,9.508953094482422,3.362226724624634,-0.025919754058122635,0.05346211791038513,0.06528998911380768,13.556625366210938,-32.313026428222656,10.278382301330566,0.10481715202331543,0.001117706298828125,-0.062372684478759766,0.8365427255630493,9.507835388183594,3.4245994091033936
5_20251106_150034,1762412402360,5,0.23116783797740936,0.21205496788024902,0.5274781584739685,0.7895320653915405,1.1215229034423828,2.023406982421875,-0.2461683452129364,0.9473451375961304,9.501771926879883,3.3849706649780273,-0.032639265060424805,0.03147098794579506,0.05979219824075699,13.566596984863281,-32.35002899169922,10.291596412658691,0.08864188194274902,-0.0048503875732421875,-0.03170299530029297,0.8587032556533813,9.506622314453125,3.4166736602783203
5_20251106_150034,1762412402378,5,0.23061597347259521,0.2121475636959076,0.5275046229362488,0.7896509170532227,1.1208447217941284,2.023515462875366,-0.2448047697544098,0.9281923770904541,9.453888893127441,3.370605945587158,-0.02164370007812977,0.01314504537731409,0.0384119376540184,13.530731201171875,-32.351463317871094,10.195511817932129,0.05559134483337402,-0.042186737060546875,-0.03685426712036133,0.8726010322570801,9.496075630187988,3.4074602127075195
5_20251106_150034,1762412402398,5,0.23028023540973663,0.2124120593070984,0.5274716019630432,0.7896998524665833,1.12022864818573,2.0235490798950195,-0.24313904345035553,0.9054484367370605,9.469450950622559,3.481931686401367,-0.03141753375530243,0.0015386155573651195,0.03291415423154831,13.507261276245117,-32.34021759033203,10.16776180267334,0.026277899742126465,-0.021299362182617188,0.059577226638793945,0.8791705369949341,9.490750312805176,3.4223544597625732
5_20251106_150034,1762412402417,5,0.230255126953125,0.21274635195732117,0.5274505615234375,0.789631187915802,1.1198793649673462,2.0235209465026855,-0.2411668449640274,0.9545274376869202,9.469449996948242,3.593257427215576,-0.036304451525211334,0.024140609428286552,0.02924896590411663,13.448135375976562,-32.31853485107422,10.111771583557129,0.06028550863265991,-0.017040252685546875,0.13672256469726562,0.8942419290542603,9.486490249633789,3.4565348625183105
5_20251106_150034,1762412402437,5,0.2301979660987854,0.21289494633674622,0.5273207426071167,0.7896945476531982,1.11949622631073,2.0231289863586426,-0.23898053169250488,0.8755221366882324,9.353336334228516,3.5705132484436035,-0.003928623162209988,0.021086284890770912,0.01580994203686714,13.36444091796875,-32.29871368408203,10.081833839416504,-0.014975786209106445,-0.10652351379394531,0.09118270874023438,0.8904979228973389,9.459859848022461,3.479330539703369
5_20251106_150034,1762412402456,5,0.23010039329528809,0.21285749971866608,0.5271894335746765,0.7898207306861877,1.1189329624176025,2.022322177886963,-0.2368045151233673,0.8312313556671143,9.323410987854004,3.4759464263916016,0.00340175349265337,0.021086284890770912,0.018864266574382782,13.32406234741211,-32.364280700683594,10.11959171295166,-0.04741322994232178,-0.10915851593017578,-0.002707242965698242,0.878644585609436,9.43256950378418,3.4786536693573
5_20251106_150034,1762412402475,5,0.22997279465198517,0.21282050013542175,0.5272098779678345,0.7898542284965515,1.118248462677002,2.0213077068328857,-0.2348119616508484,0.8144726753234863,9.32819938659668,3.4891140460968018,-0.017367646098136902,0.019253691658377647,0.020085996016860008,13.32406234741211,-32.364280700683594,10.11959171295166,-0.05133754014968872,-0.08349609375,0.008368253707885742,0.865810215473175,9.41169548034668,3.480745792388916
5_20251106_150034,1762412402494,5,0.22999629378318787,0.2127438485622406,0.5271772742271423,0.7898898124694824,1.1174147129058838,2.020348072052002,-0.2326858788728714,0.7989109754562378,9.413188934326172,3.565725326538086,-0.028363212943077087,0.03513617813587189,0.01947513222694397,13.350845336914062,-32.324607849121094,10.080815315246582,-0.053519368171691895,0.0011949539184570312,0.06798362731933594,0.8524303436279297,9.411993980407715,3.49774169921875
5_20251106_150034,1762412402513,5,0.23050560057163239,0.21294249594211578,0.5269986391067505,0.7898070216178894,1.1164627075195312,2.0193378925323486,-0.23048287630081177,0.7941228151321411,9.376080513000488,3.564527988433838,-0.020421970635652542,0.05407298356294632,0.02619464322924614,13.385091781616211,-32.36016082763672,10.108527183532715,-0.046646058559417725,-0.028731346130371094,0.05342912673950195,0.8407688736915588,9.40481185913086,3.511098861694336
5_20251106_150034,1762412402532,5,0.23072151839733124,0.21275359392166138,0.5268144607543945,0.7899177670478821,1.1154828071594238,2.0180890560150146,-0.22833538055419922,0.8132755756378174,9.299469947814941,3.531010627746582,-0.020421970635652542,0.05407298356294632,0.02619464322924614,13.373512268066406,-32.348533630371094,10.121817588806152,-0.02199465036392212,-0.0842733383178711,0.015929460525512695,0.8352702260017395,9.383743286132812,3.5150811672210693
5_20251106_150034,1762412402552,5,0.2302415668964386,0.2122916579246521,0.5269399881362915,0.7900983095169067,1.114734411239624,2.0167877674102783,-0.22649244964122772,0.9114336967468262,9.366504669189453,3.4148969650268555,-0.00820467621088028,0.052240390330553055,0.06834430992603302,13.40644645690918,-32.40906524658203,10.135485649108887,0.06093078851699829,-0.013791084289550781,-0.08014726638793945,0.8505029082298279,9.380295753479004,3.495044231414795
5_20251106_150034,1762412402570,5,0.22951890528202057,0.21194829046726227,0.5270290970802307,0.7903412580490112,1.1141797304153442,2.015538215637207,-0.22500798106193542,0.8850985765457153,9.324607849121094,3.4579906463623047,-0.04119136929512024,0.04002309590578079,0.05857047438621521,13.367477416992188,-32.44951629638672,10.173771858215332,0.027676522731781006,-0.04454994201660156,-0.02964305877685547,0.8574220538139343,9.369157791137695,3.48763370513916
