session_id,timestamp,label,quaternion_w,quaternion_x,quaternion_y,quaternion_z,position_x,position_y,position_z,accelerometer_x,accelerometer_y,accelerometer_z,gyroscope_x,gyroscope_y,gyroscope_z,magnetometer_x,magnetometer_y,magnetometer_z,linear_acceleration_x,linear_acceleration_y,linear_acceleration_z,gravity_x,gravity_y,gravity_z
4_20251106_214226,1762436509779,4,0.38059327006340027,0.5874064564704895,0.6305617094039917,0.3354018032550812,-0.13293397426605225,3.0275347232818604,0.5217384099960327,-0.6375482082366943,9.48142147064209,-4.377894401550293,-0.044012799859046936,0.2545091509819031,0.1561141014099121,30.360336303710938,-15.162483215332031,10.479278564453125,0.1792203187942505,0.1865081787109375,0.29189634323120117,-0.8167685270309448,9.294913291931152,-4.669790744781494
4_20251106_214226,1762436509798,4,0.37871286273002625,0.586984395980835,0.63069087266922,0.338016152381897,-0.12545345723628998,3.067812442779541,0.4484129250049591,-0.4125029444694519,8.960704803466797,-4.373106956481934,0.037843070924282074,0.23679408431053162,0.18360301852226257,30.322086334228516,-15.17877197265625,10.612707138061523,0.2878422141075134,-0.2629241943359375,0.17896032333374023,-0.7003451585769653,9.223628997802734,-4.552067279815674
4_20251106_214226,1762436509817,4,0.3764050602912903,0.5871137976646423,0.6308318376541138,0.3400996923446655,-0.1205664798617363,3.0845754146575928,0.4160770773887634,-0.3275124430656433,8.881699562072754,-4.405426979064941,0.07082976400852203,0.1402774602174759,0.2233092188835144,30.322086334228516,-15.17877197265625,10.612707138061523,0.2982661724090576,-0.2735433578491211,0.11731195449829102,-0.6257786154747009,9.155242919921875,-4.522738933563232
4_20251106_214226,1762436509835,4,0.3743174970149994,0.587946355342865,0.63050776720047,0.34156322479248047,-0.11520972847938538,3.098797082901001,0.3875967562198639,-0.23653671145439148,8.8038911819458,-4.270160675048828,0.0775492712855339,0.0883539468050003,0.25629591941833496,30.294315338134766,-15.21978759765625,10.786645889282227,0.31139352917671204,-0.2810811996459961,0.20206260681152344,-0.5479302406311035,9.084972381591797,-4.472223281860352
4_20251106_214226,1762436509855,4,0.3723655939102173,0.589146614074707,0.6298602223396301,0.34282100200653076,-0.10824120789766312,3.1126158237457275,0.35819578170776367,-0.11563470959663391,8.69256591796875,-4.254598617553711,0.1239749863743782,0.07186059653759003,0.24835467338562012,30.128665924072266,-15.344337463378906,10.899541854858398,0.34583643078804016,-0.31392574310302734,0.17409944534301758,-0.4614711403846741,9.006491661071777,-4.4286980628967285
4_20251106_214226,1762436509874,4,0.3703303933143616,0.5905945897102356,0.6292551755905151,0.3436441123485565,-0.10824120789766312,3.1126158237457275,0.35819578170776367,-0.11563470959663391,8.69256591796875,-4.254598617553711,0.17834195494651794,0.0578107088804245,0.22453096508979797,29.98687744140625,-15.479591369628906,10.986120223999023,0.34583643078804016,-0.31392574310302734,0.17409944534301758,-0.4614711403846741,9.006491661071777,-4.4286980628967285
4_20251106_214226,1762436509893,4,0.3681190609931946,0.592111349105835,0.6289331912994385,0.34399935603141785,-0.09110652655363083,3.1319143772125244,0.30424070358276367,0.3392440378665924,8.195791244506836,-5.009936809539795,0.17834195494651794,0.0578107088804245,0.22453096508979797,29.91751480102539,-15.61102294921875,11.170255661010742,0.5509548187255859,-0.5535144805908203,-0.4428582191467285,-0.21171081066131592,8.749305725097656,-4.567078590393066
4_20251106_214226,1762436509912,4,0.36633312702178955,0.5936151742935181,0.6286033391952515,0.34391698241233826,-0.08079143613576889,3.1382498741149902,0.2770126760005951,0.32727354764938354,8.143119812011719,-5.133233070373535,0.12153153866529465,-0.058253586292266846,0.12679260969161987,29.836063385009766,-15.743110656738281,11.340385437011719,0.4311875104904175,-0.48494815826416016,-0.4529237747192383,-0.10391394793987274,8.628067970275879,-4.680309295654297
4_20251106_214226,1762436509932,4,0.3654293715953827,0.5951273441314697,0.6280012130737305,0.3433646857738495,-0.08079143613576889,3.1382498741149902,0.2770126760005951,0.32727354764938354,8.143119812011719,-5.133233070373535,0.10564905405044556,-0.06986001878976822,0.0638735443353653,29.73980712890625,-15.925956726074219,11.481935501098633,0.4311875104904175,-0.48494815826416016,-0.4529237747192383,-0.10391394793987274,8.628067970275879,-4.680309295654297
4_20251106_214226,1762436509950,4,0.36475422978401184,0.5960269570350647,0.6278866529464722,0.3427309989929199,-0.06916189938783646,3.14296555519104,0.24822215735912323,0.3284705877304077,8.095237731933594,-5.194282531738281,0.11847720295190811,-0.08696422725915909,-0.03203221783041954,29.687156677246094,-15.980842590332031,11.627595901489258,0.34590762853622437,-0.42626380920410156,-0.4111785888671875,-0.01743704080581665,8.521501541137695,-4.783103942871094
4_20251106_214226,1762436509970,4,0.3644237220287323,0.5964765548706055,0.6282846331596375,0.341569185256958,-0.04674811661243439,3.1478302478790283,0.19297178089618683,0.06392268091440201,8.095237731933594,-5.396583557128906,0.06472111493349075,-0.06863828748464584,-0.1725311130285263,29.559978485107422,-16.06561279296875,11.769786834716797,0.007635749876499176,-0.2655305862426758,-0.39415931701660156,0.05628693103790283,8.36076831817627,-5.002424240112305
4_20251106_214226,1762436509989,4,0.36469513177871704,0.5958181023597717,0.6294155120849609,0.34034454822540283,-0.037917278707027435,3.14888334274292,0.1667051911354065,-0.5106610059738159,8.085661888122559,-5.015921592712402,0.0018020514398813248,0.010774126276373863,-0.29103884100914,29.444171905517578,-16.17389678955078,11.830842971801758,-0.4535583555698395,-0.22008514404296875,-0.010797977447509766,-0.05710264667868614,8.305747032165527,-5.005123615264893
4_20251106_214226,1762436510009,4,0.3652662932872772,0.5939359068870544,0.6313127875328064,0.3395066559314728,-0.031946342438459396,3.1489908695220947,0.14111901819705963,-0.9978600740432739,7.994686126708984,-4.7813005447387695,0.022571450099349022,0.08163443207740784,-0.28859540820121765,29.42938995361328,-16.20142364501953,11.992019653320312,-0.7526059746742249,-0.24884891510009766,0.17905855178833008,-0.24525411427021027,8.243535041809082,-4.9603590965271
4_20251106_214226,1762436510027,4,0.3654339611530304,0.5918574333190918,0.6334898471832275,0.33890023827552795,-0.029301047325134277,3.148662567138672,0.12052807211875916,-1.2360727787017822,8.05453872680664,-4.928537368774414,0.040897391736507416,0.08652134984731674,-0.15970295667648315,29.405437469482422,-16.179244995117188,12.126729965209961,-0.7926549315452576,-0.1511974334716797,0.025457382202148438,-0.44341784715652466,8.20573616027832,-4.9539947509765625
4_20251106_214226,1762436510047,4,0.36511728167533875,0.590485155582428,0.6350879073143005,0.3386443555355072,-0.028668824583292007,3.148211717605591,0.09585152566432953,-1.1810085773468018,8.186213493347168,-5.106897354125977,-0.013469566591084003,0.06025416776537895,0.03516290336847305,29.395267486572266,-16.142501831054688,12.140546798706055,-0.5900726318359375,-0.015618324279785156,-0.12232208251953125,-0.5909359455108643,8.201831817626953,-4.984575271606445
4_20251106_214226,1762436510066,4,0.3646523356437683,0.5901662111282349,0.635353684425354,0.33920225501060486,-0.02897622063755989,3.1479387283325195,0.07550961524248123,-0.9248400926589966,8.240081787109375,-5.08535099029541,-0.11487310379743576,0.03276525437831879,0.19337685406208038,29.396888732910156,-16.105506896972656,12.208919525146484,-0.26712334156036377,0.030599594116210938,-0.08062076568603516,-0.6577167510986328,8.209482192993164,-5.004730224609375
4_20251106_214226,1762436510085,4,0.36443784832954407,0.5906450748443604,0.634225070476532,0.3407081067562103,-0.02927182987332344,3.1482186317443848,0.0555698424577713,-0.6531099081039429,8.411258697509766,-4.83756160736084,-0.18695515394210815,0.008941532112658024,0.2593502700328827,29.365970611572266,-16.007431030273438,12.20956039428711,0.003685474395751953,0.1614208221435547,0.13373470306396484,-0.6567953824996948,8.249837875366211,-4.971296310424805
4_20251106_214226,1762436510103,4,0.3644843101501465,0.5912922620773315,0.6324536204338074,0.34282219409942627,-0.029483431950211525,3.1492526531219482,0.03800880163908005,-0.6315629482269287,8.529767036437988,-4.467673301696777,-0.1997832953929901,-0.006330085452646017,0.24835467338562012,29.353275299072266,-16.02051544189453,12.181774139404297,0.02018594741821289,0.22394371032714844,0.40289831161499023,-0.6517488956451416,8.30582332611084,-4.870571613311768
4_20251106_214226,1762436510123,4,0.3647293746471405,0.591871440410614,0.6306031346321106,0.34496429562568665,-0.029786713421344757,3.15087890625,0.023134026676416397,-0.6890213489532471,8.54054069519043,-4.2115044593811035,-0.13625337183475494,0.0242131520062685,0.2031506896018982,29.352275848388672,-16.033477783203125,12.22205924987793,-0.029817938804626465,0.1877737045288086,0.5272536277770996,-0.6592034101486206,8.352766990661621,-4.738758087158203
4_20251106_214226,1762436510141,4,0.36461853981018066,0.5922390818595886,0.6293120980262756,0.3468031883239746,-0.029786713421344757,3.15087890625,0.023134026676416397,-0.6890213489532471,8.54054069519043,-4.2115044593811035,-0.13625337183475494,0.0242131520062685,0.2031506896018982,29.301925659179688,-16.062034606933594,12.246603012084961,-0.029817938804626465,0.1877737045288086,0.5272536277770996,-0.6592034101486206,8.352766990661621,-4.738758087158203
4_20251106_214226,1762436510161,4,0.3641250431537628,0.591957688331604,0.6290398240089417,0.34829285740852356,-0.031165536493062973,3.154015302658081,-0.0009953463450074196,-0.9080813527107239,8.169454574584961,-4.349165916442871,-0.011026107706129551,0.08529961854219437,-0.020425789058208466,29.2249755859375,-16.1416015625,12.188011169433594,-0.1912670135498047,-0.16175460815429688,0.23459148406982422,-0.7168143391609192,8.331209182739258,-4.583757400512695
4_20251106_214226,1762436510179,4,0.3636963665485382,0.5911614894866943,0.6296646595001221,0.3489634394645691,-0.03350893780589104,3.153803586959839,-0.011273442767560482,-1.2241023778915405,7.823507308959961,-4.411412239074707,-0.011026107706129551,0.08529961854219437,-0.020425789058208466,29.160213470458984,-16.220375061035156,12.12990951538086,-0.405830442905426,-0.4061613082885742,0.13787603378295898,-0.8182719349861145,8.229668617248535,-4.549288272857666
4_20251106_214226,1762436510200,4,0.3636431097984314,0.5898586511611938,0.631080687046051,0.3486655652523041,-0.03350893780589104,3.153803586959839,-0.011273442767560482,-1.2241023778915405,7.823507308959961,-4.411412239074707,0.07327321916818619,0.11645372956991196,-0.31364086270332336,29.11117172241211,-16.223953247070312,12.168497085571289,-0.405830442905426,-0.4061613082885742,0.13787603378295898,-0.8182719349861145,8.229668617248535,-4.549288272857666
4_20251106_214226,1762436510219,4,0.3635873794555664,0.5875644683837891,0.6337313055992126,0.3477885127067566,-0.040439072996377945,3.149308919906616,-0.023010574281215668,-1.8717061281204224,7.1723127365112305,-4.528723239898682,0.07082977145910263,0.19281181693077087,-0.37045127153396606,29.09838104248047,-16.237167358398438,12.154226303100586,-0.8427473306655884,-0.8458843231201172,0.016452312469482422,-1.028958797454834,8.018197059631348,-4.545175552368164
4_20251106_214226,1762436510241,4,0.3633016049861908,0.5846251249313354,0.6370401978492737,0.346994549036026,-0.0634351521730423,3.1316475868225098,-0.04332634061574936,-3.0711495876312256,6.244599342346191,-5.139218330383301,-0.04279107600450516,0.2832197844982147,-0.3063104748725891,29.09123992919922,-16.13831329345703,12.236944198608398,-1.3749945163726807,-1.1954340934753418,-0.4294099807739258,-1.696155071258545,7.440033435821533,-4.709808349609375
4_20251106_214226,1762436510256,4,0.3629709482192993,0.581436812877655,0.6399412751197815,0.3473592698574066,-0.07888174802064896,3.119365692138672,-0.05378550663590431,-3.3692150115966797,6.056662559509277,-5.256528854370117,-0.2309374064207077,0.32842376828193665,-0.1725311130285263,29.09123992919922,-16.13831329345703,12.236944198608398,-1.3384480476379395,-1.106696605682373,-0.4373764991760254,-2.0307669639587402,7.16335916519165,-4.819152355194092
4_20251106_214226,1762436510276,4,0.3629312217235565,0.5782129764556885,0.6417356729507446,0.3494652807712555,-0.0989578515291214,3.103771448135376,-0.06592316925525665,-3.3704118728637695,6.23262882232666,-5.195479393005371,-0.2309374064207077,0.32842376828193665,-0.1725311130285263,29.035762786865234,-16.030487060546875,12.358514785766602,-1.0717158317565918,-0.7445845603942871,-0.30106163024902344,-2.2986960411071777,6.977213382720947,-4.894417762756348
4_20251106_214226,1762436510294,4,0.3630810081958771,0.5751765966415405,0.6421312689781189,0.35356971621513367,-0.12027424573898315,3.0871999263763428,-0.07736693322658539,-3.1166374683380127,6.3367719650268555,-4.862699508666992,-0.5956236124038696,0.503741979598999,0.09380590915679932,28.991558074951172,-15.946304321289062,12.412466049194336,-0.654353141784668,-0.5123534202575684,0.025374412536621094,-2.4622843265533447,6.849125385284424,-4.888073921203613
4_20251106_214226,1762436510314,4,0.3631027936935425,0.5717082023620605,0.6418232917785645,0.3596789240837097,-0.14262644946575165,3.069791316986084,-0.08768187463283539,-2.8030104637145996,6.573787689208984,-4.516752243041992,-0.5956236124038696,0.503741979598999,0.09380590915679932,28.97234344482422,-15.836494445800781,12.576055526733398,-0.2725808620452881,-0.22027015686035156,0.2970576286315918,-2.5304296016693115,6.794057846069336,-4.813809871673584
4_20251106_214226,1762436510332,4,0.36285462975502014,0.567048966884613,0.641810953617096,0.3672473728656769,-0.16178388893604279,3.054795026779175,-0.09512414783239365,-2.5492358207702637,6.748557090759277,-4.254598617553711,-0.7336790561676025,0.8372740745544434,-0.06685151159763336,28.94186019897461,-15.703041076660156,12.80726432800293,-0.015044927597045898,-0.036400794982910156,0.4473690986633301,-2.5341908931732178,6.7849578857421875,-4.701967716217041
4_20251106_214226,1762436510352,4,0.3622080385684967,0.5610597729682922,0.6426905989646912,0.37545445561408997,-0.18171657621860504,3.038949489593506,-0.10094301402568817,-2.4391074180603027,6.779680252075195,-4.031947135925293,-0.7562810778617859,0.989990234375,-0.23850449919700623,28.872604370117188,-15.609779357910156,13.049726486206055,0.07606697082519531,-0.004222393035888672,0.5360164642333984,-2.515174388885498,6.783902645111084,-4.567963600158691
4_20251106_214226,1762436510371,4,0.3611035943031311,0.5529742240905762,0.6451210975646973,0.3842426538467407,-0.19946101307868958,3.0246996879577637,-0.10457614064216614,-2.4259400367736816,6.80242395401001,-3.9780800342559814,-0.7562810778617859,0.989990234375,-0.23850449919700623,28.71532440185547,-15.572166442871094,13.27418327331543,0.07138752937316895,0.014817237854003906,0.4719069004058838,-2.4973275661468506,6.787606716156006,-4.449986934661865
4_20251106_214226,1762436510391,4,0.3597114086151123,0.5434322953224182,0.6484161615371704,0.39350417256355286,-0.21645349264144897,3.0110480785369873,-0.10689111799001694,-2.249973773956299,6.984375953674316,-4.016386032104492,-0.8674584627151489,1.1848561763763428,-0.39671847224235535,28.50800323486328,-15.551094055175781,13.577512741088867,0.19788312911987305,0.15741539001464844,0.3468809127807617,-2.447856903076172,6.826960563659668,-4.363266944885254
4_20251106_214226,1762436510410,4,0.35842379927635193,0.5330864191055298,0.6516706943511963,0.4033317565917969,-0.23066826164722443,2.99981951713562,-0.10727987438440323,-2.039292812347412,7.224982261657715,-3.7434582710266113,-0.8674584627151489,1.1848561763763428,-0.39671847224235535,28.311359405517578,-15.554481506347656,13.894319534301758,0.32685136795043945,0.3184175491333008,0.495847225189209,-2.3661441802978516,6.906564712524414,-4.23930549621582
4_20251106_214226,1762436510429,4,0.35764458775520325,0.5219578146934509,0.6546845436096191,0.41356804966926575,-0.2438371479511261,2.9905285835266113,-0.10337240248918533,-2.243988513946533,7.4081315994262695,-2.680478572845459,-1.0763741731643677,1.2178428173065186,-0.6111319661140442,28.138198852539062,-15.5574951171875,14.33375358581543,0.09772443771362305,0.40125370025634766,1.2470614910125732,-2.3417129516601562,7.006877899169922,-3.9275400638580322
4_20251106_214226,1762436510448,4,0.3577295243740082,0.509088397026062,0.6580389738082886,0.42407935857772827,-0.25827333331108093,2.9823038578033447,-0.09273131191730499,-3.0436172485351562,7.226180076599121,-1.4020297527313232,-1.0696547031402588,1.2434990406036377,-0.8029434680938721,27.922130584716797,-15.462959289550781,14.746305465698242,-0.5615234375,0.17544174194335938,2.0204083919525146,-2.4820938110351562,7.050738334655762,-3.422438144683838
4_20251106_214226,1762436510467,4,0.3582730293273926,0.4944463074207306,0.6623269319534302,0.4341501295566559,-0.27548569440841675,2.9741177558898926,-0.0780019462108612,-3.757059097290039,6.914946556091309,-1.7384006977081299,-1.0696547031402588,1.2434990406036377,-0.8029434680938721,27.694778442382812,-15.356391906738281,15.131597518920898,-1.019972324371338,-0.10863351821899414,1.3472299575805664,-2.737086772918701,7.023580074310303,-3.0856306552886963
4_20251106_214226,1762436510486,4,0.3581264913082123,0.4820009768009186,0.6663990020751953,0.4419647455215454,-0.2928295135498047,2.9666898250579834,-0.06606347113847733,-3.098681688308716,7.150765419006348,-3.8344340324401855,-0.6047866344451904,0.8299437165260315,-0.1419878751039505,27.434505462646484,-15.17767333984375,15.598100662231445,-0.2892758846282959,0.10174846649169922,-0.5990426540374756,-2.80940580368042,7.049016952514648,-3.23539137840271
4_20251106_214226,1762436510504,4,0.3564150035381317,0.4743661880493164,0.6679734587669373,0.4491731524467468,-0.3058086633682251,2.9629199504852295,-0.05886314809322357,-1.7412277460098267,8.232898712158203,-4.674762725830078,-1.1111935377120972,0.7340379357337952,0.15977928042411804,27.14462661743164,-15.088844299316406,16.102323532104492,0.85454261302948,0.9471054077148438,-1.1514971256256104,-2.5957703590393066,7.285793304443359,-3.5232656002044678
4_20251106_214226,1762436510523,4,0.3559853434562683,0.4676821231842041,0.6656720638275146,0.4598136246204376,-0.3133593499660492,2.966378688812256,-0.050325676798820496,-0.6040308475494385,9.92432975769043,-3.043184280395508,-1.1111935377120972,0.7340379357337952,0.15977928042411804,26.839237213134766,-15.063323974609375,16.57770347595215,1.5933916568756104,2.1108293533325195,0.3840651512145996,-2.197422504425049,7.81350040435791,-3.4272494316101074
4_20251106_214226,1762436510543,4,0.3564765453338623,0.4564967155456543,0.662106454372406,0.47555261850357056,-0.31445401906967163,2.9810032844543457,-0.03354637324810028,-0.0737379789352417,11.486478805541992,-0.7161205410957336,-2.0158841609954834,1.5385468006134033,-0.4101574718952179,26.546825408935547,-15.035934448242188,16.945444107055664,1.6989476680755615,2.938383102416992,2.168903112411499,-1.7726856470108032,8.548095703125,-2.885023593902588
4_20251106_214226,1762436510562,4,0.35710248351097107,0.4396488070487976,0.6600146889686584,0.4935254454612732,-0.3101370334625244,3.00480580329895,-0.007470279932022095,0.16088369488716125,12.412994384765625,1.0998033285140991,-1.7416058778762817,1.7181410789489746,-0.7571285963058472,26.11272430419922,-15.143661499023438,17.386247634887695,1.5468554496765137,3.0919189453125,3.187861442565918,-1.3859717845916748,9.321075439453125,-2.0880582332611084
4_20251106_214226,1762436510582,4,0.35683673620224,0.4201091229915619,0.6606613397598267,0.5096100568771362,-0.30139783024787903,3.03662371635437,0.026117190718650818,0.30452960729599,12.676345825195312,1.124941349029541,-1.2706291675567627,1.7395212650299072,-0.8444822430610657,25.630882263183594,-15.241600036621094,17.78480339050293,1.3524010181427002,2.6842164993286133,2.570399761199951,-1.047871470451355,9.9921293258667,-1.4454584121704102
4_20251106_214226,1762436510600,4,0.3546622395515442,0.4009241461753845,0.6635322570800781,0.5226848721504211,-0.28845900297164917,3.074484348297119,0.06325140595436096,0.6420975923538208,12.774503707885742,0.45938193798065186,-1.2706291675567627,1.7395212650299072,-0.8444822430610657,25.096473693847656,-15.405906677246094,18.22062873840332,1.3519752025604248,2.2258996963500977,1.5238722562789917,-0.7098776698112488,10.548604011535645,-1.0644903182983398
4_20251106_214226,1762436510619,4,0.3513907790184021,0.38381755352020264,0.6663511991500854,0.5340268611907959,-0.27060553431510925,3.1173832416534424,0.10288058966398239,1.3172334432601929,13.074963569641113,0.5216284990310669,-1.072709083557129,1.4719624519348145,-0.4498636722564697,24.55028533935547,-15.558853149414062,18.696775436401367,1.621688961982727,2.0210866928100586,1.2688950300216675,-0.3044554889202118,11.053876876831055,-0.7472665309906006
4_20251106_214226,1762436510639,4,0.3477247655391693,0.3691866993904114,0.6672191023826599,0.5455339550971985,-0.27060553431510925,3.1173832416534424,0.10288058966398239,1.3172334432601929,13.074963569641113,0.5216284990310669,-1.0916458368301392,1.3259658813476562,-0.1933005005121231,24.019901275634766,-15.872650146484375,19.089372634887695,1.621688961982727,2.0210866928100586,1.2688950300216675,-0.3044554889202118,11.053876876831055,-0.7472665309906006
4_20251106_214226,1762436510659,4,0.34319746494293213,0.35656502842903137,0.6665111184120178,0.5575301051139832,-0.21540546417236328,3.218191623687744,0.19703015685081482,2.405351161956787,12.945682525634766,1.4194154739379883,-0.9823009967803955,1.1231586933135986,0.022334739565849304,24.019901275634766,-15.872650146484375,19.089372634887695,1.8072483539581299,1.1883468627929688,1.4332177639007568,0.5981027483940125,11.757335662841797,-0.01380234956741333
4_20251106_214226,1762436510677,4,0.3382970988750458,0.3467586636543274,0.6646732091903687,0.568790853023529,-0.18368002772331238,3.2643401622772217,0.24190427362918854,2.960782289505005,12.695499420166016,1.3667453527450562,-0.7947655916213989,0.9234060049057007,0.20498327910900116,23.504932403564453,-16.123268127441406,19.52433204650879,1.890143632888794,0.7505311965942383,1.1044381856918335,1.070638656616211,11.944968223571777,0.26230716705322266
4_20251106_214226,1762436510696,4,0.33287811279296875,0.3397512137889862,0.6624411940574646,0.5787339210510254,-0.1451108157634735,3.311654567718506,0.2892763316631317,3.5329718589782715,12.323216438293457,1.127335548400879,-0.7947655916213989,0.9234060049057007,0.20498327910900116,22.976871490478516,-16.38750457763672,19.985567092895508,1.9698665142059326,0.3025979995727539,0.6920226812362671,1.5631053447723389,12.020618438720703,0.43531283736228943
4_20251106_214226,1762436510715,4,0.327230304479599,0.33507683873176575,0.6601529717445374,0.5872324109077454,-0.10192591696977615,3.356100082397461,0.33522599935531616,3.948347806930542,11.837213516235352,0.7801912426948547,-0.6163930892944336,0.7548073530197144,0.31799328327178955,22.411746978759766,-16.666412353515625,20.41803550720215,1.908193826675415,-0.14672470092773438,0.27590274810791016,2.040153980255127,11.983938217163086,0.5042884945869446
4_20251106_214226,1762436510734,4,0.3218596279621124,0.3322564363479614,0.658040463924408,0.5941336154937744,-0.055132899433374405,3.3968007564544678,0.3790866732597351,4.142270088195801,11.429020881652832,0.5802839398384094,-0.3653276562690735,0.4292164444923401,0.3515908420085907,21.918331146240234,-16.965675354003906,20.85291862487793,1.6816928386688232,-0.44393348693847656,0.060796380043029785,2.4605772495269775,11.872954368591309,0.5194875597953796
4_20251106_214226,1762436510754,4,0.3170739710330963,0.3306342363357544,0.6559637784957886,0.5998805165290833,-0.0025470368564128876,3.4349801540374756,0.4232267737388611,4.366118431091309,11.043570518493652,0.6114072203636169,-0.3048520088195801,0.32903462648391724,0.32837799191474915,21.413406372070312,-17.276397705078125,21.09781837463379,1.524432897567749,-0.6635065078735352,0.0735357403755188,2.8416855335235596,11.707077026367188,0.5378714799880981
4_20251106_214226,1762436510772,4,0.31290677189826965,0.329772412776947,0.653949499130249,0.6047227382659912,0.047163937240839005,3.4656331539154053,0.461259663105011,4.770720958709717,10.898727416992188,0.656895101070404,-0.3048520088195801,0.32903462648391724,0.32837799191474915,21.029327392578125,-17.60375213623047,21.293031692504883,1.5432281494140625,-0.6466798782348633,0.09521889686584473,3.2274928092956543,11.54540729522705,0.5616762042045593
4_20251106_214226,1762436510792,4,0.3102586269378662,0.33006277680397034,0.6518780589103699,0.6081554889678955,0.047163937240839005,3.4656331539154053,0.461259663105011,4.770720958709717,10.898727416992188,0.656895101070404,-0.22971567511558533,0.23618322610855103,0.2532415986061096,20.618350982666016,-17.982521057128906,21.44565773010254,1.5432281494140625,-0.6466798782348633,0.09521889686584473,3.2274928092956543,11.54540729522705,0.5616762042045593
4_20251106_214226,1762436510811,4,0.30800530314445496,0.3302450478076935,0.6505669951438904,0.6106009483337402,0.15938672423362732,3.517735004425049,0.5328097343444824,5.22200870513916,10.316961288452148,-0.2875768542289734,-0.1075427308678627,-0.12911388278007507,0.09930369257926941,20.259742736816406,-18.295188903808594,21.588048934936523,1.3008143901824951,-0.8266181945800781,-0.6390944123268127,3.921194314956665,11.143579483032227,0.35151755809783936
4_20251106_214226,1762436510830,4,0.30736491084098816,0.3315010666847229,0.6489546895027161,0.6119572520256042,0.219804048538208,3.5386250019073486,0.5640958547592163,5.152580261230469,10.163739204406738,-0.4180552065372467,-0.18573342263698578,-0.38628795742988586,0.04615846648812294,19.94220733642578,-18.541343688964844,21.59807014465332,0.9851088523864746,-0.7838716506958008,-0.6156582236289978,4.167471408843994,10.947610855102539,0.1976030170917511
4_20251106_214226,1762436510849,4,0.3088460862636566,0.3338180482387543,0.6463556885719299,0.6127021908760071,0.27646195888519287,3.556178331375122,0.590836226940155,4.944293022155762,10.473775863647461,-0.3474293351173401,-0.18573342263698578,-0.38628795742988586,0.04615846648812294,19.696475982666016,-18.807708740234375,21.59699058532715,0.6214570999145508,-0.37906837463378906,-0.4360258877277374,4.322835922241211,10.85284423828125,0.08859654515981674
4_20251106_214226,1762436510869,4,0.3122137784957886,0.3364810049533844,0.6431633234024048,0.612898051738739,0.3303728997707367,3.572171926498413,0.616389811038971,4.354147911071777,10.604253768920898,0.1433609127998352,-0.24010038375854492,-0.6605662107467651,-0.1890244483947754,19.512481689453125,-19.057411193847656,21.585107803344727,0.025049686431884766,-0.19887256622314453,0.04381149262189865,4.329098224639893,10.803126335144043,0.09954942017793655
4_20251106_214226,1762436510887,4,0.3168903887271881,0.3386901617050171,0.6402265429496765,0.612355649471283,0.3303728997707367,3.572171926498413,0.616389811038971,4.354147911071777,10.604253768920898,0.1433609127998352,-0.24010038375854492,-0.6605662107467651,-0.1890244483947754,19.494022369384766,-19.194313049316406,21.378969192504883,0.025049686431884766,-0.19887256622314453,0.04381149262189865,4.329098224639893,10.803126335144043,0.09954942017793655
4_20251106_214226,1762436510906,4,0.32200783491134644,0.3406140208244324,0.6376537084579468,0.6113025546073914,0.4254591464996338,3.600614309310913,0.6672982573509216,3.4886810779571533,10.592283248901367,0.567116379737854,-0.1955072581768036,-0.687444269657135,-0.25133267045021057,19.599441528320312,-19.285736083984375,21.192045211791992,-0.5788538455963135,-0.14528274536132812,0.3036479949951172,4.067534923553467,10.737565994262695,0.2634683847427368
4_20251106_214226,1762436510926,4,0.3269657790660858,0.3433336913585663,0.6348720192909241,0.6100433468818665,0.46916767954826355,3.613485097885132,0.6927841305732727,3.5784597396850586,10.508489608764648,0.3372828960418701,-0.12586867809295654,-0.9391205310821533,-0.06624063849449158,19.742321014404297,-19.36194610595703,20.979822158813477,-0.39126014709472656,-0.18326091766357422,0.05905163288116455,3.969719886779785,10.691750526428223,0.27823126316070557
4_20251106_214226,1762436510944,4,0.33240121603012085,0.3478373885154724,0.6312877535820007,0.6082716584205627,0.5056310296058655,3.624507188796997,0.7141894102096558,3.601203680038452,10.698820114135742,0.12181402742862701,-0.143583744764328,-1.155977487564087,-0.05524508282542229,19.97280502319336,-19.406272888183594,20.649911880493164,-0.2948129177093506,0.0056552886962890625,-0.12513378262519836,3.8960165977478027,10.693164825439453,0.24694781005382538
4_20251106_214226,1762436510964,4,0.33911415934562683,0.3536622226238251,0.626829206943512,0.6058133244514465,0.5418810844421387,3.6361658573150635,0.7376552820205688,3.1594924926757812,10.701213836669922,0.5335990190505981,-0.205891951918602,-1.3105262517929077,-0.126105397939682,20.339828491210938,-19.415260314941406,20.177248001098633,-0.589219331741333,0.006439208984375,0.2293209731578827,3.7487118244171143,10.694774627685547,0.30427804589271545
4_20251106_214226,1762436510982,4,0.3473481237888336,0.3597880005836487,0.62167888879776,0.6028409600257874,0.5418810844421387,3.6361658573150635,0.7376552820205688,3.1594924926757812,10.701213836669922,0.5335990190505981,-0.19795072078704834,-1.3532867431640625,-0.17008766531944275,20.798492431640625,-19.530235290527344,19.638551712036133,-0.589219331741333,0.006439208984375,0.2293209731578827,3.7487118244171143,10.694774627685547,0.30427804589271545
4_20251106_214226,1762436511001,4,0.35613688826560974,0.36580896377563477,0.6164546608924866,0.5994446873664856,0.594680666923523,3.65535306930542,0.7833285927772522,2.143197536468506,10.595874786376953,1.079453468322754,-0.19795072078704834,-1.3532867431640625,-0.17008766531944275,21.336898803710938,-19.53864288330078,18.969743728637695,-1.0970537662506104,-0.05965709686279297,0.5037733912467957,3.240251302719116,10.655531883239746,0.5756800770759583
4_20251106_214226,1762436511020,4,0.36503854393959045,0.371525377035141,0.6113953590393066,0.5957444906234741,0.594680666923523,3.65535306930542,0.7833285927772522,2.143197536468506,10.595874786376953,1.079453468322754,-0.1026558130979538,-1.3954365253448486,-0.259884774684906,21.90310287475586,-19.482810974121094,18.316755294799805,-1.0970537662506104,-0.05965709686279297,0.5037733912467957,3.240251302719116,10.655531883239746,0.5756800770759583
4_20251106_214226,1762436511039,4,0.3743152916431427,0.37728816270828247,0.6067095994949341,0.5911388993263245,0.6253954768180847,3.6726386547088623,0.8293042182922363,0.6672355532646179,10.700017929077148,0.7059741616249084,-0.1124296486377716,-1.435753583908081,-0.3374645709991455,22.52920913696289,-19.459190368652344,17.516748428344727,-1.7919082641601562,0.04781627655029297,0.05350983142852783,2.459143877029419,10.652201652526855,0.6524643301963806
4_20251106_214226,1762436511059,4,0.3842521011829376,0.3826342225074768,0.6021047234535217,0.5860130786895752,0.6281387805938721,3.6801373958587646,0.8523817658424377,-0.5250256061553955,10.32893180847168,0.8651816844940186,-0.1490815281867981,-1.424757957458496,-0.3319667875766754,23.156726837158203,-19.41046142578125,16.717267990112305,-2.3873355388641357,-0.25861644744873047,0.17017388343811035,1.8623099327087402,10.58754825592041,0.6950078010559082
4_20251106_214226,1762436511081,4,0.39438071846961975,0.3877652883529663,0.5972415208816528,0.5808652639389038,0.6204888820648193,3.6862857341766357,0.8753358721733093,-1.5113943815231323,10.266685485839844,1.0339655876159668,-0.1906203329563141,-1.496840000152588,-0.18535926938056946,23.809803009033203,-19.35852813720703,15.756572723388672,-2.6989636421203613,-0.25669002532958984,0.27116620540618896,1.1875691413879395,10.523375511169434,0.7627993822097778
4_20251106_214226,1762436511097,4,0.40428420901298523,0.3936358392238617,0.5913728475570679,0.5760931372642517,0.6059316396713257,3.6908810138702393,0.8962749242782593,-2.0680222511291504,10.254714965820312,1.2961194515228271,-0.17534872889518738,-1.6666603088378906,0.04249328002333641,23.809803009033203,-19.35852813720703,15.756572723388672,-2.604473114013672,-0.21492767333984375,0.4266560673713684,0.5364508628845215,10.469642639160156,0.8694633841514587
4_20251106_214226,1762436511117,4,0.41398629546165466,0.4016348421573639,0.58396977186203,0.5712128281593323,0.6059316396713257,3.6908810138702393,0.8962749242782593,-2.0680222511291504,10.254714965820312,1.2961194515228271,-0.17534872889518738,-1.6666603088378906,0.04249328002333641,24.459354400634766,-19.36937713623047,14.794559478759766,-2.604473114013672,-0.21492767333984375,0.4266560673713684,0.5364508628845215,10.469642639160156,0.8694633841514587
4_20251106_214226,1762436511135,4,0.42286762595176697,0.41133803129196167,0.5762301683425903,0.5656348466873169,0.5536109805107117,3.699251413345337,0.9394178986549377,-2.8341336250305176,10.495321273803711,0.8687728643417358,0.0726623609662056,-1.7167513370513916,0.1878790706396103,25.110301971435547,-19.366722106933594,13.738195419311523,-2.2249748706817627,0.03980064392089844,-0.05636805295944214,-0.6091586947441101,10.455520629882812,0.925140917301178
4_20251106_214226,1762436511155,4,0.4311148226261139,0.4211488664150238,0.5691426396369934,0.5593302249908447,0.5162954926490784,3.703552722930908,0.9594470858573914,-3.283027410507202,10.512081146240234,0.6592892408370972,0.10503818839788437,-1.5438766479492188,0.11946223676204681,25.70273208618164,-19.32996368408203,12.63962173461914,-2.1390950679779053,0.04524803161621094,-0.21268129348754883,-1.1439323425292969,10.466833114624023,0.871970534324646
4_20251106_214226,1762436511175,4,0.43863821029663086,0.4297342598438263,0.5631362199783325,0.5529941916465759,0.4733349084854126,3.7073252201080322,0.9777663946151733,-3.614609956741333,10.363646507263184,0.638939380645752,0.11481202393770218,-1.368558406829834,0.06631699949502945,26.271591186523438,-19.2821044921875,11.526815414428711,-1.9765421152114868,-0.0825490951538086,-0.18642497062683105,-1.6380678415298462,10.446195602416992,0.825364351272583
4_20251106_214226,1762436511193,4,0.445490300655365,0.4371010661125183,0.5580486059188843,0.5468663573265076,0.4733349084854126,3.7073252201080322,0.9777663946151733,-3.614609956741333,10.363646507263184,0.638939380645752,0.15329650044441223,-1.2543267011642456,0.02355647087097168,26.788284301757812,-19.300071716308594,10.397211074829102,-1.9765421152114868,-0.0825490951538086,-0.18642497062683105,-1.6380678415298462,10.446195602416992,0.825364351272583
4_20251106_214226,1762436511212,4,0.45179110765457153,0.4437151253223419,0.5537612438201904,0.5406941175460815,0.38485708832740784,3.7115304470062256,1.007026195526123,-4.275381088256836,10.030866622924805,0.6209836006164551,0.1905592381954193,-1.1596426963806152,-0.016760600730776787,27.221477508544922,-19.297950744628906,9.210636138916016,-1.7384438514709473,-0.29051780700683594,-0.13214433193206787,-2.5369372367858887,10.32138442993164,0.753127932548523
4_20251106_214226,1762436511231,4,0.45750823616981506,0.449558287858963,0.5503084659576416,0.5345504283905029,0.38485708832740784,3.7115304470062256,1.007026195526123,-4.275381088256836,10.030866622924805,0.6209836006164551,0.24859139323234558,-1.0509088039398193,-0.06257545948028564,27.664443969726562,-19.333106994628906,8.064308166503906,-1.7384438514709473,-0.29051780700683594,-0.13214433193206787,-2.5369372367858887,10.32138442993164,0.753127932548523
4_20251106_214226,1762436511250,4,0.4628112316131592,0.4549526870250702,0.5476381182670593,0.5281252264976501,0.2772879898548126,3.710688352584839,1.031097173690796,-4.471696853637695,9.779487609863281,-0.08288142085075378,0.29562801122665405,-0.9018577933311462,-0.11999674141407013,28.006229400634766,-19.414443969726562,7.129526138305664,-1.242459774017334,-0.3565816879272461,-0.6068689823150635,-3.2292370796203613,10.136069297790527,0.5239875316619873
4_20251106_214226,1762436511271,4,0.46736738085746765,0.4594629406929016,0.5461052656173706,0.521757185459137,0.22354266047477722,3.7085907459259033,1.0382952690124512,-4.434588432312012,9.728013038635254,-0.4240404963493347,0.24370449781417847,-0.7179874777793884,-0.17680716514587402,28.27035140991211,-19.374961853027344,6.112852096557617,-0.9642810821533203,-0.3264446258544922,-0.7584224343299866,-3.4703073501586914,10.054457664489746,0.33438193798065186
4_20251106_214226,1762436511289,4,0.4713882505893707,0.4625408351421356,0.5453988313674927,0.5161290764808655,0.1666439324617386,3.704991340637207,1.0428857803344727,-4.507608890533447,9.560426712036133,-0.5233955979347229,0.1453552544116974,-0.5646604299545288,-0.2238437533378601,28.495220184326172,-19.364730834960938,5.269891738891602,-0.8298413753509521,-0.39522552490234375,-0.6862220764160156,-3.677767515182495,9.955652236938477,0.16282644867897034
4_20251106_214226,1762436511307,4,0.47536665201187134,0.46437326073646545,0.5449613332748413,0.5112740993499756,0.11598454415798187,3.7008020877838135,1.0451974868774414,-4.494441032409668,9.504165649414062,-0.4922722578048706,0.05861247330904007,-0.47425246238708496,-0.17130938172340393,28.636817932128906,-19.31090545654297,4.532682418823242,-0.6533389091491699,-0.3611888885498047,-0.5240789651870728,-3.841102123260498,9.865354537963867,0.03180672228336334
4_20251106_214226,1762436511327,4,0.4790163040161133,0.4656752049922943,0.5442374348640442,0.5074402689933777,0.06404878199100494,3.695216178894043,1.0464128255844116,-4.255031585693359,9.360519409179688,-0.37017327547073364,0.0072998348623514175,-0.3746815323829651,-0.02592356875538826,28.801799774169922,-19.25684356689453,3.9316177368164062,-0.3311436176300049,-0.4038686752319336,-0.32158398628234863,-3.9238879680633545,9.764388084411621,-0.048589274287223816
4_20251106_214226,1762436511345,4,0.4816506505012512,0.4669966995716095,0.5430606603622437,0.5049870014190674,0.015545204281806946,3.68825626373291,1.0464420318603516,-3.6193981170654297,9.161809921264648,-0.45875492691993713,-0.01957821473479271,-0.26961278915405273,0.10357974469661713,28.989643096923828,-19.2264404296875,3.344522476196289,0.2435917854309082,-0.48206233978271484,-0.3281325101852417,-3.862989902496338,9.643872261047363,-0.13062240183353424
4_20251106_214226,1762436511365,4,0.48319634795188904,0.4683530628681183,0.5416274070739746,0.5037920475006104,-0.0301472470164299,3.6797945499420166,1.0449861288070679,-2.938277006149292,9.149839401245117,-0.6191595196723938,-0.01957821473479271,-0.26961278915405273,0.10357974469661713,29.055652618408203,-19.180755615234375,2.9422779083251953,0.7397701740264893,-0.39522647857666016,-0.3908296823501587,-3.6780471801757812,9.545065879821777,-0.2283298224210739
4_20251106_214226,1762436511384,4,0.48416948318481445,0.4694797396659851,0.5400382280349731,0.5035150647163391,-0.06817929446697235,3.670919179916382,1.0426523685455322,-2.509733200073242,9.09357738494873,-0.6000066995620728,-0.0666147992014885,-0.17798307538032532,0.15855756402015686,29.121463775634766,-19.135337829589844,2.567066192626953,0.9346513748168945,-0.3611907958984375,-0.297341525554657,-3.4443845748901367,9.454768180847168,-0.30266517400741577
4_20251106_214226,1762436511403,4,0.48496633768081665,0.47002020478248596,0.5382419228553772,0.5041669607162476,-0.09921352565288544,3.662431001663208,1.040014386177063,-2.1470274925231934,9.251587867736816,-0.5210014581680298,-0.15641191601753235,-0.0912402793765068,0.17444005608558655,29.150619506835938,-19.092437744140625,2.203899383544922,1.0378856658935547,-0.16254425048828125,-0.1746690273284912,-3.184913158416748,9.414132118225098,-0.3463324308395386
4_20251106_214226,1762436511422,4,0.48544806241989136,0.46994128823280334,0.5363364815711975,0.5058048367500305,-0.09921352565288544,3.662431001663208,1.040014386177063,-2.1470274925231934,9.251587867736816,-0.5210014581680298,-0.2712544798851013,0.12378410249948502,0.1927659809589386,29.234882354736328,-19.134681701660156,1.9629840850830078,1.0378856658935547,-0.16254425048828125,-0.1746690273284912,-3.184913158416748,9.414132118225098,-0.3463324308395386
4_20251106_214226,1762436511440,4,0.48543640971183777,0.4690556228160858,0.5348389744758606,0.5082180500030518,-0.12819741666316986,3.6548657417297363,1.0371953248977661,-1.5700496435165405,9.96383285522461,-0.3151090145111084,-0.277363121509552,0.2331288903951645,0.05226711183786392,29.20968246459961,-19.17218780517578,1.7854995727539062,1.2918907403945923,0.4397602081298828,0.02497875690460205,-2.861940383911133,9.524072647094727,-0.34008777141571045
4_20251106_214226,1762436511460,4,0.4855523109436035,0.46698707342147827,0.5343177318572998,0.5105552077293396,-0.16373786330223083,3.654121160507202,1.0356221199035645,-1.4120392799377441,11.718706130981445,0.5192344188690186,-0.277363121509552,0.2331288903951645,0.05226711183786392,29.293956756591797,-19.20281219482422,1.6394615173339844,0.8812038898468018,1.5453386306762695,0.6564557552337646,-2.293243169784546,10.173367500305176,-0.1372213214635849
4_20251106_214226,1762436511479,4,0.4862188994884491,0.46345949172973633,0.5352404117584229,0.5121661424636841,-0.17893141508102417,3.6616311073303223,1.0395420789718628,-2.199697494506836,12.124505996704102,1.1752173900604248,-0.1380859613418579,0.4139448404312134,-0.3264690041542053,29.280460357666016,-19.22858428955078,1.6249275207519531,0.07483649253845215,1.5609111785888672,1.0499509572982788,-2.274533987045288,10.563594818115234,0.1252664029598236
4_20251106_214226,1762436511500,4,0.48659783601760864,0.4590810537338257,0.537834644317627,0.5130311846733093,-0.19549135863780975,3.675276279449463,1.0470869541168213,-2.7240052223205566,12.581779479980469,1.3176662921905518,0.08487965166568756,0.46220314502716064,-0.27271291613578796,29.280250549316406,-19.24047088623047,1.5570812225341797,-0.3595771789550781,1.6145477294921875,0.9539199471473694,-2.3644280433654785,10.967231750488281,0.3637463450431824
4_20251106_214226,1762436511519,4,0.4854680001735687,0.4554099440574646,0.5416427850723267,0.5133670568466187,-0.2119782716035843,3.6923983097076416,1.05598783493042,-2.92630672454834,12.719440460205078,1.12613844871521,0.27546945214271545,0.43165990710258484,-0.0699058324098587,29.39034652709961,-19.209556579589844,1.6971855163574219,-0.44950294494628906,1.4017667770385742,0.60991370677948,-2.476803779602051,11.317673683166504,0.51622474193573
4_20251106_214226,1762436511537,4,0.48286163806915283,0.4538479745388031,0.5452684760093689,0.513370156288147,-0.2119782716035843,3.6923983097076416,1.05598783493042,-2.92630672454834,12.719440460205078,1.12613844871521,0.3554927408695221,0.36446478962898254,0.20620501041412354,29.39034652709961,-19.209556579589844,1.6971855163574219,-0.44950294494628906,1.4017667770385742,0.60991370677948,-2.476803779602051,11.317673683166504,0.51622474193573
4_20251106_214226,1762436511556,4,0.47881171107292175,0.45429208874702454,0.5478931665420532,0.5139757990837097,-0.23080812394618988,3.715118885040283,1.0672094821929932,-2.9298977851867676,12.732606887817383,1.0758624076843262,0.42024439573287964,0.3418627977371216,0.46765512228012085,29.388961791992188,-19.211441040039062,1.88641357421875,-0.3624751567840576,1.1319465637207031,0.44771015644073486,-2.56742262840271,11.60066032409668,0.6281522512435913
4_20251106_214226,1762436511575,4,0.473297119140625,0.4564550817012787,0.5496047139167786,0.5153380036354065,-0.2605241537094116,3.755758047103882,1.0892410278320312,-2.2427914142608643,11.926993370056152,1.172823429107666,0.5558563470840454,0.3253694474697113,0.6564123630523682,29.41455841064453,-19.17339324951172,2.0098323822021484,0.2765226364135742,0.13013458251953125,0.33250123262405396,-2.5193140506744385,11.796858787536621,0.8403221964836121
4_20251106_214226,1762436511594,4,0.46641191840171814,0.46032655239105225,0.5509472489356995,0.5167364478111267,-0.2722170948982239,3.774923801422119,1.0998913049697876,-1.656237244606018,11.481691360473633,0.6138013601303101,0.5558563470840454,0.3253694474697113,0.6564123630523682,29.39868927001953,-19.20240020751953,2.3196887969970703,0.690461277961731,-0.2521343231201172,-0.18121671676635742,-2.346698522567749,11.73382568359375,0.7950180768966675
4_20251106_214226,1762436511614,4,0.45841583609580994,0.46559062600135803,0.552350640296936,0.517676591873169,-0.2798641622066498,3.7917873859405518,1.1082730293273926,-1.0158158540725708,10.97653579711914,0.04879402369260788,0.7788219451904297,0.23435062170028687,0.7822504639625549,29.355541229248047,-19.271751403808594,2.735902786254883,1.0647062063217163,-0.6058320999145508,-0.5969792604446411,-2.080522060394287,11.582367897033691,0.6457732915878296
4_20251106_214226,1762436511632,4,0.45008060336112976,0.47149431705474854,0.5538138747215271,0.5180836915969849,-0.28232160210609436,3.803475856781006,1.1129908561706543,-0.4232763648033142,10.473775863647461,-0.34862637519836426,0.7769893407821655,0.2477896511554718,0.6979511380195618,29.198307037353516,-19.412246704101562,3.2680282592773438,1.3257966041564941,-0.8868741989135742,-0.7955197691917419,-1.7490729093551636,11.360650062561035,0.4468933939933777
4_20251106_214226,1762436511653,4,0.4419369101524353,0.4769425392150879,0.5556508898735046,0.5181406140327454,-0.2793617844581604,3.811633825302124,1.11483633518219,0.22791846096515656,10.061989784240723,-0.6047949194908142,0.7293419241905212,0.32720205187797546,0.5519545078277588,28.973487854003906,-19.681747436523438,3.740997314453125,1.5815931558609009,-1.0389280319213867,-0.8413506746292114,-1.3536746501922607,11.10091781616211,0.23655572533607483
4_20251106_214226,1762436511670,4,0.4342452883720398,0.4811534881591797,0.558117151260376,0.5180999636650085,-0.27037811279296875,3.8157846927642822,1.1138279438018799,0.8958719968795776,9.7890625,-0.7699877619743347,0.6841379404067993,0.37973642349243164,0.4242837131023407,28.62652587890625,-19.947975158691406,4.344488143920898,1.7996373176574707,-1.0494842529296875,-0.8052347898483276,-0.9037653207778931,10.838546752929688,0.035247042775154114
4_20251106_214226,1762436511691,4,0.4269969165325165,0.48430535197257996,0.5610660910606384,0.5180027484893799,-0.27037811279296875,3.8157846927642822,1.1138279438018799,0.8958719968795776,9.7890625,-0.7699877619743347,0.6841379404067993,0.37973642349243164,0.4242837131023407,28.235958099365234,-20.3421630859375,4.943868637084961,1.7996373176574707,-1.0494842529296875,-0.8052347898483276,-0.9037653207778931,10.838546752929688,0.035247042775154114
4_20251106_214226,1762436511709,4,0.42036816477775574,0.4869208037853241,0.5639212727546692,0.5178720951080322,-0.23245753347873688,3.812896728515625,1.1049973964691162,1.981595754623413,9.452692031860352,-0.5976126194000244,0.588843047618866,0.3192608058452606,0.2581285238265991,27.895442962646484,-20.70819091796875,5.559255599975586,1.9228591918945312,-0.9020776748657227,-0.36193639039993286,0.05873650312423706,10.354769706726074,-0.23567622900009155
4_20251106_214226,1762436511729,4,0.41445496678352356,0.4891596734523773,0.5667732357978821,0.5174146890640259,-0.20477919280529022,3.806464195251465,1.0995683670043945,2.169532537460327,9.203705787658691,-0.4419962167739868,0.616331934928894,0.3351432681083679,0.0742582380771637,27.555561065673828,-21.03856658935547,6.378177642822266,1.6886367797851562,-0.9208517074584961,-0.1650559902191162,0.4808956980705261,10.124557495117188,-0.2769402265548706
4_20251106_214226,1762436511748,4,0.40915170311927795,0.4903813302516937,0.5706027746200562,0.5162688493728638,-0.17566247284412384,3.79697322845459,1.0938085317611694,1.988777995109558,8.781147956848145,-0.5904303193092346,0.6859705448150635,0.35530179738998413,-0.15909208357334137,27.172744750976562,-21.29462432861328,6.980461120605469,1.2063058614730835,-1.074728012084961,-0.25079208612442017,0.7824721336364746,9.855875968933105,-0.33963823318481445
4_20251106_214226,1762436511766,4,0.40442392230033875,0.4903477728366852,0.5759797096252441,0.514050304889679,-0.14898937940597534,3.7855381965637207,1.0875388383865356,1.6583924293518066,8.322677612304688,-0.9651068449020386,0.7409483194351196,0.382179856300354,-0.31364086270332336,26.808460235595703,-21.436874389648438,7.585611343383789,0.7007362842559814,-1.2265586853027344,-0.5003749132156372,0.9576561450958252,9.549236297607422,-0.46473196148872375
4_20251106_214226,1762436511786,4,0.40017229318618774,0.4896600842475891,0.5823136568069458,0.5108873844146729,-0.11788865923881531,3.767591714859009,1.0773473978042603,1.3818740844726562,7.849842548370361,-1.5121583938598633,0.7421700954437256,0.36996257305145264,-0.36556437611579895,26.50973129272461,-21.49927520751953,8.140731811523438,0.3393744230270386,-1.3595147132873535,-0.8379411697387695,1.0424996614456177,9.209357261657715,-0.6742172241210938
4_20251106_214226,1762436511805,4,0.39616695046424866,0.4886607527732849,0.5889210104942322,0.5073800086975098,-0.08794810622930527,3.7450597286224365,1.063462495803833,1.172390341758728,7.405737400054932,-2.0568158626556396,0.6829161643981934,0.30826523900032043,-0.30508872866630554,26.387340545654297,-21.44995880126953,8.691314697265625,0.10391247272491455,-1.4428963661193848,-1.106078863143921,1.0684778690338135,8.848633766174316,-0.9507369995117188
4_20251106_214226,1762436511823,4,0.3924809396266937,0.488113135099411,0.5947368144989014,0.503976583480835,-0.08794810622930527,3.7450597286224365,1.063462495803833,1.172390341758728,7.405737400054932,-2.0568158626556396,0.6829161643981934,0.30826523900032043,-0.30508872866630554,26.32860565185547,-21.346580505371094,9.258920669555664,0.10391247272491455,-1.4428963661193848,-1.106078863143921,1.0684778690338135,8.848633766174316,-0.9507369995117188
4_20251106_214226,1762436511843,4,0.3893929123878479,0.48826515674591064,0.5991427898406982,0.5009972453117371,-0.0358496829867363,3.6926660537719727,1.027496576309204,1.1640111207962036,6.735389709472656,-2.852853536605835,0.41535747051239014,0.11889718472957611,-0.13526836037635803,26.278213500976562,-21.104263305664062,9.748332977294922,0.0613328218460083,-1.4038057327270508,-1.270216464996338,1.1026782989501953,8.139195442199707,-1.582637071609497
4_20251106_214226,1762436511861,4,0.38719186186790466,0.488750159740448,0.6021753549575806,0.49858856201171875,-0.0358496829867363,3.6926660537719727,1.027496576309204,1.1640111207962036,6.735389709472656,-2.852853536605835,0.2467588186264038,0.11645372211933136,-0.08151225745677948,26.214622497558594,-20.887313842773438,10.182662963867188,0.0613328218460083,-1.4038057327270508,-1.270216464996338,1.1026782989501953,8.139195442199707,-1.582637071609497
4_20251106_214226,1762436511880,4,0.3854704201221466,0.48894375562667847,0.6041925549507141,0.49729058146476746,0.013519814237952232,3.627093553543091,0.9794190526008606,1.3483567237854004,6.45647668838501,-3.010864019393921,0.2467588186264038,0.11645372211933136,-0.08151225745677948,26.174884796142578,-20.69268035888672,10.495798110961914,0.18730413913726807,-1.0880484580993652,-0.9217262268066406,1.1610525846481323,7.544525146484375,-2.0891377925872803
4_20251106_214226,1762436511900,4,0.3839884102344513,0.4884817600250244,0.6054198741912842,0.4973984658718109,0.03917628526687622,3.5903918743133545,0.9511494636535645,1.6033281087875366,6.5725908279418945,-3.1784510612487793,-0.0562300980091095,0.1763184666633606,-0.0442495122551918,26.194679260253906,-20.50757598876953,10.905736923217773,0.35382044315338135,-0.7775473594665527,-0.871450662612915,1.2495076656341553,7.350138187408447,-2.3070003986358643
4_20251106_214226,1762436511920,4,0.3831263780593872,0.4875596761703491,0.6060206890106201,0.4982355833053589,0.06433078646659851,3.55376935005188,0.9217351078987122,1.5063672065734863,6.77249813079834,-3.148524761199951,-0.205891951918602,0.10851248353719711,-0.12793798744678497,26.264598846435547,-20.317405700683594,11.128408432006836,0.20548760890960693,-0.4621124267578125,-0.6732194423675537,1.3008795976638794,7.234610557556152,-2.4753053188323975
4_20251106_214226,1762436511939,4,0.3837161958217621,0.4860047996044159,0.6060182452201843,0.4993026554584503,0.08678200840950012,3.51957106590271,0.8940082788467407,1.2094988822937012,6.816789150238037,-2.9055237770080566,-0.3549429178237915,0.12317323684692383,-0.2299523949623108,26.336029052734375,-20.10198211669922,11.338090896606445,-0.07310450077056885,-0.3342576026916504,-0.344174861907959,1.28260338306427,7.1510467529296875,-2.5613489151000977
4_20251106_214226,1762436511959,4,0.38545480370521545,0.48327890038490295,0.6057906746864319,0.5008830428123474,0.10699708759784698,3.4863200187683105,0.8674329519271851,0.8767192363739014,6.873050212860107,-2.646961212158203,-0.45940080285072327,0.1659337729215622,-0.3228038251399994,26.317520141601562,-19.97962188720703,11.501945495605469,-0.32470738887786865,-0.2223973274230957,-0.06848978996276855,1.20142662525177,7.095447540283203,-2.5784714221954346
4_20251106_214226,1762436511976,4,0.38784003257751465,0.4792586863040924,0.6057262420654297,0.5029780864715576,0.12359818816184998,3.456270933151245,0.8437827229499817,0.5547129511833191,7.045424938201904,-2.4697978496551514,-0.5235416293144226,0.2123594880104065,-0.3735055923461914,26.317520141601562,-19.97962188720703,11.501945495605469,-0.517370879650116,-0.04001808166503906,0.08693909645080566,1.072083830833435,7.085443019866943,-2.556736946105957
4_20251106_214226,1762436511996,4,0.39051514863967896,0.47437238693237305,0.6057760119438171,0.5054742693901062,0.12359818816184998,3.456270933151245,0.8437827229499817,0.5547129511833191,7.045424938201904,-2.4697978496551514,-0.5235416293144226,0.2123594880104065,-0.3735055923461914,26.25107192993164,-19.847740173339844,11.650585174560547,-0.517370879650116,-0.04001808166503906,0.08693909645080566,1.072083830833435,7.085443019866943,-2.556736946105957
4_20251106_214226,1762436512015,4,0.39329373836517334,0.46904051303863525,0.6056429147720337,0.5084463953971863,0.15033699572086334,3.397271156311035,0.7960675358772278,0.09983417391777039,7.428481101989746,-2.6445670127868652,-0.7153531312942505,0.18425971269607544,-0.3056996166706085,26.280475616455078,-19.75811767578125,11.639898300170898,-0.6561403274536133,0.25784969329833984,-0.07191658020019531,0.7559744715690613,7.170631408691406,-2.57265043258667
4_20251106_214226,1762436512033,4,0.396724134683609,0.46389147639274597,0.6043265461921692,0.512058675289154,0.15870799124240875,3.37391996383667,0.7761991620063782,-0.04500879347324371,7.734925746917725,-2.332137107849121,-0.7153531312942505,0.18425971269607544,-0.3056996166706085,26.32196807861328,-19.66783905029297,11.643217086791992,-0.6407866477966309,0.45143556594848633,0.19241070747375488,0.5957778692245483,7.283490180969238,-2.524547815322876
4_20251106_214226,1762436512052,4,0.40068402886390686,0.45866861939430237,0.6014986634254456,0.5169862508773804,0.15870799124240875,3.37391996383667,0.7761991620063782,-0.04500879347324371,7.734925746917725,-2.332137107849121,-1.0549938678741455,0.1702098250389099,-0.1419878900051117,26.398906707763672,-19.599884033203125,11.606931686401367,-0.6407866477966309,0.45143556594848633,0.19241070747375488,0.5957778692245483,7.283490180969238,-2.524547815322876
4_20251106_214226,1762436512072,4,0.4049784541130066,0.4532397389411926,0.5975924730300903,0.5229238867759705,0.16970424354076385,3.3329994678497314,0.7433652281761169,-0.15992555022239685,8.171849250793457,-1.374497652053833,-1.1026413440704346,0.2331288903951645,-0.12366193532943726,26.490230560302734,-19.50494384765625,11.463533401489258,-0.4907367527484894,0.6005349159240723,0.797321081161499,0.33081120252609253,7.571314334869385,-2.171818733215332
4_20251106_214226,1762436512091,4,0.4087999165058136,0.4470368027687073,0.5937091112136841,0.5296698808670044,0.16970424354076385,3.3329994678497314,0.7433652281761169,-0.15992555022239685,8.171849250793457,-1.374497652053833,-1.1423475742340088,0.23679408431053162,-0.0650189220905304,26.504615783691406,-19.47795867919922,11.356422424316406,-0.4907367527484894,0.6005349159240723,0.797321081161499,0.33081120252609253,7.571314334869385,-2.171818733215332
4_20251106_214226,1762436512111,4,0.4124881625175476,0.4409547746181488,0.5892607569694519,0.5368278622627258,0.1747104525566101,3.3042140007019043,0.724244236946106,0.07828729599714279,8.461535453796387,-1.0153828859329224,-1.2559683322906494,0.17937278747558594,0.007673989050090313,26.46511459350586,-19.553932189941406,11.177656173706055,-0.126948744058609,0.6003861427307129,0.7835958003997803,0.2052360475063324,7.861149311065674,-1.7989786863327026
4_20251106_214226,1762436512130,4,0.41651836037635803,0.4350689649581909,0.5836413502693176,0.5446009635925293,0.1747104525566101,3.3042140007019043,0.724244236946106,0.07828729599714279,8.461535453796387,-1.0153828859329224,-1.3873043060302734,0.15677079558372498,0.016226094216108322,26.476150512695312,-19.612686157226562,10.852436065673828,-0.126948744058609,0.6003861427307129,0.7835958003997803,0.2052360475063324,7.861149311065674,-1.7989786863327026
4_20251106_214226,1762436512149,4,0.421045184135437,0.42874395847320557,0.5771179795265198,0.5530229210853577,0.17693375051021576,3.29290771484375,0.7205615639686584,0.19679516553878784,8.423229217529297,-0.4994546175003052,-1.3873043060302734,0.15677079558372498,0.016226094216108322,26.556873321533203,-19.729324340820312,10.515321731567383,-0.006752714514732361,0.4496641159057617,1.0396193265914917,0.2035478800535202,7.973565101623535,-1.5390739440917969
4_20251106_214226,1762436512168,4,0.42614123225212097,0.4216963052749634,0.5699717998504639,0.56187903881073,0.17887718975543976,3.2783291339874268,0.7244928479194641,-0.18027536571025848,8.509417533874512,0.14216387271881104,-1.5748398303985596,0.2111377716064453,-0.01920405961573124,26.522991180419922,-19.941017150878906,10.171947479248047,-0.2806965112686157,0.36286449432373047,1.1213843822479248,0.10042113065719604,8.146553039550781,-0.979220449924469
4_20251106_214226,1762436512186,4,0.4311736226081848,0.413898229598999,0.5625407695770264,0.5712490081787109,0.1781117469072342,3.2731332778930664,0.7315683960914612,-0.3777885138988495,8.715309143066406,0.25827765464782715,-1.5748398303985596,0.2111377716064453,-0.01920405961573124,26.514381408691406,-20.138290405273438,9.802783966064453,-0.38256770372390747,0.4550046920776367,0.9899985194206238,0.004779204726219177,8.26030445098877,-0.7317208647727966
4_20251106_214226,1762436512205,4,0.43562474846839905,0.40510839223861694,0.5547792911529541,0.581668496131897,0.17598026990890503,3.269901990890503,0.7419521808624268,-0.5070698261260986,8.88170051574707,0.6030279397964478,-1.6756324768066406,0.33941933512687683,0.024167336523532867,26.470806121826172,-20.324180603027344,9.310768127441406,-0.4094792306423187,0.4971170425415039,1.0677990913391113,-0.09759059548377991,8.384583473205566,-0.4647710919380188
4_20251106_214226,1762436512225,4,0.4396315813064575,0.3960282504558563,0.5459319353103638,0.5931643843650818,0.1727895587682724,3.2691826820373535,0.7577691078186035,-0.44602030515670776,9.210887908935547,1.3224544525146484,-1.9438021183013916,0.2832197844982147,0.2685132324695587,26.421100616455078,-20.61119842529297,8.884222030639648,-0.27874377369880676,0.6610431671142578,1.4297804832458496,-0.167276531457901,8.549844741821289,-0.10732600092887878
4_20251106_214226,1762436512243,4,0.44380924105644226,0.38748443126678467,0.5351919531822205,0.605358362197876,0.16978779435157776,3.271023750305176,0.7770063281059265,-0.2784334421157837,9.547258377075195,2.213059425354004,-1.978621482849121,0.24412445724010468,0.34975823760032654,26.329891204833984,-21.00011444091797,8.359477996826172,-0.08892552554607391,0.7979307174682617,1.8563083410263062,-0.18950791656970978,8.749327659606934,0.35675108432769775
4_20251106_214226,1762436512264,4,0.44761422276496887,0.37918007373809814,0.5235975980758667,0.6178264617919922,0.16709129512310028,3.2760913372039795,0.8048550486564636,-0.03423534333705902,9.777092933654785,2.837919235229492,-1.8961546421051025,0.3192608058452606,0.33754095435142517,26.32668685913086,-21.344985961914062,7.757862091064453,0.12421806156635284,0.8222122192382812,1.9849345684051514,-0.15845340490341187,8.954880714416504,0.8529846668243408
4_20251106_214226,1762436512282,4,0.4506376087665558,0.37052300572395325,0.5125982761383057,0.6299852728843689,0.16508060693740845,3.2834692001342773,0.8366758227348328,-0.004309140145778656,9.976999282836914,3.2904038429260254,-1.8961546421051025,0.3192608058452606,0.33754095435142517,26.259342193603516,-21.744598388671875,7.2068023681640625,0.12331541627645493,0.8176946640014648,1.9499353170394897,-0.12762455642223358,9.15930461883545,1.3404685258865356
4_20251106_214226,1762436512301,4,0.4532218277454376,0.36147379875183105,0.5025597214698792,0.6413738131523132,0.16508060693740845,3.2834692001342773,0.8366758227348328,-0.004309140145778656,9.976999282836914,3.2904038429260254,-1.7165603637695312,0.42494040727615356,0.2031506896018982,26.13226318359375,-22.13494873046875,6.585973739624023,0.12331541627645493,0.8176946640014648,1.9499353170394897,-0.12762455642223358,9.15930461883545,1.3404685258865356
4_20251106_214226,1762436512321,4,0.45563146471977234,0.35210657119750977,0.4931558072566986,0.6520876288414001,0.1632101684808731,3.2946226596832275,0.8788456916809082,-0.05578222870826721,10.17570972442627,3.953568935394287,-1.5827810764312744,0.43165990710258484,0.16527706384658813,26.018177032470703,-22.511817932128906,5.952383041381836,0.05747386813163757,0.8131246566772461,2.090480327606201,-0.11325609683990479,9.362585067749023,1.863088607788086
4_20251106_214226,1762436512339,4,0.45763421058654785,0.3429292142391205,0.48459717631340027,0.6619184613227844,0.16077210009098053,3.3191299438476562,0.965515673160553,0.01963186264038086,10.532430648803711,4.998593330383301,-1.3958563804626465,0.4023384153842926,0.13717730343341827,25.880718231201172,-22.87731170654297,5.27752685546875,0.09788066148757935,0.790837287902832,2.0691611766815186,-0.07824879884719849,9.741593360900879,2.9294321537017822
4_20251106_214226,1762436512359,4,0.4592669606208801,0.33452826738357544,0.47700974345207214,0.6705418825149536,0.16077210009098053,3.3191299438476562,0.965515673160553,0.01963186264038086,10.532430648803711,4.998593330383301,-1.3958563804626465,0.4023384153842926,0.13717730343341827,25.880718231201172,-22.87731170654297,5.27752685546875,0.09788066148757935,0.790837287902832,2.0691611766815186,-0.07824879884719849,9.741593360900879,2.9294321537017822
4_20251106_214226,1762436512379,4,0.4604717791080475,0.3270898163318634,0.4704812467098236,0.6779568195343018,0.1602584719657898,3.354952812194824,1.0782312154769897,0.10581941157579422,10.877181053161621,5.243988513946533,-1.1997689008712769,0.3656865358352661,0.11701877415180206,25.59392547607422,-23.597076416015625,3.9816532135009766,0.11646296083927155,0.7533988952636719,1.4997029304504395,-0.010643552988767624,10.12378215789795,3.7442855834960938
4_20251106_214226,1762436512396,4,0.4615241587162018,0.3207011818885803,0.46457186341285706,0.6843385100364685,0.1602097451686859,3.3716824054718018,1.128649353981018,-0.02346191555261612,10.807751655578613,5.5013532638549805,-0.9267123937606812,0.20441824197769165,0.12434914708137512,25.59392547607422,-23.597076416015625,3.9816532135009766,-0.010254690423607826,0.547175407409668,1.405653953552246,-0.013207225129008293,10.260576248168945,4.095699310302734
4_20251106_214226,1762436512415,4,0.4624595642089844,0.31557798385620117,0.4589921832084656,0.6898317933082581,0.15997551381587982,3.3907527923583984,1.1861891746520996,-0.07972322404384613,10.737126350402832,5.556418418884277,-0.7550593614578247,0.15921425819396973,0.14511853456497192,25.520835876464844,-23.88433074951172,3.4189624786376953,-0.05321279913187027,0.3812398910522461,1.1685752868652344,-0.02651042304933071,10.355886459350586,4.387843132019043
4_20251106_214226,1762436512435,4,0.46290844678878784,0.3115346431732178,0.454255610704422,0.6944881677627563,0.15997551381587982,3.3907527923583984,1.1861891746520996,-0.07972322404384613,10.737126350402832,5.556418418884277,-0.7550593614578247,0.15921425819396973,0.14511853456497192,25.341793060302734,-24.115684509277344,2.8261451721191406,-0.05321279913187027,0.3812398910522461,1.1685752868652344,-0.02651042304933071,10.355886459350586,4.387843132019043
4_20251106_214226,1762436512454,4,0.4628421664237976,0.30817046761512756,0.45043516159057617,0.6985100507736206,0.16114869713783264,3.428344964981079,1.3034180402755737,0.3009384870529175,10.313371658325195,5.22244119644165,-0.46550944447517395,0.16898809373378754,0.11946222186088562,25.127811431884766,-24.312423706054688,2.300230026245117,0.23867955803871155,-0.07317638397216797,0.5084781646728516,0.06225893646478653,10.386548042297363,4.713963031768799
4_20251106_214226,1762436512474,4,0.4625728726387024,0.3053230047225952,0.44769880175590515,0.7016907930374146,0.16319739818572998,3.444620132446289,1.3581925630569458,0.46852535009384155,10.197256088256836,5.132662773132324,-0.30057597160339355,0.19953134655952454,0.004619665443897247,25.058162689208984,-24.525413513183594,1.8472537994384766,0.325013130903244,-0.15143394470214844,0.3349599838256836,0.14351221919059753,10.348690032958984,4.797702789306641
4_20251106_214226,1762436512493,4,0.4624478220939636,0.3025680184364319,0.4465104937553406,0.7037208080291748,0.166517972946167,3.460020065307617,1.4134140014648438,0.5618952512741089,10.060792922973633,4.94472599029541,-0.11487311124801636,0.25634175539016724,-0.15603776276111603,24.953472137451172,-24.70392608642578,1.4746952056884766,0.3347064256668091,-0.2303180694580078,0.11761856079101562,0.2271888256072998,10.29111099243164,4.8271074295043945
4_20251106_214226,1762436512512,4,0.4626927971839905,0.29967543482780457,0.4472206234931946,0.7043462991714478,0.17014408111572266,3.472409725189209,1.462638020515442,0.4565548896789551,9.741180419921875,4.603566646575928,-0.11487311124801636,0.25634175539016724,-0.15603776276111603,24.897838592529297,-24.86724853515625,1.1584281921386719,0.18349286913871765,-0.4399452209472656,-0.1788325309753418,0.2730620205402374,10.18112564086914,4.7823991775512695
4_20251106_214226,1762436512531,4,0.4634537100791931,0.2967935800552368,0.4490537941455841,0.7038998007774353,0.1734190583229065,3.482447385787964,1.5080300569534302,0.21115976572036743,9.549653053283691,4.282757759094238,-0.009193513542413712,0.17265328764915466,-0.28981712460517883,24.857025146484375,-24.96820068359375,0.9656181335449219,-0.049521803855895996,-0.5051774978637695,-0.39971303939819336,0.2606815695762634,10.054830551147461,4.682470798492432
4_20251106_214226,1762436512550,4,0.46458375453948975,0.29439494013786316,0.4505240023136139,0.7032223343849182,0.17580538988113403,3.4904613494873047,1.54737389087677,0.032799407839775085,9.640628814697266,4.069683074951172,-0.18878774344921112,0.10057124495506287,-0.17741802334785461,24.798480987548828,-24.957321166992188,0.7336530685424805,-0.1823057234287262,-0.3313608169555664,-0.49023008346557617,0.21510513126850128,9.971989631652832,4.559913158416748
4_20251106_214226,1762436512570,4,0.46582329273223877,0.2921878695487976,0.450195848941803,0.7035329341888428,0.17735888063907623,3.497898578643799,1.587988257408142,-0.10246716439723969,9.635841369628906,4.258816719055176,-0.46978551149368286,0.08774308115243912,-0.06257545948028564,24.729766845703125,-24.909706115722656,0.5155057907104492,-0.2540578246116638,-0.2689189910888672,-0.2408771514892578,0.15159067511558533,9.904760360717773,4.499693870544434
4_20251106_214226,1762436512589,4,0.467176228761673,0.28935202956199646,0.44764766097068787,0.7054312825202942,0.1779058873653412,3.504171848297119,1.6273279190063477,-0.15394029021263123,9.644220352172852,4.748409748077393,-0.6316646933555603,0.07796924561262131,0.027832524850964546,24.754928588867188,-24.90703582763672,0.4083566665649414,-0.24442477524280548,-0.20843219757080078,0.1989727020263672,0.09048448503017426,9.852652549743652,4.549437046051025
4_20251106_214226,1762436512607,4,0.46840211749076843,0.2862004041671753,0.4437151253223419,0.7083824276924133,0.17798392474651337,3.509075403213501,1.6625940799713135,-0.06775273382663727,9.665766716003418,5.211668014526367,-0.6072300672531128,0.011384990997612476,0.09075158834457397,24.879596710205078,-24.86048126220703,0.3194389343261719,-0.12658977508544922,-0.14950847625732422,0.5297846794128418,0.05883704498410225,9.815275192260742,4.681883335113525
4_20251106_214226,1762436512626,4,0.4693891704082489,0.2837907075881958,0.4394308030605316,0.711362898349762,0.17798392474651337,3.509075403213501,1.6625940799713135,-0.06775273382663727,9.665766716003418,5.211668014526367,-0.5076591372489929,0.027267474681138992,0.07609084248542786,24.919960021972656,-24.80652618408203,0.18680381774902344,-0.12658977508544922,-0.14950847625732422,0.5297846794128418,0.05883704498410225,9.815275192260742,4.681883335113525
4_20251106_214226,1762436512646,4,0.47008463740348816,0.28159549832344055,0.43588078022003174,0.7139554023742676,0.17819979786872864,3.514390230178833,1.7039297819137573,0.09744007140398026,9.779487609863281,5.352920055389404,-0.4227489233016968,0.09446259588003159,-0.01859319396317005,24.961326599121094,-24.739608764648438,0.013883590698242188,0.030882425606250763,-0.02863025665283203,0.5368294715881348,0.06655764579772949,9.808117866516113,4.8160905838012695
4_20251106_214226,1762436512665,4,0.47089651226997375,0.27896344661712646,0.4334352910518646,0.7159397602081299,0.17892447113990784,3.5213701725006104,1.7754567861557007,0.06272564083337784,9.414386749267578,5.382845878601074,-0.3610515594482422,0.10301470011472702,-0.08639918267726898,24.952430725097656,-24.712730407714844,-0.2428884506225586,-0.015093334019184113,-0.28818607330322266,0.36846923828125,0.07781897485256195,9.7025728225708,5.014376640319824
4_20251106_214226,1762436512684,4,0.47199547290802,0.2763040363788605,0.43160393834114075,0.7173523306846619,0.17896270751953125,3.522538900375366,1.8108097314834595,-0.024658963084220886,9.091182708740234,5.317008018493652,-0.3036302924156189,0.05842157453298569,-0.09678387641906738,24.967803955078125,-24.68439483642578,-0.48516273498535156,-0.08198235183954239,-0.48911190032958984,0.24210500717163086,0.0573233887553215,9.580294609069824,5.0749030113220215
4_20251106_214226,1762436512702,4,0.47322821617126465,0.27415797114372253,0.4299713671207428,0.7183432579040527,0.17877167463302612,3.522277355194092,1.8425573110580444,-0.034235358238220215,9.046892166137695,5.046474933624268,-0.2840826213359833,0.03093266300857067,-0.09372955560684204,24.979656219482422,-24.718849182128906,-0.7287569046020508,-0.07324700057506561,-0.42672157287597656,-0.022742748260498047,0.0390116386115551,9.473613739013672,5.069217681884766
4_20251106_214226,1762436512721,4,0.4745117425918579,0.2722834646701813,0.42833706736564636,0.7191854119300842,0.17816567420959473,3.520768880844116,1.8744226694107056,-0.11204357445240021,9.019359588623047,5.079992294311523,-0.318291038274765,0.03581957891583443,-0.11388809978961945,25.016185760498047,-24.73969268798828,-0.9170417785644531,-0.12084417045116425,-0.3634033203125,0.00861978530883789,0.008800597861409187,9.382762908935547,5.0713725090026855
4_20251106_214226,1762436512740,4,0.47599801421165466,0.27018168568611145,0.4265801012516022,0.7200397253036499,0.17689387500286102,3.5177903175354004,1.9050698280334473,-0.24491605162620544,8.819453239440918,5.208076477050781,-0.34272563457489014,0.0474260076880455,-0.14015528559684753,25.03036117553711,-24.724586486816406,-1.0919990539550781,-0.20297332108020782,-0.45064735412597656,0.10936355590820312,-0.04194273054599762,9.270100593566895,5.098712921142578
4_20251106_214226,1762436512760,4,0.47763824462890625,0.26774874329566956,0.42479658126831055,0.720916211605072,0.17689387500286102,3.5177903175354004,1.9050698280334473,-0.24491605162620544,8.819453239440918,5.208076477050781,-0.3384495973587036,0.02176969312131405,-0.13343577086925507,24.984508514404297,-24.70063018798828,-1.2961769104003906,-0.20297332108020782,-0.45064735412597656,0.10936355590820312,-0.04194273054599762,9.270100593566895,5.098712921142578
4_20251106_214226,1762436512780,4,0.47931790351867676,0.265485018491745,0.42289814352989197,0.721754252910614,0.17188136279582977,3.5083513259887695,1.9649720191955566,-0.35863572359085083,8.88888168334961,5.258352756500244,-0.33722785115242004,0.010774126276373863,-0.11205551028251648,24.976119995117188,-24.661460876464844,-1.5256519317626953,-0.20153436064720154,-0.2240619659423828,0.09546566009521484,-0.1571013629436493,9.112943649291992,5.162887096405029
4_20251106_214226,1762436512801,4,0.48087233304977417,0.2633475363254547,0.42091265320777893,0.722663402557373,0.16850398480892181,3.50323748588562,1.9937793016433716,-0.36821210384368896,9.033724784851074,5.247579574584961,-0.3555538058280945,-0.012438733130693436,-0.09556214511394501,25.018993377685547,-24.569290161132812,-1.7115612030029297,-0.16888859868049622,-0.06337547302246094,0.06775426864624023,-0.19932350516319275,9.097100257873535,5.179825305938721
4_20251106_214226,1762436512818,4,0.4825056791305542,0.2614167332649231,0.41864845156669617,0.7235903739929199,0.16488416492938995,3.4987800121307373,2.020840644836426,-0.40771475434303284,9.154626846313477,5.567191123962402,-0.36838194727897644,-0.06619482487440109,-0.09250782430171967,25.049388885498047,-24.478317260742188,-1.8574113845825195,-0.16671299934387207,0.046021461486816406,0.3098926544189453,-0.24100175499916077,9.10860538482666,5.257298469543457
4_20251106_214226,1762436512837,4,0.48440632224082947,0.25986048579216003,0.4160422086715698,0.7243838310241699,0.16488416492938995,3.4987800121307373,2.020840644836426,-0.40771475434303284,9.154626846313477,5.567191123962402,-0.36838194727897644,-0.06619482487440109,-0.09250782430171967,25.049388885498047,-24.478317260742188,-1.8574113845825195,-0.16671299934387207,0.046021461486816406,0.3098926544189453,-0.24100175499916077,9.10860538482666,5.257298469543457
4_20251106_214226,1762436512856,4,0.48598963022232056,0.2582712173461914,0.41396796703338623,0.7250797152519226,0.15648332238197327,3.491072177886963,2.0748889446258545,-0.4292616546154022,9.13427734375,5.6928815841674805,-0.3127932548522949,-0.031986404210329056,-0.09250782430171967,25.006553649902344,-24.40386199951172,-2.087566375732422,-0.1137828528881073,0.005513191223144531,0.2661323547363281,-0.3154788017272949,9.128764152526855,5.426749229431152
4_20251106_214226,1762436512875,4,0.4873713552951813,0.25665685534477234,0.4125593304634094,0.7255282402038574,0.1521093249320984,3.4872758388519287,2.100587844848633,-0.42806461453437805,9.03851318359375,5.54085636138916,-0.1942855268716812,0.0003894263645634055,-0.11999675631523132,25.049327850341797,-24.31182861328125,-2.2599592208862305,-0.09006863832473755,-0.07220077514648438,0.09128570556640625,-0.3379959762096405,9.110713958740234,5.449570655822754
4_20251106_214226,1762436512893,4,0.4887453317642212,0.25529807806015015,0.4115017354488373,0.7256839871406555,0.1479155719280243,3.483711004257202,2.1238324642181396,-0.44242915511131287,9.050483703613281,5.496565341949463,-0.18328996002674103,-0.02037997357547283,-0.12060761451721191,25.105998992919922,-24.1934814453125,-2.471881866455078,-0.08354654908180237,-0.04818439483642578,0.037595272064208984,-0.3588826060295105,9.098668098449707,5.458970069885254
4_20251106_214226,1762436512913,4,0.49021515250205994,0.25417494773864746,0.41042566299438477,0.7256962060928345,0.14278724789619446,3.479848861694336,2.149083375930786,-0.5896662473678589,9.066044807434082,5.6940789222717285,-0.18328996002674103,-0.02037997357547283,-0.12060761451721191,25.13416290283203,-24.151931762695312,-2.699885368347168,-0.18462690711021423,-0.026098251342773438,0.18808698654174805,-0.40503934025764465,9.092143058776855,5.5059919357299805
4_20251106_214226,1762436512931,4,0.49150484800338745,0.2527782618999481,0.4094160199165344,0.7258819937705994,0.13768556714057922,3.476093292236328,2.1714041233062744,-0.6962036490440369,8.908035278320312,5.803009986877441,-0.17107266187667847,0.03826303780078888,-0.08762091398239136,25.213695526123047,-24.05724334716797,-2.897838592529297,-0.23293143510818481,-0.14728641510009766,0.23761415481567383,-0.46327221393585205,9.05532169342041,5.565395832061768
4_20251106_214226,1762436512951,4,0.4924210011959076,0.2513631284236908,0.40865010023117065,0.7261840105056763,0.1320652961730957,3.471775531768799,2.194471597671509,-0.6471245884895325,8.854166984558105,5.814980506896973,-0.1283121258020401,-0.006330085452646017,-0.01859319396317005,25.20722198486328,-23.980674743652344,-3.099489212036133,-0.1470819115638733,-0.16092395782470703,0.19966793060302734,-0.5000426769256592,9.015090942382812,5.615312576293945
4_20251106_214226,1762436512970,4,0.49295464158058167,0.2506929039955139,0.4077870845794678,0.7265387177467346,0.12665420770645142,3.4672749042510986,2.2164738178253174,-0.5262226462364197,8.869728088378906,5.647393703460693,-0.09593630582094193,-0.022823432460427284,0.06448440998792648,25.17447280883789,-23.931480407714844,-3.235067367553711,-0.020943939685821533,-0.11629009246826172,0.025664806365966797,-0.5052787065505981,8.986018180847168,5.621728897094727
4_20251106_214226,1762436512989,4,0.4929066002368927,0.25062328577041626,0.40685999393463135,0.7271148562431335,0.12163069099187851,3.4624643325805664,2.2384886741638184,-0.3777885138988495,8.88409423828125,5.625846862792969,-0.09043852239847183,-0.03320813551545143,0.09380590915679932,25.16629409790039,-23.88042449951172,-3.3966970443725586,0.1019921600818634,-0.08153915405273438,0.0032944679260253906,-0.4797806739807129,8.965633392333984,5.622552394866943
4_20251106_214226,1762436513009,4,0.49265098571777344,0.2507985830307007,0.4058733582496643,0.7277787327766418,0.12163069099187851,3.4624643325805664,2.2384886741638184,-0.3777885138988495,8.88409423828125,5.625846862792969,-0.09043852239847183,-0.03320813551545143,0.09380590915679932,25.218856811523438,-23.814056396484375,-3.433964729309082,0.1019921600818634,-0.08153915405273438,0.0032944679260253906,-0.4797806739807129,8.965633392333984,5.622552394866943
4_20251106_214226,1762436513027,4,0.4925896227359772,0.25095894932746887,0.40502694249153137,0.7282363772392273,0.11388780921697617,3.45288348197937,2.277963876724243,-0.32870951294898987,8.720097541809082,5.63662052154541,-0.07822122424840927,-0.029542945325374603,0.06570613384246826,25.18299102783203,-23.81549835205078,-3.530050277709961,0.09783473610877991,-0.18031787872314453,-0.006127357482910156,-0.4265442490577698,8.900415420532227,5.64274787902832
4_20251106_214226,1762436513047,4,0.4925788640975952,0.25107455253601074,0.4046664834022522,0.7284042239189148,0.11060018837451935,3.4472146034240723,2.2962191104888916,-0.32631543278694153,8.669821739196777,5.342145919799805,-0.011636972427368164,0.0022220206446945667,0.002176206558942795,25.120540618896484,-23.85633087158203,-3.6143922805786133,0.08018305897712708,-0.18447494506835938,-0.24048137664794922,-0.4064984917640686,8.854296684265137,5.582627296447754
4_20251106_214226,1762436513066,4,0.49264100193977356,0.2511178255081177,0.40461093187332153,0.7283781170845032,0.11060018837451935,3.4472146034240723,2.2962191104888916,-0.32631543278694153,8.669821739196777,5.342145919799805,-0.04401280730962753,0.014439315535128117,-0.03203221783041954,25.110061645507812,-23.83160400390625,-3.6549034118652344,0.08018305897712708,-0.18447494506835938,-0.24048137664794922,-0.4064984917640686,8.854296684265137,5.582627296447754
4_20251106_214226,1762436513084,4,0.4930659532546997,0.25108444690704346,0.40467602014541626,0.7280658483505249,0.10492867976427078,3.435702323913574,2.3251876831054688,-0.5286167860031128,8.574057579040527,5.246382236480713,-0.04401280730962753,0.014439315535128117,-0.03203221783041954,25.085674285888672,-23.844802856445312,-3.7507619857788086,-0.10535266995429993,-0.18739700317382812,-0.21711254119873047,-0.42326411604881287,8.761454582214355,5.463494777679443
4_20251106_214226,1762436513104,4,0.49371960759162903,0.250735878944397,0.4048999547958374,0.7276183366775513,0.10146748274564743,3.429333209991455,2.3377299308776855,-0.6423364877700806,8.54054069519043,5.154209613800049,-0.06600393354892731,0.062086768448352814,-0.05952112749218941,25.134319305419922,-23.841758728027344,-3.735283851623535,-0.17525789141654968,-0.17673110961914062,-0.24742794036865234,-0.4670785963535309,8.71727180480957,5.401637554168701
4_20251106_214226,1762436513122,4,0.49433499574661255,0.24998869001865387,0.4052702784538269,0.7272513508796692,0.10146748274564743,3.429333209991455,2.3377299308776855,-0.6423364877700806,8.54054069519043,5.154209613800049,-0.0867733359336853,0.06086503341794014,0.007673989050090313,25.16008758544922,-23.82666778564453,-3.828653335571289,-0.17525789141654968,-0.17673110961914062,-0.24742794036865234,-0.4670785963535309,8.71727180480957,5.401637554168701
4_20251106_214226,1762436513142,4,0.4945414066314697,0.24931462109088898,0.40550583600997925,0.7272111177444458,0.09342734515666962,3.415935516357422,2.360583782196045,-0.5968486070632935,8.574057579040527,5.3624958992004395,-0.09593630582094193,0.05842157453298569,0.0895298570394516,25.199268341064453,-23.774330139160156,-3.799093246459961,-0.0702204704284668,-0.08744335174560547,-0.003791332244873047,-0.5266281366348267,8.661500930786133,5.3662872314453125
4_20251106_214226,1762436513161,4,0.4942754805088043,0.24885964393615723,0.4054241478443146,0.727593183517456,0.0901774913072586,3.409508228302002,2.371053457260132,-0.34666526317596436,8.574057579040527,5.430727958679199,-0.10082321614027023,0.05903243646025658,0.13962076604366302,25.19815444946289,-23.799041748046875,-3.840169906616211,0.1439703106880188,-0.06995487213134766,0.051552772521972656,-0.49063557386398315,8.644012451171875,5.379175186157227
4_20251106_214226,1762436513180,4,0.49356216192245483,0.2485399693250656,0.405055433511734,0.7283916473388672,0.0901774913072586,3.409508228302002,2.371053457260132,-0.34666526317596436,8.574057579040527,5.430727958679199,-0.12220348417758942,0.02482401765882969,0.14450767636299133,25.19986343383789,-23.773521423339844,-3.880190849304199,0.1439703106880188,-0.06995487213134766,0.051552772521972656,-0.49063557386398315,8.644012451171875,5.379175186157227
4_20251106_214226,1762436513200,4,0.49291110038757324,0.24866098165512085,0.40410754084587097,0.7293171286582947,0.08803489059209824,3.402977228164673,2.3821418285369873,-0.1264081746339798,8.609970092773438,5.5827531814575195,-0.10998619347810745,-0.010606138966977596,0.12190568447113037,25.236209869384766,-23.78302001953125,-3.9465646743774414,0.29138195514678955,-0.02723407745361328,0.16286230087280273,-0.41779011487960815,8.63720417022705,5.419890880584717
4_20251106_214226,1762436513219,4,0.4924430847167969,0.24917608499526978,0.40285417437553406,0.7301504015922546,0.08720333874225616,3.3931241035461426,2.4047107696533203,-0.01627962291240692,8.921201705932617,5.921518325805664,-0.07333431392908096,0.006498073693364859,0.0840320736169815,25.211231231689453,-23.797035217285156,-3.9613256454467773,0.2604142427444458,0.1974639892578125,0.34555721282958984,-0.27669385075569153,8.723737716674805,5.575961112976074
4_20251106_214226,1762436513239,4,0.49207666516304016,0.24968549609184265,0.40192320942878723,0.730736255645752,0.0880829319357872,3.3893346786499023,2.4176270961761475,-0.004309132695198059,8.94035530090332,6.013690948486328,-0.03179550915956497,0.026656610891222954,0.03577376529574394,25.163799285888672,-23.775230407714844,-3.9492435455322266,0.21790777146816254,0.1732940673828125,0.35018348693847656,-0.2222169041633606,8.767061233520508,5.663507461547852
4_20251106_214226,1762436513256,4,0.4917528033256531,0.24994590878486633,0.4014444053173065,0.7311283349990845,0.08917979151010513,3.3865292072296143,2.428891897201538,-0.04620586335659027,8.882896423339844,6.043617248535156,0.03539960831403732,0.01016326155513525,-0.01920405961573124,25.163799285888672,-23.775230407714844,-3.9492435455322266,0.1408088356256485,0.09266853332519531,0.30408763885498047,-0.18701469898223877,8.790227890014648,5.739529609680176
4_20251106_214226,1762436513276,4,0.49174097180366516,0.25037437677383423,0.40139469504356384,0.7310169339179993,0.08917979151010513,3.3865292072296143,2.428891897201538,-0.04620586335659027,8.882896423339844,6.043617248535156,0.10503818839788437,-0.00022143835667520761,-0.06562978029251099,25.151500701904297,-23.78777313232422,-4.031095504760742,0.1408088356256485,0.09266853332519531,0.30408763885498047,-0.18701469898223877,8.790227890014648,5.739529609680176
4_20251106_214226,1762436513295,4,0.49195486307144165,0.25089403986930847,0.4018474221229553,0.730445921421051,0.09060993790626526,3.383302688598633,2.442516803741455,-0.1443638950586319,8.80987548828125,5.860468864440918,0.12153153866529465,0.0016111558070406318,-0.07723620533943176,25.126819610595703,-23.80138397216797,-4.0864057540893555,0.03412063419818878,0.015718460083007812,0.09675121307373047,-0.17848452925682068,8.794157028198242,5.7637176513671875
4_20251106_214226,1762436513313,4,0.4923146665096283,0.25143712759017944,0.40261220932006836,0.7295951247215271,0.09203692525625229,3.377434730529785,2.463146924972534,-0.365818053483963,8.592013359069824,5.500156402587891,0.1294727772474289,-0.022212566807866096,-0.06257545948028564,25.051788330078125,-23.843551635742188,-4.117173194885254,-0.13483265042304993,-0.15158939361572266,-0.19511032104492188,-0.23098540306091309,8.743602752685547,5.6952667236328125
4_20251106_214226,1762436513333,4,0.49259305000305176,0.25210657715797424,0.40353548526763916,0.7286655306816101,0.09189236164093018,3.373541831970215,2.4722490310668945,-0.44602033495903015,8.536949157714844,5.311023235321045,0.12030980736017227,-0.05275580286979675,-0.050358161330223083,25.041912078857422,-23.80640411376953,-4.143904685974121,-0.17202794551849365,-0.16532230377197266,-0.30739450454711914,-0.2739923894405365,8.702271461486816,5.618417739868164
4_20251106_214226,1762436513352,4,0.49304792284965515,0.25294631719589233,0.40431728959083557,0.7276327610015869,0.09189236164093018,3.373541831970215,2.4722490310668945,-0.44602033495903015,8.536949157714844,5.311023235321045,0.08671224862337112,-0.0350407250225544,-0.04180605337023735,25.05440902709961,-23.793594360351562,-4.089085578918457,-0.17202794551849365,-0.16532230377197266,-0.30739450454711914,-0.2739923894405365,8.702271461486816,5.618417739868164
4_20251106_214226,1762436513372,4,0.4933817684650421,0.25348636507987976,0.4051484167575836,0.726755678653717,0.09097098559141159,3.3687593936920166,2.480153799057007,-0.5058728456497192,8.434003829956055,5.2679290771484375,0.05861247330904007,-0.0032757618464529514,-0.019814923405647278,25.083221435546875,-23.70478057861328,-4.018675804138184,-0.18550437688827515,-0.2146139144897461,-0.28039073944091797,-0.3203684687614441,8.6486177444458,5.5483198165893555
4_20251106_214226,1762436513390,4,0.4935630261898041,0.2536633014678955,0.4058789312839508,0.7261630296707153,0.08829090744256973,3.3593616485595703,2.4915223121643066,-0.4615820050239563,8.362180709838867,5.435515880584717,0.05311468988656998,0.015661044046282768,0.02050214819610119,25.119876861572266,-23.70226287841797,-4.0307207107543945,-0.08271557092666626,-0.18964004516601562,-0.05802202224731445,-0.37886643409729004,8.551820755004883,5.493537902832031
4_20251106_214226,1762436513411,4,0.49343281984329224,0.25375398993492126,0.40644726157188416,0.7259019017219543,0.08675312250852585,3.3533873558044434,2.497373104095459,-0.36462098360061646,8.376544952392578,5.4426984786987305,0.054336413741111755,0.022380556911230087,0.047380197793245316,25.154319763183594,-23.73755645751953,-4.030040740966797,0.0113963782787323,-0.14022064208984375,-0.040671348571777344,-0.37601736187934875,8.516765594482422,5.483369827270508
4_20251106_214226,1762436513430,4,0.49297812581062317,0.2538112998008728,0.40686511993408203,0.7259567379951477,0.08675312250852585,3.3533873558044434,2.497373104095459,-0.36462098360061646,8.376544952392578,5.4426984786987305,0.05250382423400879,0.02176969312131405,0.038217224180698395,25.10689926147461,-23.704139709472656,-3.9230804443359375,0.0113963782787323,-0.14022064208984375,-0.040671348571777344,-0.37601736187934875,8.516765594482422,5.483369827270508
4_20251106_214226,1762436513447,4,0.49258679151535034,0.25397151708602905,0.4071853756904602,0.7259867787361145,0.08516749739646912,3.3428537845611572,2.5062410831451416,-0.1934429109096527,8.334648132324219,5.423545837402344,0.04272998869419098,0.0058872089721262455,0.03943895548582077,25.105602264404297,-23.717506408691406,-3.8422470092773438,0.12968000769615173,-0.12421607971191406,-0.03713798522949219,-0.32312291860580444,8.458864212036133,5.460683822631836
4_20251106_214226,1762436513467,4,0.49220290780067444,0.2543172240257263,0.4073168635368347,0.7260523438453674,0.0852416381239891,3.3368418216705322,2.5106799602508545,-0.10127012431621552,8.325071334838867,5.44509220123291,0.03845393657684326,-0.045425426214933395,0.06204095110297203,25.128665924072266,-23.74089813232422,-3.8553104400634766,0.1774822324514389,-0.10703372955322266,-0.012473106384277344,-0.2787523567676544,8.43210506439209,5.4575653076171875
4_20251106_214226,1762436513487,4,0.491909921169281,0.25516730546951294,0.40700528025627136,0.7261273860931396,0.0852416381239891,3.3368418216705322,2.5106799602508545,-0.10127012431621552,8.325071334838867,5.44509220123291,0.030512696132063866,-0.07352520525455475,0.05959748849272728,25.114166259765625,-23.779632568359375,-3.8295602798461914,0.1774822324514389,-0.10703372955322266,-0.012473106384277344,-0.2787523567676544,8.43210506439209,5.4575653076171875
4_20251106_214226,1762436513505,4,0.49171504378318787,0.25622400641441345,0.40642762184143066,0.7262108325958252,0.08604685217142105,3.330706834793091,2.5151784420013428,-0.06057043373584747,8.390909194946289,5.478610038757324,0.047616906464099884,-0.06741655617952347,0.028443388640880585,25.06219482421875,-23.845191955566406,-3.8733901977539062,0.1745455414056778,-0.03295707702636719,0.016836166381835938,-0.23511597514152527,8.423866271972656,5.461773872375488
4_20251106_214226,1762436513524,4,0.4916674494743347,0.2572374939918518,0.40604981780052185,0.7260960936546326,0.08837766945362091,3.321660280227661,2.5226292610168457,-0.08810257911682129,8.541736602783203,5.504944801330566,0.047616906464099884,-0.06741655617952347,0.028443388640880585,24.97509002685547,-23.87640380859375,-3.8232860565185547,0.09198176860809326,0.07926750183105469,0.027054786682128906,-0.18008434772491455,8.462469100952148,5.4778900146484375
4_20251106_214226,1762436513544,4,0.49175718426704407,0.2581802010536194,0.40613484382629395,0.7256530523300171,0.08992087095975876,3.317488431930542,2.526097297668457,-0.08570846915245056,8.507022857666016,5.399604797363281,0.08426878601312637,-0.05886445194482803,-0.013706276193261147,24.97449493408203,-23.877212524414062,-3.7421884536743164,0.07550069689750671,0.035643577575683594,-0.06262826919555664,-0.16120916604995728,8.471379280090332,5.462233066558838
4_20251106_214226,1762436513562,4,0.49198946356773376,0.25902220606803894,0.406570702791214,0.7249511480331421,0.09142984449863434,3.313711643218994,2.528799533843994,-0.14556095004081726,8.539342880249023,5.246381759643555,0.12153153866529465,-0.057642724364995956,-0.0754036158323288,24.951335906982422,-23.853958129882812,-3.715608596801758,0.012518569827079773,0.054370880126953125,-0.17268133163452148,-0.15807951986789703,8.48497200012207,5.419063091278076
4_20251106_214226,1762436513581,4,0.49238723516464233,0.25990551710128784,0.40714210271835327,0.7240436673164368,0.09142984449863434,3.313711643218994,2.528799533843994,-0.14556095004081726,8.539342880249023,5.246381759643555,0.1032055914402008,-0.08818595856428146,-0.07357102632522583,24.997867584228516,-23.888587951660156,-3.7009220123291016,0.012518569827079773,0.054370880126953125,-0.17268133163452148,-0.15807951986789703,8.48497200012207,5.419063091278076
4_20251106_214226,1762436513601,4,0.49308842420578003,0.26104220747947693,0.4075813591480255,0.7229095101356506,0.09377429634332657,3.3072261810302734,2.5327653884887695,-0.24850720167160034,8.575255393981934,5.370875358581543,0.09587521851062775,-0.13461166620254517,-0.05707767233252525,24.995864868164062,-23.914512634277344,-3.620351791381836,-0.0647687166929245,0.06256961822509766,-0.010921001434326172,-0.18373848497867584,8.512685775756836,5.381796360015869
4_20251106_214226,1762436513621,4,0.4938274621963501,0.26237839460372925,0.40777623653411865,0.7218105792999268,0.0946192592382431,3.304361581802368,2.5344672203063965,-0.2532953917980194,8.611166000366211,5.2918701171875,0.11053597182035446,-0.16515490412712097,-0.03753000125288963,25.033634185791016,-23.887283325195312,-3.591320037841797,-0.055645525455474854,0.07878398895263672,-0.07194089889526367,-0.19764986634254456,8.532382011413574,5.363811016082764
4_20251106_214226,1762436513640,4,0.4944459795951843,0.26382943987846375,0.40783971548080444,0.720821738243103,0.09527933597564697,3.3024144172668457,2.535728931427002,-0.20900455117225647,8.688974380493164,5.313416957855225,0.10137300193309784,-0.17737220227718353,-0.040584322065114975,25.056907653808594,-23.898788452148438,-3.5365381240844727,-0.009083747863769531,0.1252737045288086,-0.04031515121459961,-0.19992080330848694,8.563700675964355,5.353732109069824
4_20251106_214226,1762436513659,4,0.49528124928474426,0.2654281258583069,0.40782859921455383,0.7196667194366455,0.09527933597564697,3.3024144172668457,2.535728931427002,-0.20900455117225647,8.688974380493164,5.313416957855225,0.10137300193309784,-0.17737220227718353,-0.040584322065114975,25.107158660888672,-23.870361328125,-3.5475645065307617,-0.009083747863769531,0.1252737045288086,-0.04031515121459961,-0.19992080330848694,8.563700675964355,5.353732109069824
4_20251106_214226,1762436513678,4,0.49604251980781555,0.2665449380874634,0.40804508328437805,0.718606173992157,0.09617643803358078,3.2996914386749268,2.538365125656128,-0.29160094261169434,8.663835525512695,5.34813117980957,0.0983186736702919,-0.06008617952466011,-0.09617301821708679,25.107158660888672,-23.870361328125,-3.5475645065307617,-0.06729404628276825,0.055275917053222656,-0.009139060974121094,-0.2243068963289261,8.608559608459473,5.357270240783691
4_20251106_214226,1762436513697,4,0.4967646896839142,0.2670612037181854,0.4086333215236664,0.7175806164741516,0.09613574296236038,3.298581600189209,2.539175033569336,-0.34307408332824707,8.647078514099121,5.208076477050781,0.11542288213968277,-0.03442986309528351,-0.09128609299659729,25.130615234375,-23.893211364746094,-3.6146926879882812,-0.09501375257968903,0.03081512451171875,-0.1193552017211914,-0.24806033074855804,8.616263389587402,5.327431678771973
4_20251106_214226,1762436513716,4,0.4972918927669525,0.26740166544914246,0.4094778597354889,0.7166065573692322,0.09591119736433029,3.2978765964508057,2.5393731594085693,-0.3251183032989502,8.715309143066406,5.1266770362854,0.103816457092762,-0.04053850844502449,-0.06074286624789238,25.096668243408203,-23.85724639892578,-3.6829538345336914,-0.06164637207984924,0.07923698425292969,-0.16060352325439453,-0.26347193121910095,8.636072158813477,5.287280559539795
4_20251106_214226,1762436513735,4,0.49770861864089966,0.2679014205932617,0.41026008129119873,0.7156826257705688,0.09566797316074371,3.2975873947143555,2.539482593536377,-0.27005407214164734,8.788330078125,5.254761695861816,0.09526435285806656,-0.07963385432958603,-0.03569740429520607,25.144210815429688,-23.86730194091797,-3.6136741638183594,-0.005265712738037109,0.12180614471435547,-0.026015281677246094,-0.26478835940361023,8.666523933410645,5.2807769775390625
4_20251106_214226,1762436513754,4,0.49809587001800537,0.2688291668891907,0.4108109772205353,0.714748740196228,0.09552882611751556,3.2976720333099365,2.5395419597625732,-0.23055145144462585,8.789525985717773,5.26433801651001,0.09526435285806656,-0.07963385432958603,-0.03569740429520607,25.123859405517578,-23.80542755126953,-3.6809167861938477,0.0273895263671875,0.09840106964111328,-0.013151168823242188,-0.25794097781181335,8.69112491607666,5.277489185333252
4_20251106_214226,1762436513772,4,0.49846747517585754,0.2700556814670563,0.4111006259918213,0.7138602137565613,0.09552882611751556,3.2976720333099365,2.5395419597625732,-0.23055145144462585,8.789525985717773,5.26433801651001,0.1190880760550499,-0.11872918903827667,-0.01248454675078392,25.13986587524414,-23.741439819335938,-3.7196550369262695,0.0273895263671875,0.09840106964111328,-0.013151168823242188,-0.25794097781181335,8.69112491607666,5.277489185333252
4_20251106_214226,1762436513792,4,0.4987111985683441,0.27140358090400696,0.41137683391571045,0.7130191922187805,0.09556359797716141,3.298110008239746,2.5394093990325928,-0.20301933586597443,8.808679580688477,5.215259075164795,0.1190880760550499,-0.11872918903827667,-0.01248454675078392,25.105815887451172,-23.705612182617188,-3.774399757385254,0.043937310576438904,0.09404373168945312,-0.049784183502197266,-0.24695664644241333,8.714635848999023,5.265043258666992
4_20251106_214226,1762436513810,4,0.4990619421005249,0.2727801501750946,0.4117840826511383,0.7120126485824585,0.09596188366413116,3.2991576194763184,2.538909673690796,-0.2353396713733673,8.705734252929688,5.208076477050781,0.1294727772474289,-0.10895536094903946,-0.027145300060510635,25.110145568847656,-23.63013458251953,-3.786332130432129,-0.0015669465065002441,-0.018720626831054688,-0.04028892517089844,-0.23377272486686707,8.724454879760742,5.24836540222168
4_20251106_214226,1762436513830,4,0.49953493475914,0.2738904058933258,0.4125087261199951,0.7108343243598938,0.09601348638534546,3.2993383407592773,2.538034439086914,-0.28322160243988037,8.617151260375977,5.066824913024902,0.16795724630355835,-0.045425426214933395,-0.09739474952220917,25.138450622558594,-23.553604125976562,-3.743218421936035,-0.03955909609794617,-0.08584308624267578,-0.1452322006225586,-0.2436625063419342,8.702994346618652,5.212057113647461
4_20251106_214226,1762436513851,4,0.4999768137931824,0.2745707929134369,0.4135887920856476,0.7096325755119324,0.0958661288022995,3.2992594242095947,2.536468267440796,-0.3143449127674103,8.614757537841797,4.929163932800293,0.16184860467910767,-0.028932079672813416,-0.09800560772418976,25.262435913085938,-23.496376037597656,-3.642643928527832,-0.05654594302177429,-0.07058906555175781,-0.22631454467773438,-0.257798969745636,8.685346603393555,5.155478477478027
4_20251106_214226,1762436513869,4,0.5004245638847351,0.2751306891441345,0.41477498412132263,0.7084067463874817,0.09554687142372131,3.2985947132110596,2.5342795848846436,-0.3143449127674103,8.492658615112305,4.950710773468018,0.13619229197502136,-0.05642099305987358,-0.08212313055992126,25.352275848388672,-23.403457641601562,-3.5832977294921875,-0.04523676633834839,-0.15415000915527344,-0.16381406784057617,-0.2691081464290619,8.646808624267578,5.114524841308594
4_20251106_214226,1762436513888,4,0.5009410381317139,0.27588140964508057,0.4157298803329468,0.7071889042854309,0.09510178864002228,3.297374725341797,2.5318188667297363,-0.32631543278694153,8.420835494995117,4.937543869018555,0.12764018774032593,-0.08818595856428146,-0.06929497420787811,25.356998443603516,-23.32744598388672,-3.6492958068847656,-0.045765817165374756,-0.18077850341796875,-0.1415848731994629,-0.2805496156215668,8.601613998413086,5.079128742218018
4_20251106_214226,1762436513906,4,0.5015193223953247,0.2767448425292969,0.4163326621055603,0.706086277961731,0.09463273733854294,3.2958757877349854,2.529019594192505,-0.30835962295532227,8.438791275024414,4.841779708862305,0.1190880760550499,-0.09307286888360977,-0.0754036158323288,25.346221923828125,-23.303123474121094,-3.649258613586426,-0.022247999906539917,-0.13025856018066406,-0.1898794174194336,-0.28611162304878235,8.569049835205078,5.031659126281738
4_20251106_214226,1762436513926,4,0.5021857619285583,0.2775161862373352,0.41683200001716614,0.7050144076347351,0.0939025953412056,3.2940614223480225,2.5254621505737305,-0.3634239137172699,8.492658615112305,4.833399772644043,0.08732310682535172,-0.054588399827480316,-0.09372955560684204,25.408069610595703,-23.27471160888672,-3.5786972045898438,-0.06184983253479004,-0.06111335754394531,-0.15860748291015625,-0.30157408118247986,8.55377197265625,4.992007255554199
4_20251106_214226,1762436513946,4,0.5029215216636658,0.2779444754123688,0.4173896014690399,0.7039905786514282,0.0939025953412056,3.2940614223480225,2.5254621505737305,-0.3634239137172699,8.492658615112305,4.833399772644043,0.06594284623861313,-0.025877755135297775,-0.12182934582233429,25.435470581054688,-23.211013793945312,-3.508814811706543,-0.06184983253479004,-0.06111335754394531,-0.15860748291015625,-0.30157408118247986,8.55377197265625,4.992007255554199
4_20251106_214226,1762436513964,4,0.5037245154380798,0.2778959572315216,0.41810011863708496,0.7030133605003357,0.0917799100279808,3.290194272994995,2.518697738647461,-0.4759465754032135,8.454353332519531,4.942331314086914,0.06594284623861313,-0.025877755135297775,-0.12182934582233429,25.460140228271484,-23.209022521972656,-3.5483827590942383,-0.12634605169296265,-0.06650066375732422,-0.028728008270263672,-0.34960052371025085,8.520853996276855,4.971059322357178
4_20251106_214226,1762436513983,4,0.5045050382614136,0.2777329087257385,0.41889265179634094,0.7020456194877625,0.09015662223100662,3.2880187034606934,2.5150387287139893,-0.5082669258117676,8.418441772460938,4.79270076751709,0.09770781546831131,0.0022220206446945667,-0.10961203277111053,25.510601043701172,-23.168716430664062,-3.4915637969970703,-0.12693309783935547,-0.08193016052246094,-0.1426868438720703,-0.3813338279724121,8.500371932983398,4.93538761138916
4_20251106_214226,1762436514001,4,0.5050792694091797,0.277456670999527,0.4198303520679474,0.7011812925338745,0.09015662223100662,3.2880187034606934,2.5150387287139893,-0.5082669258117676,8.418441772460938,4.79270076751709,0.07816014438867569,0.023602286353707314,-0.09617301821708679,25.49167251586914,-23.07012176513672,-3.4634008407592773,-0.12693309783935547,-0.08193016052246094,-0.1426868438720703,-0.3813338279724121,8.500371932983398,4.93538761138916
4_20251106_214226,1762436514021,4,0.505519688129425,0.2770823836326599,0.4208223819732666,0.7004168629646301,0.08820204436779022,3.285630464553833,2.510465621948242,-0.4903111755847931,8.430412292480469,4.634690284729004,0.025014908984303474,0.0425390899181366,-0.07723620533943176,25.467300415039062,-23.07170867919922,-3.4643821716308594,-0.08718189597129822,-0.05596733093261719,-0.24055767059326172,-0.4031292796134949,8.486379623413086,4.875247955322266
4_20251106_214226,1762436514039,4,0.505931556224823,0.27663448452949524,0.42158377170562744,0.699838399887085,0.08435244113206863,3.281332492828369,2.501830816268921,-0.5010846257209778,8.405274391174316,4.892055511474609,-0.015302160754799843,0.02787834033370018,-0.04241691902279854,25.481304168701172,-23.033645629882812,-3.422551155090332,-0.06575587391853333,-0.060143470764160156,0.04638099670410156,-0.43532875180244446,8.465417861938477,4.845674514770508
4_20251106_214226,1762436514058,4,0.5062693953514099,0.2762422263622284,0.4218725264072418,0.6995749473571777,0.08246023952960968,3.2791147232055664,2.4978175163269043,-0.40412360429763794,8.454353332519531,4.88966178894043,-0.009804378263652325,0.003443750087171793,0.032108575105667114,25.55523681640625,-23.00457763671875,-3.3379831314086914,0.024964094161987305,-0.008852005004882812,0.03518962860107422,-0.42908769845962524,8.463205337524414,4.8544721603393555
4_20251106_214226,1762436514080,4,0.5061289072036743,0.27602508664131165,0.42171135544776917,0.6998594403266907,0.08121506869792938,3.2772698402404785,2.4934566020965576,-0.2078075110912323,8.607575416564941,4.810656547546387,-0.03179550915956497,-0.04053850844502449,0.10907752811908722,25.52098846435547,-22.969017028808594,-3.365694999694824,0.17702415585517883,0.11549568176269531,-0.03505229949951172,-0.38483166694641113,8.492079734802246,4.845708847045898
4_20251106_214226,1762436514099,4,0.5056678056716919,0.2764495313167572,0.4209516942501068,0.7004822492599487,0.08107386529445648,3.276641368865967,2.4901933670043945,-0.04620586335659027,8.840999603271484,5.022534370422363,-0.07516690343618393,-0.07413607090711594,0.14450767636299133,25.581512451171875,-22.977195739746094,-3.404055595397949,0.2709006667137146,0.27913570404052734,0.14146041870117188,-0.3171065151691437,8.561863899230957,4.881073951721191
4_20251106_214226,1762436514117,4,0.5052282810211182,0.27748793363571167,0.4196157157421112,0.7011900544166565,0.0820409506559372,3.27732253074646,2.4883780479431152,0.08427253365516663,9.027740478515625,5.349328517913818,-0.07516690343618393,-0.07413607090711594,0.14450767636299133,25.581512451171875,-22.977195739746094,-3.404055595397949,0.32110321521759033,0.37270164489746094,0.3746037483215332,-0.2368306964635849,8.655038833618164,4.974724769592285
4_20251106_214226,1762436514136,4,0.5050802230834961,0.2787029445171356,0.4181332290172577,0.7017002701759338,0.0820409506559372,3.27732253074646,2.4883780479431152,0.08427253365516663,9.027740478515625,5.349328517913818,-3.054179251194e-05,-0.0759686604142189,0.022334743291139603,25.609111785888672,-22.913223266601562,-3.3612060546875,0.32110321521759033,0.37270164489746094,0.3746037483215332,-0.2368306964635849,8.655038833618164,4.974724769592285
4_20251106_214226,1762436514155,4,0.5051307678222656,0.2796761393547058,0.41713929176330566,0.7018681764602661,0.0842248722910881,3.279932737350464,2.4877395629882812,0.11180467903614044,9.220464706420898,5.352919578552246,0.04822777211666107,-0.04298196732997894,-0.04913643002510071,25.595008850097656,-22.95142364501953,-3.3895206451416016,0.27890831232070923,0.45234107971191406,0.30255603790283203,-0.1671036183834076,8.768123626708984,5.050363540649414
4_20251106_214226,1762436514174,4,0.5053626894950867,0.2804880440235138,0.4168969690799713,0.7015211582183838,0.08840076625347137,3.2875864505767822,2.4879603385925293,-0.14556095004081726,9.227646827697754,5.179347038269043,0.04822777211666107,-0.04298196732997894,-0.04913643002510071,25.616546630859375,-23.011680603027344,-3.48447322845459,-0.007089242339134216,0.27934741973876953,0.06914234161376953,-0.13847170770168304,8.948299407958984,5.110204696655273
4_20251106_214226,1762436514193,4,0.5058479309082031,0.28141552209854126,0.4171387255191803,0.7006556987762451,0.09011785686016083,3.2924158573150635,2.487982988357544,-0.25209835171699524,9.184553146362305,5.039292335510254,0.10992510616779327,-0.09857065230607986,-0.0857883095741272,25.664981842041016,-23.020523071289062,-3.5368404388427734,-0.09090131521224976,0.18900299072265625,-0.056729793548583984,-0.16119703650474548,8.995550155639648,5.096022129058838
4_20251106_214226,1762436514213,4,0.5064772367477417,0.28251343965530396,0.41750937700271606,0.6995376348495483,0.09011785686016083,3.2924158573150635,2.487982988357544,-0.25209835171699524,9.184553146362305,5.039292335510254,0.10992510616779327,-0.09857065230607986,-0.0857883095741272,25.67666244506836,-23.032012939453125,-3.5636463165283203,-0.09090131521224976,0.18900299072265625,-0.056729793548583984,-0.16119703650474548,8.995550155639648,5.096022129058838
4_20251106_214226,1762436514232,4,0.507607102394104,0.2838219106197357,0.4178958237171173,0.6979564428329468,0.09109177440404892,3.301237106323242,2.486910820007324,-0.6016367673873901,8.870925903320312,4.9459228515625,0.1135902926325798,-0.13949859142303467,-0.1114446371793747,25.652389526367188,-23.033470153808594,-3.5781431198120117,-0.3159734010696411,-0.1033172607421875,-0.0972127914428711,-0.285663366317749,8.9742431640625,5.043135643005371
4_20251106_214226,1762436514250,4,0.5088886022567749,0.28455793857574463,0.4186199903488159,0.6962876319885254,0.0897793397307396,3.304260492324829,2.485680341720581,-0.7381004095077515,8.654260635375977,4.833400249481201,0.11297941952943802,-0.11323141306638718,-0.15053999423980713,25.727210998535156,-23.003189086914062,-3.6152210235595703,-0.3619496524333954,-0.25598621368408203,-0.16778850555419922,-0.3761507570743561,8.910246849060059,5.0011887550354
4_20251106_214226,1762436514269,4,0.5098761916160583,0.2844439744949341,0.41988804936408997,0.6948466897010803,0.08744752407073975,3.3060264587402344,2.483515739440918,-0.7716177701950073,8.507022857666016,4.638280868530273,0.12030979245901108,-0.014271327294409275,-0.126105397939682,25.71633529663086,-22.97900390625,-3.6016674041748047,-0.3163736164569855,-0.32257938385009766,-0.2903265953063965,-0.45524415373802185,8.829602241516113,4.92860746383667
4_20251106_214226,1762436514290,4,0.51066654920578,0.2840924561023712,0.4212551414966583,0.6935814619064331,0.08373413980007172,3.3063342571258545,2.480065107345581,-0.8326672315597534,8.368165969848633,4.577231407165527,0.09098830074071884,-0.03442986309528351,-0.07845793664455414,25.777774810791016,-22.962745666503906,-3.571918487548828,-0.3019384741783142,-0.36914920806884766,-0.2811007499694824,-0.5307287573814392,8.73731517791748,4.85833215713501
4_20251106_214226,1762436514308,4,0.5113462805747986,0.2840147316455841,0.42228174209594727,0.692487359046936,0.08373413980007172,3.3063342571258545,2.480065107345581,-0.8326672315597534,8.368165969848633,4.577231407165527,0.047616906464099884,-0.03442986309528351,-0.027756165713071823,25.82077407836914,-22.847213745117188,-3.581587791442871,-0.3019384741783142,-0.36914920806884766,-0.2811007499694824,-0.5307287573814392,8.73731517791748,4.85833215713501
4_20251106_214226,1762436514326,4,0.511780858039856,0.28380340337753296,0.4229294955730438,0.6918573379516602,0.07924181967973709,3.305079221725464,2.476055860519409,-0.9032931923866272,8.232898712158203,4.566458702087402,0.003634645603597164,-0.03015381097793579,0.03027598187327385,25.822185516357422,-22.822097778320312,-3.581059455871582,-0.29805153608322144,-0.4035329818725586,-0.23349857330322266,-0.6052416563034058,8.636431694030762,4.799957275390625
4_20251106_214226,1762436514346,4,0.5119767785072327,0.28343549370765686,0.4231533706188202,0.6917263269424438,0.07480844855308533,3.3030154705047607,2.4721031188964844,-0.8458348512649536,8.23409652709961,4.586808204650879,-0.037293292582035065,-0.02465602569282055,0.07547996938228607,25.77676773071289,-22.76275634765625,-3.5546693801879883,-0.19247454404830933,-0.3218679428100586,-0.17051935195922852,-0.6533603072166443,8.555964469909668,4.757327556610107
4_20251106_214226,1762436514365,4,0.5119146108627319,0.2830672860145569,0.42295628786087036,0.6920436024665833,0.06676383316516876,3.2975947856903076,2.463923454284668,-0.49509936571121216,8.410062789916992,4.75200080871582,-0.06905825436115265,-0.021601703017950058,0.07975602149963379,25.81463623046875,-22.735397338867188,-3.539154052734375,0.12618565559387207,-0.07843780517578125,0.01727581024169922,-0.6212850213050842,8.488500595092773,4.734724998474121
4_20251106_214226,1762436514385,4,0.5118130445480347,0.2828279137611389,0.4223906993865967,0.6925618052482605,0.06359563767910004,3.295032024383545,2.4605767726898193,-0.457990825176239,8.539342880249023,4.920784950256348,-0.07089085131883621,-0.004497491288930178,0.04004982113838196,25.843433380126953,-22.65819549560547,-3.5636215209960938,0.13063538074493408,0.04067420959472656,0.1488480567932129,-0.5886262059211731,8.498668670654297,4.771936893463135
4_20251106_214226,1762436514403,4,0.5118284225463867,0.28245219588279724,0.4218057692050934,0.6930601000785828,0.06085887551307678,3.2929651737213135,2.457789182662964,-0.48911410570144653,8.632713317871094,4.914799213409424,-0.033628106117248535,0.014439315535128117,-0.006375899538397789,25.817848205566406,-22.68463134765625,-3.5921630859375,0.0796096920967102,0.10723590850830078,0.11428976058959961,-0.5687237977981567,8.525477409362793,4.800509452819824
4_20251106_214226,1762436514423,4,0.511943519115448,0.2819211483001709,0.4215684235095978,0.6933357119560242,0.05836242064833641,3.2914929389953613,2.4552314281463623,-0.5310108065605164,8.704536437988281,4.833399772644043,-0.018356483429670334,0.029710935428738594,-0.03508653864264488,25.842628479003906,-22.67089080810547,-3.5503692626953125,0.03017038106918335,0.1432476043701172,0.02631235122680664,-0.5611811876296997,8.561288833618164,4.807087421417236
4_20251106_214226,1762436514443,4,0.5121788382530212,0.28130775690078735,0.4216468632221222,0.6933633089065552,0.05585579201579094,3.2905545234680176,2.4529318809509277,-0.564528226852417,8.736856460571289,4.892055511474609,-0.04645626246929169,0.04131735861301422,-0.03447567671537399,25.80767822265625,-22.64788818359375,-3.57834529876709,-0.002677619457244873,0.14045429229736328,0.06797456741333008,-0.5618506073951721,8.596402168273926,4.824080944061279
4_20251106_214226,1762436514460,4,0.5124692916870117,0.280589759349823,0.4217272996902466,0.6933907270431519,0.05394478887319565,3.2902276515960693,2.4514780044555664,-0.46756723523139954,8.78952693939209,5.032110214233398,-0.06172788143157959,0.04192822426557541,-0.027756165713071823,25.783504486083984,-22.649208068847656,-3.606358528137207,0.07542672753334045,0.15450000762939453,0.16642332077026367,-0.54299396276474,8.635026931762695,4.865686893463135
4_20251106_214226,1762436514480,4,0.512771487236023,0.2797728478908539,0.4216810166835785,0.6935255527496338,0.05236070230603218,3.290454149246216,2.4502673149108887,-0.40053248405456543,8.823043823242188,4.972257614135742,-0.02935204841196537,0.07735837996006012,-0.06318631768226624,25.796310424804688,-22.624374389648438,-3.4972095489501953,0.11396914720535278,0.15041351318359375,0.08525657653808594,-0.5145016312599182,8.672630310058594,4.887001037597656
4_20251106_214226,1762436514500,4,0.5130245089530945,0.2787964940071106,0.421915203332901,0.6935891509056091,0.05135512351989746,3.2909228801727295,2.4485175609588623,-0.35025638341903687,8.756010055541992,4.689754486083984,-0.012247837148606777,0.10484729707241058,-0.11205551028251648,25.871231079101562,-22.593955993652344,-3.5478038787841797,0.13139620423316956,0.06670379638671875,-0.15779733657836914,-0.4816525876522064,8.689306259155273,4.8475518226623535
4_20251106_214226,1762436514520,4,0.5132942199707031,0.27766889333724976,0.42255455255508423,0.6934527158737183,0.050338443368673325,3.2909903526306152,2.4464266300201416,-0.5214344263076782,8.559693336486816,4.661025047302246,-0.02874118462204933,0.07674751430749893,-0.1731419861316681,25.85138702392578,-22.519798278808594,-3.587749481201172,-0.031825482845306396,-0.10369014739990234,-0.14922142028808594,-0.4896089434623718,8.663383483886719,4.810246467590332
4_20251106_214226,1762436514537,4,0.5143814086914062,0.27692246437072754,0.4231394827365875,0.6925883889198303,0.050338443368673325,3.2909903526306152,2.4464266300201416,-0.5214344263076782,8.559693336486816,4.661025047302246,-0.02874118462204933,0.07674751430749893,-0.1731419861316681,25.85138702392578,-22.519798278808594,-3.587749481201172,-0.031825482845306396,-0.10369014739990234,-0.14922142028808594,-0.4896089434623718,8.663383483886719,4.810246467590332
4_20251106_214226,1762436514556,4,0.5157114267349243,0.27547797560691833,0.42361629009246826,0.6918835639953613,0.04534485191106796,3.2898852825164795,2.441012144088745,-1.1175650358200073,8.43998908996582,4.6406755447387695,-0.12464695423841476,0.0987386479973793,-0.15115085244178772,25.862964630126953,-22.53142547607422,-3.601038932800293,-0.44613486528396606,-0.15542125701904297,-0.09569311141967773,-0.6714301705360413,8.595410346984863,4.736368656158447
4_20251106_214226,1762436514576,4,0.516875684261322,0.27357301115989685,0.42408859729766846,0.6914811730384827,0.04071968421339989,3.2889211177825928,2.438222885131836,-1.123550295829773,8.546525001525879,4.761577129364014,-0.12464695423841476,0.0987386479973793,-0.15115085244178772,25.91775894165039,-22.41564178466797,-3.55615234375,-0.36169612407684326,-0.0391082763671875,0.020166873931884766,-0.7618541717529297,8.585633277893066,4.741410255432129
4_20251106_214226,1762436514594,4,0.517577052116394,0.27152562141418457,0.42413341999053955,0.6917359828948975,0.04071968421339989,3.2889211177825928,2.438222885131836,-1.123550295829773,8.546525001525879,4.761577129364014,-0.19123119115829468,0.06941714137792587,0.047380197793245316,25.984424591064453,-22.311080932617188,-3.5651044845581055,-0.36169612407684326,-0.0391082763671875,0.020166873931884766,-0.7618541717529297,8.585633277893066,4.741410255432129
4_20251106_214226,1762436514614,4,0.5178066492080688,0.26984575390815735,0.4236139953136444,0.6925393342971802,0.03577571362257004,3.2883012294769287,2.4360928535461426,-0.9427958130836487,8.682989120483398,4.912405967712402,-0.18206822872161865,0.062086768448352814,0.08036689460277557,26.072647094726562,-22.255157470703125,-3.574131965637207,-0.14475327730178833,0.07788467407226562,0.1367964744567871,-0.7980425357818604,8.605104446411133,4.775609493255615
4_20251106_214226,1762436514633,4,0.5177343487739563,0.2686215937137604,0.42281678318977356,0.6935557126998901,0.03130088746547699,3.2881722450256348,2.43514347076416,-0.8027411103248596,8.761994361877441,5.130268096923828,-0.14541634917259216,0.0730823278427124,0.08281034231185913,26.112529754638672,-22.19025421142578,-3.544308662414551,-0.003758847713470459,0.12551212310791016,0.28372669219970703,-0.7989822626113892,8.636482238769531,4.846541404724121
4_20251106_214226,1762436514652,4,0.5172924399375916,0.26748794317245483,0.4221021831035614,0.694757878780365,0.027170859277248383,3.2882494926452637,2.4354140758514404,-0.7548590302467346,8.70932388305664,5.273914337158203,-0.09960149228572845,0.08102356642484665,0.09258417785167694,26.177875518798828,-22.122283935546875,-3.6621828079223633,0.03529864549636841,0.0582733154296875,0.34189844131469727,-0.790157675743103,8.651050567626953,4.932015895843506
4_20251106_214226,1762436514670,4,0.5166411399841309,0.26649633049964905,0.4215218126773834,0.6959748864173889,0.023623336106538773,3.2884860038757324,2.4366748332977295,-0.6531098484992981,8.710521697998047,5.297855377197266,-0.060506150126457214,0.0785801112651825,0.11396445333957672,26.189369201660156,-22.12242889404297,-3.5670785903930664,0.1096382737159729,0.047576904296875,0.29267168045043945,-0.762748122215271,8.662944793701172,5.005183696746826
4_20251106_214226,1762436514690,4,0.5157646536827087,0.265950083732605,0.4210261106491089,0.69713294506073,0.0189982857555151,3.2888548374176025,2.440537929534912,-0.42806461453437805,8.619545936584473,5.233214378356934,-0.060506150126457214,0.0785801112651825,0.11396445333957672,26.235702514648438,-22.157325744628906,-3.525360107421875,0.2375638782978058,-0.03639411926269531,0.14287519454956055,-0.6656284928321838,8.655940055847168,5.090339183807373
4_20251106_214226,1762436514711,4,0.5145953297615051,0.2655807435512543,0.4205706715583801,0.6984116435050964,0.01830510050058365,3.288396120071411,2.4431979656219482,-0.26167476177215576,8.492658615112305,5.149421691894531,-0.05317576974630356,0.07735837996006012,0.13717730343341827,26.261581420898438,-22.13048553466797,-3.537367820739746,0.3231630325317383,-0.13062477111816406,0.04726600646972656,-0.584837794303894,8.623283386230469,5.102155685424805
4_20251106_214226,1762436514731,4,0.5134328007698059,0.26543962955474854,0.41993969678878784,0.6996994018554688,0.018990837037563324,3.287595748901367,2.4451980590820312,-0.12760521471500397,8.468717575073242,5.035701751708984,-0.06172788143157959,0.04192822799086571,0.1249600201845169,26.25926971435547,-22.168426513671875,-3.511127471923828,0.365786075592041,-0.12365245819091797,-0.05316305160522461,-0.4933912754058838,8.59237003326416,5.088864803314209
