session_id,timestamp,label,quaternion_w,quaternion_x,quaternion_y,quaternion_z,position_x,position_y,position_z,accelerometer_x,accelerometer_y,accelerometer_z,gyroscope_x,gyroscope_y,gyroscope_z,magnetometer_x,magnetometer_y,magnetometer_z,linear_acceleration_x,linear_acceleration_y,linear_acceleration_z,gravity_x,gravity_y,gravity_z
5_20251106_145901,1762412304074,5,0.1595786213874817,0.32085901498794556,0.7019010782241821,0.6155640482902527,1.3936177492141724,2.1337761878967285,-1.5645912885665894,1.6200867891311646,9.525712013244629,-1.8281794786453247,0.03761018067598343,0.13043108582496643,-0.020841939374804497,17.958805084228516,-17.528953552246094,28.831707000732422,0.02494180202484131,-0.21874141693115234,-0.015157461166381836,1.5951449871063232,9.744453430175781,-1.8130220174789429
5_20251106_145901,1762412304093,5,0.1588665246963501,0.3197990357875824,0.7021939754486084,0.6159655451774597,1.3947092294692993,2.133654832839966,-1.5634925365447998,1.6691659688949585,9.456283569335938,-1.9418991804122925,0.03761018067598343,0.13043108582496643,-0.020841939374804497,17.950651168823242,-17.454673767089844,28.859832763671875,0.05921673774719238,-0.23053550720214844,-0.10310173034667969,1.6099492311477661,9.686819076538086,-1.8387974500656128
5_20251106_145901,1762412304111,5,0.1580132395029068,0.31880202889442444,0.7025176286697388,0.6163327693939209,1.3961615562438965,2.1332905292510986,-1.562813639640808,1.8008413314819336,9.583169937133789,-1.9646430015563965,0.01439731940627098,0.08522708714008331,0.028638102114200592,17.890722274780273,-17.44568634033203,28.817096710205078,0.15271365642547607,-0.08291912078857422,-0.10067641735076904,1.6481276750564575,9.666089057922363,-1.8639665842056274
5_20251106_145901,1762412304130,5,0.1571779102087021,0.31833261251449585,0.7027907967567444,0.6164775490760803,1.3981879949569702,2.1328389644622803,-1.5619853734970093,1.855905532836914,9.6346435546875,-1.8102236986160278,0.01439731940627098,0.08522708714008331,0.028638102114200592,17.827987670898438,-17.475318908691406,28.868183135986328,0.16622233390808105,-0.02515697479248047,0.04299426078796387,1.689683198928833,9.65980052947998,-1.8532179594039917
5_20251106_145901,1762412304150,5,0.15651677548885345,0.31825822591781616,0.7029320001602173,0.6165232062339783,1.4007415771484375,2.13260555267334,-1.5610991716384888,1.8630878925323486,9.731605529785156,-1.8341646194458008,0.0339449904859066,0.07362065464258194,-0.008013781160116196,17.776634216308594,-17.51683807373047,28.93301010131836,0.13872385025024414,0.05744361877441406,0.015242576599121094,1.7243640422821045,9.674161911010742,-1.8494071960449219
5_20251106_145901,1762412304170,5,0.15586093068122864,0.3180747926235199,0.7031248807907104,0.6165640354156494,1.4007415771484375,2.13260555267334,-1.5610991716384888,1.8630878925323486,9.731605529785156,-1.8341646194458008,0.046162284910678864,0.08278362452983856,-0.017787616699934006,17.738271713256836,-17.54486846923828,28.985076904296875,0.13872385025024414,0.05744361877441406,0.015242576599121094,1.7243640422821045,9.674161911010742,-1.8494071960449219
5_20251106_145901,1762412304189,5,0.15509121119976044,0.3175245523452759,0.7033912539482117,0.6167379021644592,1.4038059711456299,2.132697820663452,-1.5606335401535034,1.8786495923995972,9.771106719970703,-1.974219560623169,0.058379579335451126,0.049186065793037415,-0.0129006989300251,17.626285552978516,-17.58995819091797,29.00690460205078,0.12342846393585205,0.07755565643310547,-0.09984993934631348,1.7552211284637451,9.693551063537598,-1.8743696212768555
5_20251106_145901,1762412304208,5,0.154463529586792,0.3172030448913574,0.7037680745124817,0.6166309714317322,1.41002357006073,2.1329636573791504,-1.5601561069488525,1.9073786735534668,9.724422454833984,-1.8593027591705322,0.06693167984485626,0.03208185359835625,-0.015344157814979553,17.554380416870117,-17.56987762451172,29.03152084350586,0.09412479400634766,0.02320575714111328,0.022091984748840332,1.8132538795471191,9.701216697692871,-1.8813947439193726
5_20251106_145901,1762412304226,5,0.15397490561008453,0.3172549605369568,0.7041469216346741,0.6162938475608826,1.41002357006073,2.1329636573791504,-1.5601561069488525,1.9073786735534668,9.724422454833984,-1.8593027591705322,0.07120773196220398,0.049186065793037415,-0.014733294025063515,17.484294891357422,-17.512535095214844,29.09748077392578,0.09412479400634766,0.02320575714111328,0.022091984748840332,1.8132538795471191,9.701216697692871,-1.8813947439193726
5_20251106_145901,1762412304246,5,0.1534634828567505,0.31720682978630066,0.7044936418533325,0.6160498857498169,1.4163589477539062,2.1333587169647217,-1.5601286888122559,1.840343952178955,9.686117172241211,-2.004145622253418,0.07181860506534576,0.05407298356294632,0.005425242707133293,17.410078048706055,-17.53040313720703,29.148338317871094,0.015039205551147461,-0.015601158142089844,-0.09254205226898193,1.8253047466278076,9.7017183303833,-1.911603569984436
5_20251106_145901,1762412304265,5,0.15281511843204498,0.3170226216316223,0.7048745155334473,0.6158701777458191,1.4163589477539062,2.1333587169647217,-1.5601286888122559,1.840343952178955,9.686117172241211,-2.004145622253418,0.07242946326732635,0.03208185359835625,0.03474675118923187,17.37373161315918,-17.520896911621094,29.21471405029297,0.015039205551147461,-0.015601158142089844,-0.09254205226898193,1.8253047466278076,9.7017183303833,-1.911603569984436
5_20251106_145901,1762412304285,5,0.15208452939987183,0.3170712888240814,0.7052503824234009,0.6155956387519836,1.4228222370147705,2.1329822540283203,-1.561368703842163,1.8942112922668457,9.584367752075195,-2.0113279819488525,0.07242946326732635,0.03208185359835625,0.03474675118923187,17.40082359313965,-17.469215393066406,29.230266571044922,0.044483304023742676,-0.0823822021484375,-0.059418559074401855,1.849727988243103,9.666749954223633,-1.9519094228744507
5_20251106_145901,1762412304303,5,0.1513991802930832,0.3175369203090668,0.7055590748786926,0.6151707172393799,1.4255352020263672,2.1326041221618652,-1.5621837377548218,1.803235411643982,9.63224983215332,-2.0292835235595703,0.06448821723461151,0.004592939279973507,0.0335250198841095,17.428213119506836,-17.41712188720703,29.205272674560547,-0.037194132804870605,-0.02760028839111328,-0.06189918518066406,1.8404295444488525,9.659850120544434,-1.9673843383789062
5_20251106_145901,1762412304322,5,0.15084221959114075,0.31816697120666504,0.7057750821113586,0.6147340536117554,1.4278548955917358,2.1320769786834717,-1.563328504562378,1.6943038702011108,9.605915069580078,-2.0867419242858887,0.06448821723461151,0.004592939279973507,0.0335250198841095,17.433048248291016,-17.32935333251953,29.220638275146484,-0.11690056324005127,-0.043148040771484375,-0.09548604488372803,1.811204433441162,9.649063110351562,-1.9912558794021606
5_20251106_145901,1762412304341,5,0.15037274360656738,0.31840619444847107,0.7060388922691345,0.6144221425056458,1.4278548955917358,2.1320769786834717,-1.563328504562378,1.6943038702011108,9.605915069580078,-2.0867419242858887,0.02722547948360443,0.06629027426242828,-0.008013781160116196,17.438602447509766,-17.21741485595703,29.33114242553711,-0.11690056324005127,-0.043148040771484375,-0.09548604488372803,1.811204433441162,9.649063110351562,-1.9912558794021606
5_20251106_145901,1762412304361,5,0.149932861328125,0.31805598735809326,0.7064337730407715,0.6142571568489075,1.4310747385025024,2.130157947540283,-1.566970705986023,1.6655747890472412,9.543667793273926,-2.192082405090332,0.013786451891064644,0.040023092180490494,0.01275561936199665,17.41463851928711,-17.20685577392578,29.370975494384766,-0.09224534034729004,-0.065155029296875,-0.13274264335632324,1.7578201293945312,9.6088228225708,-2.059339761734009
5_20251106_145901,1762412304380,5,0.14957480132579803,0.317679226398468,0.7068015933036804,0.6141162514686584,1.4320917129516602,2.129117727279663,-1.5687406063079834,1.6571954488754272,9.585565567016602,-2.023298501968384,0.019284237176179886,0.005814668722450733,0.0384119376540184,17.35562515258789,-17.173423767089844,29.396347045898438,-0.08049976825714111,-0.018606185913085938,0.02883291244506836,1.7376952171325684,9.604171752929688,-2.052131414413452
5_20251106_145901,1762412304398,5,0.14930519461631775,0.31773293018341064,0.7071003317832947,0.613810122013092,1.4329134225845337,2.1282293796539307,-1.5702210664749146,1.7182449102401733,9.602323532104492,-2.0412540435791016,0.032723262906074524,0.023529743775725365,0.05673787742853165,17.320377349853516,-17.15082550048828,29.408920288085938,-0.015560269355773926,-0.0014791488647460938,0.008701801300048828,1.7338051795959473,9.603802680969238,-2.0499558448791504
5_20251106_145901,1762412304418,5,0.14897122979164124,0.3179420530796051,0.7072868347167969,0.6135680675506592,1.4344141483306885,2.12709379196167,-1.5719256401062012,1.9253344535827637,9.556835174560547,-2.066392183303833,0.03638844937086105,0.011923315934836864,0.06895517557859421,17.282211303710938,-17.17859649658203,29.43395233154297,0.15322339534759521,-0.037573814392089844,-0.013149023056030273,1.7721110582351685,9.594408988952637,-2.0532431602478027
5_20251106_145901,1762412304439,5,0.14837636053562164,0.318015992641449,0.7074264883995056,0.6135128736495972,1.4369070529937744,2.12581729888916,-1.5733106136322021,2.0234923362731934,9.570003509521484,-1.9454902410507202,0.04005363956093788,-0.01251127291470766,0.054905280470848083,17.257640838623047,-17.180458068847656,29.460002899169922,0.20110511779785156,-0.019524574279785156,0.08620226383209229,1.8223872184753418,9.58952808380127,-2.0316925048828125
5_20251106_145901,1762412304458,5,0.147902712225914,0.31860145926475525,0.7074636220932007,0.6132805943489075,1.4369070529937744,2.12581729888916,-1.5733106136322021,2.0234923362731934,9.570003509521484,-1.9454902410507202,0.05654698982834816,0.014977640472352505,0.005425242707133293,17.257640838623047,-17.180458068847656,29.460002899169922,0.20110511779785156,-0.019524574279785156,0.08620226383209229,1.8223872184753418,9.58952808380127,-2.0316925048828125
5_20251106_145901,1762412304476,5,0.14740104973316193,0.3191055357456207,0.7075071334838867,0.6130891442298889,1.4421429634094238,2.123441457748413,-1.576712727546692,2.029477596282959,9.4957857131958,-2.397974967956543,0.03089066594839096,0.04063396155834198,-0.023896263912320137,17.232576370239258,-17.18299102783203,29.553634643554688,0.13751757144927979,-0.0693807601928711,-0.279238224029541,1.8919600248336792,9.565166473388672,-2.118736743927002
5_20251106_145901,1762412304495,5,0.14696002006530762,0.319122314453125,0.7077169418334961,0.6129440665245056,1.4455835819244385,2.1220977306365967,-1.579740047454834,2.1599559783935547,9.526908874511719,-2.4697978496551514,-0.03447185829281807,0.06690114736557007,-0.027561454102396965,17.192394256591797,-17.24829864501953,29.56435775756836,0.21439671516418457,-0.03060626983642578,-0.28084874153137207,1.9455592632293701,9.557515144348145,-2.1889491081237793
5_20251106_145901,1762412304515,5,0.14660008251667023,0.31908223032951355,0.7079464793205261,0.612786054611206,1.4455835819244385,2.1220977306365967,-1.579740047454834,2.1599559783935547,9.526908874511719,-2.4697978496551514,-0.09616920351982117,0.07728584110736847,-0.02267453446984291,17.215356826782227,-17.271827697753906,29.56481170654297,0.21439671516418457,-0.03060626983642578,-0.28084874153137207,1.9455592632293701,9.557515144348145,-2.1889491081237793
5_20251106_145901,1762412304532,5,0.14628809690475464,0.3191441595554352,0.7078638672828674,0.6129237413406372,1.456052541732788,2.1180989742279053,-1.586064338684082,2.769254207611084,9.221660614013672,-2.1669442653656006,-0.13648627698421478,0.0760641098022461,-0.03550269454717636,17.19139289855957,-17.261253356933594,29.604644775390625,0.5806012153625488,-0.24156951904296875,0.043961524963378906,2.188652992248535,9.46323013305664,-2.2109057903289795
5_20251106_145901,1762412304551,5,0.14593209326267242,0.3193845748901367,0.707343339920044,0.6134840250015259,1.456052541732788,2.1180989742279053,-1.586064338684082,2.769254207611084,9.221660614013672,-2.1669442653656006,-0.17497074604034424,0.0601816326379776,-0.07581976801156998,17.19019317626953,-17.27448272705078,29.67196273803711,0.5806012153625488,-0.24156951904296875,0.043961524963378906,2.188652992248535,9.46323013305664,-2.2109057903289795
5_20251106_145901,1762412304571,5,0.14560364186763763,0.3198310434818268,0.7063614130020142,0.6144601106643677,1.4648727178573608,2.1142091751098633,-1.5882134437561035,3.052955150604248,8.972675323486328,-1.9047905206680298,-0.17558161914348602,0.009479857049882412,-0.12957586348056793,17.201377868652344,-17.286643981933594,29.712738037109375,0.6914417743682861,-0.3924436569213867,0.24489223957061768,2.361513376235962,9.365118980407715,-2.1496827602386475
5_20251106_145901,1762412304589,5,0.14558963477611542,0.32039961218833923,0.7050063610076904,0.615722119808197,1.4761399030685425,2.10952091217041,-1.5885499715805054,3.3115177154541016,9.03851318359375,-1.5887696743011475,-0.10777562856674194,-0.044887103140354156,-0.18455368280410767,17.25192642211914,-17.25782012939453,29.661163330078125,0.7600035667419434,-0.26128482818603516,0.44873046875,2.551514148712158,9.299798011779785,-2.0375001430511475
5_20251106_145901,1762412304609,5,0.14595188200473785,0.3212626874446869,0.7035096883773804,0.6168974041938782,1.5026105642318726,2.1014182567596436,-1.5853304862976074,3.7987167835235596,9.394037246704102,-1.6450307369232178,-0.02103283628821373,-0.14262545108795166,-0.12896499037742615,17.249515533447266,-17.29589080810547,29.70092010498047,0.8594987392425537,0.0854034423828125,0.2180461883544922,2.939218044281006,9.308633804321289,-1.86307692527771
5_20251106_145901,1762412304629,5,0.1465470790863037,0.32252007722854614,0.7021004557609558,0.617705225944519,1.520777702331543,2.0985960960388184,-1.5835647583007812,4.469064712524414,9.63224983215332,-1.9059877395629883,-0.02103283628821373,-0.14262545108795166,-0.12896499037742615,17.224029541015625,-17.322181701660156,29.658863067626953,1.2238774299621582,0.2588930130004883,-0.03432869911193848,3.245187282562256,9.373356819152832,-1.8716590404510498
5_20251106_145901,1762412304646,5,0.1480093151330948,0.3236262798309326,0.7018742561340332,0.6170347332954407,1.5430629253387451,2.0974600315093994,-1.582257628440857,5.655340671539307,9.943482398986816,-1.986189842224121,0.03150153160095215,-0.32832834124565125,0.0231403186917305,17.274789810180664,-17.281471252441406,29.675132751464844,1.9281225204467773,0.4561004638671875,-0.09162473678588867,3.7272181510925293,9.487381935119629,-1.8945651054382324
5_20251106_145901,1762412304667,5,0.1499532163143158,0.3276463449001312,0.7008318901062012,0.6156269907951355,1.5758428573608398,2.099565267562866,-1.5820589065551758,6.772187232971191,10.57432746887207,-2.2830581665039062,0.03822104260325432,-0.8353461027145386,0.34995296597480774,17.309616088867188,-17.32782745361328,29.526870727539062,2.4359750747680664,0.8695564270019531,-0.310794472694397,4.336212158203125,9.704771041870117,-1.9722636938095093
5_20251106_145901,1762412304687,5,0.15231461822986603,0.33432692289352417,0.69882732629776,0.613731324672699,1.619898796081543,2.106128215789795,-1.5820919275283813,7.725039005279541,11.036388397216797,-2.0412540435791016,0.022949427366256714,-1.0546464920043945,0.37011149525642395,17.478092193603516,-17.365989685058594,29.438068389892578,2.711061477661133,1.0652942657470703,-0.05519223213195801,5.013977527618408,9.971094131469727,-1.9860618114471436
5_20251106_145901,1762412304704,5,0.15592382848262787,0.3433663547039032,0.6959142684936523,0.6111387610435486,1.619898796081543,2.106128215789795,-1.5820919275283813,7.725039005279541,11.036388397216797,-2.0412540435791016,0.04066450521349907,-1.1670455932617188,0.23205605149269104,17.694286346435547,-17.437156677246094,29.20175552368164,2.711061477661133,1.0652942657470703,-0.05519223213195801,5.013977527618408,9.971094131469727,-1.9860618114471436
5_20251106_145901,1762412304723,5,0.16076822578907013,0.3530323803424835,0.6927352547645569,0.6079798936843872,1.7140798568725586,2.1241633892059326,-1.5814692974090576,8.704225540161133,11.025615692138672,-1.9538695812225342,0.09625318646430969,-1.262951374053955,-0.08437187224626541,17.947235107421875,-17.50568389892578,28.93988037109375,2.3992977142333984,0.6612949371337891,0.004897713661193848,6.304927825927734,10.364320755004883,-1.958767294883728
5_20251106_145901,1762412304742,5,0.1673036515712738,0.36183300614356995,0.6902022361755371,0.603909969329834,1.7685688734054565,2.134753942489624,-1.5816205739974976,8.041059494018555,10.637770652770996,-2.127441644668579,0.13046160340309143,-1.369241714477539,-0.47837960720062256,18.27259635925293,-17.581993103027344,28.680683135986328,1.3889055252075195,0.21875953674316406,-0.13493943214416504,6.652153968811035,10.419011116027832,-1.992502212524414
5_20251106_145901,1762412304761,5,0.1763761341571808,0.3689079284667969,0.6889055371284485,0.5985044240951538,1.7685688734054565,2.134753942489624,-1.5816205739974976,8.041059494018555,10.637770652770996,-2.127441644668579,0.08586849272251129,-1.4309391975402832,-0.8094682693481445,18.712242126464844,-17.586891174316406,28.278541564941406,1.3889055252075195,0.21875953674316406,-0.13493943214416504,6.652153968811035,10.419011116027832,-1.992502212524414
5_20251106_145901,1762412304780,5,0.1881435215473175,0.37394946813583374,0.6886992454528809,0.5919942259788513,1.8657995462417603,2.150984048843384,-1.5840487480163574,5.463812828063965,9.701678276062012,-2.2818610668182373,-0.032639265060424805,-1.4859169721603394,-1.0263252258300781,19.251689910888672,-17.54749298095703,27.854084014892578,-0.9779229164123535,-0.5280427932739258,-0.18423223495483398,6.441735744476318,10.229721069335938,-2.0976288318634033
5_20251106_145901,1762412304800,5,0.2020084261894226,0.37701085209846497,0.6888881921768188,0.5852251052856445,1.9053826332092285,2.1551856994628906,-1.584981918334961,4.053688049316406,9.240814208984375,-1.9047906398773193,-0.16825124621391296,-1.5323426723480225,-1.1515525579452515,20.038257598876953,-17.452781677246094,27.264514923095703,-1.910438060760498,-0.7911252975463867,0.15427064895629883,5.964126110076904,10.031939506530762,-2.059061288833618
5_20251106_145901,1762412304819,5,0.21776707470417023,0.37879452109336853,0.6887615919113159,0.578532338142395,1.9320223331451416,2.1557955741882324,-1.5841299295425415,2.6531405448913574,8.872122764587402,-1.4415323734283447,-0.28187209367752075,-1.5402839183807373,-1.218747615814209,20.97509002685547,-17.273475646972656,26.709449768066406,-2.6487884521484375,-0.9278535842895508,0.4940232038497925,5.301928997039795,9.799976348876953,-1.9355555772781372
5_20251106_145901,1762412304839,5,0.234627828001976,0.37938740849494934,0.6881784200668335,0.5722110271453857,1.9462376832962036,2.1522388458251953,-1.5801231861114502,1.19752836227417,8.547722816467285,-1.0070035457611084,-0.37533438205718994,-1.5158493518829346,-1.2401279211044312,21.928916931152344,-17.028831481933594,25.980480194091797,-3.2835206985473633,-1.0018024444580078,0.7428417205810547,4.481049060821533,9.549525260925293,-1.749845266342163
5_20251106_145901,1762412304857,5,0.25223657488822937,0.37921959161758423,0.6869906187057495,0.5662270784378052,1.9466091394424438,2.1464955806732178,-1.5739259719848633,-0.06894979625940323,8.393302917480469,-0.5581099987030029,-0.37533438205718994,-1.5158493518829346,-1.2401279211044312,23.020116806030273,-16.71294403076172,25.285259246826172,-3.6399991512298584,-0.9249782562255859,0.9533882141113281,3.571049451828003,9.318281173706055,-1.511498212814331
5_20251106_145901,1762412304878,5,0.2699955701828003,0.37820202112197876,0.6852520108222961,0.5607988834381104,1.9314348697662354,2.137082099914551,-1.563031554222107,-1.0792595148086548,8.408864974975586,-0.31032079458236694,-0.5384352803230286,-1.360689640045166,-1.1985890865325928,23.020116806030273,-16.71294403076172,25.285259246826172,-3.720247268676758,-0.7275333404541016,0.9609419703483582,2.6409878730773926,9.136398315429688,-1.271262764930725
5_20251106_145901,1762412304896,5,0.28748250007629395,0.3762378692626953,0.6830423474311829,0.5561043620109558,1.907951831817627,2.1280205249786377,-1.551552414894104,-1.877691388130188,8.569269180297852,-0.21216274797916412,-0.5194984674453735,-1.355191946029663,-1.1039050817489624,25.430660247802734,-15.749137878417969,23.450199127197266,-3.614943504333496,-0.4537029266357422,0.8472800254821777,1.737252116203308,9.022972106933594,-1.0594427585601807
5_20251106_145901,1762412304915,5,0.3044184446334839,0.37389642000198364,0.6804881691932678,0.5517851114273071,1.907951831817627,2.1280205249786377,-1.551552414894104,-1.877691388130188,8.569269180297852,-0.21216274797916412,-0.5194984674453735,-1.355191946029663,-1.1039050817489624,25.430660247802734,-15.749137878417969,23.450199127197266,-3.614943504333496,-0.4537029266357422,0.8472800254821777,1.737252116203308,9.022972106933594,-1.0594427585601807
5_20251106_145901,1762412304934,5,0.3208787143230438,0.37284618616104126,0.6774562001228333,0.5468781590461731,1.8283017873764038,2.107828140258789,-1.5200198888778687,-3.017282485961914,8.795512199401855,0.2678540349006653,-0.1920749694108963,-1.5946508646011353,-0.7361645102500916,26.64226531982422,-15.272315979003906,22.451684951782227,-3.1285152435302734,-0.12584686279296875,0.8837534785270691,0.11123281717300415,8.921359062194824,-0.6158994436264038
5_20251106_145901,1762412304952,5,0.33663076162338257,0.37412452697753906,0.6740659475326538,0.5406899452209473,1.7796968221664429,2.0988428592681885,-1.5023630857467651,-3.4996931552886963,8.937960624694824,0.3947412967681885,-0.0277523472905159,-1.6612350940704346,-0.547407329082489,27.920032501220703,-14.703208923339844,21.416921615600586,-2.8887407779693604,0.013280868530273438,0.8085125684738159,-0.6109523177146912,8.92467975616455,-0.41377130150794983
5_20251106_145901,1762412304973,5,0.3512348234653473,0.3775145709514618,0.6704126000404358,0.5335389375686646,1.714599847793579,2.0891692638397217,-1.4798669815063477,-3.960557222366333,9.009783744812012,0.45938193798065186,0.1115248054265976,-1.666732907295227,-0.4001889228820801,29.07430648803711,-14.190666198730469,20.21400260925293,-2.6796839237213135,0.0680837631225586,0.6985225677490234,-1.2808732986450195,8.941699981689453,-0.23914065957069397
5_20251106_145901,1762412304991,5,0.36460766196250916,0.3824652135372162,0.6666454672813416,0.5257047414779663,1.654354214668274,2.0815484523773193,-1.4599348306655884,-4.2203168869018555,9.045695304870605,0.4162881672382355,0.20071104168891907,-1.592818260192871,-0.30306142568588257,30.142078399658203,-13.696907043457031,19.074968338012695,-2.3515548706054688,0.08319664001464844,0.5243430733680725,-1.8687620162963867,8.962498664855957,-0.10805490612983704
5_20251106_145901,1762412305010,5,0.37687069177627563,0.3885602056980133,0.6628128290176392,0.5173670053482056,1.5869312286376953,2.0743415355682373,-1.4390932321548462,-4.4238152503967285,9.121109008789062,0.2032133936882019,0.22758910059928894,-1.4535411596298218,-0.32566341757774353,31.14639663696289,-13.256935119628906,17.891878128051758,-2.0440425872802734,0.12688827514648438,0.24901464581489563,-2.379772663116455,8.994220733642578,-0.04580124840140343
5_20251106_145901,1762412305030,5,0.3878253102302551,0.39435461163520813,0.6594071984291077,0.5091739892959595,1.5117186307907104,2.0671818256378174,-1.4177602529525757,-4.942137718200684,9.009783744812012,0.11582878232002258,0.19521325826644897,-1.316096544265747,-0.4863208532333374,32.0181770324707,-12.800468444824219,16.690404891967773,-2.0498921871185303,0.012450218200683594,0.12930402159690857,-2.8922455310821533,8.997333526611328,-0.013475243002176285
5_20251106_145901,1762412305048,5,0.39834287762641907,0.3987988829612732,0.6567242741584778,0.5009946823120117,1.4401947259902954,2.0604660511016846,-1.3988219499588013,-5.8231658935546875,8.756009101867676,0.270248144865036,0.1573396623134613,-1.1505522727966309,-0.6500325798988342,32.837677001953125,-12.421562194824219,15.390771865844727,-2.344736099243164,-0.19305992126464844,0.22697871923446655,-3.4784297943115234,8.949069023132324,0.043269433081150055
5_20251106_145901,1762412305067,5,0.40893077850341797,0.4011538326740265,0.6549786329269409,0.4928024113178253,1.4401947259902954,2.0604660511016846,-1.3988219499588013,-5.8231658935546875,8.756009101867676,0.270248144865036,0.1573396623134613,-1.1505522727966309,-0.6500325798988342,33.609657287597656,-12.009376525878906,14.211614608764648,-2.344736099243164,-0.19305992126464844,0.22697871923446655,-3.4784297943115234,8.949069023132324,0.043269433081150055
5_20251106_145901,1762412305087,5,0.4191531836986542,0.4018042981624603,0.6541970372200012,0.48465466499328613,1.2694021463394165,2.0430078506469727,-1.361311435699463,-7.297930717468262,8.286766052246094,-0.3234883248806,0.17016781866550446,-0.9373605251312256,-0.7441057562828064,34.29925537109375,-11.552391052246094,13.016563415527344,-2.5526938438415527,-0.46332836151123047,-0.30290889739990234,-4.745236873626709,8.750094413757324,-0.020579423755407333
5_20251106_145901,1762412305105,5,0.42820650339126587,0.4009336829185486,0.6546785235404968,0.47674673795700073,1.1848653554916382,2.0327744483947754,-1.3470735549926758,-7.831814765930176,7.920468330383301,-0.5353661179542542,0.15672878921031952,-0.545185387134552,-0.7929749488830566,34.84978485107422,-11.180564880371094,11.922664642333984,-2.46926212310791,-0.663701057434082,-0.4118293523788452,-5.362552642822266,8.584169387817383,-0.12353675812482834
5_20251106_145901,1762412305125,5,0.4361545145511627,0.39893272519111633,0.656051754951477,0.4692738950252533,1.1848653554916382,2.0327744483947754,-1.3470735549926758,-7.831814765930176,7.920468330383301,-0.5353661179542542,0.0596013106405735,-0.38880395889282227,-0.7282233238220215,35.343441009521484,-10.714408874511719,11.044685363769531,-2.46926212310791,-0.663701057434082,-0.4118293523788452,-5.362552642822266,8.584169387817383,-0.12353675812482834
5_20251106_145901,1762412305145,5,0.4431400001049042,0.39594030380249023,0.6577144861221313,0.46289291977882385,0.984221339225769,2.0027079582214355,-1.3194247484207153,-8.75354290008545,7.402146339416504,-0.021831892430782318,-0.04363482818007469,-0.2544136941432953,-0.6616389751434326,35.766998291015625,-10.202522277832031,10.137786865234375,-2.2405242919921875,-0.7857980728149414,0.1338496208190918,-6.513018608093262,8.187944412231445,-0.1556815207004547
5_20251106_145901,1762412305163,5,0.4493780732154846,0.39244145154953003,0.6591283082962036,0.45781978964805603,0.984221339225769,2.0027079582214355,-1.3194247484207153,-8.75354290008545,7.402146339416504,-0.021831892430782318,-0.1615317314863205,0.038801368325948715,-0.6439239382743835,36.15633773803711,-9.631858825683594,9.392932891845703,-2.2405242919921875,-0.7857980728149414,0.1338496208190918,-6.513018608093262,8.187944412231445,-0.1556815207004547
5_20251106_145901,1762412305181,5,0.4546637535095215,0.38778454065322876,0.66070157289505,0.4542878270149231,0.7934943437576294,1.9727332592010498,-1.2927323579788208,-9.99847412109375,7.8917388916015625,0.5778898000717163,-0.28798073530197144,0.5122215151786804,-0.6317066550254822,36.50279998779297,-9.153358459472656,8.833986282348633,-2.3367981910705566,-0.1539478302001953,0.5102810859680176,-7.661675930023193,8.045686721801758,0.06760869920253754
5_20251106_145901,1762412305202,5,0.4579998254776001,0.38073477149009705,0.6633591651916504,0.4530251622200012,0.6835474371910095,1.9559661149978638,-1.277351975440979,-10.336042404174805,7.677467346191406,0.33967703580856323,-0.3612844944000244,1.0827691555023193,-0.4502798318862915,36.7909049987793,-8.582542419433594,8.693704605102539,-2.139493942260742,-0.29457569122314453,0.21765467524528503,-8.196548461914062,7.972043037414551,0.1220223605632782
5_20251106_145901,1762412305219,5,0.4575933516025543,0.3705776631832123,0.667951226234436,0.4551062285900116,0.5851411819458008,1.940120816230774,-1.2657910585403442,-9.984109878540039,7.359052658081055,-0.5233955979347229,-0.34479111433029175,1.3973644971847534,0.02314031310379505,36.97942352294922,-8.044151306152344,8.643585205078125,-1.430048942565918,-0.49039220809936523,-0.5163343548774719,-8.554060935974121,7.84944486618042,-0.007061228156089783
5_20251106_145901,1762412305239,5,0.4528854787349701,0.36028534173965454,0.6732087135314941,0.4603034555912018,0.4798754155635834,1.9216715097427368,-1.2558634281158447,-9.012105941772461,7.282441139221191,-0.7556232213973999,-0.22933770716190338,1.2666394710540771,0.6608831286430359,37.127079010009766,-7.560386657714844,8.793682098388672,-0.3664360046386719,-0.45360279083251953,-0.5988495945930481,-8.645669937133789,7.736043930053711,-0.1567736268043518
5_20251106_145901,1762412305258,5,0.44476333260536194,0.3537293076515198,0.6770520210266113,0.4676128029823303,0.38707637786865234,1.9047058820724487,-1.247597575187683,-7.842588424682617,7.621206283569336,-0.4096758961677551,-0.055852122604846954,1.0015242099761963,1.2283763885498047,37.20165252685547,-7.271110534667969,9.153627395629883,0.6424646377563477,-0.09187030792236328,-0.2023218274116516,-8.485053062438965,7.713076591491699,-0.20735406875610352
5_20251106_145901,1762412305278,5,0.43475642800331116,0.35314929485321045,0.6782976388931274,0.4755887985229492,0.38707637786865234,1.9047058820724487,-1.247597575187683,-7.842588424682617,7.621206283569336,-0.4096758961677551,0.10175096988677979,0.9257768988609314,1.5765693187713623,36.96416091918945,-7.317512512207031,9.76552963256836,0.6424646377563477,-0.09187030792236328,-0.2023218274116516,-8.485053062438965,7.713076591491699,-0.20735406875610352
5_20251106_145901,1762412305297,5,0.4231349229812622,0.3572924733161926,0.6777244210243225,0.48372364044189453,0.2281457632780075,1.8785011768341064,-1.2305647134780884,-5.420957565307617,8.918807983398438,0.03802056610584259,0.15978312492370605,1.1285841464996338,1.7005748748779297,36.64994812011719,-7.632926940917969,10.504598617553711,2.1561880111694336,0.8745183944702148,0.17676715552806854,-7.577145576477051,8.044289588928223,-0.13874658942222595
5_20251106_145901,1762412305318,5,0.40935230255126953,0.36297547817230225,0.6769142746925354,0.4924089312553406,0.2281457632780075,1.8785011768341064,-1.2305647134780884,-5.420957565307617,8.918807983398438,0.03802056610584259,0.15978312492370605,1.1285841464996338,1.7005748748779297,36.64994812011719,-7.632926940917969,10.504598617553711,2.1561880111694336,0.8745183944702148,0.17676715552806854,-7.577145576477051,8.044289588928223,-0.13874658942222595
5_20251106_145901,1762412305336,5,0.39321234822273254,0.3675265908241272,0.6767979264259338,0.5022477507591248,0.12160318344831467,1.8676124811172485,-1.2119231224060059,-3.142972469329834,9.307848930358887,0.20560748875141144,0.14634409546852112,1.7137925624847412,1.5521347522735596,36.26918029785156,-8.041160583496094,11.333982467651367,3.006223678588867,0.8232336044311523,0.2257494032382965,-6.149196147918701,8.484615325927734,-0.02014191448688507
5_20251106_145901,1762412305356,5,0.3753299415111542,0.37005385756492615,0.6776578426361084,0.5128035545349121,0.088315948843956,1.8669219017028809,-1.2019230127334595,-2.2583529949188232,9.47902774810791,0.2427160143852234,0.15672878921031952,1.9141560792922974,1.4238531589508057,35.75841522216797,-8.584403991699219,12.304500579833984,3.1126744747161865,0.7955293655395508,0.21028634905815125,-5.37102746963501,8.68349838256836,0.032429665327072144
5_20251106_145901,1762412305373,5,0.35643234848976135,0.3708467185497284,0.6793113946914673,0.5234163999557495,0.088315948843956,1.8669219017028809,-1.2019230127334595,-2.2583529949188232,9.47902774810791,0.2427160143852234,0.19643500447273254,2.0363290309906006,1.3181735277175903,34.92278289794922,-9.488151550292969,13.417827606201172,3.1126744747161865,0.7955293655395508,0.21028634905815125,-5.37102746963501,8.68349838256836,0.032429665327072144
5_20251106_145901,1762412305392,5,0.33667969703674316,0.3699246048927307,0.6816829442977905,0.533957839012146,0.06972482800483704,1.8688002824783325,-1.193353295326233,-1.3629601001739502,9.686116218566895,0.04041466861963272,0.30333632230758667,2.0088400840759277,1.2454806566238403,33.983428955078125,-10.499519348144531,14.606216430664062,3.206454038619995,0.8020944595336914,0.006388004869222641,-4.569414138793945,8.884021759033203,0.03402666375041008
5_20251106_145901,1762412305411,5,0.3163858652114868,0.3681259751319885,0.6845950484275818,0.5437949299812317,0.06278882175683975,1.873701810836792,-1.1853433847427368,-0.39574429392814636,9.84412670135498,-0.30672967433929443,0.4456678032875061,1.9025496244430542,1.2021092176437378,32.92938232421875,-11.594459533691406,15.896738052368164,3.3389358520507812,0.7680845260620117,-0.2726050615310669,-3.73468017578125,9.076042175292969,-0.034124597907066345
5_20251106_145901,1762412305430,5,0.2962493300437927,0.36682453751564026,0.6877326965332031,0.5519962310791016,0.08450781553983688,1.886726975440979,-1.1783816814422607,1.9851869344711304,9.78786563873291,-1.3469655513763428,0.5122520327568054,1.7974809408187866,1.1672899723052979,31.832019805908203,-12.604011535644531,17.119564056396484,3.8602869510650635,0.4563331604003906,-0.9285125732421875,-1.875100016593933,9.33153247833252,-0.4184529483318329
5_20251106_145901,1762412305449,5,0.27633342146873474,0.3661043345928192,0.6910032033920288,0.5586788654327393,0.11589208990335464,1.8945562839508057,-1.1803195476531982,3.4850897789001465,9.607110977172852,-1.829376459121704,0.5122520327568054,1.7974809408187866,1.1672899723052979,30.605670928955078,-13.511024475097656,18.51508140563965,4.288151741027832,0.22046279907226562,-1.1287388801574707,-0.8030620813369751,9.386648178100586,-0.7006376385688782
5_20251106_145901,1762412305469,5,0.2569792866706848,0.3659733831882477,0.6936964988708496,0.5646328926086426,0.16504308581352234,1.902233362197876,-1.1864166259765625,5.041254043579102,9.336578369140625,-2.068786144256592,0.35098379850387573,1.5378634929656982,1.0683298110961914,29.30267333984375,-14.272651672363281,19.88330078125,4.675453186035156,-0.04005622863769531,-1.0945188999176025,0.36580103635787964,9.37663459777832,-0.974267303943634
5_20251106_145901,1762412305488,5,0.23861181735992432,0.3660515248775482,0.6955111026763916,0.5703814625740051,0.2259800136089325,1.9089107513427734,-1.194573998451233,6.4082841873168945,9.285104751586914,-1.941899061203003,0.17444387078285217,1.514650583267212,0.8783509731292725,27.937137603759766,-15.063636779785156,21.27557373046875,4.833986759185791,-0.07322406768798828,-0.774105429649353,1.574297547340393,9.358328819274902,-1.16779363155365
5_20251106_145901,1762412305507,5,0.2218865603208542,0.36557701230049133,0.6964611411094666,0.5762479305267334,0.2999439239501953,1.9145969152450562,-1.203678846359253,7.432958602905273,9.118715286254883,-1.6617894172668457,0.010732131078839302,1.5335873365402222,0.6120139360427856,26.615493774414062,-15.737876892089844,22.536529541015625,4.686928749084473,-0.19169139862060547,-0.39519667625427246,2.7460296154022217,9.310406684875488,-1.2665927410125732
5_20251106_145901,1762412305525,5,0.2067524790763855,0.3632420599460602,0.6968640089035034,0.5828285813331604,0.2999439239501953,1.9145969152450562,-1.203678846359253,7.432958602905273,9.118715286254883,-1.6617894172668457,-0.014924188144505024,1.4670031070709229,0.2943642735481262,25.312973022460938,-16.29749298095703,23.719253540039062,4.686928749084473,-0.19169139862060547,-0.39519667625427246,2.7460296154022217,9.310406684875488,-1.2665927410125732
5_20251106_145901,1762412305546,5,0.19355522096157074,0.3589182496070862,0.6973543167114258,0.5894158482551575,0.3897063136100769,1.9185395240783691,-1.213570237159729,7.942901611328125,8.736856460571289,-1.525325894355774,0.08892281353473663,1.285576343536377,-0.0129006989300251,24.103593826293945,-16.72490692138672,24.799922943115234,4.157497406005859,-0.45884037017822266,-0.20698654651641846,3.7854042053222656,9.195696830749512,-1.3183393478393555
5_20251106_145901,1762412305565,5,0.18263138830661774,0.3531731069087982,0.6988413333892822,0.5945883989334106,0.5773049592971802,1.9168331623077393,-1.236387014389038,7.10496711730957,7.762457847595215,-2.4674036502838135,0.16467002034187317,1.0552802085876465,-0.19371666014194489,22.910615921020508,-17.087791442871094,25.787784576416016,2.017073154449463,-0.98583984375,-0.8365278244018555,5.087893962860107,8.748297691345215,-1.630875825881958
5_20251106_145901,1762412305583,5,0.17424780130386353,0.34717896580696106,0.7013075947761536,0.5977224111557007,0.6652963757514954,1.911495566368103,-1.251038908958435,6.228727340698242,7.508683681488037,-2.9988937377929688,0.1573396623134613,0.811545193195343,-0.2132643312215805,21.798383712768555,-17.331138610839844,26.605255126953125,0.9126663208007812,-0.9916911125183105,-1.094414234161377,5.316061019897461,8.500374794006348,-1.9044795036315918
5_20251106_145901,1762412305602,5,0.16787925362586975,0.3419049382209778,0.7039080858230591,0.5995256304740906,0.7537667751312256,1.9024666547775269,-1.2694270610809326,5.4015655517578125,7.160342216491699,-3.2514710426330566,0.121909499168396,0.5934664607048035,-0.18211022019386292,20.946657180786133,-17.505165100097656,27.19078826904297,0.06840324401855469,-1.072026252746582,-1.0775933265686035,5.333162307739258,8.232368469238281,-2.173877716064453
5_20251106_145901,1762412305621,5,0.16323143243789673,0.3380410075187683,0.7060048580169678,0.6005339026451111,0.7537667751312256,1.9024666547775269,-1.2694270610809326,5.4015655517578125,7.160342216491699,-3.2514710426330566,0.121909499168396,0.5934664607048035,-0.18211022019386292,20.24568748474121,-17.593910217285156,27.743240356445312,0.06840324401855469,-1.072026252746582,-1.0775933265686035,5.333162307739258,8.232368469238281,-2.173877716064453
5_20251106_145901,1762412305640,5,0.1598336547613144,0.33523958921432495,0.7075535655021667,0.6011951565742493,0.8403235673904419,1.8890360593795776,-1.2913967370986938,4.703685760498047,6.784468650817871,-3.352023124694824,-0.03080667182803154,0.3741660714149475,-0.17844504117965698,19.635955810546875,-17.57622528076172,28.26068878173828,-0.5035815238952637,-1.1583199501037598,-0.9425163269042969,5.2072672843933105,7.942788600921631,-2.4095067977905273
5_20251106_145901,1762412305659,5,0.15739361941814423,0.33286336064338684,0.7085584402084351,0.6019752025604248,0.9786509275436401,1.8518831729888916,-1.3355584144592285,3.2337093353271484,5.570660591125488,-3.148524761199951,-0.1865771859884262,0.3320164382457733,-0.3006179630756378,19.052698135375977,-17.530906677246094,28.68503189086914,-1.401360034942627,-1.616990089416504,-0.43294215202331543,4.635069370269775,7.187650680541992,-2.7155826091766357
5_20251106_145901,1762412305679,5,0.15638867020606995,0.3301887512207031,0.7090665102005005,0.6031108498573303,1.0383051633834839,1.8238756656646729,-1.3587677478790283,2.295222759246826,4.994879722595215,-2.8432774543762207,-0.42786872386932373,0.3833290636539459,-0.4417276978492737,18.709407806396484,-17.34302520751953,28.932106018066406,-1.8718771934509277,-1.7542166709899902,-0.10215592384338379,4.167099952697754,6.749096393585205,-2.741121530532837
5_20251106_145901,1762412305698,5,0.15679383277893066,0.32596707344055176,0.7090063095092773,0.6053686738014221,1.0846526622772217,1.7922687530517578,-1.3788187503814697,1.4369382858276367,4.441843032836914,-2.414733409881592,-0.7064231038093567,0.46335235238075256,-0.4765470027923584,18.408926010131836,-17.252830505371094,29.21957778930664,-2.184129238128662,-1.8458027839660645,0.2611105442047119,3.621067523956299,6.2876458168029785,-2.6758439540863037
5_20251106_145901,1762412305717,5,0.15819300711154938,0.3199932873249054,0.7078707814216614,0.6095064878463745,1.1206213235855103,1.7557427883148193,-1.3959980010986328,0.6827971935272217,3.9187326431274414,-1.9945693016052246,-0.7064231038093567,0.46335235238075256,-0.4765470027923584,18.408926010131836,-17.252830505371094,29.21957778930664,-2.350616455078125,-1.8951301574707031,0.5450198650360107,3.0334136486053467,5.8138628005981445,-2.5395891666412354
5_20251106_145901,1762412305736,5,0.1597142070531845,0.3133837878704071,0.7051523923873901,0.6156638860702515,1.1472158432006836,1.7149864435195923,-1.4099395275115967,0.2722092866897583,3.6063027381896973,-1.672563076019287,-1.0069684982299805,0.4095962345600128,0.004203511402010918,18.24407196044922,-17.15174102783203,29.296184539794922,-2.208963394165039,-1.7660479545593262,0.6936206817626953,2.481172800064087,5.372350692749023,-2.3661837577819824
5_20251106_145901,1762412305756,5,0.1604405790567398,0.30806925892829895,0.7007404565811157,0.6231492161750793,1.1677465438842773,1.668843150138855,-1.4203933477401733,0.48648110032081604,3.6003174781799316,-1.218881368637085,-0.9635971188545227,0.2098434865474701,0.41165030002593994,18.094539642333984,-17.20055389404297,29.451702117919922,-1.5957533121109009,-1.4176268577575684,0.917841911315918,2.0822343826293945,5.0179443359375,-2.136723279953003
5_20251106_145901,1762412305775,5,0.1599498838186264,0.30608415603637695,0.6948443651199341,0.6308088302612305,1.1677465438842773,1.668843150138855,-1.4203933477401733,0.48648110032081604,3.6003174781799316,-1.218881368637085,-0.8524197340011597,-0.044887103140354156,0.7018110752105713,17.946290969848633,-17.24762725830078,29.431507110595703,-1.5957533121109009,-1.4176268577575684,0.917841911315918,2.0822343826293945,5.0179443359375,-2.136723279953003
5_20251106_145901,1762412305794,5,0.15844833850860596,0.3079538941383362,0.6879289746284485,0.6378183960914612,1.1842591762542725,1.6214288473129272,-1.4266935586929321,1.0981733798980713,3.8409242630004883,-0.942362904548645,-0.6856536865234375,-0.6068826913833618,0.7390737533569336,17.823013305664062,-17.50524139404297,29.354232788085938,-0.7872488498687744,-0.9416160583496094,0.9554883241653442,1.8854222297668457,4.782540321350098,-1.8978512287139893
5_20251106_145901,1762412305813,5,0.15805430710315704,0.313510537147522,0.6805729269981384,0.6430789232254028,1.214208722114563,1.5408309698104858,-1.4194080829620361,2.4041543006896973,5.647272109985352,1.4038538932800293,-0.38022127747535706,-0.8738306164741516,0.6388919353485107,17.684816360473633,-17.825355529785156,29.16701889038086,0.4005553722381592,0.7259950637817383,2.2979159355163574,2.003598928451538,4.921277046203613,-0.8940619230270386
5_20251106_145901,1762412305831,5,0.16065362095832825,0.3223891258239746,0.6737398505210876,0.645236611366272,1.2287734746932983,1.5090978145599365,-1.4096943140029907,2.204246997833252,6.292480945587158,0.2953861951828003,-0.0534086637198925,-0.6575844883918762,0.5655882358551025,17.567651748657227,-18.21800994873047,28.857555389404297,0.16051840782165527,1.0969629287719727,0.9515584707260132,2.0437285900115967,5.1955180168151855,-0.6561722755432129
5_20251106_145901,1762412305851,5,0.1626141369342804,0.3307799994945526,0.6691768765449524,0.6452468633651733,1.2437255382537842,1.4804903268814087,-1.4023888111114502,1.9049845933914185,6.803621292114258,-1.625878095626831,-0.15481221675872803,-0.3301609456539154,0.7238022089004517,17.466697692871094,-18.759361267089844,28.505355834960938,-0.11099517345428467,1.286482810974121,-0.7757647037506104,2.015979766845703,5.517138481140137,-0.8501133918762207
5_20251106_145901,1762412305870,5,0.16189375519752502,0.3376012444496155,0.6659329533576965,0.6452512145042419,1.2580385208129883,1.4623299837112427,-1.4006564617156982,2.314375638961792,8.30831241607666,-2.6218228340148926,-0.7504053711891174,-0.08276071399450302,0.9614285230636597,17.393428802490234,-19.24822235107422,28.08761215209961,0.23871684074401855,2.232938766479492,-1.4173675775527954,2.0756587982177734,6.075373649597168,-1.2044552564620972
5_20251106_145901,1762412305890,5,0.15910789370536804,0.3436609208583832,0.6602942943572998,0.6485316157341003,1.2738474607467651,1.4559890031814575,-1.4015430212020874,2.881777048110962,10.052413940429688,-2.127441644668579,-0.7504053711891174,-0.08276071399450302,0.9614285230636597,17.253801345825195,-19.829627990722656,27.733150482177734,0.6448945999145508,3.1816320419311523,-0.7383891344070435,2.236882448196411,6.870781898498535,-1.3890525102615356
5_20251106_145901,1762412305908,5,0.15654100477695465,0.3485880494117737,0.6499837040901184,0.656888484954834,1.292372703552246,1.464513897895813,-1.3981512784957886,3.5150160789489746,12.173585891723633,0.15413439273834229,-2.1865479946136475,0.06995546817779541,0.9767001867294312,17.062089920043945,-20.48833465576172,27.253498077392578,1.0225069522857666,4.242243766784668,1.2345495223999023,2.492509126663208,7.931342124938965,-1.08041512966156
5_20251106_145901,1762412305929,5,0.15632988512516022,0.3521042764186859,0.634899377822876,0.669691264629364,1.292372703552246,1.464513897895813,-1.3981512784957886,3.5150160789489746,12.173585891723633,0.15413439273834229,-2.1865479946136475,0.06995546817779541,0.9767001867294312,16.797143936157227,-21.38811492919922,26.617698669433594,1.0225069522857666,4.242243766784668,1.2345495223999023,2.492509126663208,7.931342124938965,-1.08041512966156
5_20251106_145901,1762412305947,5,0.1573864072561264,0.35322147607803345,0.6167078614234924,0.6856642961502075,1.3190479278564453,1.4973820447921753,-1.3805311918258667,4.204516410827637,14.317500114440918,2.6954703330993652,-2.250077962875366,0.4657957851886749,0.8588032722473145,16.436908721923828,-22.26805877685547,25.870372772216797,1.3696057796478271,5.108926773071289,3.0207085609436035,2.8349106311798096,9.208573341369629,-0.32523810863494873
5_20251106_145901,1762412305967,5,0.15733057260513306,0.35175541043281555,0.598427951335907,0.7024238109588623,1.3782227039337158,1.5972747802734375,-1.3219013214111328,6.2694268226623535,17.60818862915039,4.9543023109436035,-1.83163583278656,0.39188113808631897,0.8710205554962158,16.04796028137207,-23.23668670654297,25.039119720458984,2.3656773567199707,5.628379821777344,3.521019697189331,3.903749465942383,11.979808807373047,1.4332826137542725
5_20251106_145901,1762412305985,5,0.1558370292186737,0.35000142455101013,0.5820421576499939,0.7172452211380005,1.4189298152923584,1.673057198524475,-1.2779167890548706,6.839221954345703,18.567026138305664,4.993804931640625,-1.282468557357788,0.22694769501686096,0.8685771226882935,15.594755172729492,-24.27179718017578,24.17706298828125,2.3483781814575195,5.269774436950684,2.8484177589416504,4.490843772888184,13.29725170135498,2.1453871726989746
5_20251106_145901,1762412306005,5,0.15325100719928741,0.34991270303726196,0.5683939456939697,0.7286998629570007,1.4674710035324097,1.765154480934143,-1.2278386354446411,7.067858695983887,18.663986206054688,4.149885177612305,-0.7406315207481384,0.12310069799423218,0.7854995131492615,15.029550552368164,-25.363609313964844,23.241954803466797,2.061612129211426,4.293388366699219,1.6035983562469482,5.006246566772461,14.370597839355469,2.5462868213653564
5_20251106_145901,1762412306025,5,0.14987881481647491,0.35146471858024597,0.5585655570030212,0.7362155914306641,1.5206129550933838,1.8639447689056396,-1.177954912185669,7.318041801452637,18.08700942993164,3.3059654235839844,-0.7406315207481384,0.12310069799423218,0.7854995131492615,14.427886962890625,-26.457664489746094,22.291858673095703,1.8494362831115723,2.9731292724609375,0.6077427864074707,5.4686055183410645,15.113880157470703,2.6982226371765137
5_20251106_145901,1762412306042,5,0.14603140950202942,0.35332757234573364,0.5520791411399841,0.7409744262695312,1.5651953220367432,1.9431074857711792,-1.1387606859207153,7.624486923217773,17.211965560913086,3.357438564300537,-0.37533438205718994,0.172580748796463,0.43058711290359497,13.817956924438477,-27.48920440673828,21.28852653503418,1.7247047424316406,1.6784687042236328,0.5273728370666504,5.899782180786133,15.533496856689453,2.8300657272338867
5_20251106_145901,1762412306062,5,0.14263761043548584,0.3543733060359955,0.5474374890327454,0.7445712089538574,1.6207176446914673,2.034318208694458,-1.0920535326004028,7.805241107940674,16.227991104125977,3.738100528717041,-0.22506165504455566,0.13959404826164246,0.10316359251737595,13.228277206420898,-28.36980438232422,20.342918395996094,1.524367332458496,0.5555953979492188,0.7264277935028076,6.280873775482178,15.672395706176758,3.0116727352142334
5_20251106_145901,1762412306079,5,0.14090538024902344,0.3542416989803314,0.5443580746650696,0.7472167015075684,1.6760663986206055,2.119011640548706,-1.0457412004470825,7.2294602394104,14.95911979675293,3.718947649002075,0.06021216884255409,0.011923316866159439,-0.24319669604301453,12.771465301513672,-29.018714904785156,19.636741638183594,0.7588691711425781,-0.5706214904785156,0.5658199787139893,6.470591068267822,15.529741287231445,3.153127670288086
5_20251106_145901,1762412306098,5,0.14134575426578522,0.3532816767692566,0.5438602566719055,0.7479501962661743,1.7277575731277466,2.1945087909698486,-1.0014433860778809,6.146130561828613,13.721370697021484,3.262871503829956,0.3265491724014282,-0.04733055830001831,-0.44844722747802734,12.409961700439453,-29.45128631591797,19.208810806274414,-0.2595686912536621,-1.4466962814331055,0.08779501914978027,6.405699253082275,15.16806697845459,3.175076484680176
5_20251106_145901,1762412306118,5,0.14347057044506073,0.35209378600120544,0.5461276173591614,0.7464521527290344,1.7760504484176636,2.262078285217285,-0.9590548276901245,5.287846565246582,12.560232162475586,2.5470361709594727,0.5238584876060486,-0.06382390856742859,-0.4753252863883972,12.076465606689453,-29.80774688720703,18.86454200744629,-0.894282341003418,-2.0862674713134766,-0.5024323463439941,6.18212890625,14.646499633789062,3.049468517303467
5_20251106_145901,1762412306137,5,0.14565695822238922,0.3506163954734802,0.5504270792007446,0.7435604929924011,1.8158445358276367,2.3153979778289795,-0.9237507581710815,4.800647258758545,11.853972434997559,1.973649501800537,0.6533617377281189,-0.13224075734615326,-0.3934693932533264,11.97462272644043,-29.912803649902344,18.68279457092285,-1.1051850318908691,-2.2340221405029297,-0.8606553077697754,5.905832290649414,14.087994575500488,2.8343048095703125
5_20251106_145901,1762412306156,5,0.14721523225307465,0.3498068153858185,0.5557944774627686,0.7396319508552551,1.8499302864074707,2.358654737472534,-0.8926290273666382,4.550463676452637,11.391912460327148,1.9532995223999023,0.7236112356185913,-0.2171509563922882,-0.3409350514411926,11.97462272644043,-29.912803649902344,18.68279457092285,-1.0842952728271484,-2.1568660736083984,-0.7048041820526123,5.634758949279785,13.548778533935547,2.6581037044525146
5_20251106_145901,1762412306176,5,0.1484030783176422,0.35020020604133606,0.5614423751831055,0.734927773475647,1.8499302864074707,2.358654737472534,-0.8926290273666382,4.550463676452637,11.391912460327148,1.9532995223999023,0.7840868830680847,-0.25074851512908936,-0.33543723821640015,12.040782928466797,-29.820533752441406,18.64654541015625,-1.0842952728271484,-2.1568660736083984,-0.7048041820526123,5.634758949279785,13.548778533935547,2.6581037044525146
5_20251106_145901,1762412306195,5,0.14964556694030762,0.3512730002403259,0.5672997236251831,0.7296468615531921,1.9052989482879639,2.4173312187194824,-0.8387877941131592,4.293098449707031,9.988969802856445,1.8096537590026855,0.8573905825614929,-0.2996177077293396,-0.32871773838996887,12.13345718383789,-29.66576385498047,18.80182456970215,-0.8927550315856934,-2.4163694381713867,-0.5801644325256348,5.185853481292725,12.405339241027832,2.3898181915283203
5_20251106_145901,1762412306215,5,0.15086223185062408,0.3526475429534912,0.5734454393386841,0.7239065170288086,1.9268780946731567,2.4315829277038574,-0.8173959255218506,4.18656063079834,9.36770248413086,1.3847010135650635,0.8995402455329895,-0.3759758174419403,-0.2664095461368561,12.325660705566406,-29.443885803222656,19.16509246826172,-0.7994346618652344,-2.4301090240478516,-0.8040938377380371,4.985995292663574,11.797811508178711,2.1887948513031006
5_20251106_145901,1762412306233,5,0.1517954021692276,0.35460177063941956,0.5798275470733643,0.7176460027694702,1.9268780946731567,2.4315829277038574,-0.8173959255218506,4.18656063079834,9.36770248413086,1.3847010135650635,0.8946533799171448,-0.43156448006629944,-0.19005146622657776,12.606986999511719,-29.15325164794922,19.492563247680664,-0.7994346618652344,-2.4301090240478516,-0.8040938377380371,4.985995292663574,11.797811508178711,2.1887948513031006
5_20251106_145901,1762412306253,5,0.1525186151266098,0.35755491256713867,0.5858701467514038,0.7110897898674011,1.9608747959136963,2.4369242191314697,-0.785995602607727,4.597148895263672,9.008586883544922,1.3715335130691528,0.9154227375984192,-0.4278993010520935,-0.18944060802459717,12.956911087036133,-28.70903778076172,19.93378448486328,-0.2140035629272461,-1.8285808563232422,-0.520365834236145,4.811152458190918,10.837167739868164,1.8918993473052979
5_20251106_145901,1762412306272,5,0.15308421850204468,0.36096954345703125,0.5916345715522766,0.7044393420219421,1.975304365158081,2.4306459426879883,-0.7757387757301331,4.7551589012146,8.511812210083008,0.8005410432815552,0.9154227375984192,-0.4278993010520935,-0.18944060802459717,13.289714813232422,-28.35352325439453,20.37266731262207,-0.04479503631591797,-1.8602838516235352,-0.87308669090271,4.799953937530518,10.372096061706543,1.6736277341842651
5_20251106_145901,1762412306290,5,0.15350796282291412,0.36412835121154785,0.5976046919822693,0.6976493000984192,1.9907152652740479,2.418159246444702,-0.7694844007492065,5.143003463745117,8.11558723449707,0.20441044867038727,0.8983185291290283,-0.5036465525627136,-0.13873884081840515,13.690906524658203,-27.85631561279297,20.857454299926758,0.27443981170654297,-1.8052072525024414,-1.175373911857605,4.868563652038574,9.920794486999512,1.379784345626831
5_20251106_145901,1762412306309,5,0.15382596850395203,0.36756080389022827,0.6033177375793457,0.6908287405967712,2.0072743892669678,2.400224208831787,-0.7678611278533936,5.56795597076416,7.707393646240234,-0.19420701265335083,0.8647210001945496,-0.7143948674201965,-0.05749382823705673,14.003976821899414,-27.414894104003906,21.337753295898438,0.559514045715332,-1.7707204818725586,-1.2591931819915771,5.008441925048828,9.478114128112793,1.0649861097335815
5_20251106_145901,1762412306328,5,0.15465787053108215,0.3726018965244293,0.6081790924072266,0.6836423873901367,2.0250728130340576,2.377309560775757,-0.770614504814148,5.76187801361084,7.336308479309082,-0.5006516575813293,0.8653318285942078,-0.968514621257782,0.0029817838221788406,14.33116340637207,-26.923667907714844,21.94124412536621,0.6027488708496094,-1.713444709777832,-1.2525103092193604,5.1591291427612305,9.049753189086914,0.7518585920333862
5_20251106_145901,1762412306347,5,0.1564384549856186,0.37977394461631775,0.6121965646743774,0.6756582856178284,2.044327974319458,2.350527763366699,-0.7773300409317017,6.014455318450928,7.222588539123535,-0.7424556612968445,0.8415080904960632,-1.1181764602661133,-0.011678969487547874,14.680889129638672,-26.47972869873047,22.409496307373047,0.6842608451843262,-1.4617319107055664,-1.1954513788223267,5.330194473266602,8.684320449829102,0.4529957175254822
5_20251106_145901,1762412306367,5,0.15911827981472015,0.3885362446308136,0.6156708598136902,0.6668360829353333,2.044327974319458,2.350527763366699,-0.7773300409317017,6.014455318450928,7.222588539123535,-0.7424556612968445,0.7859194278717041,-1.1975888013839722,-0.15889737010002136,14.994834899902344,-26.04871368408203,22.67327117919922,0.6842608451843262,-1.4617319107055664,-1.1954513788223267,5.330194473266602,8.684320449829102,0.4529957175254822
5_20251106_145901,1762412306386,5,0.1629839688539505,0.3973071873188019,0.6188986897468567,0.6576835513114929,2.0842254161834717,2.2834784984588623,-0.8049913644790649,5.323757648468018,6.395427227020264,-1.8557114601135254,0.6930679678916931,-1.2501232624053955,-0.3232199549674988,15.369020462036133,-25.614662170410156,23.03411102294922,-0.0908818244934082,-1.5365233421325684,-1.5834875106811523,5.414639472961426,7.931950569152832,-0.27222391963005066
5_20251106_145901,1762412306406,5,0.1685095727443695,0.40536069869995117,0.6221253275871277,0.6482648253440857,2.0842254161834717,2.2834784984588623,-0.8049913644790649,5.323757648468018,6.395427227020264,-1.8557114601135254,0.5128629207611084,-1.313042163848877,-0.4191257357597351,15.812883377075195,-25.25011444091797,23.288179397583008,-0.0908818244934082,-1.5365233421325684,-1.5834875106811523,5.414639472961426,7.931950569152832,-0.27222391963005066
5_20251106_145901,1762412306424,5,0.17564842104911804,0.4126601815223694,0.624946653842926,0.6389842629432678,2.1124582290649414,2.2052934169769287,-0.8506953120231628,4.163816928863525,6.006386756896973,-2.377624988555908,0.25874319672584534,-1.4242196083068848,-0.455166757106781,16.322484970092773,-24.817054748535156,23.37030792236328,-0.890352725982666,-1.249598503112793,-1.3472652435302734,5.054169654846191,7.255985260009766,-1.0303597450256348
5_20251106_145901,1762412306443,5,0.18462640047073364,0.4197182059288025,0.6264229416847229,0.6303523182868958,2.119868755340576,2.163510799407959,-0.8770177960395813,3.540153980255127,5.930972099304199,-2.12624454498291,0.029058072715997696,-1.5244014263153076,-0.4704383611679077,16.87619400024414,-24.46831512451172,23.412002563476562,-1.2112126350402832,-1.0600104331970215,-0.8767077922821045,4.75136661529541,6.990982532501221,-1.2495367527008057
5_20251106_145901,1762412306462,5,0.19540101289749146,0.42672041058540344,0.626229465007782,0.6225470304489136,2.1222951412200928,2.120675802230835,-0.9031651020050049,3.069713830947876,5.845981597900391,-1.6653807163238525,-0.15297961235046387,-1.5915966033935547,-0.4661623239517212,17.527069091796875,-24.13684844970703,23.308414459228516,-1.3453223705291748,-0.9160008430480957,-0.3326752185821533,4.415036201477051,6.761982440948486,-1.3327054977416992
5_20251106_145901,1762412306480,5,0.20751269161701202,0.4335657060146332,0.6246227025985718,0.6154719591140747,2.1205410957336426,2.079848051071167,-0.9260901808738708,2.815939426422119,5.837602615356445,-1.0860087871551514,-0.2940893769264221,-1.667954683303833,-0.4447820484638214,18.250019073486328,-23.848411560058594,22.96341896057129,-1.2792773246765137,-0.7395038604736328,0.19735729694366455,4.095216751098633,6.577106475830078,-1.283366084098816
5_20251106_145901,1762412306500,5,0.2206236571073532,0.44028016924858093,0.6217266321182251,0.6090439558029175,2.1139345169067383,2.034926176071167,-0.9488664865493774,2.5310416221618652,5.9764604568481445,-0.8154756426811218,-0.2940893769264221,-1.667954683303833,-0.4447820484638214,19.022083282470703,-23.579490661621094,22.376564025878906,-1.2513399124145508,-0.4805169105529785,0.3743123412132263,3.782381534576416,6.456977367401123,-1.1897879838943481
5_20251106_145901,1762412306518,5,0.23443345725536346,0.4472173750400543,0.617771327495575,0.6028234362602234,2.104022741317749,1.99514901638031,-0.9678488969802856,2.0510246753692627,5.901046276092529,-0.9902448058128357,-0.28736984729766846,-1.914133071899414,-0.35987183451652527,19.865755081176758,-23.33106231689453,21.805641174316406,-1.3850855827331543,-0.4447450637817383,0.159634530544281,3.436110258102417,6.345791339874268,-1.1498793363571167
5_20251106_145901,1762412306537,5,0.24862869083881378,0.45492056012153625,0.6131828427314758,0.596018373966217,2.0882601737976074,1.9534401893615723,-0.9868500232696533,1.313642144203186,5.681985855102539,-1.137481927871704,-0.2488853931427002,-2.0271430015563965,-0.31894391775131226,20.743139266967773,-23.153709411621094,21.045377731323242,-1.6979745626449585,-0.5310440063476562,0.009917855262756348,3.0116167068481445,6.213029861450195,-1.1473997831344604
5_20251106_145901,1762412306557,5,0.26309558749198914,0.4635743498802185,0.6082757711410522,0.5881157517433167,2.065629005432129,1.9107320308685303,-1.0063886642456055,0.7522261142730713,5.884287357330322,-1.3242216110229492,-0.31913480162620544,-2.0155367851257324,-0.24258583784103394,21.644052505493164,-23.02228546142578,20.014713287353516,-1.8075125217437744,-0.26299428939819336,-0.14145755767822266,2.5597386360168457,6.147281646728516,-1.1827640533447266
5_20251106_145901,1762412306577,5,0.27754276990890503,0.4725952446460724,0.6027993559837341,0.5798764824867249,2.037692070007324,1.8705679178237915,-1.0258643627166748,0.4421902894973755,6.281707763671875,-1.483429193496704,-0.4993399381637573,-1.9239070415496826,-0.16989293694496155,22.520679473876953,-22.90393829345703,18.874675750732422,-1.69403874874115,0.10754108428955078,-0.24053215980529785,2.1362290382385254,6.174166679382324,-1.2428970336914062
5_20251106_145901,1762412306596,5,0.29174861311912537,0.4811696410179138,0.5962311029434204,0.5725967288017273,2.007607936859131,1.8353767395019531,-1.0428072214126587,0.3607909381389618,6.559422969818115,-1.011791706085205,-0.7284142374992371,-1.860987901687622,-0.1613408327102661,22.520679473876953,-22.90393829345703,18.874675750732422,-1.4203505516052246,0.30820512771606445,0.18488430976867676,1.7811415195465088,6.251217842102051,-1.1966760158538818
5_20251106_145901,1762412306614,5,0.3062823414802551,0.48887720704078674,0.5882715582847595,0.5666804909706116,2.007607936859131,1.8353767395019531,-1.0428072214126587,0.3607909381389618,6.559422969818115,-1.011791706085205,-0.9354973435401917,-1.7840189933776855,-0.23708805441856384,23.370807647705078,-22.836463928222656,17.63798713684082,-1.4203505516052246,0.30820512771606445,0.18488430976867676,1.7811415195465088,6.251217842102051,-1.1966760158538818
5_20251106_145901,1762412306635,5,0.32168418169021606,0.49519339203834534,0.5791639685630798,0.5620248317718506,1.9376624822616577,1.7718992233276367,-1.064527153968811,-0.08211733400821686,6.828759670257568,0.4988845884799957,-1.0240726470947266,-1.7498104572296143,-0.3384915590286255,24.184574127197266,-22.77111053466797,16.37279510498047,-1.258371353149414,0.4042935371398926,1.177283763885498,1.1762540340423584,6.424466133117676,-0.6783991456031799
5_20251106_145901,1762412306654,5,0.33781206607818604,0.49970826506614685,0.5697197914123535,0.5582060813903809,1.9376624822616577,1.7718992233276367,-1.064527153968811,-0.08211733400821686,6.828759670257568,0.4988845884799957,-1.0118553638458252,-1.7186564207077026,-0.41668227314949036,24.887725830078125,-22.76056671142578,14.84532356262207,-1.258371353149414,0.4042935371398926,1.177283763885498,1.1762540340423584,6.424466133117676,-0.6783991456031799
5_20251106_145901,1762412306674,5,0.35431987047195435,0.5032530426979065,0.5603002309799194,0.5543081164360046,1.8590697050094604,1.7284804582595825,-1.0634700059890747,-0.10127012431621552,8.533357620239258,2.167571544647217,-0.9061757922172546,-1.612365961074829,-0.6213219165802002,25.604473114013672,-22.72411346435547,13.318870544433594,-0.7883117198944092,1.4824190139770508,2.007394790649414,0.6870415806770325,7.050938606262207,0.16017669439315796
5_20251106_145901,1762412306692,5,0.3710257112979889,0.5058620572090149,0.55161052942276,0.5496993064880371,1.8213196992874146,1.7159013748168945,-1.052599310874939,-0.4974934458732605,8.493856430053711,3.0689496994018555,-0.6056303977966309,-1.41933274269104,-0.9670714139938354,26.312742233276367,-22.63701629638672,11.671335220336914,-0.9476280212402344,1.1543340682983398,2.3270184993743896,0.4501345753669739,7.339522361755371,0.7419312596321106
5_20251106_145901,1762412306711,5,0.3874119818210602,0.5064428448677063,0.5455984473228455,0.5438289642333984,1.7772489786148071,1.7044148445129395,-1.0364964008331299,-1.8154447078704834,7.750487327575684,2.638011932373047,-0.18413370847702026,-1.2550101280212402,-1.2126390933990479,27.00759506225586,-22.37421417236328,9.877836227416992,-1.8124635219573975,0.32877206802368164,1.516864538192749,-0.002981245517730713,7.421715259552002,1.1211473941802979
5_20251106_145901,1762412306730,5,0.4026033878326416,0.505509078502655,0.5436646342277527,0.5355369448661804,1.7273088693618774,1.6940860748291016,-1.0209451913833618,-2.9454593658447266,7.634373664855957,1.213523030281067,-0.04058050736784935,-1.004555583000183,-1.1509416103363037,27.56934356689453,-22.072486877441406,8.336807250976562,-2.353982448577881,0.17012691497802734,0.07390046119689941,-0.5914768576622009,7.46424674987793,1.1396225690841675
5_20251106_145901,1762412306749,5,0.4157901108264923,0.5041723847389221,0.5444093942642212,0.5258775949478149,1.6724450588226318,1.6856995820999146,-1.0083564519882202,-3.2961947917938232,7.983911991119385,0.34326815605163574,-0.04058050736784935,-1.004555583000183,-1.1509416103363037,28.13713836669922,-21.65814971923828,6.8387017250061035,-2.1637744903564453,0.41573238372802734,-0.6370835304260254,-1.1324204206466675,7.568179607391357,0.9803516864776611
5_20251106_145901,1762412306768,5,0.42690470814704895,0.5019572377204895,0.5452998876571655,0.5181113481521606,1.6135274171829224,1.6795692443847656,-0.9979348182678223,-3.6098217964172363,8.237687110900879,0.41987931728363037,-0.6538887023925781,-0.7687618136405945,-0.7886989116668701,28.66958999633789,-21.221351623535156,5.3666863441467285,-1.9819211959838867,0.5356059074401855,-0.44837790727615356,-1.6279006004333496,7.702081203460693,0.8682572245597839
5_20251106_145901,1762412306787,5,0.43804290890693665,0.4988749623298645,0.5441362261772156,0.5129892230033875,1.5506500005722046,1.6758060455322266,-0.9882397651672363,-4.144903182983398,8.453155517578125,0.7933586835861206,-0.9880316853523254,-0.8365678191184998,-0.6329283714294434,29.13528060913086,-20.664695739746094,3.9889817237854004,-2.0136022567749023,0.6008596420288086,-0.05991882085800171,-2.131300926208496,7.852295875549316,0.8532775044441223
5_20251106_145901,1762412306806,5,0.45066389441490173,0.49532949924468994,0.5400189757347107,0.509833574295044,1.4852343797683716,1.674657940864563,-0.9784778952598572,-4.202361106872559,8.736856460571289,1.0543155670166016,-1.185951828956604,-0.6979015469551086,-0.41118448972702026,29.569965362548828,-19.99848175048828,2.7203116416931152,-1.6568481922149658,0.7076482772827148,0.16083043813705444,-2.5455129146575928,8.029208183288574,0.8934851288795471
5_20251106_145901,1762412306826,5,0.4635077118873596,0.4914104640483856,0.5336777567863464,0.508787214756012,1.4852343797683716,1.674657940864563,-0.9784778952598572,-4.202361106872559,8.736856460571289,1.0543155670166016,-1.2940747737884521,-0.42667755484580994,-0.23220112919807434,29.918262481689453,-19.339317321777344,1.5968871116638184,-1.6568481922149658,0.7076482772827148,0.16083043813705444,-2.5455129146575928,8.029208183288574,0.8934851288795471
5_20251106_145901,1762412306845,5,0.47453612089157104,0.4864029586315155,0.5267729163169861,0.5106250047683716,1.3529558181762695,1.6777875423431396,-0.9561563730239868,-3.097484588623047,8.489067077636719,1.6935398578643799,-1.3508853912353516,-0.3045046031475067,-0.13324105739593506,30.230308532714844,-18.670509338378906,0.5263209342956543,-0.2722456455230713,0.25179100036621094,0.5876885652542114,-2.8252389430999756,8.237276077270508,1.1058512926101685
5_20251106_145901,1762412306865,5,0.48402419686317444,0.4805806279182434,0.5197600722312927,0.514404833316803,1.2883843183517456,1.6805083751678467,-0.9412367939949036,-3.3201358318328857,8.49864387512207,2.197497844696045,-1.4193021059036255,-0.3454325497150421,0.02252945490181446,30.35052490234375,-18.15349578857422,-0.37879419326782227,-0.3959174156188965,0.20909404754638672,0.8733172416687012,-2.9242184162139893,8.289549827575684,1.3241806030273438
5_20251106_145901,1762412306882,5,0.4932346045970917,0.4751765727996826,0.511653482913971,0.5187846422195435,1.2354494333267212,1.6837878227233887,-0.9260380268096924,-3.285421371459961,8.782344818115234,2.758913993835449,-1.4761126041412354,-0.31855452060699463,0.30963587760925293,30.385116577148438,-17.665672302246094,-1.4365496635437012,-0.28896236419677734,0.39423561096191406,1.1477866172790527,-2.9964590072631836,8.38810920715332,1.6111273765563965
5_20251106_145901,1762412306902,5,0.5017498135566711,0.4706111550331116,0.5017892718315125,0.5243851542472839,1.1801764965057373,1.6895534992218018,-0.9049713611602783,-2.656970500946045,9.220464706420898,3.40771484375,-1.4571757316589355,-0.19393809139728546,0.5081669092178345,30.339557647705078,-17.29657745361328,-2.4050092697143555,0.2715907096862793,0.6658840179443359,1.437269926071167,-2.928561210632324,8.554580688476562,1.970444917678833
5_20251106_145901,1762412306922,5,0.5078712105751038,0.4660559892654419,0.49146777391433716,0.5322763323783875,1.1240812540054321,1.6976827383041382,-0.8771194815635681,-2.3493289947509766,9.173779487609863,3.6806416511535645,-1.3912023305892944,-0.001515706186182797,0.46784985065460205,30.271137237548828,-16.90381622314453,-3.3874378204345703,0.46338582038879395,0.4953594207763672,1.3681573867797852,-2.8127148151397705,8.678420066833496,2.3124842643737793
5_20251106_145901,1762412306939,5,0.5131211280822754,0.46172016859054565,0.4810849130153656,0.5404428839683533,1.0816357135772705,1.7042784690856934,-0.8546064496040344,-2.496565818786621,8.835014343261719,2.810387134552002,-1.3759307861328125,0.2348889410495758,0.327961802482605,30.075214385986328,-16.619468688964844,-4.376882553100586,0.25291919708251953,0.1252756118774414,0.39832234382629395,-2.7494850158691406,8.709738731384277,2.412064790725708
5_20251106_145901,1762412306958,5,0.517473042011261,0.45587995648384094,0.4725489020347595,0.5487191081047058,1.0366319417953491,1.7120916843414307,-0.8298301100730896,-2.7263994216918945,9.004995346069336,2.730184555053711,-1.634326457977295,0.30941441655158997,0.305970698595047,29.80026626586914,-16.417503356933594,-5.141077041625977,0.018468379974365234,0.2362051010131836,0.25449585914611816,-2.7448678016662598,8.768790245056152,2.4756886959075928
5_20251106_145901,1762412306978,5,0.5219176411628723,0.4480705261230469,0.4647117853164673,0.5575640797615051,0.9910874962806702,1.722558856010437,-0.7993819713592529,-2.922715425491333,9.641826629638672,4.3414130210876465,-1.634326457977295,0.30941441655158997,0.305970698595047,29.450695037841797,-16.245567321777344,-5.895226001739502,-0.14227819442749023,0.6984291076660156,1.492579460144043,-2.7804372310638428,8.943397521972656,2.8488335609436035
5_20251106_145901,1762412306997,5,0.5275494456291199,0.43927323818206787,0.4545670449733734,0.5675380825996399,0.9492320418357849,1.7362436056137085,-0.7631832957267761,-3.0543909072875977,10.488139152526855,6.026858329772949,-1.895776629447937,0.27826032042503357,0.42570018768310547,29.047557830810547,-16.15294647216797,-6.571822643280029,-0.2191629409790039,1.235793113708496,2.542419910430908,-2.8352279663085938,9.25234603881836,3.484438419342041
5_20251106_145901,1762412307017,5,0.5334386229515076,0.4300839602947235,0.44294431805610657,0.5781620144844055,0.9492320418357849,1.7362436056137085,-0.7631832957267761,-3.0543909072875977,10.488139152526855,6.026858329772949,-1.895776629447937,0.27826032042503357,0.42570018768310547,29.047557830810547,-16.15294647216797,-6.571822643280029,-0.2191629409790039,1.235793113708496,2.542419910430908,-2.8352279663085938,9.25234603881836,3.484438419342041
5_20251106_145901,1762412307036,5,0.5378260612487793,0.41957753896713257,0.433338463306427,0.5889954566955566,0.9012179970741272,1.7563533782958984,-0.7137749791145325,-3.3716087341308594,10.626996994018555,6.091499328613281,-1.6160006523132324,0.9318855404853821,0.4238675832748413,28.63425064086914,-16.023597717285156,-7.234601974487305,-0.4291045665740967,1.0997209548950195,2.085649013519287,-2.9425041675567627,9.527276039123535,4.005850315093994
5_20251106_145901,1762412307055,5,0.5399813652038574,0.40741661190986633,0.42661795020103455,0.6003573536872864,0.824643611907959,1.7932944297790527,-0.6299589276313782,-3.3117566108703613,10.708396911621094,5.429531097412109,-1.6160006523132324,0.9318855404853821,0.4238675832748413,28.255016326904297,-15.906837463378906,-7.652880668640137,-0.18805646896362305,0.812993049621582,0.937586784362793,-3.1237001419067383,9.895403861999512,4.491944313049316
5_20251106_145901,1762412307074,5,0.5403761267662048,0.3948897123336792,0.4199592173099518,0.6129355430603027,0.79036545753479,1.8151392936706543,-0.5853360891342163,-2.5372655391693115,11.328468322753906,6.289012432098389,-1.6795305013656616,1.0339000225067139,0.9046181440353394,27.875980377197266,-15.789817810058594,-8.09819221496582,0.4691479206085205,1.1464519500732422,1.4376544952392578,-3.006413459777832,10.182016372680664,4.851357936859131
5_20251106_145901,1762412307093,5,0.5390058159828186,0.3828471899032593,0.41200995445251465,0.6270155906677246,0.7588096857070923,1.8401803970336914,-0.536034107208252,-1.979440450668335,11.324877738952637,6.511663436889648,-1.479166865348816,1.1353034973144531,0.9253875017166138,27.39484405517578,-15.743415832519531,-8.400067329406738,0.8215785026550293,0.9142885208129883,1.3282442092895508,-2.8010189533233643,10.410589218139648,5.183419227600098
5_20251106_145901,1762412307112,5,0.5360534191131592,0.37161579728126526,0.4044327735900879,0.6410792469978333,0.731502890586853,1.864937663078308,-0.48707690834999084,-1.827415108680725,10.76346206665039,5.95623254776001,-1.3148443698883057,1.330169439315796,0.8496403098106384,26.90555763244629,-15.835685729980469,-8.650781631469727,0.7788830995559692,0.2822990417480469,0.6182503700256348,-2.6062982082366943,10.481163024902344,5.337982177734375
5_20251106_145901,1762412307131,5,0.5317650437355042,0.3601967692375183,0.3988526165485382,0.6545233726501465,0.731502890586853,1.864937663078308,-0.48707690834999084,-1.827415108680725,10.76346206665039,5.95623254776001,-1.2861335277557373,1.5030441284179688,0.8197079300880432,26.460899353027344,-15.988365173339844,-8.819755554199219,0.7788830995559692,0.2822990417480469,0.6182503700256348,-2.6062982082366943,10.481163024902344,5.337982177734375
5_20251106_145901,1762412307151,5,0.5264983177185059,0.3476918339729309,0.3950248956680298,0.6677314043045044,0.6879470944404602,1.9142149686813354,-0.38910236954689026,-1.0792593955993652,10.875984191894531,5.712034225463867,-1.3172876834869385,1.5586328506469727,0.8019928932189941,26.02581787109375,-16.17859649658203,-8.9214506149292,1.061002492904663,0.31837940216064453,0.2637171745300293,-2.1402618885040283,10.557604789733887,5.448317050933838
5_20251106_145901,1762412307170,5,0.5206711292266846,0.334367960691452,0.39162418246269226,0.6809773445129395,0.6750255823135376,1.936874508857727,-0.3458925485610962,-0.7476767897605896,11.232704162597656,6.289012432098389,-1.3514962196350098,1.5977282524108887,0.6749329566955566,25.565263748168945,-16.383506774902344,-8.970324516296387,1.1140680313110352,0.5400791168212891,0.6725564002990723,-1.8617448806762695,10.692625045776367,5.616456031799316
5_20251106_145901,1762412307189,5,0.5149745345115662,0.3203950524330139,0.3882226347923279,0.6938526034355164,0.6648930311203003,1.9629878997802734,-0.2954100966453552,-0.7081741094589233,11.414655685424805,7.219119548797607,-1.3502744436264038,1.710127353668213,0.4770128130912781,25.219844818115234,-16.68242645263672,-8.867727279663086,0.9228566884994507,0.5776243209838867,1.2821307182312012,-1.631030797958374,10.837031364440918,5.936988830566406
5_20251106_145901,1762412307207,5,0.5100646615028381,0.3051839768886566,0.3853817284107208,0.7058170437812805,0.6583695411682129,1.9867873191833496,-0.24696820974349976,-0.7620413899421692,11.435005187988281,8.080995559692383,-1.2696402072906494,1.797480821609497,0.38965916633605957,24.851350784301758,-16.969566345214844,-8.846943855285645,0.6951915621757507,0.4783792495727539,1.715205192565918,-1.45723295211792,10.956625938415527,6.365790367126465
5_20251106_145901,1762412307227,5,0.5054712891578674,0.28857970237731934,0.3836907744407654,0.7169392704963684,0.6583695411682129,1.9867873191833496,-0.24696820974349976,-0.7620413899421692,11.435005187988281,8.080995559692383,-1.0790505409240723,1.7797658443450928,0.5380992889404297,24.456790924072266,-17.272193908691406,-8.692243576049805,0.6951915621757507,0.4783792495727539,1.715205192565918,-1.45723295211792,10.956625938415527,6.365790367126465
5_20251106_145901,1762412307246,5,0.499973863363266,0.27232468128204346,0.3827511668205261,0.7275760769844055,0.6535723805427551,2.0153310298919678,-0.18242231011390686,-0.7021889686584473,11.203975677490234,8.622060775756836,-0.846921980381012,1.7418922185897827,0.7665627002716064,24.172203063964844,-17.56726837158203,-8.573677062988281,0.6040351390838623,0.19787979125976562,1.8050165176391602,-1.3062241077423096,11.006095886230469,6.817044258117676
5_20251106_145901,1762412307264,5,0.49224144220352173,0.2580936551094055,0.38247451186180115,0.7381051778793335,0.6548697352409363,2.0590462684631348,-0.07403969019651413,0.5547129511833191,11.34762191772461,9.087714195251465,-0.690540611743927,1.7321183681488037,0.9125593900680542,23.9702091217041,-17.89525604248047,-8.37137222290039,1.3267930746078491,0.2402191162109375,1.5060906410217285,-0.77208012342453,11.107402801513672,7.581623554229736
5_20251106_145901,1762412307285,5,0.48257771134376526,0.245596244931221,0.3828198313713074,0.7484986186027527,0.6649371385574341,2.084660768508911,-0.009488493204116821,1.6081163883209229,11.80489444732666,9.170310020446777,-0.5891370177268982,1.7040185928344727,0.963871955871582,23.75511360168457,-18.248497009277344,-8.237667083740234,1.9041571617126465,0.5579929351806641,1.270949363708496,-0.2960408329963684,11.246901512145996,7.899360656738281
5_20251106_145901,1762412307304,5,0.471645712852478,0.23416000604629517,0.3835652768611908,0.7586811780929565,0.6817530989646912,2.1108787059783936,0.05263690650463104,2.5214648246765137,12.377083778381348,9.309167861938477,-0.4797922372817993,1.634990930557251,0.8288708925247192,23.58816909790039,-18.59935760498047,-8.020902633666992,2.25400447845459,0.9041452407836914,1.1278457641601562,0.2674602270126343,11.472938537597656,8.18132209777832
5_20251106_145901,1762412307321,5,0.46076667308807373,0.22361382842063904,0.38454562425613403,0.7679945230484009,0.7031805515289307,2.1365301609039307,0.11057238280773163,2.8231215476989746,12.307655334472656,9.002723693847656,-0.2635461390018463,1.6026151180267334,0.49350616335868835,23.467853546142578,-18.984718322753906,-7.8029680252075195,2.0445289611816406,0.6677732467651367,0.6571216583251953,0.7785924673080444,11.63988208770752,8.345602035522461
5_20251106_145901,1762412307341,5,0.4514027535915375,0.21354424953460693,0.38677066564559937,0.7752695083618164,0.7311003804206848,2.163766384124756,0.17094027996063232,2.5226621627807617,11.692371368408203,8.086980819702148,-0.06134990602731705,1.6020042896270752,0.11782434582710266,23.371923446655273,-19.35688018798828,-7.489174842834473,1.3952558040618896,0.041991233825683594,-0.20689678192138672,1.127406358718872,11.65038013458252,8.293877601623535
5_20251106_145901,1762412307360,5,0.44345471262931824,0.20290175080299377,0.39158689975738525,0.7802810668945312,0.7575349807739258,2.1851022243499756,0.2206098884344101,2.168335437774658,10.858028411865234,7.504017353057861,-0.026530617848038673,1.5751261711120605,-0.10086522251367569,23.384370803833008,-19.735252380371094,-7.090134143829346,0.8327432870864868,-0.633880615234375,-0.6318879127502441,1.3355921506881714,11.49190902709961,8.135905265808105
5_20251106_145901,1762412307378,5,0.4385177493095398,0.19216740131378174,0.3976331055164337,0.7827271223068237,0.7858022451400757,2.2028961181640625,0.268765926361084,1.9768075942993164,10.179300308227539,7.5339436531066895,-0.11632773280143738,1.377816915512085,-0.08376100659370422,23.472753524780273,-20.058631896972656,-6.687094688415527,0.512972354888916,-1.0500869750976562,-0.4815688133239746,1.4638352394104004,11.229387283325195,8.015512466430664
5_20251106_145901,1762412307398,5,0.43469148874282837,0.1815669983625412,0.4031221866607666,0.7845821976661682,0.8153815269470215,2.216864585876465,0.31641507148742676,1.895408272743225,9.971014022827148,7.848767280578613,-0.15236875414848328,1.093153953552246,0.060403063893318176,23.572927474975586,-20.381752014160156,-6.229499816894531,0.3452584743499756,-1.0066986083984375,-0.13339614868164062,1.5501497983932495,10.977712631225586,7.982163429260254
5_20251106_145901,1762412307418,5,0.43119341135025024,0.17290571331977844,0.40668272972106934,0.7866289019584656,0.8153815269470215,2.216864585876465,0.31641507148742676,1.895408272743225,9.971014022827148,7.848767280578613,-0.09922352433204651,0.8622469902038574,0.18135428428649902,23.774520874023438,-20.62358856201172,-5.72584867477417,0.3452584743499756,-1.0066986083984375,-0.13339614868164062,1.5501497983932495,10.977712631225586,7.982163429260254
5_20251106_145901,1762412307437,5,0.4276966452598572,0.16688504815101624,0.40886417031288147,0.7887046933174133,0.8704820275306702,2.2339537143707275,0.4056668281555176,1.6583924293518066,10.03685188293457,8.493976593017578,0.016229912638664246,0.8524731397628784,0.30780327320098877,24.054277420043945,-20.761009216308594,-5.136045932769775,0.0526123046875,-0.5868282318115234,0.36146068572998047,1.6057801246643066,10.623680114746094,8.132515907287598
5_20251106_145901,1762412307456,5,0.42360344529151917,0.16254812479019165,0.41087576746940613,0.7907713651657104,0.8940727710723877,2.2383999824523926,0.4452584981918335,1.6236780881881714,9.853703498840332,8.54305648803711,0.22758910059928894,0.9398267865180969,0.4147046208381653,24.054277420043945,-20.761009216308594,-5.136045932769775,0.014318346977233887,-0.6159811019897461,0.3284320831298828,1.6093597412109375,10.469684600830078,8.214624404907227
5_20251106_145901,1762412307475,5,0.4180667996406555,0.15883633494377136,0.4141215980052948,0.7927764654159546,0.9186609983444214,2.239950656890869,0.4872220754623413,1.5063672065734863,9.435934066772461,8.271326065063477,0.47926536202430725,1.0974299907684326,0.5277146100997925,24.309253692626953,-20.91216278076172,-4.58803653717041,-0.08239412307739258,-0.827000617980957,0.04536151885986328,1.588761329650879,10.262934684753418,8.225964546203613
5_20251106_145901,1762412307496,5,0.4109296202659607,0.1555226445198059,0.41944289207458496,0.7943658828735352,0.9420249462127686,2.2356324195861816,0.5252929925918579,1.2418193817138672,8.513008117675781,7.095823287963867,0.7449914813041687,1.1469099521636963,0.7274673581123352,24.592844009399414,-20.97478485107422,-3.942584991455078,-0.2775535583496094,-1.3999414443969727,-0.9041132926940918,1.5193729400634766,9.912949562072754,7.999936580657959
5_20251106_145901,1762412307516,5,0.40164339542388916,0.15274198353290558,0.426990807056427,0.7956326603889465,0.9628694653511047,2.2255992889404297,0.5537035465240479,1.4225736856460571,7.8977251052856445,6.014887809753418,0.8628883957862854,0.9373833537101746,0.9675371646881104,24.749454498291016,-21.12189483642578,-3.1819748878479004,-0.07743942737579346,-1.6121797561645508,-1.5880393981933594,1.5000131130218506,9.509904861450195,7.602927207946777
5_20251106_145901,1762412307533,5,0.3905273377895355,0.15232352912425995,0.43543803691864014,0.7966678738594055,0.9787189960479736,2.2139313220977783,0.5713115334510803,1.503973126411438,7.432072162628174,5.555221080780029,0.8628883957862854,0.9373833537101746,0.9675371646881104,24.803333282470703,-21.375282287597656,-2.4814653396606445,0.0031679868698120117,-1.6622662544250488,-1.63816499710083,1.500805139541626,9.094338417053223,7.193386077880859
5_20251106_145901,1762412307551,5,0.37901827692985535,0.15484726428985596,0.4428020417690277,0.7976802587509155,0.9965094327926636,2.1959288120269775,0.5862311720848083,1.4680615663528442,7.330323219299316,5.3912248611450195,0.8195169568061829,0.4059310555458069,0.9290527105331421,24.803251266479492,-21.708534240722656,-1.6493382453918457,-0.02619493007659912,-1.4112119674682617,-1.4417285919189453,1.4942564964294434,8.741535186767578,6.832953453063965
5_20251106_145901,1762412307570,5,0.36909207701683044,0.15951354801654816,0.44880956411361694,0.7980579137802124,1.013220191001892,2.174806833267212,0.5950830578804016,1.4249677658081055,7.276455879211426,4.893252372741699,0.7969149947166443,0.4315873682498932,0.7201370000839233,24.774974822998047,-22.10655975341797,-0.7789630889892578,-0.05543100833892822,-1.1720638275146484,-1.5517611503601074,1.4803987741470337,8.448519706726074,6.445013523101807
5_20251106_145901,1762412307588,5,0.36057254672050476,0.16378381848335266,0.45457738637924194,0.7978230714797974,1.013220191001892,2.174806833267212,0.5950830578804016,1.4249677658081055,7.276455879211426,4.893252372741699,0.7199460864067078,0.49084123969078064,0.5173298716545105,24.61317253112793,-22.48943328857422,0.2081913948059082,-0.05543100833892822,-1.1720638275146484,-1.5517611503601074,1.4803987741470337,8.448519706726074,6.445013523101807
5_20251106_145901,1762412307609,5,0.35366886854171753,0.16655713319778442,0.4605390727519989,0.796919584274292,1.0293840169906616,2.1494884490966797,0.5985334515571594,1.3004746437072754,7.068169116973877,4.668207168579102,0.6099904179573059,0.5018367767333984,0.3872157037258148,26.701494216918945,-26.0611572265625,0.13628292083740234,-0.14393925666809082,-1.1042799949645996,-1.421445369720459,1.4444139003753662,8.172449111938477,6.0896525382995605
5_20251106_145901,1762412307628,5,0.3477747142314911,0.16778945922851562,0.46612125635147095,0.7960090637207031,1.0447040796279907,2.119677782058716,0.5968018770217896,1.204710841178894,6.813197612762451,4.546108245849609,0.555623471736908,0.4053201973438263,0.28886646032333374,26.404743194580078,-26.465591430664062,1.1448116302490234,-0.19176244735717773,-1.0874013900756836,-1.2348356246948242,1.3964732885360718,7.900599002838135,5.780943870544434
5_20251106_145901,1762412307647,5,0.3430183231830597,0.16853664815425873,0.47107261419296265,0.7949996590614319,1.0661619901657104,2.06463360786438,0.5847252011299133,0.881507396697998,6.838335990905762,4.50181770324707,0.47865450382232666,0.3033057749271393,0.2033454179763794,26.09811782836914,-26.832870483398438,2.1266088485717773,-0.3525615930557251,-0.6606955528259277,-0.7939338684082031,1.2340689897537231,7.4990315437316895,5.295751571655273
5_20251106_145901,1762412307667,5,0.3394860327243805,0.1695418506860733,0.475341796875,0.7937600016593933,1.074576735496521,2.033043384552002,0.5734975337982178,0.5654863715171814,6.780877113342285,4.080456256866455,0.4108485281467438,0.26848646998405457,0.15875229239463806,25.85380744934082,-27.194290161132812,2.921630859375,-0.5348661541938782,-0.5745234489440918,-0.972236156463623,1.1003525257110596,7.355400562286377,5.052692413330078
5_20251106_145901,1762412307689,5,0.3369404971599579,0.17030535638332367,0.4789023995399475,0.7925400137901306,1.080315113067627,2.001220703125,0.5590386390686035,0.35839682817459106,6.7593302726745605,3.8051352500915527,0.3741966485977173,0.1731916069984436,0.22106048464775085,25.600749969482422,-27.482254028320312,3.825876235961914,-0.5935645699501038,-0.47685670852661133,-0.9980454444885254,0.9519613981246948,7.236186981201172,4.803180694580078
5_20251106_145901,1762412307705,5,0.33463943004608154,0.17137543857097626,0.4819188714027405,0.7914550304412842,1.083756923675537,1.9734865427017212,0.5439298748970032,0.3571997880935669,7.02268123626709,3.687824249267578,0.2966168224811554,0.101720429956913,0.3359030485153198,25.413022994995117,-27.713851928710938,4.517369270324707,-0.47580933570861816,-0.17080450057983398,-0.8922853469848633,0.8330091238021851,7.193485736846924,4.580109596252441
5_20251106_145901,1762412307724,5,0.3319700360298157,0.17328834533691406,0.48424452543258667,0.7907428741455078,1.0863232612609863,1.9460638761520386,0.5272013545036316,0.5104221105575562,7.335111618041992,4.00504207611084,0.1891046166419983,0.04063396155834198,0.4354740381240845,25.19759178161621,-27.796615600585938,5.156493186950684,-0.25806957483291626,0.11330032348632812,-0.4600539207458496,0.7684916853904724,7.221811294555664,4.4650959968566895
5_20251106_145901,1762412307742,5,0.3290542960166931,0.1759842038154602,0.48533517122268677,0.7906975150108337,1.088551640510559,1.9223846197128296,0.510715126991272,0.7354674339294434,7.628388404846191,3.8841402530670166,0.16650262475013733,0.013755910098552704,0.4562434256076813,24.957761764526367,-27.904190063476562,5.604880332946777,-0.026419401168823242,0.32526159286499023,-0.4647643566131592,0.7618868350982666,7.303126811981201,4.348904609680176
5_20251106_145901,1762412307761,5,0.3259005546569824,0.17902906239032745,0.48569202423095703,0.7911009192466736,1.0907597541809082,1.8997389078140259,0.4919818341732025,0.7522261142730713,7.703802108764648,3.546572208404541,0.14451149106025696,-0.06015871837735176,0.44708043336868286,24.751968383789062,-28.0592041015625,6.013134002685547,-0.00772857666015625,0.3205404281616211,-0.6418662071228027,0.7599546909332275,7.383261680603027,4.188438415527344
5_20251106_145901,1762412307779,5,0.32231128215789795,0.18196381628513336,0.48597779870033264,0.7917261123657227,1.0925275087356567,1.8801411390304565,0.4724802076816559,0.6708267331123352,7.701408386230469,3.1156344413757324,0.07548379898071289,-0.13896027207374573,0.48312145471572876,24.597217559814453,-28.184707641601562,6.3022308349609375,-0.07130235433578491,0.2545175552368164,-0.8582429885864258,0.7421290874481201,7.446890830993652,3.973877429962158
5_20251106_145901,1762412307799,5,0.3197612166404724,0.18587322533130646,0.48554709553718567,0.792116105556488,1.093911051750183,1.8600391149520874,0.4479469358921051,0.5834420919418335,7.639162063598633,2.6751203536987305,0.07548379898071289,-0.13896027207374573,0.48312145471572876,24.464414596557617,-28.358322143554688,6.537187576293945,-0.12694960832595825,0.15381717681884766,-1.0390057563781738,0.7103917002677917,7.485344886779785,3.7141261100769043
5_20251106_145901,1762412307818,5,0.3173103332519531,0.1903909146785736,0.4840399920940399,0.7929506301879883,1.093911051750183,1.8600391149520874,0.4479469358921051,0.5834420919418335,7.639162063598633,2.6751203536987305,-0.2488853931427002,-0.349708616733551,0.6065161228179932,24.282644271850586,-28.558609008789062,6.607460021972656,-0.12694960832595825,0.15381717681884766,-1.0390057563781738,0.7103917002677917,7.485344886779785,3.7141261100769043
5_20251106_145901,1762412307838,5,0.3151092827320099,0.19541090726852417,0.4809560775756836,0.7944822311401367,1.0971436500549316,1.8287270069122314,0.4014967083930969,1.0275474786758423,8.518993377685547,4.327048301696777,-0.36922571063041687,-0.47188153862953186,0.5967423319816589,24.031057357788086,-28.724380493164062,6.513385772705078,0.25794821977615356,0.7601718902587891,0.6062068939208984,0.7695992588996887,7.758821487426758,3.720841407775879
5_20251106_145901,1762412307857,5,0.3138377070426941,0.20120500028133392,0.47596415877342224,0.7965428829193115,1.0999305248260498,1.8193401098251343,0.3851730525493622,1.093385100364685,9.006193161010742,5.022534370422363,-0.27759602665901184,-0.47127068042755127,0.4770128130912781,24.031057357788086,-28.724380493164062,6.513385772705078,0.25902867317199707,0.9978971481323242,1.0413544178009033,0.834356427192688,8.008296012878418,3.98117995262146
5_20251106_145901,1762412307877,5,0.3132741153240204,0.2069793939590454,0.47068488597869873,0.7984200716018677,1.0999305248260498,1.8193401098251343,0.3851730525493622,1.093385100364685,9.006193161010742,5.022534370422363,-0.12732329964637756,-0.36375850439071655,0.34567689895629883,23.740192413330078,-28.942611694335938,6.403268814086914,0.25902867317199707,0.9978971481323242,1.0413544178009033,0.834356427192688,8.008296012878418,3.98117995262146
5_20251106_145901,1762412307896,5,0.3131658136844635,0.2120574414730072,0.46683400869369507,0.7993902564048767,1.1029224395751953,1.813289761543274,0.37159964442253113,0.8539752960205078,9.143853187561035,5.0452775955200195,-0.06257162988185883,-0.20004673302173615,0.26259928941726685,23.47017478942871,-29.2220458984375,6.292812347412109,0.01569509506225586,0.9084463119506836,0.8512783050537109,0.838280200958252,8.235406875610352,4.193999290466309
5_20251106_145901,1762412307915,5,0.3129618465900421,0.21578334271907806,0.4644887149333954,0.7998391389846802,1.1055982112884521,1.809183120727539,0.35266029834747314,0.4314168691635132,8.955917358398438,4.494635581970215,-0.0790649801492691,-0.0680999606847763,0.20456713438034058,23.250595092773438,-29.484390258789062,6.049419403076172,-0.2845250964164734,0.4408254623413086,0.15620851516723633,0.7159419655799866,8.515091896057129,4.3384270668029785
5_20251106_145901,1762412307934,5,0.31248196959495544,0.2179621160030365,0.46299663186073303,0.8003009557723999,1.1057281494140625,1.809269666671753,0.34422165155410767,0.46852537989616394,8.99661636352539,4.4491472244262695,-0.15359048545360565,-0.05099574476480484,0.15325450897216797,23.047021865844727,-29.682754516601562,5.767287254333496,-0.19793328642845154,0.3852195739746094,0.0885763168334961,0.6664586663246155,8.611396789550781,4.360570907592773
5_20251106_145901,1762412307953,5,0.312223345041275,0.21913348138332367,0.4615345299243927,0.8009263277053833,1.1054694652557373,1.8108587265014648,0.33736753463745117,0.5271807909011841,9.160612106323242,4.784321308135986,-0.22994858026504517,-0.08948022127151489,0.10072013735771179,22.79380226135254,-29.897125244140625,5.50996208190918,-0.11142230033874512,0.43937206268310547,0.33900022506713867,0.6386030912399292,8.721240043640137,4.445321083068848
5_20251106_145901,1762412307971,5,0.31263989210128784,0.22003047168254852,0.4594487249851227,0.8017167448997498,1.104652762413025,1.8134592771530151,0.3327557444572449,0.40149062871932983,9.196523666381836,5.077598571777344,-0.21895301342010498,-0.11391481012105942,0.031081560999155045,22.526578903198242,-30.149551391601562,5.210805892944336,-0.1896899938583374,0.38022708892822266,0.5058221817016602,0.5911806225776672,8.816296577453613,4.571776390075684
5_20251106_145901,1762412307991,5,0.3137068450450897,0.22077146172523499,0.45711514353752136,0.8024298548698425,1.1027555465698242,1.8172146081924438,0.32961830496788025,0.2506623864173889,9.148641586303711,5.141042232513428,-0.21895301342010498,-0.11391481012105942,0.031081560999155045,22.378093719482422,-30.231735229492188,4.933011054992676,-0.27241456508636475,0.26587581634521484,0.4554128646850586,0.5230769515037537,8.882765769958496,4.685629367828369
5_20251106_145901,1762412308011,5,0.31522178649902344,0.2213849425315857,0.45520174503326416,0.802754819393158,1.0995755195617676,1.8210335969924927,0.32827693223953247,0.06990794092416763,8.965493202209473,5.224835395812988,-0.11693859100341797,-0.055882666260004044,-0.05993729084730148,22.28632164001465,-30.373672485351562,4.75096321105957,-0.3625352084636688,0.06618213653564453,0.4313650131225586,0.43244314193725586,8.899311065673828,4.79347038269043
5_20251106_145901,1762412308029,5,0.3170267343521118,0.22179076075553894,0.45383748412132263,0.8027044534683228,1.0956485271453857,1.8242968320846558,0.3276941180229187,-0.05817635357379913,8.898458480834961,5.022533893585205,-0.09067140519618988,0.039412230253219604,-0.05810468643903732,22.17319679260254,-30.466705322265625,4.541957855224609,-0.3924955725669861,-0.0006818771362304688,0.18325090408325195,0.33431923389434814,8.899140357971191,4.839282989501953
5_20251106_145901,1762412308048,5,0.3183359205722809,0.22144706547260284,0.4530528783798218,0.8027244210243225,1.0904827117919922,1.82705819606781,0.3273102939128876,-0.11324062943458557,8.712915420532227,4.912405014038086,-0.08700622618198395,0.09316833317279816,-0.026950588449835777,22.1102237701416,-30.53143310546875,4.335441589355469,-0.3580479025840759,-0.14898014068603516,0.05849790573120117,0.24480727314949036,8.861895561218262,4.853907108306885
5_20251106_145901,1762412308068,5,0.31918400526046753,0.22058628499507904,0.4526219964027405,0.8028677105903625,1.0849738121032715,1.8290461301803589,0.32717183232307434,0.025617100298404694,8.630319595336914,4.936347007751465,-0.10044524073600769,0.06629028171300888,0.05001836270093918,22.04897117614746,-30.559036254882812,4.183782577514648,-0.17535215616226196,-0.18526077270507812,0.06595182418823242,0.20096924901008606,8.815580368041992,4.870395183563232
5_20251106_145901,1762412308087,5,0.3195466101169586,0.219765767455101,0.4521191418170929,0.8032317757606506,1.0849738121032715,1.8290461301803589,0.32717183232307434,0.025617100298404694,8.630319595336914,4.936347007751465,-0.09739091992378235,0.00520380400121212,0.14897845685482025,22.03364372253418,-30.633682250976562,4.033029556274414,-0.17535215616226196,-0.18526077270507812,0.06595182418823242,0.20096924901008606,8.815580368041992,4.870395183563232
5_20251106_145901,1762412308105,5,0.319469690322876,0.21982431411743164,0.4511197805404663,0.8038080334663391,1.0747182369232178,1.8323040008544922,0.3287443220615387,0.29136207699775696,8.925990104675293,5.089569091796875,-0.08517363667488098,0.023529743775725365,0.18929553031921387,22.00704574584961,-30.6846923828125,3.949894905090332,0.0773872584104538,0.10628700256347656,0.1368241310119629,0.21397481858730316,8.819703102111816,4.952744960784912
5_20251106_145901,1762412308126,5,0.318874716758728,0.22049488127231598,0.44997096061706543,0.8045042157173157,1.0708444118499756,1.8345259428024292,0.33040153980255127,0.47929883003234863,9.019360542297363,5.211667537689209,-0.10044525563716888,0.07911843806505203,0.14958931505680084,21.993635177612305,-30.721939086914062,3.8269662857055664,0.2122592031955719,0.15972614288330078,0.2071380615234375,0.26703962683677673,8.859634399414062,5.0045294761657715
5_20251106_145901,1762412308144,5,0.3180002272129059,0.22073188424110413,0.4489656686782837,0.8053466081619263,1.0708444118499756,1.8345259428024292,0.33040153980255127,0.47929883003234863,9.019360542297363,5.211667537689209,-0.08700622618198395,0.15120047330856323,0.10438532382249832,21.895145416259766,-30.741256713867188,3.863327980041504,0.2122592031955719,0.15972614288330078,0.2071380615234375,0.26703962683677673,8.859634399414062,5.0045294761657715
5_20251106_145901,1762412308162,5,0.31740760803222656,0.22034676373004913,0.44816866517066956,0.8061293363571167,1.066962718963623,1.8394654989242554,0.33492860198020935,0.7725759148597717,8.937960624694824,4.999790191650391,-0.04180223494768143,0.162806898355484,0.10866137593984604,21.869956970214844,-30.76715087890625,3.780721664428711,0.3402061462402344,0.043999671936035156,-0.04631853103637695,0.43236976861953735,8.893960952758789,5.046108722686768
5_20251106_145901,1762412308182,5,0.31657177209854126,0.21948885917663574,0.4478534162044525,0.8068669438362122,1.0667438507080078,1.841446042060852,0.33641737699508667,0.8013051748275757,8.758403778076172,4.854947090148926,-0.013702458702027798,0.07850757241249084,0.16425007581710815,21.84296226501465,-30.818695068359375,3.751652717590332,0.2951483130455017,-0.10844612121582031,-0.15292930603027344,0.506156861782074,8.866849899291992,5.007876396179199
5_20251106_145901,1762412308201,5,0.3150576651096344,0.2189958095550537,0.44779762625694275,0.8076241612434387,1.0676708221435547,1.8428133726119995,0.3379080593585968,0.9198129773139954,8.679398536682129,5.035701751708984,-0.005761217325925827,-0.0015157080488279462,0.24244076013565063,21.765419006347656,-30.899078369140625,3.774158477783203,0.330924928188324,-0.1499614715576172,0.022260189056396484,0.5888880491256714,8.829360008239746,5.013441562652588
5_20251106_145901,1762412308220,5,0.31404373049736023,0.22002874314785004,0.447247177362442,0.8080432415008545,1.0698601007461548,1.8440325260162354,0.3394772410392761,1.0658531188964844,8.800300598144531,5.069218635559082,-0.009426405653357506,0.024140609428286552,0.2803143858909607,21.687368392944336,-30.991744995117188,3.7693681716918945,0.38157206773757935,-0.023247718811035156,0.044621944427490234,0.684281051158905,8.823548316955566,5.024596691131592
5_20251106_145901,1762412308238,5,0.3125682473182678,0.22151902318000793,0.4465043842792511,0.8086187243461609,1.0698601007461548,1.8440325260162354,0.3394772410392761,1.0658531188964844,8.800300598144531,5.069218635559082,-0.027141481637954712,0.0760641098022461,0.2442733496427536,21.565507888793945,-30.999679565429688,3.764463424682617,0.38157206773757935,-0.023247718811035156,0.044621944427490234,0.684281051158905,8.823548316955566,5.024596691131592
5_20251106_145901,1762412308259,5,0.3108268976211548,0.22257591784000397,0.4457724094390869,0.8094031810760498,1.0791406631469727,1.8477987051010132,0.3425881862640381,1.3663123846054077,9.009783744812012,5.058445930480957,-0.0381370484828949,0.10721822082996368,0.15386536717414856,21.49077033996582,-31.04144287109375,3.693147659301758,0.4573765993118286,0.12436199188232422,0.028366565704345703,0.9089357852935791,8.885421752929688,5.030079364776611
5_20251106_145901,1762412308278,5,0.3094869554042816,0.22296525537967682,0.44519588351249695,0.8101264834403992,1.0851210355758667,1.8494960069656372,0.34407520294189453,1.3112480640411377,8.821847915649414,5.056051254272461,-0.0381370484828949,0.10721822082996368,0.15386536717414856,21.366300582885742,-31.087722778320312,3.755032539367676,0.3218498229980469,-0.05085945129394531,0.02077770233154297,0.9893982410430908,8.87270736694336,5.035273551940918
5_20251106_145901,1762412308296,5,0.3088911175727844,0.22300371527671814,0.44487181305885315,0.8105212450027466,1.0851210355758667,1.8494960069656372,0.34407520294189453,1.3112480640411377,8.821847915649414,5.056051254272461,0.013175588101148605,0.04796433821320534,0.018864266574382782,21.366300582885742,-31.087722778320312,3.755032539367676,0.3218498229980469,-0.05085945129394531,0.02077770233154297,0.9893982410430908,8.87270736694336,5.035273551940918
5_20251106_145901,1762412308316,5,0.3088836073875427,0.2230650782585144,0.4448602795600891,0.8105135560035706,1.0972672700881958,1.8508782386779785,0.34538212418556213,1.0419120788574219,8.619544982910156,4.7651686668396,-0.00820467621088028,0.01314504537731409,0.018253400921821594,21.276966094970703,-31.168350219726562,3.7229833602905273,0.013306856155395508,-0.16700363159179688,-0.1916365623474121,1.0286052227020264,8.786548614501953,4.956805229187012
5_20251106_145901,1762412308335,5,0.3091355860233307,0.22333773970603943,0.4447963237762451,0.8103774785995483,1.1030186414718628,1.8507941961288452,0.34525319933891296,1.070641279220581,8.624334335327148,4.805868148803711,-0.00820467621088028,0.01314504537731409,0.018253400921821594,21.17767333984375,-31.200363159179688,3.772597312927246,0.03362882137298584,-0.12977123260498047,-0.12074995040893555,1.0370124578475952,8.754105567932129,4.9266180992126465
5_20251106_145901,1762412308356,5,0.3096272647380829,0.2242099493741989,0.4445649981498718,0.8100758194923401,1.108597755432129,1.8503780364990234,0.3447239100933075,1.079020619392395,8.631515502929688,4.7783355712890625,-0.022865429520606995,-0.015565596520900726,0.013366484083235264,21.076871871948242,-31.257614135742188,3.8351993560791016,0.033606529235839844,-0.09807205200195312,-0.11862611770629883,1.0454140901565552,8.72958755493164,4.896961688995361
5_20251106_145901,1762412308373,5,0.3102014660835266,0.2250968962907791,0.4442698359489441,0.8097720146179199,1.1138489246368408,1.8497004508972168,0.3439120352268219,1.0275474786758423,8.626728057861328,4.784321308135986,-0.04485655948519707,-0.01739818975329399,-0.008013781160116196,21.002544403076172,-31.287216186523438,3.8046960830688477,-0.014293313026428223,-0.08228778839111328,-0.09011220932006836,1.0418407917022705,8.709015846252441,4.874433517456055
5_20251106_145901,1762412308392,5,0.3108420670032501,0.22598887979984283,0.44397467374801636,0.8094397783279419,1.1186734437942505,1.848824381828308,0.3428935110569,0.9820595979690552,8.624334335327148,4.784320831298828,-0.09739091992378235,-0.025339432060718536,-0.05199604481458664,20.952699661254883,-31.303482055664062,3.856534957885742,-0.047824978828430176,-0.06774520874023438,-0.07209014892578125,1.0298845767974854,8.692079544067383,4.856410980224609
5_20251106_145901,1762412308410,5,0.3112621009349823,0.22628207504749298,0.443632036447525,0.809384286403656,1.122897744178772,1.848028302192688,0.3424566686153412,0.9820595383644104,8.688974380493164,5.051262855529785,-0.16397519409656525,-0.02045251615345478,-0.11186078935861588,20.91422462463379,-31.34326171875,3.8272390365600586,-0.038260042667388916,-0.0024843215942382812,0.1558818817138672,1.0203195810317993,8.691458702087402,4.895380973815918
5_20251106_145901,1762412308430,5,0.3151233196258545,0.22774475812911987,0.4421563446521759,0.808286726474762,1.1273168325424194,1.8476279973983765,0.3429461419582367,1.007197618484497,8.836212158203125,5.208076477050781,-0.1975727528333664,0.0345253124833107,-0.20593395829200745,20.87515640258789,-31.38385009765625,3.8790407180786133,-0.010497570037841797,0.11580276489257812,0.2501564025878906,1.0176951885223389,8.720409393310547,4.957920074462891
5_20251106_145901,1762412308450,5,0.3172587752342224,0.22712668776512146,0.4410538077354431,0.8082275986671448,1.1308296918869019,1.8474136590957642,0.3439691364765167,0.8443988561630249,8.773965835571289,5.169771194458008,-0.1719164252281189,0.06140336021780968,-0.3110026717185974,20.901222229003906,-31.368362426757812,3.7451229095458984,-0.13863706588745117,0.042845726013183594,0.1694812774658203,0.9830359220504761,8.731120109558105,5.0002899169921875
5_20251106_145901,1762412308469,5,0.31984981894493103,0.22555425763130188,0.4401704967021942,0.8081282377243042,1.132820963859558,1.8470911979675293,0.3451990485191345,0.49246639013290405,8.687777519226074,5.094357013702393,-0.15175789594650269,0.036357905715703964,-0.3219982385635376,20.97614288330078,-31.337936401367188,3.694528579711914,-0.3924556374549866,-0.03467369079589844,0.07525348663330078,0.8849220275878906,8.722451210021973,5.019103527069092
5_20251106_145901,1762412308487,5,0.32303816080093384,0.22387473285198212,0.43964865803718567,0.8076109886169434,1.1331006288528442,1.8466109037399292,0.34691548347473145,0.2973473072052002,8.659048080444336,5.218850135803223,-0.14687097072601318,-0.00457003153860569,-0.22853593528270721,21.00422477722168,-31.284912109375,3.574918746948242,-0.4700598120689392,-0.05072212219238281,0.15979719161987305,0.7674071192741394,8.709770202636719,5.05905294418335
5_20251106_145901,1762412308507,5,0.3260231912136078,0.22238901257514954,0.43922263383865356,0.8070535659790039,1.131834864616394,1.846085548400879,0.3495471179485321,0.2590417265892029,8.69495964050293,5.360101699829102,-0.11938205361366272,-0.0271720252931118,-0.11308252066373825,21.154870986938477,-31.211380004882812,3.460477828979492,-0.4066923260688782,-0.01184844970703125,0.24083900451660156,0.665734052658081,8.706808090209961,5.1192626953125
5_20251106_145901,1762412308526,5,0.32823067903518677,0.22116170823574066,0.43870317935943604,0.8067785501480103,1.1296653747558594,1.8457694053649902,0.35262563824653625,0.29136207699775696,8.764389038085938,5.375663757324219,-0.06806942075490952,-0.02472856640815735,-0.025728857144713402,21.258380889892578,-31.115646362304688,3.3175697326660156,-0.2994975745677948,0.04606437683105469,0.20512056350708008,0.5908596515655518,8.718324661254883,5.170543193817139
5_20251106_145901,1762412308546,5,0.32958704233169556,0.22040238976478577,0.4381941854953766,0.8067100048065186,1.12699294090271,1.845764398574829,0.3562658429145813,0.42543160915374756,8.820650100708008,5.355314254760742,-0.032639265060424805,0.012534180656075478,-0.007402917370200157,21.363300323486328,-30.994796752929688,3.175189971923828,-0.13234245777130127,0.08186054229736328,0.14781665802001953,0.5577740669250488,8.738789558410645,5.207497596740723
5_20251106_145901,1762412308564,5,0.3302837610244751,0.21977993845939636,0.4379562437534332,0.8067240715026855,1.1245678663253784,1.8457435369491577,0.3594769239425659,0.5008456707000732,8.732068061828613,5.247579574584961,-0.020421970635652542,0.04063395783305168,-0.04222220182418823,21.5129451751709,-30.934234619140625,3.1010332107543945,-0.04554271697998047,-0.0053768157958984375,0.03206586837768555,0.5463883876800537,8.737444877624512,5.215513706207275
5_20251106_145901,1762412308583,5,0.33087357878685,0.2191186547279358,0.438039630651474,0.806617021560669,1.1219059228897095,1.8454221487045288,0.3626239597797394,0.4625401198863983,8.627925872802734,5.1889238357543945,-0.042413100600242615,0.0497969314455986,-0.07337630540132523,21.667314529418945,-30.797653198242188,2.960879325866699,-0.0670786201953888,-0.0876150131225586,-0.021271705627441406,0.5296187400817871,8.715540885925293,5.210195541381836
5_20251106_145901,1762412308602,5,0.33177053928375244,0.21848566830158234,0.43815645575523376,0.8063567876815796,1.1219059228897095,1.8454221487045288,0.3626239597797394,0.4625401198863983,8.627925872802734,5.1889238357543945,-0.07601065933704376,0.0552947111427784,-0.07276544719934464,21.707199096679688,-30.732757568359375,2.9907026290893555,-0.0670786201953888,-0.0876150131225586,-0.021271705627441406,0.5296187400817871,8.715540885925293,5.210195541381836
5_20251106_145901,1762412308621,5,0.3327905535697937,0.2177298367023468,0.43808281421661377,0.8061808943748474,1.1159218549728394,1.84335196018219,0.3684808015823364,0.40508174896240234,8.490264892578125,5.307432174682617,-0.08273017406463623,0.04857520014047623,-0.050163447856903076,21.760160446166992,-30.665847778320312,2.8993701934814453,-0.07663923501968384,-0.15164566040039062,0.0846400260925293,0.4817209839820862,8.641910552978516,5.222792148590088
5_20251106_145901,1762412308641,5,0.33330872654914856,0.21661609411239624,0.43796074390411377,0.8063331246376038,1.1129162311553955,1.8419857025146484,0.37208518385887146,0.4948604702949524,8.611166000366211,5.422348499298096,-0.052186936140060425,0.03391444683074951,-0.01656588725745678,21.79580307006836,-30.687911987304688,2.8327322006225586,0.010511606931686401,-0.024595260620117188,0.15964508056640625,0.484348863363266,8.635761260986328,5.2627034187316895
5_20251106_145901,1762412308658,5,0.3339011073112488,0.21582220494747162,0.4376743733882904,0.806456446647644,1.1129162311553955,1.8419857025146484,0.37208518385887146,0.4948604702949524,8.611166000366211,5.422348499298096,-0.017367646098136902,0.01314504537731409,0.01275561936199665,21.749370574951172,-30.653152465820312,2.804530143737793,0.010511606931686401,-0.024595260620117188,0.15964508056640625,0.484348863363266,8.635761260986328,5.2627034187316895
5_20251106_145901,1762412308678,5,0.3343329131603241,0.2154909372329712,0.43732932209968567,0.806553304195404,1.1082228422164917,1.8403544425964355,0.3798257112503052,0.5571070313453674,8.703339576721191,5.457062721252441,0.029058072715997696,0.009479857049882412,0.037801072001457214,21.750471115112305,-30.640060424804688,2.7507286071777344,0.04867202043533325,0.03558826446533203,0.1188359260559082,0.5084350109100342,8.66775131225586,5.338226795196533
5_20251106_145901,1762412308697,5,0.3344791829586029,0.21564099192619324,0.4371839165687561,0.8065313696861267,1.1082228422164917,1.8403544425964355,0.3798257112503052,0.5571070313453674,8.703339576721191,5.457062721252441,0.04677315056324005,0.03147098794579506,0.05551615357398987,21.735267639160156,-30.69134521484375,2.776214599609375,0.04867202043533325,0.03558826446533203,0.1188359260559082,0.5084350109100342,8.66775131225586,5.338226795196533
5_20251106_145901,1762412308717,5,0.3343193531036377,0.21593986451625824,0.4373059868812561,0.8064514994621277,1.10505211353302,1.8385560512542725,0.3872488737106323,0.6875854134559631,8.576452255249023,5.151815414428711,0.04677315056324005,0.03147098794579506,0.05551615357398987,21.735267639160156,-30.69134521484375,2.776214599609375,0.12327498197555542,-0.06915664672851562,-0.15262937545776367,0.5643104314804077,8.645608901977539,5.304444789886475
5_20251106_145901,1762412308737,5,0.3340314030647278,0.21617081761360168,0.43747782707214355,0.8064157366752625,1.1041746139526367,1.8369879722595215,0.389558881521225,0.6971617937088013,8.450761795043945,4.997395992279053,0.035777583718299866,0.0449100099503994,0.030470697209239006,21.7365779876709,-30.666366577148438,2.7902584075927734,0.1062811017036438,-0.15587806701660156,-0.24563932418823242,0.5908806920051575,8.606639862060547,5.243035316467285
5_20251106_145901,1762412308755,5,0.3337676525115967,0.21644404530525208,0.43780431151390076,0.8062744736671448,1.1037243604660034,1.8351778984069824,0.39112067222595215,0.7127234935760498,8.416047096252441,5.075203895568848,0.035777583718299866,0.0449100099503994,0.030470697209239006,21.708173751831055,-30.743026733398438,2.7606611251831055,0.09747421741485596,-0.15247440338134766,-0.13426542282104492,0.6152492761611938,8.568521499633789,5.209469318389893
5_20251106_145901,1762412308774,5,0.3339187800884247,0.21701328456401825,0.43789583444595337,0.8060091137886047,1.103461503982544,1.8331316709518433,0.3929719924926758,0.6839942932128906,8.484278678894043,5.313417434692383,-0.022254563868045807,-0.042443640530109406,0.040244534611701965,21.768497467041016,-30.751480102539062,2.749333381652832,0.05499601364135742,-0.06739425659179688,0.08315849304199219,0.6289982795715332,8.55167293548584,5.230258941650391
5_20251106_145901,1762412308794,5,0.33423683047294617,0.21784904599189758,0.43752092123031616,0.8058554530143738,1.103067398071289,1.8311607837677002,0.3951488733291626,0.5858362317085266,8.576452255249023,5.337358474731445,-0.022254563868045807,-0.042443640530109406,0.040244534611701965,21.728315353393555,-30.816787719726562,2.7600584030151367,-0.03452962636947632,0.019823074340820312,0.08567953109741211,0.6203658580780029,8.556629180908203,5.251678943634033
5_20251106_145901,1762412308811,5,0.33457323908805847,0.21872033178806305,0.4369458854198456,0.8057917952537537,1.102473497390747,1.8294944763183594,0.39693716168403625,0.4948604702949524,8.522584915161133,5.265535354614258,-0.012480729259550571,-0.007624355144798756,0.009090431034564972,21.71673583984375,-30.805160522460938,2.773347854614258,-0.10040432214736938,-0.027235031127929688,0.01108551025390625,0.5952647924423218,8.549819946289062,5.254449844360352
5_20251106_145901,1762412308831,5,0.3348972201347351,0.21918731927871704,0.4364914298057556,0.8057766556739807,1.102473497390747,1.8294944763183594,0.39693716168403625,0.4948604702949524,8.522584915161133,5.265535354614258,-0.03691531717777252,0.03086012415587902,-0.0025159986689686775,21.75067138671875,-30.852737426757812,2.7467308044433594,-0.10040432214736938,-0.027235031127929688,0.01108551025390625,0.5952647924423218,8.549819946289062,5.254449844360352
5_20251106_145901,1762412308850,5,0.33525824546813965,0.219042107462883,0.43626895546913147,0.8057864904403687,1.1002105474472046,1.825547456741333,0.4005875289440155,0.4517666697502136,8.456747055053711,5.260746955871582,-0.042413100600242615,0.04124482348561287,-0.005570322275161743,21.77273178100586,-30.889083862304688,2.7739524841308594,-0.09643548727035522,-0.06933403015136719,0.009776115417480469,0.5482021570205688,8.526081085205078,5.250970840454102
5_20251106_145901,1762412308870,5,0.3356859087944031,0.2186417132616043,0.4360657036304474,0.8058272004127502,1.1002105474472046,1.825547456741333,0.4005875289440155,0.4517666697502136,8.456747055053711,5.260746955871582,-0.022254563868045807,0.04429914802312851,0.004203513264656067,21.77433967590332,-30.863693237304688,2.747447967529297,-0.09643548727035522,-0.06933403015136719,0.009776115417480469,0.5482021570205688,8.526081085205078,5.250970840454102
5_20251106_145901,1762412308888,5,0.3360346555709839,0.21822883188724518,0.4359346032142639,0.805864691734314,1.0987002849578857,1.8233057260513306,0.4025402069091797,0.48648110032081604,8.480688095092773,5.287082195281982,-0.023476295173168182,0.04796433448791504,0.015199078246951103,21.700517654418945,-30.881011962890625,2.744241714477539,-0.049376875162124634,-0.036314964294433594,0.028889179229736328,0.5358579754829407,8.517003059387207,5.258193016052246
5_20251106_145901,1762412308909,5,0.3361344635486603,0.21777832508087158,0.43589410185813904,0.805966854095459,1.096518874168396,1.8202505111694336,0.40589240193367004,0.6169595122337341,8.666231155395508,5.320599555969238,-0.023476295173168182,0.04796433448791504,0.015199078246951103,21.701828002929688,-30.856033325195312,2.7582855224609375,0.061289846897125244,0.11063671112060547,0.05373048782348633,0.5556696653366089,8.555594444274902,5.266869068145752
5_20251106_145901,1762412308928,5,0.33630073070526123,0.21759191155433655,0.4356391429901123,0.8060857057571411,1.0957815647125244,1.8194212913513184,0.4078275263309479,0.6181565523147583,8.702142715454102,5.373269557952881,-0.045467425137758255,0.014366774819791317,0.020696859806776047,21.678062438964844,-30.845199584960938,2.771084785461426,0.049989521503448486,0.11723899841308594,0.08512067794799805,0.5681670308113098,8.584903717041016,5.288148880004883
5_20251106_145901,1762412308947,5,0.3366294205188751,0.21781563758850098,0.4352492392063141,0.8060986995697021,1.0957815647125244,1.8194212913513184,0.4078275263309479,0.6181565523147583,8.702142715454102,5.373269557952881,-0.03141753375530243,-0.005180896259844303,0.021307725459337234,21.717031478881836,-30.804733276367188,2.732799530029297,0.049989521503448486,0.11723899841308594,0.08512067794799805,0.5681670308113098,8.584903717041016,5.288148880004883
5_20251106_145901,1762412308965,5,0.33688876032829285,0.21816886961460114,0.4349842667579651,0.8060378432273865,1.094576358795166,1.818464756011963,0.41173920035362244,0.5690775513648987,8.6494722366333,5.328979015350342,0.0015691593289375305,0.01803196221590042,0.020085996016860008,21.766382217407227,-30.789138793945312,2.748541831970215,-0.0030562877655029297,0.03921699523925781,0.022874832153320312,0.5721338391304016,8.610255241394043,5.3061041831970215
5_20251106_145901,1762412308985,5,0.3373251259326935,0.2186165302991867,0.4347814917564392,0.8058434128761292,1.0939682722091675,1.8180125951766968,0.41359734535217285,0.571471631526947,8.5968017578125,5.263140678405762,0.0015691593289375305,0.0449100099503994,0.010923024266958237,21.746139526367188,-30.71551513671875,2.7626609802246094,-0.0005297660827636719,-0.010762214660644531,-0.03437089920043945,0.5720013976097107,8.607563972473145,5.297511577606201
5_20251106_145901,1762412309005,5,0.3397602438926697,0.21983323991298676,0.4341884255409241,0.804808497428894,1.093559980392456,1.8174266815185547,0.41499972343444824,0.6277329325675964,8.55610179901123,5.178150653839111,0.0064560770988464355,0.05346211791038513,0.013977348804473877,21.771413803100586,-30.701095581054688,2.7368736267089844,0.044585227966308594,-0.041169166564941406,-0.0954890251159668,0.5831477046012878,8.597270965576172,5.273639678955078
5_20251106_145901,1762412309022,5,0.34197351336479187,0.2208656370639801,0.43376025557518005,0.8038187026977539,1.093520164489746,1.8167343139648438,0.4155411720275879,0.7151175737380981,8.49744701385498,5.004578590393066,0.013786453753709793,0.070566326379776,0.02252945490181446,21.73413848876953,-30.727645874023438,2.640260696411133,0.10557591915130615,-0.07985877990722656,-0.21524858474731445,0.609541654586792,8.577305793762207,5.219827175140381
5_20251106_145901,1762412309041,5,0.34442460536956787,0.2221299707889557,0.4332859516143799,0.8026788234710693,1.093520164489746,1.8167343139648438,0.4155411720275879,0.7151175737380981,8.49744701385498,5.004578590393066,-0.003928623162209988,0.10172043740749359,0.03596847876906395,21.770498275756836,-30.725540161132812,2.668764114379883,0.10557591915130615,-0.07985877990722656,-0.21524858474731445,0.609541654586792,8.577305793762207,5.219827175140381
5_20251106_145901,1762412309061,5,0.34389519691467285,0.221930131316185,0.43366357684135437,0.8027571439743042,1.096246361732483,1.8143867254257202,0.41337838768959045,1.2226665019989014,8.411258697509766,4.757986068725586,-0.003928623162209988,0.10172043740749359,0.03596847876906395,21.73666000366211,-30.677825927734375,2.6818647384643555,0.4425802230834961,-0.11431407928466797,-0.2994089126586914,0.7800862789154053,8.525572776794434,5.057394981384277
