session_id,timestamp,label,quaternion_w,quaternion_x,quaternion_y,quaternion_z,position_x,position_y,position_z,accelerometer_x,accelerometer_y,accelerometer_z,gyroscope_x,gyroscope_y,gyroscope_z,magnetometer_x,magnetometer_y,magnetometer_z,linear_acceleration_x,linear_acceleration_y,linear_acceleration_z,gravity_x,gravity_y,gravity_z
5_20251106_150047,1762412410655,5,0.3106783628463745,0.46445152163505554,0.685219943523407,0.46715879440307617,0.8705559968948364,1.927833080291748,-2.216956377029419,-0.10007306933403015,9.15103530883789,-3.6488914489746094,0.04127536714076996,0.013755910098552704,0.053683556616306305,26.731489181518555,-18.721878051757812,19.318098068237305,-0.06573054939508438,-0.02175426483154297,-0.061080217361450195,-0.03434251993894577,9.172789573669434,-3.587811231613159
5_20251106_150047,1762412410672,5,0.31016114354133606,0.4641782343387604,0.6856017112731934,0.4672139585018158,0.8687836527824402,1.9271105527877808,-2.216789960861206,0.007661372423171997,9.154626846313477,-3.763808250427246,0.04127536714076996,0.013755910098552704,0.053683556616306305,26.728769302368164,-18.77197265625,19.303525924682617,0.03626735508441925,-0.0068359375,-0.11723470687866211,-0.028605984523892403,9.161462783813477,-3.646573543548584
5_20251106_150047,1762412410691,5,0.30983346700668335,0.46456828713417053,0.6856407523155212,0.46698638796806335,0.8683275580406189,1.926935076713562,-2.2170937061309814,0.09025778621435165,9.226449012756348,-3.717123031616211,0.02417115494608879,-0.013122137635946274,0.07872900366783142,26.73805046081543,-18.8099365234375,19.411354064941406,0.09509101510047913,0.05198955535888672,-0.05643939971923828,-0.00483323261141777,9.174459457397461,-3.6606836318969727
5_20251106_150047,1762412410709,5,0.30948805809020996,0.46512097120285034,0.6855610609054565,0.46678224205970764,0.8682632446289062,1.926925778388977,-2.217284917831421,0.13574564456939697,9.23482894897461,-3.6273443698883057,0.02417115494608879,-0.013122137635946274,0.07872900366783142,26.713579177856445,-18.811660766601562,19.42388916015625,0.1124631017446518,0.04829597473144531,0.026671409606933594,0.02328254096210003,9.186532974243164,-3.6540157794952393
5_20251106_150047,1762412410729,5,0.3091822564601898,0.4657176434993744,0.6853525638580322,0.4666961431503296,0.8685663342475891,1.9270628690719604,-2.2176530361175537,0.1453220546245575,9.23482894897461,-3.7087438106536865,0.026003751903772354,0.015588504262268543,0.04268798977136612,26.68910789489746,-18.813385009765625,19.436424255371094,0.09763161092996597,0.03863716125488281,-0.04378247261047363,0.04769044369459152,9.196191787719727,-3.664961338043213
5_20251106_150047,1762412410748,5,0.3088163137435913,0.466022789478302,0.6852386593818665,0.4668010473251343,0.8691799640655518,1.9273056983947754,-2.218250036239624,0.17165714502334595,9.239617347717285,-3.761414051055908,0.026003751903772354,0.015588504262268543,0.04268798977136612,26.702308654785156,-18.788009643554688,19.49150848388672,0.09917336702346802,0.034740447998046875,-0.07716226577758789,0.07248377799987793,9.204876899719238,-3.6842517852783203
5_20251106_150047,1762412410767,5,0.3083880543708801,0.4661225378513336,0.6852516531944275,0.4669654667377472,0.8702452182769775,1.9275922775268555,-2.2190024852752686,0.24826830625534058,9.225253105163574,-3.751837730407715,0.018673373386263847,0.019253691658377647,0.03535761684179306,26.675216674804688,-18.839691162109375,19.475955963134766,0.14062762260437012,0.01630115509033203,-0.054068565368652344,0.10764068365097046,9.208951950073242,-3.6977691650390625
5_20251106_150047,1762412410786,5,0.3079916834831238,0.4663555920124054,0.685200572013855,0.4670693576335907,0.8719911575317383,1.9279059171676636,-2.219606399536133,0.375155508518219,9.224056243896484,-3.657270908355713,0.007677806541323662,-0.013122138567268848,0.05001836270093918,26.587602615356445,-18.883193969726562,19.498764038085938,0.21401186287403107,0.012083053588867188,0.03239870071411133,0.16114364564418793,9.211973190307617,-3.689669609069824
5_20251106_150047,1762412410806,5,0.30768880248069763,0.46683454513549805,0.6849814653396606,0.46711182594299316,0.8744604587554932,1.928270936012268,-2.219853401184082,0.3990965187549591,9.228843688964844,-3.572280168533325,0.0082886703312397,-0.029004620388150215,0.03596847504377365,26.550945281982422,-18.885711669921875,19.51080894470215,0.19036230444908142,0.01349639892578125,0.09391140937805176,0.20873421430587769,9.215347290039062,-3.666191577911377
5_20251106_150047,1762412410826,5,0.3074009120464325,0.4673668444156647,0.6846552491188049,0.4672473967075348,0.8772976994514465,1.9286441802978516,-2.219700574874878,0.3703673481941223,9.224056243896484,-3.5387628078460693,0.0082886703312397,-0.029004620388150215,0.03596847504377365,26.587602615356445,-18.883193969726562,19.498764038085938,0.12930651009082794,0.0069675445556640625,0.1019430160522461,0.24106083810329437,9.21708869934082,-3.6407058238983154
5_20251106_150047,1762412410845,5,0.3072788715362549,0.4677996039390564,0.6842905282974243,0.4674288034439087,0.8801605105400085,1.9289146661758423,-2.2193191051483154,0.35121452808380127,9.19293212890625,-3.5519304275512695,0.007677806541323662,-0.0271720290184021,0.006646972149610519,26.552553176879883,-18.860321044921875,19.484304428100586,0.08812296390533447,-0.01932525634765625,0.07102036476135254,0.2630915641784668,9.212257385253906,-3.622950792312622
5_20251106_150047,1762412410864,5,0.30718252062797546,0.46776264905929565,0.6841715574264526,0.4677031934261322,0.8829445838928223,1.928895354270935,-2.2187256813049316,0.2865738868713379,9.111533164978027,-3.5387625694274902,-0.004539487883448601,0.0021494803950190544,-0.04833085089921951,26.53976058959961,-18.87353515625,19.470033645629883,0.018785864114761353,-0.08057880401611328,0.06735062599182129,0.26778802275657654,9.19211196899414,-3.6061131954193115
5_20251106_150047,1762412410881,5,0.3070479929447174,0.4673098623752594,0.6843156814575195,0.46803322434425354,0.8851814270019531,1.9283391237258911,-2.2178683280944824,0.2087656557559967,8.946340560913086,-3.4453930854797363,-0.027141481637954712,0.016810232773423195,-0.06910025328397751,26.551847457885742,-18.872879028320312,19.484039306640625,-0.047217875719070435,-0.19661712646484375,0.12857604026794434,0.25598353147506714,9.14295768737793,-3.5739691257476807
5_20251106_150047,1762412410901,5,0.30723434686660767,0.46691784262657166,0.6843369603157043,0.4682709872722626,0.8873304724693298,1.926461100578308,-2.2162680625915527,0.14053383469581604,8.729674339294434,-3.3627967834472656,-0.04730001837015152,0.024140609428286552,-0.08681533485651016,26.58699607849121,-18.895614624023438,19.484983444213867,-0.0923597514629364,-0.3306264877319336,0.16893792152404785,0.23289358615875244,9.060300827026367,-3.5317347049713135
5_20251106_150047,1762412410919,5,0.3075346052646637,0.4661311209201813,0.6844989657402039,0.46862074732780457,0.8885749578475952,1.924153208732605,-2.2146341800689697,-0.00790027529001236,8.775161743164062,-3.4238462448120117,-0.04180223494768143,0.0021494803950190544,-0.10880646854639053,26.52637481689453,-18.8875732421875,19.5368595123291,-0.19263508915901184,-0.22811126708984375,0.08631062507629395,0.18473480641841888,9.003273010253906,-3.5101568698883057
5_20251106_150047,1762412410939,5,0.3080301880836487,0.4651046097278595,0.6847249865531921,0.4689849019050598,0.8885749578475952,1.924153208732605,-2.2146341800689697,-0.00790027529001236,8.775161743164062,-3.4238462448120117,0.00034742988646030426,-0.01739819161593914,-0.1314084529876709,26.652254104614258,-18.816177368164062,19.475502014160156,-0.19263508915901184,-0.22811126708984375,0.08631062507629395,0.18473480641841888,9.003273010253906,-3.5101568698883057
5_20251106_150047,1762412410958,5,0.3087915778160095,0.46410679817199707,0.6851531863212585,0.46884724497795105,0.8864078521728516,1.9178282022476196,-2.2126102447509766,-0.5681194067001343,8.779950141906738,-3.8380250930786133,0.029668934643268585,-0.008235219866037369,-0.09903263300657272,26.69102668762207,-18.775985717773438,19.464248657226562,-0.5216645002365112,-0.14618301391601562,-0.24929046630859375,-0.04645487666130066,8.926133155822754,-3.5887346267700195
5_20251106_150047,1762412410977,5,0.3095404803752899,0.4630507230758667,0.6859786510467529,0.46819010376930237,0.8831827640533447,1.9143121242523193,-2.213286876678467,-0.5429813265800476,8.772768020629883,-4.0127949714660645,0.013786453753709793,0.0027603451162576675,-0.002515999600291252,26.694650650024414,-18.71307373046875,19.45205307006836,-0.3972211480140686,-0.12269210815429688,-0.3392484188079834,-0.1457601636648178,8.89546012878418,-3.673546552658081
5_20251106_150047,1762412410997,5,0.31015852093696594,0.4624323844909668,0.6868045330047607,0.46718040108680725,0.8796707987785339,1.9110089540481567,-2.2154061794281006,-0.240127831697464,8.965492248535156,-4.148061275482178,-0.026530617848038673,-0.008846084587275982,0.11843521147966385,26.694650650024414,-18.71307373046875,19.45205307006836,-0.07549414038658142,0.05602550506591797,-0.3796117305755615,-0.16463369131088257,8.909466743469238,-3.768449544906616
5_20251106_150047,1762412411017,5,0.3104800879955292,0.4626452922821045,0.6870806813240051,0.4663492441177368,0.8777950406074524,1.9087661504745483,-2.2184457778930664,0.3069237172603607,9.178567886352539,-4.1791839599609375,-0.04730001837015152,-0.08031725138425827,0.20151281356811523,26.72344970703125,-18.635879516601562,19.42758560180664,0.3772459328174591,0.21528053283691406,-0.32858753204345703,-0.07032221555709839,8.963287353515625,-3.8505964279174805
5_20251106_150047,1762412411034,5,0.31050369143486023,0.46390411257743835,0.6865439414978027,0.46587318181991577,0.8787600994110107,1.9080322980880737,-2.221501111984253,1.007197618484497,9.48501205444336,-3.9804744720458984,-0.028974076732993126,-0.21592923998832703,0.23266690969467163,26.700387954711914,-18.61248779296875,19.440649032592773,0.8620158433914185,0.41737937927246094,-0.10390233993530273,0.14518174529075623,9.067632675170898,-3.8765721321105957
5_20251106_150047,1762412411054,5,0.3105873763561249,0.46649494767189026,0.685097873210907,0.4653588831424713,0.8852923512458801,1.9097273349761963,-2.2237210273742676,1.9588518142700195,9.88003921508789,-3.545945167541504,0.049216609448194504,-0.46271857619285583,0.15997402369976044,26.698471069335938,-18.649887084960938,19.412824630737305,1.4509360790252686,0.6499252319335938,0.26450157165527344,0.507915735244751,9.230113983154297,-3.8104467391967773
5_20251106_150047,1762412411073,5,0.31116440892219543,0.4703182280063629,0.682884931564331,0.46437665820121765,0.8975363969802856,1.9136215448379517,-2.223238468170166,2.8219244480133057,10.09191608428955,-2.904326915740967,0.24286073446273804,-0.821296215057373,-0.01656588725745678,26.659587860107422,-18.701828002929688,19.342716217041016,1.8512070178985596,0.6894416809082031,0.7248959541320801,0.9707174301147461,9.402474403381348,-3.629222869873047
5_20251106_150047,1762412411093,5,0.31313472986221313,0.4753577709197998,0.680070698261261,0.46204495429992676,0.9152225255966187,1.9187674522399902,-2.221447467803955,2.7608749866485596,9.814201354980469,-3.198801040649414,0.5507365465164185,-1.0088316202163696,-0.23220112919807434,26.745878219604492,-18.694915771484375,19.210987091064453,1.4321260452270508,0.32938098907470703,0.34433746337890625,1.3287489414215088,9.484820365905762,-3.5431385040283203
5_20251106_150047,1762412411111,5,0.31769561767578125,0.4800353944301605,0.6792329549789429,0.45527803897857666,0.9318957328796387,1.923158884048462,-2.220839738845825,1.9588518142700195,9.48142147064209,-3.9182276725769043,0.7828651070594788,-0.9202563166618347,-0.36475878953933716,26.819067001342773,-18.713241577148438,19.010658264160156,0.5040823221206665,-0.0027189254760742188,-0.30007123947143555,1.454769492149353,9.484140396118164,-3.6181564331054688
5_20251106_150047,1762412411130,5,0.32192566990852356,0.48455941677093506,0.6802722811698914,0.44586506485939026,0.9474762082099915,1.92654287815094,-2.2238221168518066,1.3495538234710693,9.164203643798828,-5.063803672790527,0.7456023693084717,-0.7143948674201965,-0.3898042142391205,26.99336814880371,-18.66229248046875,18.80205535888672,-0.08417248725891113,-0.2559490203857422,-1.156517744064331,1.4337263107299805,9.42015266418457,-3.9072859287261963
5_20251106_150047,1762412411150,5,0.32488319277763367,0.48825833201408386,0.6826121211051941,0.4359992742538452,0.9647071957588196,1.930037498474121,-2.235553503036499,1.4225736856460571,9.343761444091797,-6.421257972717285,0.7456023693084717,-0.7143948674201965,-0.3898042142391205,27.181772232055664,-18.573150634765625,18.621767044067383,-0.008922219276428223,-0.06111335754394531,-2.0111775398254395,1.4314959049224854,9.404874801635742,-4.410080432891846
5_20251106_150047,1762412411168,5,0.32729214429855347,0.49074187874794006,0.6845569014549255,0.42829206585884094,0.981218695640564,1.9340029954910278,-2.2490592002868652,2.438868761062622,9.859689712524414,-6.015458106994629,-0.1309884935617447,-0.7754813432693481,-0.24625098705291748,27.409242630004883,-18.44342041015625,18.389677047729492,0.8058981895446777,0.36385154724121094,-1.2843022346496582,1.6329705715179443,9.495838165283203,-4.731155872344971
5_20251106_150047,1762412411188,5,0.33188390731811523,0.49269184470176697,0.6839757561683655,0.4234205484390259,1.0034979581832886,1.940298080444336,-2.2630224227905273,3.7185144424438477,10.340902328491211,-4.884246349334717,-0.40709933638572693,-0.9123150706291199,-0.33543723821640015,27.725332260131836,-18.257217407226562,18.09449577331543,1.6684350967407227,0.676051139831543,-0.12247228622436523,2.050079345703125,9.664851188659668,-4.761774063110352
5_20251106_150047,1762412411208,5,0.33959126472473145,0.49409419298171997,0.6809939742088318,0.42047104239463806,1.03462553024292,1.9500724077224731,-2.2767021656036377,4.357738494873047,10.609041213989258,-4.468870162963867,-0.26721131801605225,-0.9746232628822327,-0.5504616498947144,28.151784896850586,-18.06292724609375,17.70911407470703,1.8461272716522217,0.7553520202636719,0.23432302474975586,2.511611223220825,9.853689193725586,-4.703193187713623
5_20251106_150047,1762412411227,5,0.34871718287467957,0.49455854296684265,0.6780436038970947,0.41721105575561523,1.0668888092041016,1.9610486030578613,-2.2891738414764404,4.519340515136719,10.792190551757812,-4.963252067565918,-0.038747914135456085,-1.0741941928863525,-0.7709838151931763,28.557985305786133,-17.806625366210938,17.24297332763672,1.6061835289001465,0.7508010864257812,-0.20804691314697266,2.9131569862365723,10.041389465332031,-4.755205154418945
5_20251106_150047,1762412411245,5,0.3577883839607239,0.49453166127204895,0.6766762137413025,0.4117465317249298,1.0990701913833618,1.972475290298462,-2.3012642860412598,4.190152168273926,10.67009162902832,-5.106897830963135,0.04066450148820877,-1.2244668006896973,-0.9957820177078247,29.052701950073242,-17.494003295898438,16.727256774902344,1.0215961933135986,0.5029621124267578,-0.2813544273376465,3.168555974960327,10.167129516601562,-4.825543403625488
5_20251106_150047,1762412411264,5,0.3678516745567322,0.49429523944854736,0.6762915849685669,0.4037165939807892,1.1318613290786743,1.984738826751709,-2.3136281967163086,3.3582026958465576,10.460607528686523,-4.912975311279297,-0.0033177575096488,-1.3215943574905396,-1.2242454290390015,29.587797164916992,-17.115814208984375,16.173782348632812,0.1517174243927002,0.23478221893310547,-0.0699453353881836,3.2064852714538574,10.225825309753418,-4.843029975891113
5_20251106_150047,1762412411284,5,0.3794117569923401,0.49312108755111694,0.676432192325592,0.3941037952899933,1.162111520767212,1.9964351654052734,-2.3247854709625244,2.3706369400024414,10.039246559143066,-4.446126461029053,-0.0033177575096488,-1.3215943574905396,-1.2242454290390015,30.187135696411133,-16.6827392578125,15.556234359741211,-0.6686785221099854,-0.1492624282836914,0.3175225257873535,3.0393154621124268,10.188508987426758,-4.763648986816406
5_20251106_150047,1762412411303,5,0.39253512024879456,0.4903276860713959,0.676872968673706,0.3838461935520172,1.1847532987594604,2.005120038986206,-2.332463264465332,1.3411743640899658,9.506559371948242,-3.891892433166504,-0.19390755891799927,-1.3777939081192017,-1.5199038982391357,30.781099319458008,-16.160003662109375,14.683235168457031,-1.3585131168365479,-0.5455598831176758,0.6974053382873535,2.6996874809265137,10.052119255065918,-4.589297771453857
5_20251106_150047,1762412411322,5,0.40683484077453613,0.48599061369895935,0.677410900592804,0.37338048219680786,1.1994223594665527,2.0105011463165283,-2.336700916290283,0.20637156069278717,9.006192207336426,-3.4753193855285645,-0.22139647603034973,-1.4627041816711426,-1.5296778678894043,31.46217155456543,-15.606048583984375,13.7601318359375,-1.9946527481079102,-0.8367414474487305,0.8911824226379395,2.201024293899536,9.842933654785156,-4.366501808166504
5_20251106_150047,1762412411340,5,0.4217663109302521,0.4807606041431427,0.677801251411438,0.36272287368774414,1.2048360109329224,2.0123937129974365,-2.3370556831359863,-0.9619486331939697,8.644683837890625,-2.961785078048706,-0.1865771859884262,-1.5793793201446533,-1.4264416694641113,32.25189971923828,-14.856582641601562,12.763813018798828,-2.5303783416748047,-0.9586000442504883,1.1237733364105225,1.568429708480835,9.603283882141113,-4.0855584144592285
5_20251106_150047,1762412411359,5,0.43726998567581177,0.47594085335731506,0.677312970161438,0.35145750641822815,1.2012203931808472,2.010620355606079,-2.3322231769561768,-1.728060245513916,8.265218734741211,-2.194476366043091,-0.06257162988185883,-1.7400367259979248,-1.1967566013336182,33.00031280517578,-13.99578857421875,11.61922836303711,-2.6371920108795166,-1.0704517364501953,1.5128655433654785,0.9091317653656006,9.335670471191406,-3.7073419094085693
5_20251106_150047,1762412411379,5,0.45273011922836304,0.4726184606552124,0.6755580902099609,0.33954164385795593,1.1887397766113281,2.0059494972229004,-2.320808172225952,-2.0069727897644043,8.382530212402344,-1.5420846939086914,0.1530636101961136,-1.9043593406677246,-0.9432476758956909,33.7886962890625,-13.081573486328125,10.396074295043945,-2.332883596420288,-0.76251220703125,1.7322056293487549,0.32591086626052856,9.145042419433594,-3.2742903232574463
5_20251106_150047,1762412411397,5,0.46761661767959595,0.4718697965145111,0.6722387075424194,0.3267548680305481,1.171787977218628,2.0000693798065186,-2.3067004680633545,-2.2248356342315674,8.378938674926758,-1.508567214012146,0.37602925300598145,-1.9770522117614746,-0.7801467180252075,34.540000915527344,-12.193649291992188,9.049274444580078,-2.0405972003936768,-0.6128826141357422,1.4125784635543823,-0.18423840403556824,8.9918212890625,-2.9211456775665283
5_20251106_150047,1762412411417,5,0.48150578141212463,0.47366347908973694,0.6678410768508911,0.31270337104797363,1.1473925113677979,1.9920576810836792,-2.2867250442504883,-2.322993755340576,8.398092269897461,-1.2488075494766235,0.4707132577896118,-1.95017409324646,-0.6982908844947815,34.540000915527344,-12.193649291992188,9.049274444580078,-1.7110042572021484,-0.47498321533203125,1.337870717048645,-0.611989438533783,8.873075485229492,-2.5866782665252686
5_20251106_150047,1762412411436,5,0.49432143568992615,0.47688034176826477,0.6629108190536499,0.29796087741851807,1.1200343370437622,1.9827193021774292,-2.2645702362060547,-2.5588126182556152,8.104814529418945,-1.082417607307434,0.5470713376998901,-1.9074137210845947,-0.731888473033905,35.2080078125,-11.285354614257812,7.618471145629883,-1.557458519935608,-0.6146087646484375,1.2034085988998413,-1.0013540983200073,8.719423294067383,-2.2858262062072754
5_20251106_150047,1762412411456,5,0.5062416195869446,0.48025020956993103,0.6580119729042053,0.2830183804035187,1.085284948348999,1.9704244136810303,-2.238618850708008,-3.4326584339141846,7.746896266937256,-1.036929726600647,0.5470713376998901,-1.9074137210845947,-0.731888473033905,35.846595764160156,-10.478302001953125,6.103477478027344,-1.9450435638427734,-0.7780213356018066,0.9991172552108765,-1.4876148700714111,8.524917602539062,-2.0360469818115234
5_20251106_150047,1762412411475,5,0.5176846981048584,0.48336541652679443,0.6533974409103394,0.26726797223091125,1.0459073781967163,1.956467866897583,-2.211681365966797,-4.409450531005859,7.482348442077637,-0.7544261813163757,0.5592886209487915,-1.8628205060958862,-0.7593773603439331,36.55990982055664,-9.892616271972656,4.964557647705078,-2.3374686241149902,-0.8340559005737305,1.025296688079834,-2.071981906890869,8.316404342651367,-1.779722809791565
5_20251106_150047,1762412411495,5,0.5289590954780579,0.48610880970954895,0.6486520171165466,0.25129884481430054,0.996985673904419,1.9380106925964355,-2.180156707763672,-5.2114739418029785,6.835941314697266,-0.27081817388534546,0.6020491719245911,-1.7919602394104004,-0.6720237731933594,37.08669662475586,-9.141998291015625,3.3494815826416016,-2.511593818664551,-1.1843700408935547,1.2071237564086914,-2.6998801231384277,8.02031135559082,-1.477941870689392
5_20251106_150047,1762412411512,5,0.5396564602851868,0.4888014495372772,0.6436615586280823,0.23567745089530945,0.950697660446167,1.9192142486572266,-2.15177059173584,-5.788451671600342,6.248190402984619,-0.14393094182014465,0.6472530961036682,-1.6917784214019775,-0.537022590637207,37.48787307739258,-8.485603332519531,1.5654573440551758,-2.4708571434020996,-1.4176969528198242,1.0672087669372559,-3.317594528198242,7.665887355804443,-1.2111396789550781
5_20251106_150047,1762412411532,5,0.5491655468940735,0.491998553276062,0.638568639755249,0.22041946649551392,0.8936123251914978,1.896037220954895,-2.119330644607544,-6.211009979248047,6.492388725280762,-0.372567355632782,0.6362575888633728,-1.6361896991729736,-0.3366589844226837,37.813720703125,-7.8717803955078125,-0.2087850570678711,-2.314732551574707,-0.9387989044189453,0.670857846736908,-3.89627742767334,7.431187629699707,-1.04342520236969
5_20251106_150047,1762412411550,5,0.557693600654602,0.4959689974784851,0.632871687412262,0.20607294142246246,0.8936123251914978,1.896037220954895,-2.119330644607544,-6.211009979248047,6.492388725280762,-0.372567355632782,0.6527509093284607,-1.6783393621444702,-0.14240401983261108,38.04631423950195,-7.40191650390625,-1.962331771850586,-2.314732551574707,-0.9387989044189453,0.670857846736908,-3.89627742767334,7.431187629699707,-1.04342520236969
5_20251106_150047,1762412411569,5,0.5656765699386597,0.5010805130004883,0.6259672045707703,0.1925964504480362,0.7710373401641846,1.8507370948791504,-2.055936098098755,-6.697011947631836,7.417707443237305,-0.2516653537750244,0.6955114603042603,-1.694832682609558,-0.025728857144713402,38.154945373535156,-6.9660491943359375,-3.6266965866088867,-1.830775260925293,0.08790254592895508,0.5402436852455139,-4.866236686706543,7.32980489730835,-0.7919090390205383
5_20251106_150047,1762412411589,5,0.5733211040496826,0.5074054598808289,0.6177825927734375,0.1794080287218094,0.6963551640510559,1.8287372589111328,-2.0195155143737793,-7.040565490722656,7.795975208282471,-0.11161061376333237,0.777978241443634,-1.584266185760498,-0.018398480489850044,38.16911315917969,-6.6989898681640625,-5.2979254722595215,-1.7394628524780273,0.3729362487792969,0.5442387461662292,-5.301102638244629,7.423038959503174,-0.6558493375778198
5_20251106_150047,1762412411608,5,0.5800794363021851,0.514070987701416,0.6095288991928101,0.16647347807884216,0.6267414093017578,1.810591697692871,-1.9876277446746826,-7.277581214904785,7.701408386230469,-0.44319331645965576,0.8812143206596375,-1.4510977268218994,-0.021452805027365685,38.07270431518555,-6.451904296875,-6.946800231933594,-1.5811824798583984,0.22269535064697266,0.1701248288154602,-5.696398735046387,7.478713035583496,-0.613318145275116
5_20251106_150047,1762412411628,5,0.5854422450065613,0.520916759967804,0.6019569635391235,0.15346291661262512,0.556155264377594,1.7935768365859985,-1.957199215888977,-7.3194780349731445,7.56015682220459,-0.5640952587127686,0.8812143206596375,-1.4510977268218994,-0.021452805027365685,37.94799041748047,-6.281341552734375,-8.638788223266602,-1.2984638214111328,0.065155029296875,0.03937828540802002,-6.021014213562012,7.495001792907715,-0.6034735441207886
5_20251106_150047,1762412411647,5,0.5897718071937561,0.5281155705451965,0.5945900082588196,0.14044879376888275,0.4822477102279663,1.7770074605941772,-1.9264799356460571,-7.113585472106934,7.6415557861328125,-0.5078339576721191,0.9190879464149475,-1.4187219142913818,0.08789197355508804,37.77687454223633,-6.2657318115234375,-10.146186828613281,-0.8740568161010742,0.11724281311035156,0.0765116810798645,-6.239528656005859,7.524312973022461,-0.5843456387519836
5_20251106_150047,1762412411666,5,0.5937214493751526,0.5357859134674072,0.5866466760635376,0.1275692731142044,0.4128984808921814,1.7624015808105469,-1.898355484008789,-7.204561233520508,7.651132583618164,-0.4384050965309143,0.9117575883865356,-1.371685266494751,0.031692422926425934,37.462154388427734,-6.422645568847656,-11.608346939086914,-0.7720260620117188,0.1014556884765625,0.11675244569778442,-6.432535171508789,7.549676895141602,-0.5551575422286987
5_20251106_150047,1762412411684,5,0.5973172187805176,0.5431613326072693,0.5787806510925293,0.11489524692296982,0.34758979082107544,1.7490462064743042,-1.873280644416809,-7.607966423034668,7.46439266204834,-0.6514798402786255,0.8580014705657959,-1.2550101280212402,-0.09842175990343094,37.11805725097656,-6.6459503173828125,-12.870063781738281,-0.940345287322998,-0.06822729110717773,-0.0770578384399414,-6.66762113571167,7.532619953155518,-0.5744220018386841
5_20251106_150047,1762412411705,5,0.6005182266235352,0.5497952699661255,0.5715563297271729,0.10210953652858734,0.26972734928131104,1.732571005821228,-1.8453905582427979,-8.302255630493164,7.033454895019531,-0.5449424386024475,0.6949005722999573,-1.083967924118042,-0.23647718131542206,36.74787902832031,-6.8963623046875,-14.092740058898926,-1.3077077865600586,-0.39933204650878906,0.023583650588989258,-6.9945478439331055,7.43278694152832,-0.5685260891914368
5_20251106_150047,1762412411722,5,0.6034981608390808,0.5546862483024597,0.5657349824905396,0.08976130932569504,0.26972734928131104,1.732571005821228,-1.8453905582427979,-8.302255630493164,7.033454895019531,-0.5449424386024475,0.4872066378593445,-0.8231287598609924,-0.3110026717185974,36.41356658935547,-7.1453399658203125,-15.219331741333008,-1.3077077865600586,-0.39933204650878906,0.023583650588989258,-6.9945478439331055,7.43278694152832,-0.5685260891914368
5_20251106_150047,1762412411742,5,0.6063050031661987,0.5576364994049072,0.5614522099494934,0.07878586649894714,0.12797732651233673,1.700068473815918,-1.7975945472717285,-9.240741729736328,6.60610818862915,0.054779261350631714,0.31005585193634033,-0.6239868998527527,-0.31405699253082275,36.008872985839844,-7.337371826171875,-16.23941421508789,-1.4827642440795898,-0.538459300994873,0.47667577862739563,-7.757977485656738,7.144567489624023,-0.4218965172767639
5_20251106_150047,1762412411760,5,0.6088553667068481,0.5588680505752563,0.5586425065994263,0.06985849142074585,0.0577317476272583,1.6831395626068115,-1.7731311321258545,-9.416707992553711,6.554635047912598,0.4677613079547882,0.31005585193634033,-0.6239868998527527,-0.31405699253082275,35.612770080566406,-7.568305969238281,-17.057056427001953,-1.3269844055175781,-0.47194576263427734,0.7117263078689575,-8.089723587036133,7.026580810546875,-0.24396497011184692
5_20251106_150047,1762412411779,5,0.6110756397247314,0.5584371089935303,0.557451069355011,0.0631098821759224,-0.017272546887397766,1.6646323204040527,-1.745891809463501,-9.753079414367676,6.468447685241699,0.7430826425552368,0.2544671595096588,-0.46760550141334534,-0.3476545512676239,35.24406814575195,-7.735542297363281,-17.8048152923584,-1.3306846618652344,-0.4465065002441406,0.789638102054596,-8.422394752502441,6.91495418548584,-0.04655545949935913
5_20251106_150047,1762412411799,5,0.6128239631652832,0.5582180619239807,0.556498646736145,0.05611276254057884,-0.017272546887397766,1.6646323204040527,-1.745891809463501,-9.753079414367676,6.468447685241699,0.7430826425552368,0.2819560766220093,-0.1921055018901825,-0.41668227314949036,34.90639114379883,-7.776153564453125,-18.494890213012695,-1.3306846618652344,-0.4465065002441406,0.789638102054596,-8.422394752502441,6.91495418548584,-0.04655545949935913
5_20251106_150047,1762412411818,5,0.6138405799865723,0.5576982498168945,0.5565242767333984,0.049528513103723526,-0.1710679531097412,1.6256756782531738,-1.6897997856140137,-10.528767585754395,6.1943230628967285,0.44860848784446716,0.29417335987091064,0.043077416718006134,-0.37147825956344604,34.6310920715332,-7.752838134765625,-18.897350311279297,-1.3980674743652344,-0.4891667366027832,0.2676822543144226,-9.13070011138916,6.683489799499512,0.18092623353004456
5_20251106_150047,1762412411837,5,0.6137170791625977,0.5573211908340454,0.5575274229049683,0.04367663338780403,-0.253187894821167,1.6030805110931396,-1.6619125604629517,-10.765783309936523,5.756202697753906,0.23673076927661896,0.29417335987091064,0.043077416718006134,-0.37147825956344604,34.386314392089844,-7.615196228027344,-19.269420623779297,-1.3080663681030273,-0.7418293952941895,0.04464362561702728,-9.457716941833496,6.498032093048096,0.19208714365959167
5_20251106_150047,1762412411857,5,0.6122905015945435,0.5570322275161743,0.5596673488616943,0.039848607033491135,-0.253187894821167,1.6030805110931396,-1.6619125604629517,-10.765783309936523,5.756202697753906,0.23673076927661896,0.23308688402175903,0.3026949167251587,-0.25113794207572937,34.236328125,-7.4980621337890625,-19.462385177612305,-1.3080663681030273,-0.7418293952941895,0.04464362561702728,-9.457716941833496,6.498032093048096,0.19208714365959167
5_20251106_150047,1762412411875,5,0.6097348928451538,0.5570988059043884,0.5624781847000122,0.03850413113832474,-0.40640538930892944,1.5559943914413452,-1.6118253469467163,-10.069101333618164,5.53953742980957,0.35284456610679626,0.18055251240730286,0.7938300967216492,0.09705495089292526,34.236328125,-7.4980621337890625,-19.462385177612305,-0.2991619110107422,-0.6214804649353027,0.11495101451873779,-9.769939422607422,6.161017894744873,0.23789355158805847
5_20251106_150047,1762412411895,5,0.605945348739624,0.5578380823135376,0.5657439231872559,0.039758410304784775,-0.48111027479171753,1.529665470123291,-1.5879008769989014,-9.720758438110352,5.364768028259277,0.048794012516736984,0.24224987626075745,0.9477680325508118,0.18440860509872437,34.14497375488281,-7.403289794921875,-19.53177833557129,0.03934478759765625,-0.6370000839233398,-0.15127962827682495,-9.760103225708008,6.001768112182617,0.20007364451885223
5_20251106_150047,1762412411914,5,0.600783109664917,0.559528112411499,0.5693700313568115,0.04249323904514313,-0.5492314100265503,1.5034891366958618,-1.5675352811813354,-10.015233039855957,5.121767044067383,-0.24687717854976654,0.26729530096054077,1.144466519355774,0.2534363269805908,34.256591796875,-7.33551025390625,-19.309783935546875,-0.20410442352294922,-0.7040009498596191,-0.3575606644153595,-9.811128616333008,5.825767993927002,0.11068348586559296
5_20251106_150047,1762412411934,5,0.5944589376449585,0.5617560744285583,0.5735013484954834,0.046313196420669556,-0.6202146410942078,1.4732258319854736,-1.54963219165802,-10.752614974975586,4.481345176696777,-0.6993618607521057,0.15672878921031952,1.4743335247039795,0.38599395751953125,34.440731048583984,-7.2637786865234375,-19.00374984741211,-0.7531890869140625,-1.075538158416748,-0.6480363011360168,-9.999425888061523,5.556883335113525,-0.051325567066669464
5_20251106_150047,1762412411952,5,0.5866531729698181,0.5641192197799683,0.5786898732185364,0.05220755562186241,-0.6815594434738159,1.4451323747634888,-1.5374138355255127,-11.832353591918945,3.892397403717041,-1.0704472064971924,-0.19451841711997986,1.9074366092681885,0.678598165512085,34.63386917114258,-7.2187957763671875,-18.45446014404297,-1.4663419723510742,-1.3315887451171875,-0.8152973651885986,-10.366011619567871,5.2239861488342285,-0.25514987111091614
5_20251106_150047,1762412411972,5,0.5777762532234192,0.5660111904144287,0.5847331881523132,0.0623941570520401,-0.7542332410812378,1.4096274375915527,-1.5230633020401,-11.718633651733398,3.8732447624206543,-0.026620090007781982,-0.6300650238990784,2.339317798614502,1.1080360412597656,34.90436935424805,-7.2950286865234375,-17.782730102539062,-1.0820980072021484,-1.0805935859680176,0.18282383680343628,-10.63653564453125,4.953838348388672,-0.20944392681121826
5_20251106_150047,1762412411989,5,0.5683653354644775,0.567127525806427,0.5908219814300537,0.07909893244504929,-0.8150575757026672,1.3785022497177124,-1.5085866451263428,-10.103815078735352,4.641750335693359,0.6868213415145874,-0.6593864560127258,2.69667387008667,1.5313653945922852,35.285911560058594,-7.5056304931640625,-16.68999481201172,0.4261760711669922,-0.24967050552368164,0.7170122265815735,-10.529991149902344,4.891420841217041,-0.030190885066986084
5_20251106_150047,1762412412010,5,0.5576422214508057,0.5681072473526001,0.596537172794342,0.10214082151651382,-0.8740619421005249,1.3445404767990112,-1.4916110038757324,-8.02094841003418,5.051140785217285,0.24750420451164246,-0.31730222702026367,2.7766971588134766,1.8404629230499268,35.70375061035156,-7.9039764404296875,-15.342448234558105,2.007234573364258,0.1277761459350586,0.2221560776233673,-10.028182983398438,4.923364639282227,0.025348128750920296
5_20251106_150047,1762412412027,5,0.5438886284828186,0.5712351202964783,0.6013199090957642,0.12763187289237976,-0.9104740023612976,1.3199964761734009,-1.4805026054382324,-5.946462154388428,5.64008903503418,-0.8609635829925537,0.0650990903377533,2.7009496688842773,2.031663656234741,36.05424118041992,-8.396209716796875,-13.796457290649414,3.265376567840576,0.5733795166015625,-0.7090493440628052,-9.211838722229004,5.066709518432617,-0.15191420912742615
5_20251106_150047,1762412412047,5,0.5272641181945801,0.5773482322692871,0.6045169830322266,0.1523837447166443,-0.9350349307060242,1.2954870462417603,-1.4755775928497314,-3.9042959213256836,6.027933120727539,-2.615838050842285,0.33449041843414307,2.634976387023926,2.1562798023223877,36.35823059082031,-9.043533325195312,-12.052360534667969,4.246034622192383,0.7689790725708008,-1.9711391925811768,-8.150330543518066,5.258954048156738,-0.6446989178657532
5_20251106_150047,1762412412067,5,0.5082862377166748,0.5857706665992737,0.6063483357429504,0.1756688803434372,-0.9373084306716919,1.2755815982818604,-1.48399817943573,-1.2229053974151611,6.370289325714111,-4.953675270080566,0.462772011756897,2.482260227203369,2.3010549545288086,36.50838088989258,-10.016487121582031,-10.022900581359863,5.541940689086914,0.8890681266784668,-3.447181224822998,-6.764845848083496,5.4812211990356445,-1.506494164466858
5_20251106_150047,1762412412086,5,0.4875383973121643,0.5957165956497192,0.6068001985549927,0.19804447889328003,-0.9141582250595093,1.2615833282470703,-1.5070786476135254,2.420912742614746,6.926917552947998,-7.149064064025879,0.4829305410385132,2.053433418273926,2.4543819427490234,36.55431365966797,-11.097732543945312,-7.850795745849609,7.348607063293457,1.1565570831298828,-4.514056205749512,-4.927694320678711,5.770360469818115,-2.635007858276367
5_20251106_150047,1762412412105,5,0.4667222797870636,0.6073416471481323,0.604403018951416,0.21909672021865845,-0.8627915978431702,1.2548112869262695,-1.5439385175704956,5.778636932373047,8.149105072021484,-8.077974319458008,0.4248984158039093,1.4425685405731201,2.356032609939575,36.475685119628906,-12.4383544921875,-5.580254554748535,8.565065383911133,1.9029955863952637,-4.354373455047607,-2.786428451538086,6.246109485626221,-3.7236008644104004
5_20251106_150047,1762412412126,5,0.448093056678772,0.620462954044342,0.5982468724250793,0.23735849559307098,-0.7735020518302917,1.2565982341766357,-1.5980619192123413,7.762146949768066,8.90085220336914,-8.324565887451172,0.43833744525909424,0.9019531607627869,1.8795583248138428,36.218292236328125,-13.94036865234375,-3.360295295715332,8.438860893249512,2.1237940788269043,-3.680772304534912,-0.6767135858535767,6.777058124542236,-4.64379358291626
5_20251106_150047,1762412412143,5,0.43283116817474365,0.6331016421318054,0.5904726386070251,0.25135940313339233,-0.7735020518302917,1.2565982341766357,-1.5980619192123413,7.762146949768066,8.90085220336914,-8.324565887451172,0.39068999886512756,0.5207735896110535,1.177674651145935,35.66598129272461,-15.53436279296875,-1.3969831466674805,8.438860893249512,2.1237940788269043,-3.680772304534912,-0.6767135858535767,6.777058124542236,-4.64379358291626
5_20251106_150047,1762412412162,5,0.420992910861969,0.643163800239563,0.5842229127883911,0.26036298274993896,-0.5749306678771973,1.27256441116333,-1.710120677947998,7.003217697143555,8.526176452636719,-8.19767951965332,0.049216605722904205,0.4474698603153229,0.481288880109787,35.093502044677734,-17.077835083007812,0.37717628479003906,4.737418174743652,1.0717449188232422,-2.198258876800537,2.2657995223999023,7.454431533813477,-5.999420642852783
5_20251106_150047,1762412412182,5,0.41326770186424255,0.6489882469177246,0.5806938409805298,0.2661178708076477,-0.5749306678771973,1.27256441116333,-1.710120677947998,7.003217697143555,8.526176452636719,-8.19767951965332,-0.4920095205307007,0.8170430064201355,-0.12468894571065903,34.58152770996094,-18.428146362304688,1.995060920715332,4.737418174743652,1.0717449188232422,-2.198258876800537,2.2657995223999023,7.454431533813477,-5.999420642852783
5_20251106_150047,1762412412199,5,0.40923169255256653,0.648806095123291,0.5807456970214844,0.27260687947273254,-0.35705462098121643,1.2966758012771606,-1.8266804218292236,3.2061774730682373,8.035385131835938,-5.772457122802734,-1.0619462728500366,1.3588800430297852,-0.6005525588989258,34.046138763427734,-19.5889892578125,3.264010429382324,0.2800748348236084,0.3248863220214844,0.3455948829650879,2.926102638244629,7.710498809814453,-6.118052005767822
5_20251106_150047,1762412412219,5,0.4076821208000183,0.6417931318283081,0.5846084356307983,0.28307220339775085,-0.25811970233917236,1.3079066276550293,-1.8761816024780273,1.2621691226959229,7.461997985839844,-4.260583877563477,-1.3918132781982422,1.716235876083374,-0.8332920074462891,33.597225189208984,-20.316757202148438,4.328126907348633,-1.3311467170715332,-0.19880104064941406,1.4859743118286133,2.593315839767456,7.660799026489258,-5.74655818939209
5_20251106_150047,1762412412238,5,0.40780016779899597,0.6290608644485474,0.5912324786186218,0.2973645031452179,-0.16710340976715088,1.3159093856811523,-1.9200555086135864,-0.011491432785987854,6.598926067352295,-3.8954837322235107,-1.293463945388794,1.7027969360351562,-0.694014847278595,33.18313217163086,-20.877944946289062,5.220943450927734,-2.083845853805542,-0.8494982719421387,1.4808595180511475,2.072354316711426,7.448424339294434,-5.376343250274658
5_20251106_150047,1762412412258,5,0.40789657831192017,0.6143919229507446,0.5985336303710938,0.31289052963256836,-0.08763148635625839,1.3191391229629517,-1.9575831890106201,-0.22815734148025513,6.009977340698242,-4.010400772094727,-0.9269452691078186,1.1976118087768555,-0.20104703307151794,33.18313217163086,-20.877944946289062,5.220943450927734,-1.840409517288208,-1.1507577896118164,1.0927538871765137,1.612252116203308,7.160735130310059,-5.10315465927124
5_20251106_150047,1762412412277,5,0.40711188316345215,0.6029088497161865,0.6035152077674866,0.32638970017433167,-0.01999514549970627,1.3194419145584106,-1.9879251718521118,0.12257811427116394,6.208687782287598,-3.8176753520965576,-0.5421004295349121,0.5219953060150146,0.2754274606704712,32.704444885253906,-21.235137939453125,6.588373184204102,-1.1917392015457153,-0.7616376876831055,1.028383493423462,1.3143173456192017,6.970325469970703,-4.8460588455200195
5_20251106_150047,1762412412296,5,0.40601247549057007,0.5980726480484009,0.6040652394294739,0.33551183342933655,0.03771311044692993,1.318717360496521,-2.0115039348602295,0.029208257794380188,6.565408706665039,-3.3316731452941895,-0.5421004295349121,0.5219953060150146,0.2754274606704712,32.704444885253906,-21.235137939453125,6.588373184204102,-1.0280872583389282,-0.32393360137939453,1.2115082740783691,1.057295560836792,6.889342308044434,-4.543181419372559
5_20251106_150047,1762412412315,5,0.4053323268890381,0.5980514287948608,0.6014814376831055,0.34096965193748474,0.09369339793920517,1.317171573638916,-2.032691478729248,-0.5657253265380859,6.632443428039551,-3.325688123703003,-0.43214476108551025,0.42242440581321716,0.3004729151725769,32.66875457763672,-21.166763305664062,7.048038482666016,-1.2984167337417603,-0.2055191993713379,0.9739944934844971,0.7326914072036743,6.837962627410889,-4.2996826171875
5_20251106_150047,1762412412335,5,0.40466392040252686,0.5980144739151001,0.5990422368049622,0.3460841178894043,0.14132267236709595,1.3137646913528442,-2.051801919937134,-1.0936239957809448,6.200308799743652,-3.9649128913879395,-0.5225527882575989,0.7565673589706421,0.24732768535614014,32.58723831176758,-21.05120849609375,7.493282318115234,-1.461052417755127,-0.5101232528686523,0.26781558990478516,0.36742836236953735,6.710432052612305,-4.232728481292725
5_20251106_150047,1762412412353,5,0.40309926867485046,0.5955650806427002,0.5983307957649231,0.35328954458236694,0.17879287898540497,1.3083841800689697,-2.0690557956695557,-0.9535692930221558,5.708321571350098,-4.604137420654297,-0.5176658630371094,0.7583999633789062,0.45746517181396484,32.466148376464844,-20.988525390625,7.963031768798828,-1.0567981004714966,-0.8016881942749023,-0.29712724685668945,0.10322883725166321,6.510009765625,-4.307010173797607
5_20251106_150047,1762412412374,5,0.40039169788360596,0.5926365256309509,0.5978448390960693,0.3620082437992096,0.21499818563461304,1.299551010131836,-2.086272954940796,-0.395744264125824,5.257033348083496,-4.2761454582214355,-0.37472349405288696,0.3998223841190338,0.80016028881073,32.331661224365234,-20.951492309570312,8.404729843139648,-0.39917847514152527,-1.0023813247680664,0.02469158172607422,0.003434218466281891,6.2594146728515625,-4.30083703994751
5_20251106_150047,1762412412391,5,0.39736390113830566,0.5925098061561584,0.5950838923454285,0.37001240253448486,0.25061342120170593,1.2859724760055542,-2.102705955505371,0.4481755495071411,4.368823051452637,-4.328815460205078,-0.14748182892799377,-0.10230839252471924,1.1251403093338013,32.12493896484375,-21.142562866210938,8.649995803833008,0.3557930588722229,-1.5124731063842773,-0.022382736206054688,0.09238247573375702,5.881296157836914,-4.306432723999023
5_20251106_150047,1762412412410,5,0.39440780878067017,0.5968129634857178,0.5892893075942993,0.3754928708076477,0.28538548946380615,1.2687689065933228,-2.1171646118164062,1.1963313817977905,3.8576831817626953,-4.172001838684082,-0.07173460721969604,-0.6105478405952454,1.3462733030319214,31.87490463256836,-21.461181640625,8.850603103637695,0.8831591606140137,-1.6188907623291016,0.1075448989868164,0.31317225098609924,5.476573944091797,-4.279546737670898
5_20251106_150047,1762412412429,5,0.3922635316848755,0.6052892208099365,0.5803110599517822,0.37814465165138245,0.28538548946380615,1.2687689065933228,-2.1171646118164062,1.1963313817977905,3.8576831817626953,-4.172001838684082,-0.07173460721969604,-0.6105478405952454,1.3462733030319214,31.495849609375,-21.925064086914062,8.962305068969727,0.8831591606140137,-1.6188907623291016,0.1075448989868164,0.31317225098609924,5.476573944091797,-4.279546737670898
5_20251106_150047,1762412412449,5,0.3919050693511963,0.6158636808395386,0.5689142942428589,0.3787596821784973,0.3647507429122925,1.2169270515441895,-2.1371850967407227,0.9090395569801331,3.849303722381592,-2.5787291526794434,-0.383886456489563,-0.6991232633590698,1.1110904216766357,31.175697326660156,-22.434127807617188,8.96727180480957,0.3141288161277771,-0.9753761291503906,1.2116756439208984,0.594910740852356,4.824679851531982,-3.790404796600342
5_20251106_150047,1762412412471,5,0.39315879344940186,0.6251863241195679,0.5572274923324585,0.3795599043369293,0.3647507429122925,1.2169270515441895,-2.1371850967407227,0.9090395569801331,3.849303722381592,-2.5787291526794434,-0.6233454346656799,-0.22875739634037018,0.770838737487793,30.767311096191406,-23.010726928710938,8.886388778686523,0.3141288161277771,-0.9753761291503906,1.2116756439208984,0.594910740852356,4.824679851531982,-3.790404796600342
5_20251106_150047,1762412412487,5,0.3949480354785919,0.6302948594093323,0.5478875637054443,0.38283637166023254,0.4311200976371765,1.165461778640747,-2.1434407234191895,-0.3478623032569885,4.307773590087891,-3.2203476428985596,-0.9251126646995544,0.16158518195152283,0.5527600049972534,30.397079467773438,-23.5711669921875,8.68559455871582,-0.7198237180709839,-0.343843936920166,0.3041222095489502,0.37196141481399536,4.651617527008057,-3.5244698524475098
5_20251106_150047,1762412412506,5,0.397152841091156,0.6308619379997253,0.5412150621414185,0.3890618681907654,0.455254465341568,1.1414028406143188,-2.1449711322784424,-1.1415060758590698,4.206024169921875,-3.2239389419555664,-1.102263331413269,0.1273767501115799,0.6877611875534058,29.999740600585938,-24.194900512695312,8.374370574951172,-1.2107739448547363,-0.3564748764038086,0.24042487144470215,0.06926792860031128,4.562499046325684,-3.4643638134002686
5_20251106_150047,1762412412525,5,0.40022650361061096,0.6292675733566284,0.5346102714538574,0.3975335657596588,0.47727087140083313,1.1146106719970703,-2.1440725326538086,-1.068485975265503,4.1030778884887695,-2.6373846530914307,-1.1193675994873047,-0.06015872210264206,1.1465206146240234,29.647621154785156,-24.878250122070312,8.063787460327148,-0.9102031588554382,-0.3675370216369629,0.6615831851959229,-0.1582828313112259,4.470614910125732,-3.2989678382873535
5_20251106_150047,1762412412545,5,0.4034586250782013,0.6296922564506531,0.5251603722572327,0.40609776973724365,0.4979631304740906,1.0910611152648926,-2.1409637928009033,-0.2317485213279724,5.0966291427612305,-2.5571823120117188,-1.192671298980713,-0.09803233295679092,1.6627012491226196,29.159217834472656,-25.631362915039062,7.570777893066406,-0.05877254903316498,0.5008115768432617,0.593428373336792,-0.17297597229480743,4.595817565917969,-3.1506106853485107
5_20251106_150047,1762412412564,5,0.4053957164287567,0.632850170135498,0.5119017958641052,0.4160667955875397,0.5196459293365479,1.0764594078063965,-2.1360669136047363,0.9234041571617126,7.02028751373291,-2.3883984088897705,-1.424799919128418,0.08339449763298035,1.9675226211547852,28.695877075195312,-26.381942749023438,6.984136581420898,0.8771041035652161,1.9395761489868164,0.6097698211669922,0.04630003869533539,5.080711364746094,-2.9981682300567627
5_20251106_150047,1762412412582,5,0.40612971782684326,0.6370888948440552,0.4954003095626831,0.42866647243499756,0.5447983741760254,1.07259202003479,-2.128448724746704,2.3359224796295166,8.84698486328125,-1.6941099166870117,-1.7528343200683594,0.4169265925884247,2.027998208999634,28.1973876953125,-27.109786987304688,6.396551132202148,1.831697940826416,3.01301908493042,1.0432465076446533,0.5042244791984558,5.83396577835083,-2.737356424331665
5_20251106_150047,1762412412602,5,0.4063269793987274,0.639434278011322,0.47743648290634155,0.4450579583644867,0.5777429342269897,1.0800689458847046,-2.1162374019622803,4.179378509521484,10.362449645996094,-0.7173176407814026,-1.9971802234649658,0.6942591667175293,1.9131557941436768,27.52234649658203,-27.961227416992188,5.745658874511719,2.9401233196258545,3.6227869987487793,1.6160311698913574,1.2392551898956299,6.7396626472473145,-2.3333487510681152
5_20251106_150047,1762412412621,5,0.40672168135643005,0.6384130716323853,0.4593150317668915,0.46479666233062744,0.626299262046814,1.104196548461914,-2.0948030948638916,5.772651672363281,12.080215454101562,0.47733771800994873,-2.0075647830963135,0.710141658782959,1.6620904207229614,26.790298461914062,-28.966262817382812,5.062604904174805,3.6267170906066895,4.272441864013672,2.248549222946167,2.145934581756592,7.807773590087891,-1.7712115049362183
5_20251106_150047,1762412412639,5,0.40760546922683716,0.6347872614860535,0.44206467270851135,0.4852646589279175,0.6819731593132019,1.144436001777649,-2.0666983127593994,6.465743064880371,14.537757873535156,1.4218096733093262,-1.9299850463867188,0.6154575943946838,1.332834243774414,25.911907196044922,-29.992584228515625,4.292304039001465,3.4558467864990234,5.3839874267578125,2.5544168949127197,3.0098962783813477,9.153770446777344,-1.1326072216033936
5_20251106_150047,1762412412659,5,0.40931233763694763,0.629833459854126,0.42621049284935,0.504101037979126,0.7443907856941223,1.2039706707000732,-2.0285797119140625,6.482501029968262,16.91988754272461,3.029447078704834,-1.803536057472229,0.5061128735542297,0.9266092777252197,25.215700149536133,-30.787353515625,3.6570396423339844,2.7780838012695312,6.212893486022949,3.329643487930298,3.7044172286987305,10.70699405670166,-0.30019640922546387
5_20251106_150047,1762412412677,5,0.41238340735435486,0.6237372756004333,0.41238895058631897,0.5204105377197266,0.8091057538986206,1.2793313264846802,-1.979589581489563,5.679281234741211,17.560306549072266,4.3569746017456055,-1.498714566230774,0.5293256640434265,0.5521491765975952,24.30155372619629,-31.803359985351562,2.8720149993896484,1.5798912048339844,5.482649803161621,3.7257368564605713,4.099390029907227,12.077656745910645,0.6312377452850342
5_20251106_150047,1762412412697,5,0.41661256551742554,0.6165871620178223,0.40170857310295105,0.5337457060813904,0.8778848648071289,1.3680986166000366,-1.9228249788284302,5.436280250549316,16.487751007080078,3.1886544227600098,-0.9684839844703674,0.5146649479866028,0.5600904226303101,23.418840408325195,-32.68060302734375,2.185488700866699,1.0695123672485352,3.5280752182006836,2.045933246612549,4.366767883300781,12.959675788879395,1.1427210569381714
5_20251106_150047,1762412412716,5,0.41912949085235596,0.6093000173568726,0.39495521783828735,0.5450636148452759,0.9458416104316711,1.4586231708526611,-1.8686386346817017,6.51123046875,16.75469398498535,2.2202415466308594,-0.5207201838493347,0.17685678601264954,0.8954551815986633,23.418840408325195,-32.68060302734375,2.185488700866699,1.7155699729919434,3.0360145568847656,0.8620164394378662,4.795660495758057,13.718679428100586,1.3582251071929932
5_20251106_150047,1762412412736,5,0.41821593046188354,0.6060000061988831,0.3887806534767151,0.5538131594657898,0.9458416104316711,1.4586231708526611,-1.8686386346817017,6.51123046875,16.75469398498535,2.2202415466308594,-0.2024596631526947,-0.06443477421998978,0.8978986144065857,22.516677856445312,-33.48313903808594,1.404952049255371,1.7155699729919434,3.0360145568847656,0.8620164394378662,4.795660495758057,13.718679428100586,1.3582251071929932
5_20251106_150047,1762412412754,5,0.41499432921409607,0.6073070168495178,0.38159146904945374,0.5597730278968811,1.0944766998291016,1.6568559408187866,-1.7635754346847534,7.650821685791016,17.158100128173828,1.5654555559158325,-0.04485655948519707,0.091335728764534,0.4085959792137146,21.676570892333984,-34.24537658691406,0.762822151184082,1.8138961791992188,2.0949316024780273,0.05046188831329346,5.836925506591797,15.0631685256958,1.514993667602539
5_20251106_150047,1762412412776,5,0.4119230806827545,0.6089832186698914,0.3770166337490082,0.5633091926574707,1.0944766998291016,1.6568559408187866,-1.7635754346847534,7.650821685791016,17.158100128173828,1.5654555559158325,-0.052186932414770126,0.3796638548374176,-0.08681534230709076,20.95551300048828,-34.825347900390625,0.1963825225830078,1.8138961791992188,2.0949316024780273,0.05046188831329346,5.836925506591797,15.0631685256958,1.514993667602539
5_20251106_150047,1762412412794,5,0.4103943109512329,0.6074398756027222,0.3770447075366974,0.5660659074783325,1.2471119165420532,1.8516502380371094,-1.6747626066207886,5.796591758728027,13.734537124633789,-0.5126221179962158,-0.010037270374596119,0.42731133103370667,-0.27312904596328735,20.431961059570312,-35.11822509765625,-0.2487630844116211,-0.16218185424804688,-1.11444091796875,-1.4514710903167725,5.958773612976074,14.848978042602539,0.9388489723205566
5_20251106_150047,1762412412812,5,0.41015106439590454,0.6037775874137878,0.3797846734523773,0.568324089050293,1.305834412574768,1.9213693141937256,-1.647141933441162,5.573941230773926,12.61290168762207,-1.3194334506988525,0.1475658267736435,0.22206076979637146,-0.21021001040935516,20.079137802124023,-35.376617431640625,-0.51080322265625,-0.30786561965942383,-1.7888612747192383,-1.8066259622573853,5.88180685043335,14.401762962341309,0.4871925413608551
5_20251106_150047,1762412412832,5,0.40984612703323364,0.6011425256729126,0.3829743266105652,0.569196343421936,1.3746017217636108,1.9956144094467163,-1.6215134859085083,5.838489055633545,12.142461776733398,-1.5372964143753052,0.2550780177116394,-0.0680999606847763,-0.1307975947856903,19.815128326416016,-35.578277587890625,-0.8629684448242188,-0.03465461730957031,-1.8074417114257812,-1.619591236114502,5.873143672943115,13.94990348815918,0.082294762134552
5_20251106_150047,1762412412851,5,0.4091203510761261,0.601206362247467,0.3852739930152893,0.5680980682373047,1.433791160583496,2.05417537689209,-1.6028318405151367,5.903129577636719,12.034727096557617,-1.137481927871704,0.23919552564620972,-0.18905118107795715,-0.24258583784103394,19.541383743286133,-35.70782470703125,-0.9707479476928711,0.023988723754882812,-1.5321407318115234,-0.9758213758468628,5.879140853881836,13.56686782836914,-0.1616605520248413
5_20251106_150047,1762412412869,5,0.4089678227901459,0.6028649210929871,0.38682374358177185,0.5653906464576721,1.4872268438339233,2.1017367839813232,-1.588161826133728,5.946223258972168,11.478099822998047,-1.0321415662765503,0.15489619970321655,-0.09070195257663727,-0.4612753987312317,19.466350555419922,-35.75,-1.0015153884887695,0.0536656379699707,-1.6710147857666016,-0.6963847875595093,5.892557621002197,13.149114608764648,-0.33575674891471863
5_20251106_150047,1762412412888,5,0.41006898880004883,0.6034355759620667,0.38918763399124146,0.5623539090156555,1.541460633277893,2.143325090408325,-1.5747803449630737,6.129371643066406,10.92386531829834,-0.8202638626098633,0.12252037227153778,-0.08031725138425827,-0.620711088180542,19.465980529785156,-35.72731018066406,-0.7576942443847656,0.1894512176513672,-1.7802000045776367,-0.3876056671142578,5.939920425415039,12.704065322875977,-0.43265819549560547
5_20251106_150047,1762412412908,5,0.4122666120529175,0.6024064421653748,0.3926665186882019,0.5594244599342346,1.5964486598968506,2.1781842708587646,-1.562180519104004,6.188027381896973,10.490533828735352,-0.6897854804992676,0.12252037227153778,-0.08031725138425827,-0.620711088180542,19.57032012939453,-35.59565734863281,-0.7240991592407227,0.1984853744506836,-1.7708253860473633,-0.2057018280029297,5.989542007446289,12.261359214782715,-0.4840836524963379
5_20251106_150047,1762412412927,5,0.4149323105812073,0.6013846397399902,0.3967409133911133,0.5556656718254089,1.647004246711731,2.2039356231689453,-1.551679015159607,6.328082084655762,10.180498123168945,-0.801111102104187,0.3778618276119232,-0.4535556137561798,-0.6756889224052429,19.762075424194336,-35.4207763671875,-0.6862783432006836,0.2708320617675781,-1.664689064025879,-0.2536219358444214,6.057250022888184,11.845187187194824,-0.5474891662597656
5_20251106_150047,1762412412945,5,0.4176335632801056,0.6018800735473633,0.40078336000442505,0.5501774549484253,1.647004246711731,2.2039356231689453,-1.551679015159607,6.328082084655762,10.180498123168945,-0.801111102104187,0.4615502953529358,-0.6698017716407776,-0.6830192804336548,20.06612777709961,-35.18878173828125,-0.6159553527832031,0.2708320617675781,-1.664689064025879,-0.2536219358444214,6.057250022888184,11.845187187194824,-0.5474891662597656
5_20251106_150047,1762412412965,5,0.42050954699516296,0.604377031326294,0.4041568636894226,0.5427314043045044,1.7438417673110962,2.238691568374634,-1.5314217805862427,6.5674920082092285,10.135009765625,-0.3474293351173401,0.4615502953529358,-0.6698017716407776,-0.6830192804336548,20.37118148803711,-34.94383239746094,-0.5859174728393555,0.3522195816040039,-1.094512939453125,0.1512131690979004,6.215272426605225,11.229522705078125,-0.4986425042152405
5_20251106_150047,1762412412984,5,0.42375823855400085,0.607211172580719,0.40746641159057617,0.5345041155815125,1.7909765243530273,2.250401258468628,-1.519986867904663,6.867951393127441,10.306188583374023,0.1649078130722046,0.4096267819404602,-0.6716343760490417,-0.7520469427108765,20.739391326904297,-34.64549255371094,-0.47127342224121094,0.5221433639526367,-0.7386674880981445,0.530840277671814,6.345808029174805,11.044856071472168,-0.3659324645996094
5_20251106_150047,1762412413003,5,0.42777493596076965,0.6089252829551697,0.4107761085033417,0.5267652273178101,1.838592767715454,2.26021146774292,-1.5052402019500732,7.380288600921631,10.565947532653809,1.0495271682739258,0.2795126140117645,-0.6013849377632141,-0.8259616494178772,21.170732498168945,-34.316986083984375,-0.4617795944213867,0.8275847434997559,-0.38312721252441406,1.132367730140686,6.552703857421875,10.949074745178223,-0.08284056186676025
5_20251106_150047,1762412413022,5,0.43240684270858765,0.6095364093780518,0.41429033875465393,0.5194739103317261,1.8859608173370361,2.268230438232422,-1.4872045516967773,7.330012321472168,10.474971771240234,1.3847010135650635,0.5379083752632141,-0.7895312309265137,-1.149109125137329,21.641141891479492,-33.9478759765625,-0.5040884017944336,0.6218466758728027,-0.37928295135498047,1.174033284187317,6.708165645599365,10.854254722595215,0.21066774427890778
5_20251106_150047,1762412413041,5,0.43737584352493286,0.6103258728981018,0.41886335611343384,0.5106448531150818,1.8859608173370361,2.268230438232422,-1.4872045516967773,7.330012321472168,10.474971771240234,1.3847010135650635,0.8751056790351868,-1.0534247159957886,-1.3794050216674805,22.226938247680664,-33.4942626953125,-0.7431430816650391,0.6218466758728027,-0.37928295135498047,1.174033284187317,6.708165645599365,10.854254722595215,0.21066774427890778
5_20251106_150047,1762412413060,5,0.4424014091491699,0.6124520897865295,0.4253532588481903,0.4982549846172333,1.9641526937484741,2.270439863204956,-1.455154538154602,4.333797931671143,8.469915390014648,-0.9327864646911621,1.0443153381347656,-1.2275211811065674,-1.4374371767044067,22.849924087524414,-33.00260925292969,-0.7771902084350586,-1.7804570198059082,-1.6962461471557617,-0.9585797786712646,6.114254951477051,10.16616153717041,0.02579328417778015
5_20251106_150047,1762412413080,5,0.44747018814086914,0.6159608960151672,0.43299564719200134,0.48257365822792053,1.9900320768356323,2.2610108852386475,-1.4475206136703491,3.1391425132751465,7.688241004943848,-2.0400571823120117,1.0498130321502686,-1.3759613037109375,-1.320762038230896,23.521949768066406,-32.50738525390625,-0.8498249053955078,-2.3800902366638184,-1.9823369979858398,-1.6526803970336914,5.519232749938965,9.670578002929688,-0.3873767852783203
5_20251106_150047,1762412413097,5,0.45254018902778625,0.6206733584403992,0.4400086998939514,0.46514979004859924,2.004077196121216,2.2481911182403564,-1.4458906650543213,2.3993661403656006,7.300396919250488,-2.4518420696258545,0.9398573040962219,-1.4871387481689453,-1.1894261837005615,24.2255802154541,-31.896331787109375,-1.0407495498657227,-2.4958932399749756,-1.8961448669433594,-1.6515722274780273,4.895259380340576,9.196541786193848,-0.8002698421478271
5_20251106_150047,1762412413117,5,0.45775219798088074,0.6262369155883789,0.44523751735687256,0.44727376103401184,2.004077196121216,2.2481911182403564,-1.4458906650543213,2.3993661403656006,7.300396919250488,-2.4518420696258545,0.7944715619087219,-1.5262340307235718,-1.1344482898712158,24.93262481689453,-31.2342529296875,-1.311716079711914,-2.4958932399749756,-1.8961448669433594,-1.6515722274780273,4.895259380340576,9.196541786193848,-0.8002698421478271
5_20251106_150047,1762412413137,5,0.46355441212654114,0.6317851543426514,0.4489201307296753,0.4294595420360565,2.006040334701538,2.2011053562164307,-1.4612780809402466,0.8575664758682251,6.485206604003906,-3.3197028636932373,0.6313706636428833,-1.5854878425598145,-1.1094028949737549,25.596141815185547,-30.4986572265625,-1.7182226181030273,-2.715320110321045,-1.7973089218139648,-1.6564886569976807,3.5728867053985596,8.282515525817871,-1.6632142066955566
5_20251106_150047,1762412413156,5,0.47024619579315186,0.6367883086204529,0.45135486125946045,0.4118833839893341,2.006040334701538,2.2011053562164307,-1.4612780809402466,0.8575664758682251,6.485206604003906,-3.3197028636932373,0.45788508653640747,-1.5915966033935547,-1.0629770755767822,25.596141815185547,-30.4986572265625,-1.7182226181030273,-2.715320110321045,-1.7973089218139648,-1.6564886569976807,3.5728867053985596,8.282515525817871,-1.6632142066955566
5_20251106_150047,1762412413177,5,0.4778449237346649,0.641196072101593,0.45261839032173157,0.39454832673072815,1.9661788940429688,2.134030818939209,-1.4936745166778564,-0.9559633135795593,5.893863677978516,-3.104233741760254,0.3845813274383545,-1.6416873931884766,-1.0415968894958496,26.944704055786133,-29.099334716796875,-2.721067428588867,-3.0637528896331787,-1.6086044311523438,-0.9176557064056396,2.1077895164489746,7.502468109130859,-2.1865780353546143
5_20251106_150047,1762412413195,5,0.4861869513988495,0.644887387752533,0.4528893232345581,0.3776688575744629,1.9315718412399292,2.0956311225891113,-1.513162612915039,-2.1949095726013184,5.246260166168213,-3.530383586883545,0.39068999886512756,-1.6862804889678955,-0.9353064298629761,26.944704055786133,-29.099334716796875,-2.721067428588867,-3.4421591758728027,-1.8049664497375488,-1.0750443935394287,1.247249722480774,7.051226615905762,-2.455339193344116
5_20251106_150047,1762412413213,5,0.4945453703403473,0.6486366987228394,0.4525322914123535,0.3604300618171692,1.889503002166748,2.0554537773132324,-1.5339828729629517,-3.188460350036621,4.769834518432617,-3.7877492904663086,0.28378865122795105,-1.6905566453933716,-0.7190603017807007,27.509187698364258,-28.43017578125,-3.4031429290771484,-3.5485682487487793,-1.825113296508789,-1.0659279823303223,0.36010777950286865,6.594947814941406,-2.7218213081359863
5_20251106_150047,1762412413232,5,0.5026272535324097,0.6528472304344177,0.4507010579109192,0.3435475826263428,1.8360936641693115,2.009901285171509,-1.55782151222229,-3.7307238578796387,4.676464557647705,-3.8009166717529297,0.03699931129813194,-1.6154203414916992,-0.46921664476394653,27.974348068237305,-27.816253662109375,-4.225360870361328,-3.272665500640869,-1.5347867012023926,-0.8632762432098389,-0.4580584764480591,6.211251258850098,-2.937640428543091
5_20251106_150047,1762412413251,5,0.5108185410499573,0.6570514440536499,0.44675013422966003,0.3282714784145355,1.7767306566238403,1.9630297422409058,-1.5820354223251343,-3.601442337036133,4.900312900543213,-3.5088367462158203,-0.3270760774612427,-1.4743105173110962,-0.28840067982673645,28.368806838989258,-27.169021606445312,-5.090278148651123,-2.514707088470459,-1.048750877380371,-0.4569568634033203,-1.0867352485656738,5.949063777923584,-3.0518798828125
5_20251106_150047,1762412413271,5,0.5196434259414673,0.6601397395133972,0.4408950209617615,0.31590792536735535,1.7117788791656494,1.9143891334533691,-1.6054587364196777,-2.925109386444092,5.367162227630615,-2.791804313659668,-0.6825993657112122,-1.3680200576782227,-0.25174880027770996,28.623552322387695,-26.654220581054688,-6.1524577140808105,-1.4706993103027344,-0.46552133560180664,0.20806050300598145,-1.4544100761413574,5.832683563232422,-2.9998648166656494
5_20251106_150047,1762412413289,5,0.5298380255699158,0.6611846089363098,0.433783620595932,0.3064936399459839,1.6532809734344482,1.8713898658752441,-1.6234110593795776,-2.658167600631714,5.259428024291992,-2.1573679447174072,-0.8701348304748535,-1.3246486186981201,-0.3843064308166504,28.815858840942383,-26.16864013671875,-7.204101085662842,-0.9630060195922852,-0.4586043357849121,0.6739974021911621,-1.6951615810394287,5.718032360076904,-2.8313653469085693
5_20251106_150047,1762412413309,5,0.5415858626365662,0.6602252125740051,0.4262803792953491,0.29845014214515686,1.5890824794769287,1.8243491649627686,-1.6391109228134155,-2.501354217529297,5.174437046051025,-1.7623417377471924,-0.9507689476013184,-1.2550101280212402,-0.5235835909843445,28.944204330444336,-25.7491455078125,-8.32709789276123,-0.6449542045593262,-0.4348764419555664,0.8552188873291016,-1.8564000129699707,5.609313488006592,-2.617560625076294
5_20251106_150047,1762412413328,5,0.5540652275085449,0.657467246055603,0.4198353588581085,0.29066622257232666,1.52970552444458,1.7804423570632935,-1.6507004499435425,-2.3804521560668945,5.079870223999023,-1.6773512363433838,-1.0503398180007935,-1.262951374053955,-0.5388551950454712,29.03013801574707,-25.231414794921875,-9.54455852508545,-0.41924166679382324,-0.4235548973083496,0.7521674633026123,-1.9612104892730713,5.503425121307373,-2.429518699645996
5_20251106_150047,1762412413347,5,0.5670642256736755,0.6536381840705872,0.4136717617511749,0.28296801447868347,1.4734772443771362,1.7386394739151,-1.6588521003723145,-1.8956470489501953,5.470108509063721,-1.3876652717590332,-1.176177978515625,-1.3472506999969482,-0.40751928091049194,28.943143844604492,-24.77435302734375,-10.837522506713867,0.05245077610015869,-0.026653289794921875,0.8334827423095703,-1.948097825050354,5.496761798858643,-2.2211480140686035
5_20251106_150047,1762412413366,5,0.5805883407592773,0.6493954062461853,0.4064177870750427,0.2757306694984436,1.422342300415039,1.7005844116210938,-1.6620433330535889,-1.1163679361343384,6.100953102111816,-0.5617011785507202,-1.176177978515625,-1.3472506999969482,-0.40751928091049194,28.809110641479492,-24.294952392578125,-12.172470092773438,0.6653839349746704,0.4833531379699707,1.3275574445724487,-1.7817518711090088,5.617599964141846,-1.889258623123169
5_20251106_150047,1762412413386,5,0.5948734283447266,0.6452453136444092,0.3968272805213928,0.26890915632247925,1.3754172325134277,1.6659857034683228,-1.6578508615493774,-0.39694127440452576,6.754542350769043,0.5395842790603638,-1.2836902141571045,-1.549446940422058,-0.26213347911834717,28.676671981811523,-23.801788330078125,-13.628799438476562,1.1078485250473022,0.9095540046691895,1.943074345588684,-1.5047898292541504,5.8449883460998535,-1.4034900665283203
5_20251106_150047,1762412413404,5,0.6098251938819885,0.641788125038147,0.38472917675971985,0.2611602544784546,1.3383897542953491,1.6391563415527344,-1.6477160453796387,-0.24850717186927795,6.962829113006592,1.2566168308258057,-0.928777813911438,-2.090062141418457,-0.3409350514411926,28.432344436645508,-23.35357666015625,-15.076818466186523,1.0050262212753296,0.8942728042602539,2.1280856132507324,-1.2535333633422852,6.068556308746338,-0.8714687824249268
5_20251106_150047,1762412413424,5,0.6244427561759949,0.6396648287773132,0.37144652009010315,0.25085386633872986,1.3013888597488403,1.613689661026001,-1.6287692785263062,-0.5681194067001343,7.007120132446289,1.8419740200042725,-0.928777813911438,-2.090062141418457,-0.3409350514411926,28.025053024291992,-22.79010009765625,-16.61016082763672,0.5483311414718628,0.7508511543273926,2.1707541942596436,-1.116450548171997,6.2562689781188965,-0.32878023386001587
5_20251106_150047,1762412413442,5,0.6381456255912781,0.638068675994873,0.358908474445343,0.23837636411190033,1.2707937955856323,1.5953503847122192,-1.606637954711914,-0.6938096284866333,7.651132583618164,2.0801868438720703,-0.6422823071479797,-2.0192017555236816,-0.5064793825149536,27.52176856994629,-22.219345092773438,-18.255294799804688,0.3381127119064331,1.1158905029296875,1.9271736145019531,-1.0319223403930664,6.535242080688477,0.1530131697654724
5_20251106_150047,1762412413460,5,0.6509472727775574,0.6363656520843506,0.3473018705844879,0.22513960301876068,1.2707937955856323,1.5953503847122192,-1.606637954711914,-0.6938096284866333,7.651132583618164,2.0801868438720703,-0.6422823071479797,-2.0192017555236816,-0.5064793825149536,26.9352970123291,-21.616485595703125,-19.90306854248047,0.3381127119064331,1.1158905029296875,1.9271736145019531,-1.0319223403930664,6.535242080688477,0.1530131697654724
5_20251106_150047,1762412413480,5,0.6621401309967041,0.6353898048400879,0.33617958426475525,0.21173927187919617,1.2103737592697144,1.5739123821258545,-1.5472042560577393,-1.9770464897155762,7.585294723510742,1.249434471130371,0.08586849272251129,-2.04485821723938,-0.6066612005233765,26.28776741027832,-21.00354766845703,-21.221233367919922,-0.8124957084655762,0.47054624557495117,0.46057599782943726,-1.16455078125,7.114748477935791,0.7888584733009338
5_20251106_150047,1762412413499,5,0.6710209250450134,0.6370626091957092,0.32514452934265137,0.19535382091999054,1.1743968725204468,1.5628788471221924,-1.5221740007400513,-3.6062304973602295,6.419368267059326,-0.3797496557235718,-0.21162262558937073,-1.9764413833618164,-0.33055034279823303,25.391626358032227,-20.49695587158203,-22.774721145629883,-1.9533438682556152,-0.5563039779663086,-0.9348865151405334,-1.6528866291046143,6.975672245025635,0.5551368594169617
5_20251106_150047,1762412413518,5,0.6782976388931274,0.6388449668884277,0.3153907060623169,0.17977236211299896,1.1359108686447144,1.5529730319976807,-1.4978163242340088,-4.132932662963867,6.985572814941406,1.2985135316848755,-0.9354973435401917,-1.8909202814102173,0.3835504949092865,24.41975975036621,-20.033485412597656,-24.264362335205078,-1.984036922454834,0.007920265197753906,0.59470134973526,-2.148895740509033,6.977652549743652,0.7038121819496155
5_20251106_150047,1762412413537,5,0.6878136992454529,0.6385471224784851,0.3012477457523346,0.16858145594596863,1.0929452180862427,1.5480468273162842,-1.4654757976531982,-2.919124126434326,8.796709060668945,2.884603977203369,-1.3166768550872803,-1.5072972774505615,0.9473786354064941,23.336624145507812,-19.59093475341797,-25.637035369873047,-0.616182804107666,1.455245018005371,1.744633436203003,-2.30294132232666,7.341464042663574,1.1399705410003662
5_20251106_150047,1762412413557,5,0.699088454246521,0.6355286836624146,0.2831740975379944,0.16489720344543457,1.0553456544876099,1.5502218008041382,-1.4272871017456055,-1.2444522380828857,9.596338272094727,3.595651388168335,-1.2604773044586182,-1.1609368324279785,0.9082833528518677,22.255603790283203,-19.11071014404297,-27.00891876220703,0.8467912673950195,1.8038992881774902,1.9645447731018066,-2.0912435054779053,7.792438983917236,1.6311066150665283
5_20251106_150047,1762412413578,5,0.7094221115112305,0.6311032772064209,0.26604557037353516,0.16627880930900574,1.0553456544876099,1.5502218008041382,-1.4272871017456055,-1.2444522380828857,9.596338272094727,3.595651388168335,-1.2604773044586182,-1.1609368324279785,0.9082833528518677,22.255603790283203,-19.11071014404297,-27.00891876220703,0.8467912673950195,1.8038992881774902,1.9645447731018066,-2.0912435054779053,7.792438983917236,1.6311066150665283
5_20251106_150047,1762412413595,5,0.7186155319213867,0.6258832216262817,0.252281129360199,0.16797669231891632,0.990851104259491,1.5639419555664062,-1.3409616947174072,-3.3716087341308594,8.381333351135254,4.784320831298828,-1.1486890316009521,-1.0118858814239502,0.7250238656997681,21.00179100036621,-18.65618133544922,-28.185184478759766,-1.1459887027740479,0.2315235137939453,2.173769474029541,-2.2256200313568115,8.149809837341309,2.610551357269287
5_20251106_150047,1762412413615,5,0.7276400923728943,0.6202017068862915,0.2394910752773285,0.16891930997371674,0.9509939551353455,1.5709306001663208,-1.2884196043014526,-4.398677349090576,8.128755569458008,4.894449710845947,-0.8444785475730896,-0.7760922312736511,1.3273365497589111,19.833589553833008,-18.18407440185547,-29.303691864013672,-1.7384459972381592,-0.016843795776367188,1.8271186351776123,-2.660231351852417,8.145599365234375,3.067331075668335
5_20251106_150047,1762412413634,5,0.7347338795661926,0.6162723302841187,0.2251979410648346,0.17222191393375397,0.9149497151374817,1.5783510208129883,-1.237363576889038,-2.686896800994873,8.551313400268555,4.392886161804199,-0.6520561575889587,-0.39979952573776245,1.8936080932617188,18.68524742126465,-17.774513244628906,-30.287372589111328,-0.021332502365112305,0.3245716094970703,1.0604441165924072,-2.6655642986297607,8.226741790771484,3.332442045211792
5_20251106_150047,1762412413653,5,0.7382760643959045,0.6150885224342346,0.20985443890094757,0.180487260222435,0.8882995247840881,1.5881601572036743,-1.1877554655075073,-0.31434494256973267,9.498180389404297,4.817838668823242,-0.7565140128135681,-0.3051154911518097,2.0542657375335693,17.52081298828125,-17.417457580566406,-31.123920440673828,1.8809757232666016,1.01715087890625,1.1883172988891602,-2.1953206062316895,8.481029510498047,3.629521369934082
5_20251106_150047,1762412413671,5,0.7400423884391785,0.6141119599342346,0.19454731047153473,0.19327451288700104,0.8675242066383362,1.6023701429367065,-1.133044719696045,-0.027053073048591614,10.075157165527344,5.4391069412231445,-0.9990272521972656,-0.3057263493537903,1.9272056818008423,16.363656997680664,-17.12427520751953,-31.772071838378906,1.7346140146255493,1.2753019332885742,1.4476685523986816,-1.7616671323776245,8.79985523223877,3.991438388824463
5_20251106_150047,1762412413691,5,0.7424154281616211,0.6116799712181091,0.17861850559711456,0.20679059624671936,0.8524296879768372,1.6217707395553589,-1.07245934009552,0.10701645910739899,10.507292747497559,5.923912048339844,-1.33561372756958,-0.04183277487754822,1.6706424951553345,15.267839431762695,-16.814964294433594,-32.376956939697266,1.494946837425232,1.365950584411621,1.5459790229797363,-1.3879303932189941,9.141342163085938,4.377933025360107
5_20251106_150047,1762412413711,5,0.7463410496711731,0.6063064932823181,0.16391485929489136,0.22022591531276703,0.8447597026824951,1.6449142694473267,-1.009806752204895,0.8060933351516724,10.691638946533203,6.0543904304504395,-1.6911369562149048,0.3839398920536041,1.2943499088287354,14.23065185546875,-16.52802276611328,-32.858272552490234,1.7552189826965332,1.2402381896972656,1.3411660194396973,-0.9491256475448608,9.451400756835938,4.713224411010742
5_20251106_150047,1762412413729,5,0.7521429061889648,0.5967791676521301,0.15295639634132385,0.2339659184217453,0.8440360426902771,1.6691118478775024,-0.951158881187439,1.4201796054840088,11.242280960083008,6.776211261749268,-1.9654152393341064,0.625842273235321,0.9834197163581848,13.240699768066406,-16.263145446777344,-33.32463836669922,1.8954442739486694,1.4327049255371094,1.6503896713256836,-0.47526463866233826,9.809576034545898,5.125821590423584
5_20251106_150047,1762412413748,5,0.759975254535675,0.5832016468048096,0.14581812918186188,0.24708399176597595,0.847193717956543,1.696456789970398,-0.8866870403289795,0.9401628375053406,10.932245254516602,7.189193248748779,-1.6856391429901123,0.5965208411216736,1.0353431701660156,12.549188613891602,-15.843513488769531,-33.53303527832031,1.132341980934143,0.8981351852416992,1.6506972312927246,-0.19217915832996368,10.034110069274902,5.538496017456055
5_20251106_150047,1762412413767,5,0.7677415013313293,0.5685242414474487,0.14013738930225372,0.26022058725357056,0.8528174757957458,1.7226653099060059,-0.822364866733551,0.7641965746879578,10.11825180053711,6.658900260925293,-1.029570460319519,0.533601701259613,1.332834243774414,11.905023574829102,-15.434196472167969,-33.645118713378906,0.7651005983352661,0.06731319427490234,0.8963232040405273,-0.0009040236473083496,10.050938606262207,5.762577056884766
5_20251106_150047,1762412413787,5,0.7717722058296204,0.5581716895103455,0.13419625163078308,0.27350208163261414,0.8528174757957458,1.7226653099060059,-0.822364866733551,0.7641965746879578,10.11825180053711,6.658900260925293,-1.029570460319519,0.533601701259613,1.332834243774414,11.335286140441895,-14.995140075683594,-33.74021911621094,0.7651005983352661,0.06731319427490234,0.8963232040405273,-0.0009040236473083496,10.050938606262207,5.762577056884766
5_20251106_150047,1762412413806,5,0.7717565894126892,0.5522171854972839,0.1279735267162323,0.28821998834609985,0.8754698038101196,1.7653939723968506,-0.7018014192581177,2.236567497253418,9.072031021118164,4.677783966064453,-0.652056097984314,0.8298711180686951,1.5600759983062744,10.862133979797363,-14.562553405761719,-33.80462646484375,1.605889081954956,-0.6460371017456055,-0.8879022598266602,0.6306783556938171,9.71806812286377,5.565686225891113
5_20251106_150047,1762412413826,5,0.7698360681533813,0.5472850203514099,0.12280398607254028,0.30455005168914795,0.8973547220230103,1.7834641933441162,-0.6512402296066284,3.8956778049468994,9.695693969726562,4.767562389373779,-1.0546159744262695,0.9276095032691956,1.1654573678970337,10.6428861618042,-14.139213562011719,-33.77816390991211,2.61199951171875,-0.017899513244628906,-0.6384987831115723,1.2836782932281494,9.713593482971191,5.406061172485352
5_20251106_150047,1762412413845,5,0.7691753506660461,0.5399942994117737,0.11940591782331467,0.32018378376960754,0.9273293018341064,1.802120566368103,-0.603649914264679,3.9447567462921143,9.906373977661133,4.428797721862793,-1.5439186096191406,0.9752569794654846,0.5594795346260071,10.520941734313965,-13.698173522949219,-33.6258659362793,2.1288628578186035,0.15422439575195312,-0.7818107604980469,1.8158938884735107,9.75214958190918,5.21060848236084
5_20251106_150047,1762412413862,5,0.7720403671264648,0.528495728969574,0.11758896708488464,0.33289453387260437,0.9525445103645325,1.8163963556289673,-0.5640063285827637,2.2760701179504395,9.392839431762695,5.763507843017578,-1.5439186096191406,0.9752569794654846,0.5594795346260071,10.51572036743164,-13.124412536621094,-33.46651840209961,0.36814093589782715,-0.2874479293823242,0.442319393157959,1.9079291820526123,9.68028736114502,5.321188449859619
5_20251106_150047,1762412413882,5,0.7790400385856628,0.5127726793289185,0.11617184430360794,0.3415624499320984,0.9765833616256714,1.8303096294403076,-0.5122514963150024,0.545136570930481,9.008586883544922,7.770959854125977,-2.1450092792510986,0.7516804337501526,0.32490748167037964,10.522895812988281,-12.537971496582031,-33.23883056640625,-1.0902340412139893,-0.5373601913452148,1.9598169326782227,1.6353706121444702,9.545947074890137,5.811142921447754
5_20251106_150047,1762412413901,5,0.7879509925842285,0.4943247139453888,0.11377663910388947,0.34904319047927856,0.9929850101470947,1.8408042192459106,-0.4546089172363281,-0.29399511218070984,8.794315338134766,9.796366691589355,-2.1450092792510986,0.7516804337501526,0.32490748167037964,10.588788032531738,-11.985374450683594,-32.995967864990234,-1.5434926748275757,-0.6013050079345703,3.1881790161132812,1.2494975328445435,9.395620346069336,6.608187675476074
5_20251106_150047,1762412413919,5,0.7944899201393127,0.4774678647518158,0.10973453521728516,0.3588433265686035,1.0046738386154175,1.8497118949890137,-0.3937392830848694,0.001676119863986969,9.17737102508545,10.259624481201172,-0.9446603655815125,0.801771342754364,1.4403464794158936,10.627290725708008,-11.484855651855469,-32.728111267089844,-0.9982571005821228,-0.17459964752197266,2.921149730682373,0.9999332427978516,9.351970672607422,7.338474750518799
5_20251106_150047,1762412413938,5,0.7959606051445007,0.4658292829990387,0.10509280860424042,0.37202855944633484,1.0161162614822388,1.8587794303894043,-0.32682743668556213,0.8982661366462708,9.401219367980957,9.479148864746094,-0.5555394887924194,1.1505751609802246,1.6327688694000244,10.673355102539062,-11.059425354003906,-32.40727996826172,-0.0813336968421936,0.039399147033691406,1.7125391960144043,0.9795998334884644,9.361820220947266,7.7666096687316895
5_20251106_150047,1762412413958,5,0.79298996925354,0.45769691467285156,0.10316745936870575,0.38863471150398254,1.0306119918823242,1.867238998413086,-0.2573368549346924,1.983989953994751,9.161808967590332,8.614879608154297,-0.48773348331451416,1.4627270698547363,1.629103660583496,10.806230545043945,-10.603187561035156,-32.09600830078125,0.8035120964050293,-0.16000843048095703,0.6786160469055176,1.1804778575897217,9.321817398071289,7.936263561248779
5_20251106_150047,1762412413977,5,0.7881863117218018,0.44979944825172424,0.10425581783056259,0.4069072902202606,1.049222469329834,1.8746843338012695,-0.1942080855369568,3.195404052734375,9.252784729003906,8.086980819702148,-0.5188875794410706,1.4718899726867676,1.6077234745025635,10.970630645751953,-10.232597351074219,-31.771591186523438,1.6119409799575806,-0.05522632598876953,0.1205739974975586,1.5834630727767944,9.308011054992676,7.96640682220459
5_20251106_150047,1762412413997,5,0.7827703356742859,0.4413013160228729,0.10662143677473068,0.4256238639354706,1.0744109153747559,1.8831590414047241,-0.13051262497901917,3.747243642807007,9.646614074707031,8.15281867980957,-0.5976892113685608,1.3374998569488525,1.5038764476776123,11.105936050415039,-9.939613342285156,-31.382160186767578,1.7310245037078857,0.27088260650634766,0.14912986755371094,2.016219139099121,9.375731468200684,8.00368881225586
5_20251106_150047,1762412414016,5,0.777343213558197,0.4327992796897888,0.10800130665302277,0.4435742199420929,1.1004542112350464,1.8918002843856812,-0.07174471020698547,3.2229361534118652,9.737589836120605,8.471233367919922,-0.671603798866272,1.2452592849731445,1.2589197158813477,11.105936050415039,-9.939613342285156,-31.382160186767578,0.9653735160827637,0.2894868850708008,0.3740358352661133,2.2575626373291016,9.448102951049805,8.097197532653809
5_20251106_150047,1762412414036,5,0.772933304309845,0.42405182123184204,0.10855384916067123,0.4593149721622467,1.1239981651306152,1.8993421792984009,-0.014573700726032257,1.8211911916732788,9.204902648925781,8.586149215698242,-0.671603798866272,1.2452592849731445,1.2589197158813477,11.217170715332031,-9.860763549804688,-31.01122283935547,-0.3490971326828003,-0.19456005096435547,0.3911619186401367,2.170288324356079,9.399462699890137,8.194987297058105
5_20251106_150047,1762412414054,5,0.769639790058136,0.41481319069862366,0.10952232778072357,0.472852498292923,1.1433675289154053,1.9054542779922485,0.041902318596839905,1.0778234004974365,9.015769958496094,8.98357105255127,-0.7296358942985535,1.3961427211761475,1.0719950199127197,11.372525215148926,-9.8546142578125,-30.58584213256836,-0.8739719390869141,-0.30695438385009766,0.6308670043945312,1.9517953395843506,9.322724342346191,8.352704048156738
5_20251106_150047,1762412414073,5,0.7667158842086792,0.4045902490615845,0.1113630160689354,0.48585158586502075,1.1597975492477417,1.9105677604675293,0.09520383179187775,1.5446727275848389,9.165400505065918,9.357049942016602,-0.607463002204895,1.6331583261489868,1.1220859289169312,11.53402328491211,-10.173225402832031,-30.179859161376953,-0.3256981372833252,-0.12585926055908203,0.8034763336181641,1.870370864868164,9.291259765625,8.553573608398438
5_20251106_150047,1762412414093,5,0.7630625367164612,0.39352473616600037,0.11490742862224579,0.4996700584888458,1.177829623222351,1.9158296585083008,0.1498430073261261,2.437671661376953,9.340169906616211,8.987161636352539,-0.4132079780101776,1.8078656196594238,1.148353099822998,11.75886344909668,-10.449790954589844,-29.81118392944336,0.45384061336517334,0.03912830352783203,0.34687042236328125,1.9838310480117798,9.301041603088379,8.640291213989258
5_20251106_150047,1762412414111,5,0.757968008518219,0.3824806213378906,0.1209276020526886,0.5143632888793945,1.1994684934616089,1.9205191135406494,0.2038954645395279,3.1702659130096436,9.112730026245117,8.44729232788086,-0.2592700719833374,1.7767114639282227,1.2051634788513184,12.088951110839844,-10.794822692871094,-29.412643432617188,0.9491479396820068,-0.1506490707397461,-0.15439891815185547,2.2211179733276367,9.263379096984863,8.601691246032715
5_20251106_150047,1762412414131,5,0.7516500949859619,0.3724733591079712,0.12798349559307098,0.5290613770484924,1.2228463888168335,1.924393892288208,0.2506416440010071,3.6239476203918457,9.133079528808594,7.859540939331055,-0.18046852946281433,1.6759188175201416,1.2308199405670166,12.343793869018555,-11.193901062011719,-29.112712860107422,1.1222636699676514,-0.10423946380615234,-0.5937204360961914,2.5016839504241943,9.237318992614746,8.453261375427246
5_20251106_150047,1762412414149,5,0.7441926598548889,0.3639293611049652,0.13462340831756592,0.5436996221542358,1.250012993812561,1.9286788702011108,0.2926957607269287,4.308659553527832,9.457480430603027,7.5949931144714355,-0.2134552299976349,1.6282713413238525,1.0438952445983887,12.649101257324219,-11.552665710449219,-28.755966186523438,1.4455804824829102,0.17612934112548828,-0.6866145133972168,2.863079071044922,9.281351089477539,8.281607627868652
5_20251106_150047,1762412414169,5,0.7368483543395996,0.3559414744377136,0.14088311791419983,0.5572361350059509,1.2817487716674805,1.934452772140503,0.33189475536346436,4.366118431091309,9.77110767364502,7.342415809631348,-0.3148587644100189,1.5451937913894653,0.7121957540512085,12.98541259765625,-12.020988464355469,-28.508255004882812,1.2024316787719727,0.39180564880371094,-0.7513532638549805,3.163686752319336,9.379302024841309,8.093769073486328
5_20251106_150047,1762412414190,5,0.7309486865997314,0.34734946489334106,0.1473451554775238,0.5686402320861816,1.2817487716674805,1.934452772140503,0.33189475536346436,4.366118431091309,9.77110767364502,7.342415809631348,-0.3148587644100189,1.5451937913894653,0.7121957540512085,13.396968841552734,-12.435264587402344,-28.161930084228516,1.2024316787719727,0.39180564880371094,-0.7513532638549805,3.163686752319336,9.379302024841309,8.093769073486328
5_20251106_150047,1762412414207,5,0.7271772623062134,0.3381287157535553,0.1534610390663147,0.577349066734314,1.3416599035263062,1.9483764171600342,0.3986681401729584,3.069713592529297,9.568805694580078,7.981640338897705,-0.3948820233345032,1.5091527700424194,0.21983875334262848,13.79611587524414,-12.873832702636719,-27.97882080078125,-0.18540191650390625,0.05961036682128906,-0.027328014373779297,3.255115509033203,9.509195327758789,8.008968353271484
5_20251106_150047,1762412414226,5,0.7248632311820984,0.3280769884586334,0.16014884412288666,0.5842012763023376,1.3416599035263062,1.9483764171600342,0.3986681401729584,3.069713592529297,9.568805694580078,7.981640338897705,-0.16825123131275177,1.4682247638702393,0.2815361022949219,14.384706497192383,-13.175453186035156,-27.731647491455078,-0.18540191650390625,0.05961036682128906,-0.027328014373779297,3.255115509033203,9.509195327758789,8.008968353271484
5_20251106_150047,1762412414245,5,0.7224499583244324,0.3187086582183838,0.16784629225730896,0.5901851058006287,1.3879588842391968,1.9570235013961792,0.4619472622871399,2.0342659950256348,8.775161743164062,8.677125930786133,0.1261855512857437,1.4217991828918457,0.46846070885658264,14.990633010864258,-13.589439392089844,-27.391258239746094,-0.8476123809814453,-0.5149822235107422,0.48450469970703125,2.88187837600708,9.290143966674805,8.192621231079102
5_20251106_150047,1762412414265,5,0.7182788848876953,0.31165289878845215,0.17626245319843292,0.5965563058853149,1.4056719541549683,1.9575506448745728,0.49484574794769287,1.7924619913101196,8.375347137451172,8.624456405639648,0.3955768942832947,1.428518533706665,0.6798199415206909,15.53974723815918,-13.943809509277344,-27.133094787597656,-0.8715330362319946,-0.731837272644043,0.34546852111816406,2.6639950275421143,9.107184410095215,8.278987884521484
5_20251106_150047,1762412414284,5,0.7119655609130859,0.30664628744125366,0.18563950061798096,0.6038303375244141,1.4056719541549683,1.9575506448745728,0.49484574794769287,1.7924619913101196,8.375347137451172,8.624456405639648,0.6784072518348694,1.485329031944275,0.8667445182800293,16.1942195892334,-14.354896545410156,-26.763710021972656,-0.8715330362319946,-0.731837272644043,0.34546852111816406,2.6639950275421143,9.107184410095215,8.278987884521484
5_20251106_150047,1762412414301,5,0.7034614682197571,0.3036419451236725,0.19601964950561523,0.6119802594184875,1.4338716268539429,1.9536662101745605,0.5480540990829468,3.129566192626953,8.429214477539062,7.542323112487793,0.9264183640480042,1.5140397548675537,0.9137811064720154,16.82724380493164,-14.930152893066406,-26.38473129272461,0.4473574161529541,-0.43121910095214844,-0.5775718688964844,2.682208776473999,8.860433578491211,8.119894981384277
5_20251106_150047,1762412414321,5,0.6930155158042908,0.3020997941493988,0.208090141415596,0.6206156015396118,1.4338716268539429,1.9536662101745605,0.5480540990829468,3.129566192626953,8.429214477539062,7.542323112487793,1.0864648818969727,1.393088459968567,0.8661336302757263,17.499969482421875,-15.429161071777344,-25.854015350341797,0.4473574161529541,-0.43121910095214844,-0.5775718688964844,2.682208776473999,8.860433578491211,8.119894981384277
5_20251106_150047,1762412414339,5,0.6816200613975525,0.3023316562175751,0.22098299860954285,0.6286144852638245,1.4688020944595337,1.9417030811309814,0.5885153412818909,3.319897174835205,7.772034645080566,6.735511779785156,1.0980713367462158,1.2599198818206787,0.7512910962104797,18.145193099975586,-15.992012023925781,-25.379669189453125,0.36119651794433594,-0.7383289337158203,-0.9474854469299316,2.958700656890869,8.510363578796387,7.682997226715088
5_20251106_150047,1762412414359,5,0.6706901788711548,0.3039604723453522,0.23333415389060974,0.6350889205932617,1.4859920740127563,1.9319779872894287,0.6025756001472473,2.835092067718506,7.635570526123047,6.382381916046143,1.0046091079711914,1.247702717781067,0.605905294418335,18.894590377807617,-16.613182067871094,-24.631900787353516,-0.09888696670532227,-0.6998348236083984,-1.0404925346374512,2.933979034423828,8.335405349731445,7.422874450683594
5_20251106_150047,1762412414378,5,0.660764217376709,0.3053508996963501,0.24511487782001495,0.6403672099113464,1.50103759765625,1.9209164381027222,0.6121442914009094,2.7632689476013184,7.5026984214782715,6.285420894622803,0.9111467003822327,1.3179521560668945,0.5026691555976868,19.495349884033203,-17.494911193847656,-23.827224731445312,-0.1365680694580078,-0.666165828704834,-0.9099631309509277,2.899837017059326,8.168864250183105,7.1953840255737305
5_20251106_150047,1762412414398,5,0.6517041921615601,0.30540889501571655,0.25688478350639343,0.6449940204620361,1.5170180797576904,1.9083064794540405,0.6195216774940491,3.2073745727539062,7.659511566162109,6.474555015563965,0.8262365460395813,1.3411649465560913,0.39027002453804016,19.495349884033203,-17.494911193847656,-23.827224731445312,0.24602985382080078,-0.4074821472167969,-0.5766630172729492,2.9613447189331055,8.066993713378906,7.051218032836914
5_20251106_150047,1762412414417,5,0.6431043744087219,0.3041364848613739,0.2688101828098297,0.6493526101112366,1.532558798789978,1.89570951461792,0.6250410079956055,3.36897611618042,7.623600006103516,6.6361565589904785,0.8066888451576233,1.2538113594055176,0.23694297671318054,20.610279083251953,-19.26567840576172,-22.045595169067383,0.32610511779785156,-0.35471534729003906,-0.3320493698120117,3.0428709983825684,7.978315353393555,6.96820592880249
5_20251106_150047,1762412414436,5,0.6353099942207336,0.3022257685661316,0.28043660521507263,0.6529901027679443,1.5474783182144165,1.881567120552063,0.6269167065620422,3.099639892578125,7.185480117797852,5.7407636642456055,0.8567797541618347,1.036954402923584,0.19540417194366455,20.610279083251953,-19.26567840576172,-22.045595169067383,0.04541516304016113,-0.6342678070068359,-0.9819540977478027,3.054224729537964,7.8197479248046875,6.722717761993408
5_20251106_150047,1762412414455,5,0.6284484267234802,0.30101868510246277,0.29159003496170044,0.655298113822937,1.5605872869491577,1.8671886920928955,0.6259599328041077,2.9248709678649902,7.149568557739258,5.648590564727783,0.8543363213539124,0.7260240912437439,0.3322378993034363,21.131498336791992,-20.029151916503906,-21.066001892089844,-0.10348320007324219,-0.5361433029174805,-0.8593020439147949,3.0283541679382324,7.685711860656738,6.507892608642578
5_20251106_150047,1762412414475,5,0.6217060089111328,0.3019114136695862,0.3009682297706604,0.6570762991905212,1.5730243921279907,1.8496402502059937,0.6212852597236633,2.4041543006896973,7.204632759094238,5.429530620574951,0.8732730746269226,0.5195518732070923,0.3829396367073059,21.648286819458008,-20.655296325683594,-20.083995819091797,-0.4993600845336914,-0.38486337661743164,-0.8626894950866699,2.9035143852233887,7.58949613571167,6.292220115661621
5_20251106_150047,1762412414494,5,0.6149903535842896,0.30478912591934204,0.3083539307117462,0.6586412787437439,1.580390214920044,1.8331562280654907,0.6144471764564514,1.6919097900390625,7.07894229888916,5.26433801651001,0.8463950753211975,0.4267004430294037,0.2961968779563904,22.090944290161133,-21.310768127441406,-19.15952491760254,-0.9692838191986084,-0.4084434509277344,-0.8223056793212891,2.661193609237671,7.4873857498168945,6.086643695831299
5_20251106_150047,1762412414513,5,0.6087247729301453,0.3085536062717438,0.3151090443134308,0.6595112681388855,1.5842193365097046,1.8164348602294922,0.6063747406005859,1.5063670873641968,7.100489616394043,5.512126922607422,0.6509183049201965,0.4731261730194092,0.19418244063854218,22.547704696655273,-21.92804718017578,-18.20673942565918,-0.9238611459732056,-0.30951690673828125,-0.4596138000488281,2.4302282333374023,7.410006523132324,5.97174072265625
5_20251106_150047,1762412414532,5,0.603480875492096,0.3112201988697052,0.3214888572692871,0.6599982380867004,1.5850250720977783,1.8003228902816772,0.5985791087150574,1.3579330444335938,6.978390216827393,5.7563252449035645,0.5177498459815979,0.46029800176620483,0.15447622537612915,22.886932373046875,-22.47779083251953,-17.270790100097656,-0.8578362464904785,-0.3452930450439453,-0.172332763671875,2.2157692909240723,7.323683261871338,5.9286580085754395
5_20251106_150047,1762412414550,5,0.5992034077644348,0.3121029734611511,0.327051043510437,0.6607455015182495,1.5827077627182007,1.7831103801727295,0.589773416519165,1.0766265392303467,6.938888072967529,5.56838846206665,0.5818906426429749,0.3582836091518402,0.20578886568546295,23.20206642150879,-22.82738494873047,-16.494285583496094,-0.9113142490386963,-0.30783605575561523,-0.28821563720703125,1.987940788269043,7.2467241287231445,5.856604099273682
5_20251106_150047,1762412414569,5,0.5950166583061218,0.3131329417228699,0.33206209540367126,0.6615418791770935,1.577772855758667,1.7660748958587646,0.5798684358596802,0.9916359186172485,6.9975433349609375,5.295461654663086,0.6777964234352112,0.29475367069244385,0.32918354868888855,23.503110885620117,-23.203575134277344,-15.65121841430664,-0.7970439195632935,-0.19934463500976562,-0.44891357421875,1.788679838180542,7.196887969970703,5.744375228881836
5_20251106_150047,1762412414588,5,0.5903118252754211,0.31559982895851135,0.33686694502830505,0.6621550917625427,1.5711902379989624,1.7502080202102661,0.5675159692764282,1.0981733798980713,7.3123674392700195,4.6717987060546875,0.7022309899330139,0.28436896204948425,0.41714808344841003,23.722450256347656,-23.545616149902344,-15.013534545898438,-0.5524051189422607,0.09238338470458984,-0.8580613136291504,1.650578498840332,7.21998405456543,5.529860019683838
5_20251106_150047,1762412414608,5,0.5845404267311096,0.3188592195510864,0.3416458070278168,0.6632642149925232,1.5634770393371582,1.736067771911621,0.5525665283203125,1.1185232400894165,7.56015682220459,4.3581719398498535,0.6417554020881653,0.21167609095573425,0.3523964285850525,23.92558479309082,-23.951927185058594,-14.310081481933594,-0.42564427852630615,0.2721385955810547,-0.9373507499694824,1.5441675186157227,7.288018226623535,5.295522689819336
5_20251106_150047,1762412414627,5,0.5789716839790344,0.3224790692329407,0.3460189998149872,0.6641309857368469,1.5536510944366455,1.7232460975646973,0.5347456932067871,0.8491870760917664,7.7217583656311035,4.35098934173584,0.4756001830101013,0.1676938235759735,0.19479331374168396,24.047731399536133,-24.29991912841797,-13.716870307922363,-0.5559843182563782,0.34699201583862305,-0.7556266784667969,1.4051713943481445,7.3747663497924805,5.106616020202637
5_20251106_150047,1762412414646,5,0.5746751427650452,0.32553666830062866,0.34972140192985535,0.6644315719604492,1.5536510944366455,1.7232460975646973,0.5347456932067871,0.8491870760917664,7.7217583656311035,4.35098934173584,0.30028200149536133,0.17624592781066895,0.031692422926425934,24.122446060180664,-24.626121520996094,-13.111577987670898,-0.5559843182563782,0.34699201583862305,-0.7556266784667969,1.4051713943481445,7.3747663497924805,5.106616020202637
5_20251106_150047,1762412414666,5,0.5721147656440735,0.32713109254837036,0.35267671942710876,0.6642959117889404,1.5410152673721313,1.7120286226272583,0.5152432322502136,0.5595011711120605,7.8438568115234375,4.591596603393555,0.21292833983898163,0.1786893904209137,-0.09292398393154144,24.165523529052734,-24.87841033935547,-12.600786209106445,-0.6765362024307251,0.375272274017334,-0.412015438079834,1.2360373735427856,7.4685845375061035,5.003612041473389
5_20251106_150047,1762412414686,5,0.5707750916481018,0.3272189795970917,0.35540971159935,0.6639483571052551,1.5134260654449463,1.6961097717285156,0.4815070629119873,0.38353484869003296,7.817522048950195,5.074007034301758,0.1683352142572403,0.17196987569332123,-0.13812796771526337,24.210294723510742,-25.116798400878906,-12.224893569946289,-0.5488576292991638,0.21546697616577148,0.09293460845947266,0.9323924779891968,7.602055072784424,4.981072425842285
5_20251106_150047,1762412414703,5,0.5702872276306152,0.32678917050361633,0.3580044209957123,0.6631848812103271,1.5001887083053589,1.6907755136489868,0.46812424063682556,0.47211652994155884,8.024611473083496,5.176953315734863,0.08281417191028595,0.14448097348213196,-0.10575214773416519,24.234216690063477,-25.293983459472656,-11.848661422729492,-0.3682207465171814,0.3380451202392578,0.15670490264892578,0.8403372764587402,7.686566352844238,5.0202484130859375
5_20251106_150047,1762412414722,5,0.5699523687362671,0.325919508934021,0.36017802357673645,0.6627236008644104,1.4846735000610352,1.6864529848098755,0.4547060430049896,0.3081207573413849,8.175440788269043,5.308629035949707,0.03455585613846779,0.05040779337286949,-0.07643062621355057,24.238588333129883,-25.39661407470703,-11.552925109863281,-0.4257732331752777,0.3910994529724121,0.23070478439331055,0.7338939905166626,7.784341335296631,5.0779242515563965
5_20251106_150047,1762412414742,5,0.5699083209037781,0.3252333104610443,0.36125171184539795,0.6625141501426697,1.4670233726501465,1.6839489936828613,0.4409884512424469,0.03160235285758972,8.382530212402344,4.979439735412598,0.04371882602572441,0.026584068313241005,-0.08253928273916245,24.28102684020996,-25.47161102294922,-11.268705368041992,-0.561833381652832,0.47855091094970703,-0.07878732681274414,0.5934357047080994,7.903979301452637,5.058227062225342
5_20251106_150047,1762412414760,5,0.5701330304145813,0.3249799907207489,0.3618359863758087,0.6621261835098267,1.4516446590423584,1.683093786239624,0.4296727180480957,0.08068139106035233,8.435199737548828,4.949514389038086,0.057768721133470535,0.0345253124833107,-0.10269781202077866,24.25345230102539,-25.512351989746094,-11.121798515319824,-0.4102034866809845,0.4249763488769531,-0.08697032928466797,0.4908848702907562,8.010223388671875,5.036484718322754
5_20251106_150047,1762412414780,5,0.5703402161598206,0.32467812299728394,0.3626544773578644,0.6616478562355042,1.4339228868484497,1.6840049028396606,0.41624823212623596,0.3153030574321747,8.624334335327148,4.780730247497559,0.0644882321357727,0.0809510350227356,-0.10453040897846222,24.265960693359375,-25.48792266845703,-10.972101211547852,-0.14046546816825867,0.4912891387939453,-0.2046031951904297,0.45576852560043335,8.133045196533203,4.985333442687988
5_20251106_150047,1762412414798,5,0.5705534219741821,0.32430222630500793,0.3637712299823761,0.6610350608825684,1.4182366132736206,1.6869698762893677,0.4035351574420929,0.5678804516792297,8.914019584655762,4.7675628662109375,0.03150153160095215,0.09988783299922943,-0.1320193111896515,24.392261505126953,-25.39275360107422,-10.897768020629883,0.08968955278396606,0.6247797012329102,-0.17421627044677734,0.47819089889526367,8.289239883422852,4.941779136657715
5_20251106_150047,1762412414817,5,0.5706915855407715,0.3236108124256134,0.3650205731391907,0.6605657339096069,1.4032851457595825,1.6914777755737305,0.3909403383731842,0.46014606952667236,8.905640602111816,4.75319766998291,0.007677806541323662,0.08339449763298035,-0.1625625491142273,24.407575607299805,-25.32971954345703,-10.841893196105957,-0.01443585753440857,0.4931201934814453,-0.1508650779724121,0.47458192706108093,8.412520408630371,4.904062747955322
5_20251106_150047,1762412414837,5,0.5711906552314758,0.3227146565914154,0.3661416471004486,0.6599521040916443,1.3874200582504272,1.6977940797805786,0.37730100750923157,0.1740512251853943,9.007389068603516,4.560473442077637,0.005234347656369209,0.091335728764534,-0.1515669971704483,24.47455406188965,-25.21314239501953,-10.796516418457031,-0.24042457342147827,0.4758949279785156,-0.2748713493347168,0.41447579860687256,8.531494140625,4.8353447914123535
5_20251106_150047,1762412414857,5,0.5718096494674683,0.32185351848602295,0.36713728308677673,0.6592831015586853,1.3874200582504272,1.6977940797805786,0.37730100750923157,0.1740512251853943,9.007389068603516,4.560473442077637,0.005234347656369209,0.091335728764534,-0.1515669971704483,24.585847854614258,-25.16899871826172,-10.723729133605957,-0.24042457342147827,0.4758949279785156,-0.2748713493347168,0.41447579860687256,8.531494140625,4.8353447914123535
5_20251106_150047,1762412414875,5,0.5722036957740784,0.32079848647117615,0.3682568669319153,0.6588308811187744,1.3700827360153198,1.7057336568832397,0.36275044083595276,-0.03662946820259094,9.020557403564453,4.553290367126465,-0.0027068937197327614,0.20006965100765228,-0.030615774914622307,24.585847854614258,-25.16899871826172,-10.723729133605957,-0.3608842194080353,0.3912506103515625,-0.22564363479614258,0.32425475120544434,8.62930679321289,4.778934001922607
5_20251106_150047,1762412414895,5,0.5720548033714294,0.31946325302124023,0.3695200979709625,0.6589016914367676,1.339604139328003,1.7207444906234741,0.3378394544124603,0.05913449823856354,8.823043823242188,4.622719764709473,0.06143390014767647,0.13898317515850067,0.05857047438621521,24.687467575073242,-25.087440490722656,-10.704705238342285,-0.15818528831005096,0.09909248352050781,-0.0974874496459961,0.2173197865486145,8.72395133972168,4.720207214355469
5_20251106_150047,1762412414914,5,0.5712159872055054,0.3186432123184204,0.3707354962825775,0.6593436002731323,1.3249738216400146,1.7281140089035034,0.32596492767333984,0.26263290643692017,8.74882698059082,4.768759727478027,0.09991838037967682,0.06934460252523422,0.1361503005027771,24.800989151000977,-24.993873596191406,-10.549764633178711,0.03625050187110901,0.01990032196044922,0.038842201232910156,0.22638240456581116,8.728926658630371,4.729917526245117
5_20251106_150047,1762412414932,5,0.5699587464332581,0.31899839639663696,0.37161630392074585,0.6597638726234436,1.3125412464141846,1.73499596118927,0.3161015808582306,0.5247867107391357,8.83022689819336,5.064431190490723,0.09991838037967682,0.06934460252523422,0.1361503005027771,24.901309967041016,-24.925682067871094,-10.449907302856445,0.23872345685958862,0.0810403823852539,0.267611026763916,0.2860632538795471,8.749186515808105,4.796820163726807
5_20251106_150047,1762412414952,5,0.5684252977371216,0.31993037462234497,0.37208256125450134,0.6603724360466003,1.3001655340194702,1.7425248622894287,0.30610713362693787,0.5319690108299255,8.836211204528809,4.933952331542969,0.1371811181306839,0.003982074558734894,0.09216802567243576,25.047147750854492,-24.91669464111328,-10.389957427978516,0.19672459363937378,0.06962013244628906,0.10970592498779297,0.33524441719055176,8.76659107208252,4.824246406555176
5_20251106_150047,1762412414971,5,0.5671196579933167,0.32112589478492737,0.3724963963031769,0.6606813669204712,1.2891913652420044,1.7489688396453857,0.2970629930496216,0.4062788188457489,8.63869857788086,4.8154449462890625,0.1371811181306839,0.003982074558734894,0.09216802567243576,25.072547912597656,-24.87891387939453,-10.239505767822266,0.05682751536369324,-0.10231399536132812,-0.007040977478027344,0.34945130348205566,8.741012573242188,4.82248592376709
5_20251106_150047,1762412414990,5,0.5663049817085266,0.32214951515197754,0.3731609582901001,0.6605067849159241,1.278340458869934,1.754241704940796,0.288067489862442,0.1944010704755783,8.431608200073242,4.675389766693115,0.044940557330846786,0.0027603451162576675,-0.050163447856903076,25.11034393310547,-24.828453063964844,-10.02071762084961,-0.12404017150402069,-0.24752330780029297,-0.11767721176147461,0.318441241979599,8.679131507873535,4.79306697845459
5_20251106_150047,1762412415008,5,0.5660558342933655,0.32263872027397156,0.37374866008758545,0.6601491570472717,1.2679184675216675,1.7585045099258423,0.2791600525379181,0.05195219814777374,8.483081817626953,4.463512420654297,-0.058906447142362595,0.03819049894809723,-0.1155259758234024,25.143390655517578,-24.877235412597656,-9.925688743591309,-0.2131912261247635,-0.15684032440185547,-0.263643741607666,0.26514342427253723,8.639922142028809,4.727156162261963
5_20251106_150047,1762412415029,5,0.5663526058197021,0.3222607374191284,0.37412938475608826,0.6598635911941528,1.2558655738830566,1.762771725654602,0.26764973998069763,0.11539580672979355,8.50343132019043,4.238466739654541,-0.15297961235046387,0.091335728764534,-0.17477986216545105,25.094858169555664,-24.86852264404297,-9.8598051071167,-0.11979808658361435,-0.1091928482055664,-0.39095163345336914,0.2351938933134079,8.612624168395996,4.62941837310791
5_20251106_150047,1762412415047,5,0.5673092007637024,0.320712685585022,0.3743217885494232,0.6596869230270386,1.245980143547058,1.7659480571746826,0.25818097591400146,0.20637157559394836,8.491461753845215,4.590399742126465,-0.15297961235046387,0.091335728764534,-0.17477986216545105,25.068384170532227,-24.89617156982422,-9.76669979095459,-0.02305784821510315,-0.09693050384521484,-0.031215190887451172,0.2294294238090515,8.58839225769043,4.621614933013916
5_20251106_150047,1762412415066,5,0.5687099099159241,0.31882351636886597,0.3742992579936981,0.6594093441963196,1.235741138458252,1.7688180208206177,0.25016355514526367,0.11060761660337448,8.473505973815918,5.1601948738098145,-0.16458605229854584,0.019864557310938835,-0.1772233247756958,25.01893424987793,-24.911903381347656,-9.768925666809082,-0.09505745023488998,-0.09190845489501953,0.4308638572692871,0.20566506683826447,8.565414428710938,4.729331016540527
5_20251106_150047,1762412415086,5,0.5701489448547363,0.317904531955719,0.37371689081192017,0.6589404940605164,1.2246782779693604,1.7716996669769287,0.2440272867679596,-0.06535865366458893,8.569269180297852,5.3481316566467285,-0.022865429520606995,-0.13346248865127563,-0.08803706616163254,25.081287384033203,-24.87120819091797,-9.67106819152832,-0.21681897342205048,0.0030841827392578125,0.4950404167175293,0.15146031975746155,8.566184997558594,4.853091239929199
5_20251106_150047,1762412415105,5,0.5712864398956299,0.31811752915382385,0.3729642927646637,0.6582785844802856,1.2246782779693604,1.7716996669769287,0.2440272867679596,-0.06535865366458893,8.569269180297852,5.3481316566467285,-0.032639265060424805,-0.07787379622459412,-0.10880646854639053,25.10959243774414,-24.79468536376953,-9.627954483032227,-0.21681897342205048,0.0030841827392578125,0.4950404167175293,0.15146031975746155,8.566184997558594,4.853091239929199
5_20251106_150047,1762412415125,5,0.5720539689064026,0.318220853805542,0.37245652079582214,0.6578494906425476,1.2129853963851929,1.7741081714630127,0.23976463079452515,-0.23773373663425446,8.457944869995117,5.368481159210205,-0.09861265122890472,0.03757963702082634,-0.11430424451828003,25.186220169067383,-24.738746643066406,-9.7185697555542,-0.31135523319244385,-0.08659172058105469,0.41231203079223633,0.07362151145935059,8.544536590576172,4.956169128417969
5_20251106_150047,1762412415143,5,0.5729923248291016,0.3173704147338867,0.3723122775554657,0.6575251817703247,1.1901260614395142,1.776437759399414,0.23661990463733673,-0.2748422622680664,8.315494537353516,5.409181118011475,-0.12365810573101044,0.10782907903194427,-0.08192840963602066,25.274328231811523,-24.69457244873047,-9.808959007263184,-0.21497264504432678,-0.14199066162109375,0.26177310943603516,-0.059869617223739624,8.45748519897461,5.1474080085754395
5_20251106_150047,1762412415162,5,0.5735024213790894,0.31499141454696655,0.3723682463169098,0.6581923961639404,1.1793848276138306,1.7773512601852417,0.23645466566085815,-0.11683176457881927,8.491460800170898,5.491777420043945,-0.08150844275951385,0.0601816326379776,-0.034280963242053986,25.352773666381836,-24.60137176513672,-9.858233451843262,-0.04556971788406372,0.02718067169189453,0.2754955291748047,-0.07126204669475555,8.464280128479004,5.216281890869141
5_20251106_150047,1762412415180,5,0.5737165212631226,0.3129117786884308,0.372413694858551,0.6589716672897339,1.1683377027511597,1.7785422801971436,0.23692002892494202,-0.17189602553844452,8.564481735229492,5.446289539337158,-0.0277523472905159,0.007647262886166573,0.0072578368708491325,25.4183292388916,-24.521522521972656,-9.908262252807617,-0.08050718903541565,0.08016109466552734,0.1840062141418457,-0.09138883650302887,8.484320640563965,5.2622833251953125
5_20251106_150047,1762412415200,5,0.5737559199333191,0.3120235502719879,0.3722003996372223,0.6594787836074829,1.1565691232681274,1.7800425291061401,0.23772278428077698,-0.32870951294898987,8.586029052734375,5.373269081115723,0.0064560770988464355,-0.04061104729771614,0.04818577319383621,25.49475860595703,-24.465858459472656,-9.971845626831055,-0.18985654413700104,0.08136653900146484,0.08878850936889648,-0.13885296881198883,8.50466251373291,5.284480571746826
5_20251106_150047,1762412415218,5,0.5735135078430176,0.31198650598526,0.37185969948768616,0.6598992943763733,1.1458243131637573,1.7817466259002686,0.23862777650356293,-0.4160941243171692,8.67580795288086,5.373269557952881,0.0009582946076989174,-0.03450240194797516,0.07384208589792252,25.568578720092773,-24.44853973388672,-9.968639373779297,-0.22179293632507324,0.1369161605834961,0.07103109359741211,-0.19430118799209595,8.538891792297363,5.302238464355469
5_20251106_150047,1762412415238,5,0.573218047618866,0.31230318546295166,0.371604859828949,0.6601496934890747,1.1342558860778809,1.7844456434249878,0.2403339147567749,-0.26885706186294556,8.835014343261719,5.549235820770264,-0.00820467621088028,0.01864282600581646,0.054905280470848083,25.572893142700195,-24.384681701660156,-10.075448989868164,-0.05964469909667969,0.23689842224121094,0.19759798049926758,-0.20921236276626587,8.598115921020508,5.351637840270996
5_20251106_150047,1762412415258,5,0.5728926658630371,0.312260240316391,0.3715955913066864,0.6604576110839844,1.123328447341919,1.7874605655670166,0.24243535101413727,-0.18865473568439484,8.74643325805664,5.509733200073242,0.023560289293527603,0.08156189322471619,0.0029817838221788406,25.572893142700195,-24.384681701660156,-10.075448989868164,0.016446098685264587,0.11865425109863281,0.12647628784179688,-0.20510083436965942,8.627779006958008,5.383256912231445
5_20251106_150047,1762412415277,5,0.5724668502807617,0.3116835951805115,0.37211599946022034,0.6608061194419861,1.1131962537765503,1.7900373935699463,0.24375274777412415,-0.3035714626312256,8.575254440307617,5.1721649169921875,0.07365119457244873,0.07911843806505203,-0.012289835140109062,25.525558471679688,-24.362754821777344,-10.076883316040039,-0.07877650856971741,-0.04201984405517578,-0.16887378692626953,-0.22479495406150818,8.617274284362793,5.341038703918457
5_20251106_150047,1762412415296,5,0.5720083117485046,0.3111664652824402,0.37296900153160095,0.6609659790992737,1.1036828756332397,1.7918434143066406,0.24395662546157837,-0.3849708139896393,8.408864974975586,4.942331790924072,0.06021217629313469,0.04185568541288376,0.03719020634889603,25.537038803100586,-24.37451934814453,-10.076656341552734,-0.12814068794250488,-0.16672706604003906,-0.31896543502807617,-0.2568301260471344,8.575592041015625,5.261297225952148
5_20251106_150047,1762412415315,5,0.5714969635009766,0.31110453605651855,0.3738921880722046,0.6609158515930176,1.093644380569458,1.793079137802124,0.24338413774967194,-0.25568950176239014,8.354997634887695,5.00218391418457,0.020505964756011963,0.0033712098374962807,0.10682878643274307,25.537038803100586,-24.37451934814453,-10.076656341552734,0.0009125173091888428,-0.17647552490234375,-0.2072906494140625,-0.256602019071579,8.531473159790039,5.209474563598633
5_20251106_150047,1762412415335,5,0.5709501504898071,0.31144779920578003,0.374393492937088,0.6609430313110352,1.093644380569458,1.793079137802124,0.24338413774967194,-0.25568950176239014,8.354997634887695,5.00218391418457,0.010732129216194153,0.005814668722450733,0.12393299490213394,25.512073516845703,-24.376914978027344,-9.996540069580078,0.0009125173091888428,-0.17647552490234375,-0.2072906494140625,-0.256602019071579,8.531473159790039,5.209474563598633
5_20251106_150047,1762412415353,5,0.5702176690101624,0.3119348883628845,0.37447893619537354,0.6612971425056458,1.0775856971740723,1.794964075088501,0.24057424068450928,0.08786368370056152,8.679397583007812,4.94711971282959,-0.02469802275300026,0.024140609428286552,0.07567468285560608,25.483980178833008,-24.441566467285156,-9.971808433532715,0.2493787705898285,0.13642406463623047,-0.17422723770141602,-0.16151508688926697,8.542973518371582,5.121346950531006
5_20251106_150047,1762412415372,5,0.5694600939750671,0.3123074769973755,0.37440797686576843,0.6618140935897827,1.0775856971740723,1.794964075088501,0.24057424068450928,0.08786368370056152,8.679397583007812,4.94711971282959,-0.09311486780643463,0.05468384549021721,-0.014122430235147476,25.43574333190918,-24.432456970214844,-9.946473121643066,0.2493787705898285,0.13642406463623047,-0.17422723770141602,-0.16151508688926697,8.542973518371582,5.121346950531006
5_20251106_150047,1762412415391,5,0.5693085789680481,0.3123711049556732,0.37422195076942444,0.6620196104049683,1.0663859844207764,1.7989670038223267,0.23794648051261902,0.07948432862758636,8.69376277923584,5.321796417236328,-0.09555833041667938,0.06690114736557007,-0.07520890235900879,25.413288116455078,-24.396644592285156,-9.91963005065918,0.13566142320632935,0.07601165771484375,0.15950679779052734,-0.05617709457874298,8.617751121520996,5.162289619445801
5_20251106_150047,1762412415410,5,0.5697144269943237,0.31208285689353943,0.3740029036998749,0.6619302034378052,1.0663859844207764,1.7989670038223267,0.23794648051261902,0.07948432862758636,8.69376277923584,5.321796417236328,-0.0485217459499836,0.05834903568029404,-0.03305923938751221,25.373218536376953,-24.45020294189453,-9.827543258666992,0.13566142320632935,0.07601165771484375,0.15950679779052734,-0.05617709457874298,8.617751121520996,5.162289619445801
5_20251106_150047,1762412415429,5,0.5699784159660339,0.3116118609905243,0.3739554286003113,0.6619516611099243,1.0561134815216064,1.8021981716156006,0.23754195868968964,-0.3035714328289032,8.518993377685547,5.263140678405762,0.00340175349265337,0.02108628675341606,0.08178333193063736,25.349353790283203,-24.43950653076172,-9.801227569580078,-0.1878276765346527,-0.06933403015136719,0.04328489303588867,-0.11574375629425049,8.588327407836914,5.219855785369873
5_20251106_150047,1762412415449,5,0.5695232152938843,0.31128355860710144,0.37388014793395996,0.6625401973724365,1.049896001815796,1.803821086883545,0.23767247796058655,-0.2640688419342041,8.603983879089355,5.2990522384643555,0.05104920268058777,-0.014954731799662113,0.17158043384552002,25.286605834960938,-24.480751037597656,-9.845020294189453,-0.1186600774526596,0.012524604797363281,0.06335735321044922,-0.1454087644815445,8.591459274291992,5.235694885253906
5_20251106_150047,1762412415467,5,0.5685572624206543,0.3116958439350128,0.3737752139568329,0.6632348299026489,1.044988989830017,1.8054800033569336,0.23783454298973083,-0.08211733400821686,8.728477478027344,5.258353233337402,0.06632082164287567,0.008258127607405186,0.2027345448732376,25.24822998046875,-24.52039337158203,-9.887832641601562,0.05063314735889435,0.10961437225341797,0.018126487731933594,-0.1327504813671112,8.618863105773926,5.240226745605469
5_20251106_150047,1762412415486,5,0.567226231098175,0.3124969005584717,0.3738127052783966,0.6639760136604309,1.0407031774520874,1.807450771331787,0.23787929117679596,0.09863711893558502,8.730871200561523,5.197303771972656,0.06265562772750854,0.025973202660679817,0.17158043384552002,25.258399963378906,-24.55713653564453,-9.901649475097656,0.18511009216308594,0.08960628509521484,-0.03433847427368164,-0.08647296577692032,8.641264915466309,5.231642246246338
5_20251106_150047,1762412415505,5,0.565752387046814,0.3132946789264679,0.37392300367355347,0.664794921875,1.03730046749115,1.8094966411590576,0.23763054609298706,0.15729254484176636,8.704535484313965,5.1254801750183105,0.03699931502342224,0.04002309590578079,0.1104939728975296,25.269683837890625,-24.569175720214844,-9.874390602111816,0.1950124055147171,0.05061626434326172,-0.0849294662475586,-0.03771986439824104,8.653919219970703,5.210409641265869
5_20251106_150047,1762412415525,5,0.5645430684089661,0.31413495540618896,0.3740595281124115,0.6653494238853455,1.03730046749115,1.8094966411590576,0.23763054609298706,0.15729254484176636,8.704535484313965,5.1254801750183105,-0.022254563868045807,0.049186065793037415,0.04940750449895859,25.266172409057617,-24.62035369873047,-9.78083324432373,0.1950124055147171,0.05061626434326172,-0.0849294662475586,-0.03771986439824104,8.653919219970703,5.210409641265869
5_20251106_150047,1762412415544,5,0.5637759566307068,0.3145396411418915,0.37408021092414856,0.6657968759536743,1.0325465202331543,1.8148410320281982,0.23656202852725983,0.12856334447860718,8.843393325805664,5.266732215881348,-0.05768471583724022,0.035747040063142776,0.0011491896584630013,25.20342445373535,-24.661598205566406,-9.824625968933105,0.09607875347137451,0.12394523620605469,0.06439208984375,0.032484594732522964,8.71944808959961,5.202340126037598
5_20251106_150047,1762412415564,5,0.5635294318199158,0.31467097997665405,0.37393918633461,0.6660227179527283,1.0302135944366455,1.817583680152893,0.23642076551914215,-0.050994038581848145,8.717703819274902,5.2846879959106445,-0.02103283628821373,0.02536233887076378,-0.015344157814979553,25.18781280517578,-24.72504425048828,-9.83995246887207,-0.06678290665149689,-0.0013952255249023438,0.06587791442871094,0.015788868069648743,8.719099044799805,5.218810081481934
5_20251106_150047,1762412415581,5,0.5636178851127625,0.3147336542606354,0.37378713488578796,0.6660035252571106,1.027943730354309,1.8195245265960693,0.23636199533939362,-0.15992555022239685,8.59440803527832,5.243988037109375,0.026003748178482056,0.010090721771121025,0.01458821352571249,25.149845123291016,-24.752540588378906,-9.841951370239258,-0.14057153463363647,-0.09975242614746094,0.020142078399658203,-0.019354011863470078,8.694160461425781,5.223845958709717
5_20251106_150047,1762412415602,5,0.5634791851043701,0.31477347016334534,0.3739728629589081,0.6659978628158569,1.0249758958816528,1.8213940858840942,0.23648490011692047,-0.16112259030342102,8.595603942871094,5.285884857177734,0.03699931502342224,0.0070363981649279594,0.07811814546585083,25.11420249938965,-24.730491638183594,-9.775313377380371,-0.11341486126184464,-0.07884502410888672,0.04963111877441406,-0.047707729041576385,8.67444896697998,5.23625373840332
5_20251106_150047,1762412415620,5,0.5631244778633118,0.31500154733657837,0.37418150901794434,0.6660728454589844,1.0223639011383057,1.8233051300048828,0.23675498366355896,-0.023461923003196716,8.756010055541992,5.294264793395996,0.03699931502342224,0.0070363981649279594,0.07811814546585083,25.12517738342285,-24.754539489746094,-9.802383422851562,0.019396644085645676,0.06524848937988281,0.046408653259277344,-0.04285856708884239,8.69076156616211,5.247856140136719
5_20251106_150047,1762412415640,5,0.5623453259468079,0.3151891827583313,0.37442314624786377,0.6665064096450806,1.0200244188308716,1.825299620628357,0.23742790520191193,0.008858412504196167,8.756010055541992,5.399604797363281,0.07181860506534576,0.029638390988111496,0.08911370486021042,25.0983943939209,-24.794212341308594,-9.763607025146484,0.04137358441948891,0.05219841003417969,0.12139892578125,-0.03251517191529274,8.703811645507812,5.278205871582031
