session_id,timestamp,label,quaternion_w,quaternion_x,quaternion_y,quaternion_z,position_x,position_y,position_z,accelerometer_x,accelerometer_y,accelerometer_z,gyroscope_x,gyroscope_y,gyroscope_z,magnetometer_x,magnetometer_y,magnetometer_z,linear_acceleration_x,linear_acceleration_y,linear_acceleration_z,gravity_x,gravity_y,gravity_z
4_20251106_214239,1762436522010,4,0.28121739625930786,0.3258291780948639,0.7555229663848877,0.49390000104904175,-0.1978871375322342,3.058347702026367,0.9386692047119141,-1.4862562417984009,8.794315338134766,-3.7087440490722656,-0.22299616038799286,0.04498254880309105,0.02722165919840336,23.71392059326172,-10.832740783691406,23.995718002319336,-0.021884441375732422,0.9193239212036133,-0.23044848442077637,-1.4643718004226685,7.874991416931152,-3.4782955646514893
4_20251106_214239,1762436522029,4,0.2814808487892151,0.32563427090644836,0.7542241811752319,0.49585962295532227,-0.1978871375322342,3.058347702026367,0.9386692047119141,-1.4862562417984009,8.794315338134766,-3.7087440490722656,-0.21444405615329742,0.04864773899316788,0.0687604621052742,23.668201446533203,-10.998367309570312,23.990816116333008,-0.021884441375732422,0.9193239212036133,-0.23044848442077637,-1.4643718004226685,7.874991416931152,-3.4782955646514893
4_20251106_214239,1762436522047,4,0.2814219892024994,0.32511448860168457,0.75327467918396,0.4976741075515747,-0.20267759263515472,3.0681185722351074,0.8581763505935669,-1.2324817180633545,9.062454223632812,-3.12218976020813,-0.10082322359085083,0.1555490791797638,-0.04730383679270744,23.62582015991211,-11.089866638183594,24.10914421081543,0.15645384788513184,0.7624664306640625,0.2635319232940674,-1.3889355659484863,8.29998779296875,-3.3857216835021973
4_20251106_214239,1762436522066,4,0.28077417612075806,0.3235362768173218,0.7534549832344055,0.498794287443161,-0.20437031984329224,3.075960397720337,0.8207272291183472,-1.2695902585983276,9.028936386108398,-3.290973663330078,-0.10082322359085083,0.1555490791797638,-0.04730383679270744,23.598838806152344,-11.129798889160156,24.174951553344727,0.09547626972198486,0.5831584930419922,0.07579851150512695,-1.3650665283203125,8.445777893066406,-3.366772174835205
4_20251106_214239,1762436522086,4,0.2796935439109802,0.3207260072231293,0.7548221349716187,0.4991491734981537,-0.20621676743030548,3.0852365493774414,0.782355010509491,-1.4156303405761719,8.917610168457031,-3.670438289642334,0.006688971072435379,0.2538982927799225,-0.1829158067703247,23.538528442382812,-11.109733581542969,24.281156539916992,-0.0404510498046875,0.37746620178222656,-0.24293279647827148,-1.3751792907714844,8.540143966674805,-3.4275054931640625
4_20251106_214239,1762436522104,4,0.27865853905677795,0.31718963384628296,0.7564067840576172,0.4995887577533722,-0.20621676743030548,3.0852365493774414,0.782355010509491,-1.4156303405761719,8.917610168457031,-3.670438289642334,-0.12098176032304764,0.29726967215538025,-0.23117412626743317,23.462295532226562,-11.165130615234375,24.317705154418945,-0.0404510498046875,0.37746620178222656,-0.24293279647827148,-1.3751792907714844,8.540143966674805,-3.4275054931640625
4_20251106_214239,1762436522125,4,0.2778981924057007,0.31356799602508545,0.7574551701545715,0.5007088780403137,-0.21134990453720093,3.1026856899261475,0.7150910496711731,-1.6466609239578247,8.78952693939209,-3.5040483474731445,-0.2211635708808899,0.21541382372379303,-0.13526836037635803,23.414958953857422,-11.143196105957031,24.31627082824707,-0.17317378520965576,0.1680316925048828,-0.017960071563720703,-1.473487138748169,8.621495246887207,-3.486088275909424
4_20251106_214239,1762436522143,4,0.27765247225761414,0.3108152449131012,0.7575044631958008,0.5024837851524353,-0.21134990453720093,3.1026856899261475,0.7150910496711731,-1.6466609239578247,8.78952693939209,-3.5040483474731445,-0.2871369421482086,0.1555490791797638,-0.06868410110473633,23.33902359008789,-11.198188781738281,24.312273025512695,-0.17317378520965576,0.1680316925048828,-0.017960071563720703,-1.473487138748169,8.621495246887207,-3.486088275909424
4_20251106_214239,1762436522161,4,0.2776898443698883,0.30859312415122986,0.7568734288215637,0.5047783851623535,-0.21490250527858734,3.1134634017944336,0.6789911389350891,-1.5832172632217407,8.856561660766602,-3.2335152626037598,-0.2871369421482086,0.17998366057872772,-0.08395572006702423,23.313861846923828,-11.200851440429688,24.41942024230957,-0.0877840518951416,0.18805313110351562,0.2020583152770996,-1.4954332113265991,8.668508529663086,-3.4355735778808594
4_20251106_214239,1762436522181,4,0.2776246964931488,0.3061293959617615,0.7563120722770691,0.5071502327919006,-0.22125735878944397,3.130462884902954,0.6284289360046387,-1.7148926258087158,8.63630485534668,-2.713995933532715,-0.23765692114830017,0.24962222576141357,-0.1572594940662384,23.19542694091797,-11.146141052246094,24.429353713989258,-0.15960681438446045,-0.05336189270019531,0.48900675773620605,-1.5552858114242554,8.689666748046875,-3.203002691268921
4_20251106_214239,1762436522199,4,0.27723556756973267,0.3028278648853302,0.7563736438751221,0.5092490911483765,-0.22564145922660828,3.1374294757843018,0.6068354249000549,-2.044081211090088,8.356195449829102,-2.7666659355163574,-0.19245293736457825,0.32903462648391724,-0.23300671577453613,23.073368072509766,-11.154350280761719,24.45148277282715,-0.3910362720489502,-0.26677703857421875,0.34906959533691406,-1.6530449390411377,8.62297248840332,-3.1157355308532715
4_20251106_214239,1762436522220,4,0.27653396129608154,0.2986876666545868,0.7570667266845703,0.5110426545143127,-0.23272183537483215,3.1430771350860596,0.5828047394752502,-2.3158113956451416,8.00426197052002,-3.1449337005615234,-0.1802356243133545,0.39439716935157776,-0.2611064612865448,22.94336700439453,-11.076400756835938,24.569581985473633,-0.5302131175994873,-0.4949684143066406,-0.02335834503173828,-1.7855982780456543,8.49923038482666,-3.121575355529785
4_20251106_214239,1762436522239,4,0.27546587586402893,0.2939612865447998,0.7581117153167725,0.5128079056739807,-0.24100451171398163,3.145502805709839,0.5615996718406677,-2.5863444805145264,7.614023685455322,-3.322097063064575,-0.1802356243133545,0.39439716935157776,-0.2611064612865448,22.84326934814453,-11.121101379394531,24.632448196411133,-0.6405971050262451,-0.7081656455993652,-0.1604173183441162,-1.9457473754882812,8.322189331054688,-3.161679744720459
4_20251106_214239,1762436522258,4,0.27440857887268066,0.28910958766937256,0.7587940096855164,0.5151187181472778,-0.2512775957584381,3.1446688175201416,0.5411822199821472,-2.8221633434295654,7.178297519683838,-3.26104736328125,-0.25964805483818054,0.40478187799453735,-0.23667189478874207,22.710952758789062,-11.081092834472656,24.77678871154785,-0.7011327743530273,-0.9151129722595215,-0.07949399948120117,-2.121030569076538,8.09341049194336,-3.181553363800049
4_20251106_214239,1762436522277,4,0.2735077142715454,0.28411179780960083,0.7588379979133606,0.5183038711547852,-0.2639196515083313,3.1407253742218018,0.521606981754303,-3.171701669692993,6.944872856140137,-3.246682643890381,-0.5082700252532959,0.4383794367313385,-0.18902446329593658,22.710952758789062,-11.081092834472656,24.77678871154785,-0.8405368328094482,-0.918830394744873,-0.052103281021118164,-2.331164836883545,7.86370325088501,-3.1945793628692627
4_20251106_214239,1762436522296,4,0.2726900577545166,0.278713196516037,0.7582849264144897,0.5224586725234985,-0.27863964438438416,3.134392499923706,0.5028675198554993,-3.318938732147217,6.920931816101074,-3.24668288230896,-0.5760760307312012,0.5043528079986572,-0.09800560772418976,22.43674087524414,-11.188087463378906,24.926347732543945,-0.7902190685272217,-0.7542171478271484,-0.04168272018432617,-2.528719663619995,7.675148963928223,-3.205000162124634
4_20251106_214239,1762436522315,4,0.2710488438606262,0.2732449471950531,0.7573778033256531,0.5274927616119385,-0.2941479980945587,3.1264712810516357,0.48424458503723145,-3.084317207336426,6.9807844161987305,-3.5040483474731445,-0.5760760307312012,0.5043528079986572,-0.09800560772418976,22.254371643066406,-11.176231384277344,25.0546817779541,-0.44447803497314453,-0.5554914474487305,-0.23923873901367188,-2.6398391723632812,7.536275863647461,-3.2648096084594727
4_20251106_214239,1762436522335,4,0.2682856619358063,0.26845431327819824,0.7561337947845459,0.5331198573112488,-0.3092608153820038,3.1173670291900635,0.46381354331970215,-2.5097334384918213,7.147174835205078,-3.859572172164917,-0.637162446975708,0.6136975884437561,0.13839903473854065,21.994346618652344,-11.256507873535156,25.12415885925293,0.10408473014831543,-0.3112807273864746,-0.47581028938293457,-2.6138181686401367,7.458455562591553,-3.3837618827819824
4_20251106_214239,1762436522353,4,0.2648378908634186,0.26412901282310486,0.7544891834259033,0.5392984747886658,-0.32122740149497986,3.1093647480010986,0.44572752714157104,-2.2260327339172363,7.36982536315918,-3.6345267295837402,-0.637162446975708,0.6136975884437561,0.13839903473854065,21.73000717163086,-11.400642395019531,25.300447463989258,0.3102283477783203,-0.07090377807617188,-0.20061182975769043,-2.5362610816955566,7.440729141235352,-3.43391489982605
4_20251106_214239,1762436522375,4,0.261928528547287,0.2592158615589142,0.7521904706954956,0.5462691783905029,-0.33457520604133606,3.1010937690734863,0.42568057775497437,-2.38763427734375,7.718166828155518,-3.1748600006103516,-0.9621424674987793,0.7254858016967773,-0.07479274272918701,21.417316436767578,-11.547416687011719,25.42070960998535,0.11890149116516113,0.22195005416870117,0.2072439193725586,-2.506535768508911,7.496216773986816,-3.38210391998291
4_20251106_214239,1762436522391,4,0.2594352960586548,0.2521440386772156,0.7494919300079346,0.5544173121452332,-0.3436824381351471,3.096698522567749,0.4129598140716553,-2.4474868774414062,8.174243927001953,-2.8013803958892822,-0.9621424674987793,0.7254858016967773,-0.07479274272918701,21.05185317993164,-11.772445678710938,25.510393142700195,0.04723930358886719,0.542421817779541,0.46457886695861816,-2.4947261810302734,7.631822109222412,-3.2659592628479004
4_20251106_214239,1762436522410,4,0.2569549083709717,0.24407106637954712,0.7463645339012146,0.5633324384689331,-0.3536857068538666,3.094364643096924,0.4011416733264923,-2.3960137367248535,8.588422775268555,-2.3429105281829834,-1.063546061515808,0.7822962999343872,-0.116331547498703,20.625770568847656,-11.989425659179688,25.651952743530273,0.07896995544433594,0.7652807235717773,0.7384390830993652,-2.4749836921691895,7.823142051696777,-3.0813496112823486
4_20251106_214239,1762436522430,4,0.2546694874763489,0.2364858239889145,0.7423708438873291,0.5728031396865845,-0.36288487911224365,3.0958855152130127,0.39399924874305725,-2.2104711532592773,9.091182708740234,-1.5432817935943604,-1.2785704135894775,0.63141268491745,0.019280418753623962,20.172283172607422,-12.270103454589844,25.723630905151367,0.2116100788116455,1.0144319534301758,1.2304542064666748,-2.422081232070923,8.076750755310059,-2.773736000061035
4_20251106_214239,1762436522449,4,0.2528201937675476,0.22940710186958313,0.7370960712432861,0.5832183957099915,-0.3703996539115906,3.1017982959747314,0.3945154547691345,-2.135056972503662,9.73160457611084,-0.23610372841358185,-1.2785704135894775,0.63141268491745,0.019280418753623962,19.786357879638672,-12.657951354980469,25.687746047973633,0.22961950302124023,1.323883056640625,2.0301058292388916,-2.3646764755249023,8.407721519470215,-2.266209602355957
4_20251106_214239,1762436522469,4,0.2514174282550812,0.22200022637844086,0.7308907508850098,0.5943937301635742,-0.37669962644577026,3.11411190032959,0.40484222769737244,-1.9650757312774658,10.513277053833008,0.9609456062316895,-1.341489553451538,0.6894447803497314,-0.05402334779500961,19.262779235839844,-13.105842590332031,25.753541946411133,0.31968045234680176,1.6844444274902344,2.581724166870117,-2.2847561836242676,8.828832626342773,-1.6207785606384277
4_20251106_214239,1762436522487,4,0.24957048892974854,0.21369726955890656,0.7249881029129028,0.6053431034088135,-0.3806351125240326,3.1291615962982178,0.4207761585712433,-1.760380506515503,11.15369987487793,1.8371858596801758,-1.145401954650879,0.8360523581504822,-0.13832268118858337,18.783206939697266,-13.638191223144531,25.792417526245117,0.41950058937072754,1.859893798828125,2.766371726989746,-2.1798810958862305,9.293806076049805,-0.9291857481002808
4_20251106_214239,1762436522506,4,0.24659939110279083,0.20419515669345856,0.7204509377479553,0.6151776313781738,-0.38279399275779724,3.15311336517334,0.44759124517440796,-1.443162441253662,11.639700889587402,2.0335018634796143,-1.145401954650879,0.8360523581504822,-0.13832268118858337,18.318443298339844,-14.119781494140625,25.859872817993164,0.5893750190734863,1.8767156600952148,2.370150089263916,-2.0325374603271484,9.762985229492188,-0.33664825558662415
4_20251106_214239,1762436522525,4,0.24257853627204895,0.19392578303813934,0.7179585695266724,0.6229638457298279,-0.3823535740375519,3.180400848388672,0.47746697068214417,-1.1618558168411255,11.830032348632812,1.7318453788757324,-0.5406458377838135,1.0510766506195068,-0.3063104748725891,17.81812286376953,-14.590797424316406,25.88557243347168,0.6965452432632446,1.6536378860473633,1.6547949314117432,-1.8584010601043701,10.17639446258545,0.07705044746398926
4_20251106_214239,1762436522546,4,0.237814798951149,0.18345564603805542,0.7173570990562439,0.6286389827728271,-0.3789507746696472,3.2147717475891113,0.5123566389083862,-0.981101393699646,11.882701873779297,1.127335548400879,-0.38243183493614197,1.057185411453247,-0.30508872866630554,17.319618225097656,-15.024543762207031,25.952611923217773,0.701839804649353,1.3650455474853516,0.8402280807495117,-1.682941198348999,10.517656326293945,0.2871074676513672
4_20251106_214239,1762436522563,4,0.23267555236816406,0.17345495522022247,0.7176257967948914,0.6330787539482117,-0.3789507746696472,3.2147717475891113,0.5123566389083862,-0.981101393699646,11.882701873779297,1.127335548400879,-0.3561646640300751,0.9130213260650635,-0.17008765041828156,16.819904327392578,-15.483139038085938,25.992090225219727,0.701839804649353,1.3650455474853516,0.8402280807495117,-1.682941198348999,10.517656326293945,0.2871074676513672
4_20251106_214239,1762436522582,4,0.22760358452796936,0.16540999710559845,0.7175064086914062,0.6371975541114807,-0.3683292865753174,3.278817653656006,0.5688441395759583,-0.8590023517608643,11.947342872619629,0.3624209463596344,-0.4209163188934326,0.703494668006897,0.01744782365858555,16.38857650756836,-15.800033569335938,26.07747459411621,0.5407278537750244,0.9228515625,0.026749491691589355,-1.3997302055358887,11.024491310119629,0.33567145466804504
4_20251106_214239,1762436522600,4,0.22290226817131042,0.15985465049743652,0.7162817716598511,0.6416397094726562,-0.36109426617622375,3.3115172386169434,0.5955800414085388,-0.7871794104576111,11.704341888427734,0.5599340796470642,-0.4209163188934326,0.703494668006897,0.01744782365858555,15.886357307434082,-16.07227325439453,26.2420711517334,0.49004071950912476,0.5438804626464844,0.17941009998321533,-1.2772201299667358,11.16046142578125,0.3805239796638489
4_20251106_214239,1762436522621,4,0.21823707222938538,0.1555432826280594,0.7145711779594421,0.6461941599845886,-0.35139989852905273,3.347210168838501,0.6238154172897339,-0.6004397869110107,11.547529220581055,0.38516488671302795,-0.3445582389831543,0.6442408561706543,0.12984693050384521,15.411726951599121,-16.292160034179688,26.354639053344727,0.5414242744445801,0.30965423583984375,0.0037127137184143066,-1.1418640613555908,11.237874984741211,0.38145217299461365
4_20251106_214239,1762436522640,4,0.2130860835313797,0.1512691229581833,0.7134436368942261,0.650161623954773,-0.34104374051094055,3.378998279571533,0.6486413478851318,-0.556148886680603,11.083072662353516,0.14216387271881104,-0.2712544798851013,0.6790601015090942,0.08769726753234863,14.908093452453613,-16.376571655273438,26.495668411254883,0.46857213973999023,-0.12384223937988281,-0.19143065810203552,-1.0247210264205933,11.206914901733398,0.33359453082084656
4_20251106_214239,1762436522659,4,0.20782524347305298,0.14669208228588104,0.7128899097442627,0.6535121202468872,-0.34104374051094055,3.378998279571533,0.6486413478851318,-0.556148886680603,11.083072662353516,0.14216387271881104,-0.2413221001625061,0.7065490484237671,0.02966511994600296,14.908093452453613,-16.376571655273438,26.495668411254883,0.46857213973999023,-0.12384223937988281,-0.19143065810203552,-1.0247210264205933,11.206914901733398,0.33359453082084656
4_20251106_214239,1762436522680,4,0.20270214974880219,0.14164267480373383,0.7126625180244446,0.6564764380455017,-0.3159106969833374,3.4378037452697754,0.6932206153869629,-0.3670150637626648,10.454622268676758,-0.5605040788650513,-0.18267908692359924,0.7743550539016724,0.011339176446199417,13.949164390563965,-16.554367065429688,26.73887825012207,0.45866286754608154,-0.5262851715087891,-0.6417477130889893,-0.8256779313087463,10.980907440185547,0.08124366402626038
4_20251106_214239,1762436522698,4,0.19719581305980682,0.13620364665985107,0.7129583954811096,0.6589785218238831,-0.3036063313484192,3.4578535556793213,0.7069595456123352,0.0675138458609581,10.245138168334961,-0.9663038849830627,-0.18267908692359924,0.7743550539016724,0.011339176446199417,13.528817176818848,-16.670753479003906,26.869035720825195,0.7145534157752991,-0.5886154174804688,-0.8380380868911743,-0.6470395922660828,10.83375358581543,-0.12826582789421082
4_20251106_214239,1762436522716,4,0.1912536770105362,0.1300603151321411,0.7134363651275635,0.661449134349823,-0.2879181206226349,3.4765939712524414,0.7195664048194885,0.30931779742240906,9.905176162719727,-0.8501901030540466,-0.2822500467300415,0.9447863101959229,-0.09678389132022858,13.528817176818848,-16.670753479003906,26.869035720825195,0.7650859355926514,-0.7428617477416992,-0.5775394439697266,-0.4557681679725647,10.648037910461426,-0.27265068888664246
4_20251106_214239,1762436522735,4,0.1853078156709671,0.12285156548023224,0.7135593295097351,0.6643806099891663,-0.2708199918270111,3.4923691749572754,0.7308024168014526,0.34403225779533386,9.908767700195312,-0.5425483584403992,-0.2822500467300415,0.9447863101959229,-0.09678389132022858,13.101119041442871,-16.700172424316406,27.014066696166992,0.6398403644561768,-0.5914163589477539,-0.21591812372207642,-0.2958081066608429,10.500184059143066,-0.32663023471832275
4_20251106_214239,1762436522755,4,0.17962132394313812,0.11510148644447327,0.7132601141929626,0.6676434874534607,-0.2708199918270111,3.4923691749572754,0.7308024168014526,0.34403225779533386,9.908767700195312,-0.5425483584403992,-0.3561646640300751,0.926460325717926,-0.14076614379882812,12.59456729888916,-16.834945678710938,27.167558670043945,0.6398403644561768,-0.5914163589477539,-0.21591812372207642,-0.2958081066608429,10.500184059143066,-0.32663023471832275
4_20251106_214239,1762436522773,4,0.17407295107841492,0.10757181793451309,0.7127347588539124,0.670921802520752,-0.23461803793907166,3.518488883972168,0.7508470416069031,0.3009384870529175,10.22718334197998,-0.40249356627464294,-0.40869903564453125,0.8623195290565491,-0.05585594102740288,12.093358039855957,-16.869667053222656,27.363710403442383,0.3861314654350281,-0.14311885833740234,-0.041465967893600464,-0.0851929634809494,10.370302200317383,-0.3610275983810425
4_20251106_214239,1762436522792,4,0.16837313771247864,0.10082855075597763,0.7116194367408752,0.6745975017547607,-0.2159661501646042,3.5304059982299805,0.7610238194465637,0.39071714878082275,10.405543327331543,0.0009120404720306396,-0.516822099685669,0.7401465773582458,0.07547996938228607,11.615296363830566,-16.93926239013672,27.438405990600586,0.3807280957698822,0.02819347381591797,0.289551705121994,0.009989053010940552,10.377349853515625,-0.2886396646499634
4_20251106_214239,1762436522812,4,0.1632760912179947,0.09615293890237808,0.709351122379303,0.6789083480834961,-0.19578567147254944,3.543252944946289,0.7740095257759094,0.5128161907196045,10.683259010314941,0.6353482007980347,-0.5827955007553101,0.595982551574707,0.15489238500595093,11.111861228942871,-17.023406982421875,27.552404403686523,0.40226173400878906,0.24472713470458984,0.7391902804374695,0.11055447161197662,10.438531875610352,-0.10384209454059601
4_20251106_214239,1762436522831,4,0.15830646455287933,0.09244447946548462,0.7063054442405701,0.6837584972381592,-0.19578567147254944,3.543252944946289,0.7740095257759094,0.5128161907196045,10.683259010314941,0.6353482007980347,-0.5339263081550598,0.4945789873600006,0.14450767636299133,10.6174955368042,-17.157386779785156,27.706384658813477,0.40226173400878906,0.24472713470458984,0.7391902804374695,0.11055447161197662,10.438531875610352,-0.10384209454059601
4_20251106_214239,1762436522851,4,0.15397924184799194,0.08934632688760757,0.7033007144927979,0.6882410049438477,-0.1560225486755371,3.5692574977874756,0.8083714246749878,0.5259837508201599,10.801766395568848,1.354774832725525,-0.3744906187057495,0.49335724115371704,0.09075158834457397,10.186359405517578,-17.261070251464844,27.741701126098633,0.266640841960907,0.2359170913696289,0.9563066959381104,0.25934290885925293,10.565849304199219,0.39846813678741455
4_20251106_214239,1762436522872,4,0.14988362789154053,0.0861077606678009,0.7012656331062317,0.691626250743866,-0.134706050157547,3.5830624103546143,0.8289735317230225,0.5595011711120605,10.686849594116211,0.8986991047859192,-0.1893986016511917,0.5122940540313721,0.044936735183000565,9.643744468688965,-17.397552490234375,27.826139450073242,0.2401266098022461,0.09679985046386719,0.4001847803592682,0.31937456130981445,10.590049743652344,0.498514324426651
4_20251106_214239,1762436522888,4,0.14581383764743805,0.0826997235417366,0.7004734873771667,0.6937116980552673,-0.11890991777181625,3.5928516387939453,0.8438559770584106,0.5080280303955078,10.485746383666992,0.4833229184150696,-0.11670570820569992,0.4542618989944458,0.008895717561244965,9.187024116516113,-17.527664184570312,27.832914352416992,0.1509227752685547,-0.08344268798828125,-0.01215311884880066,0.3571052551269531,10.569189071655273,0.49547603726387024
4_20251106_214239,1762436522907,4,0.1422075480222702,0.07946529984474182,0.7001839280128479,0.6951292753219604,-0.11890991777181625,3.5928516387939453,0.8438559770584106,0.5080280303955078,10.485746383666992,0.4833229184150696,-0.13686424493789673,0.4231078028678894,0.006452259141951799,8.766763687133789,-17.655532836914062,27.854677200317383,0.1509227752685547,-0.08344268798828125,-0.01215311884880066,0.3571052551269531,10.569189071655273,0.49547603726387024
4_20251106_214239,1762436522927,4,0.13892419636249542,0.07647768408060074,0.699772298336029,0.696541428565979,-0.0986400842666626,3.604156017303467,0.8618422150611877,0.5283778309822083,10.300203323364258,0.32531243562698364,-0.18145737051963806,0.3455279767513275,0.03882808983325958,8.432991027832031,-17.776222229003906,27.717676162719727,0.137018084526062,-0.21518898010253906,-0.1361308991909027,0.39135974645614624,10.515392303466797,0.46144333481788635
4_20251106_214239,1762436522945,4,0.13595598936080933,0.0741521418094635,0.6989582180976868,0.6981939673423767,-0.06469397246837616,3.618915557861328,0.8900473713874817,0.7653936147689819,10.03924560546875,0.425864577293396,-0.1997833102941513,0.23923754692077637,0.09136246144771576,8.077198028564453,-17.825721740722656,27.83808708190918,0.26887696981430054,-0.30626678466796875,-0.01664149761199951,0.4965166449546814,10.345512390136719,0.4425060749053955
4_20251106_214239,1762436522964,4,0.1334059238433838,0.07291190326213837,0.6978258490562439,0.6999469995498657,-0.04660964012145996,3.6249160766601562,0.9039095640182495,0.9078425168991089,10.085931777954102,0.496490478515625,-0.19917243719100952,0.16654464602470398,0.09380590915679932,7.83216667175293,-17.86658477783203,27.814233779907227,0.32906073331832886,-0.20766448974609375,0.04318752884864807,0.57878178358078,10.293596267700195,0.45330294966697693
4_20251106_214239,1762436522984,4,0.13121731579303741,0.07212655246257782,0.6966002583503723,0.7016608119010925,-0.0282968170940876,3.63018798828125,0.9177356958389282,0.9916359186172485,10.137404441833496,0.6928065419197083,-0.1906203329563141,0.15860339999198914,0.0534888431429863,7.601349830627441,-17.857505798339844,27.900056838989258,0.33028334379196167,-0.1249542236328125,0.191602885723114,0.6613525748252869,10.262358665466309,0.5012036561965942
4_20251106_214239,1762436523002,4,0.12945203483104706,0.07128719985485077,0.695422351360321,0.7032411098480225,-0.009924501180648804,3.634777784347534,0.9315932989120483,1.0167739391326904,10.109871864318848,0.7646295428276062,-0.17107266187667847,0.13844485580921173,0.02294560708105564,7.4052734375,-17.88330841064453,27.946012496948242,0.2843371033668518,-0.12199020385742188,0.21074074506759644,0.7324368357658386,10.23186206817627,0.5538887977600098
4_20251106_214239,1762436523021,4,0.12797367572784424,0.07038608193397522,0.6943395733833313,0.7046709060668945,0.008286317810416222,3.6385867595672607,0.9453558921813965,1.0083945989608765,10.030866622924805,0.771811842918396,-0.17107266187667847,0.039484769105911255,0.030886847525835037,7.2848100662231445,-17.87774658203125,27.846757888793945,0.22076618671417236,-0.1607961654663086,0.1743384599685669,0.7876284122467041,10.191662788391113,0.5974733829498291
4_20251106_214239,1762436523041,4,0.12712156772613525,0.07022973895072937,0.6931174993515015,0.7060425281524658,0.02754308469593525,3.6419942378997803,0.9597139954566956,1.1316907405853271,10.059596061706543,0.7933587431907654,-0.1796247661113739,-0.09307287633419037,0.08708640933036804,7.160736083984375,-17.923492431640625,27.854578018188477,0.2752498388290405,-0.10565376281738281,0.15670830011367798,0.8564409017562866,10.165249824523926,0.6366504430770874
4_20251106_214239,1762436523061,4,0.1267816573381424,0.07132603973150253,0.6916410326957703,0.7074402570724487,0.04732152074575424,3.644866466522217,0.9743873476982117,1.344765543937683,10.045230865478516,0.9765072464942932,-0.1955072581768036,-0.19875246286392212,0.11885136365890503,7.038269996643066,-17.94385528564453,27.835893630981445,0.39065974950790405,-0.09601593017578125,0.2718854546546936,0.954105794429779,10.141246795654297,0.7046217918395996
4_20251106_214239,1762436523079,4,0.1269088238477707,0.07333531230688095,0.6899058222770691,0.7089048027992249,0.06574524939060211,3.647106409072876,0.9879267811775208,1.5686136484146118,10.053610801696777,1.108182668685913,-0.1955072581768036,-0.19875246286392212,0.11885136365890503,7.032532691955566,-18.044448852539062,27.847299575805664,0.49160635471343994,-0.07010936737060547,0.32284867763519287,1.0770072937011719,10.123720169067383,0.7853339910507202
4_20251106_214239,1762436523100,4,0.12758000195026398,0.07590862363576889,0.6882198452949524,0.7101511359214783,0.0883341133594513,3.649470329284668,1.0040069818496704,1.724230170249939,10.088325500488281,1.1057885885238647,-0.13442078232765198,-0.37101632356643677,0.05654316768050194,7.072199821472168,-18.21599578857422,27.737436294555664,0.5177782773971558,-0.02831554412841797,0.2563636302947998,1.2064518928527832,10.1166410446167,0.8494249582290649
4_20251106_214239,1762436523119,4,0.1292654424905777,0.07891634851694107,0.6866559386253357,0.7110318541526794,0.0883341133594513,3.649470329284668,1.0040069818496704,1.724230170249939,10.088325500488281,1.1057885885238647,-0.09471457451581955,-0.4516505002975464,-0.02531270682811737,7.12455940246582,-18.37445831298828,27.655359268188477,0.5177782773971558,-0.02831554412841797,0.2563636302947998,1.2064518928527832,10.1166410446167,0.8494249582290649
4_20251106_214239,1762436523137,4,0.13193827867507935,0.08197195082902908,0.6853189468383789,0.711484968662262,0.12876372039318085,3.6525790691375732,1.0325616598129272,1.6416337490081787,9.900388717651367,1.1357147693634033,-0.044623665511608124,-0.4821937084197998,-0.10411426424980164,7.12455940246582,-18.37445831298828,27.655359268188477,0.2679823637008667,-0.16406631469726562,0.17747968435287476,1.373651385307312,10.064455032348633,0.9582350850105286
4_20251106_214239,1762436523155,4,0.13536085188388824,0.08482728153467178,0.6843175888061523,0.7114711403846741,0.1478361338376999,3.653510093688965,1.045644760131836,1.5745989084243774,9.976999282836914,0.9501721858978271,-0.018356483429670334,-0.5414475798606873,-0.1682550609111786,7.165721893310547,-18.532363891601562,27.4376277923584,0.1607578992843628,-0.06996440887451172,-0.006450295448303223,1.4138410091400146,10.046963691711426,0.9566224813461304
4_20251106_214239,1762436523175,4,0.1395207941532135,0.08761987835168839,0.6834709644317627,0.7111428380012512,0.1676999181509018,3.65434193611145,1.059147596359253,1.3256127834320068,9.997349739074707,0.8556053042411804,-0.021410807967185974,-0.6324664354324341,-0.20796126127243042,7.330970764160156,-18.632911682128906,27.306955337524414,-0.07058262825012207,-0.03969097137451172,-0.08081376552581787,1.396195411682129,10.037040710449219,0.9364190697669983
4_20251106_214239,1762436523194,4,0.14462849497795105,0.09084468334913254,0.6825201511383057,0.7106307744979858,0.1844283640384674,3.654730796813965,1.0713651180267334,0.9593156576156616,9.905176162719727,0.9477781057357788,-0.0226325374096632,-0.688055157661438,-0.1884135901927948,7.567827224731445,-18.753944396972656,27.19221305847168,-0.34950387477874756,-0.10549163818359375,0.009087204933166504,1.3088195323944092,10.01066780090332,0.9386909008026123
4_20251106_214239,1762436523213,4,0.14999113976955414,0.09452597051858902,0.6814651489257812,0.7100512385368347,0.19883272051811218,3.6550474166870117,1.0828258991241455,0.7665907144546509,9.991364479064941,0.8855315446853638,-0.025075996294617653,-0.7497524619102478,-0.10228167474269867,7.905386924743652,-18.817848205566406,27.02838706970215,-0.43378305435180664,-0.015442848205566406,-0.04252743721008301,1.2003737688064575,10.006807327270508,0.9280589818954468
4_20251106_214239,1762436523232,4,0.15550294518470764,0.099370576441288,0.6801519989967346,0.7094628810882568,0.21127089858055115,3.6557490825653076,1.0929598808288574,0.7462408542633057,10.152965545654297,0.6533039212226868,-0.027519455179572105,-0.8548212051391602,0.030275985598564148,8.300353050231934,-18.940567016601562,26.865694046020508,-0.36330628395080566,0.11692619323730469,-0.219804048538208,1.1095471382141113,10.036039352416992,0.8731079697608948
4_20251106_214239,1762436523251,4,0.1604669839143753,0.10540188103914261,0.6785703897476196,0.7090014219284058,0.2222743183374405,3.6566150188446045,1.101287841796875,0.8132755756378174,10.108675003051758,0.39952948689460754,-0.05989528447389603,-0.9336227178573608,0.1878790706396103,8.737107276916504,-18.97260284423828,26.665769577026367,-0.23701727390289307,0.05810832977294922,-0.37886276841163635,1.0502928495407104,10.050566673278809,0.7783922553062439
4_20251106_214239,1762436523270,4,0.16484428942203522,0.11287939548492432,0.6764990091323853,0.7088255882263184,0.2329903095960617,3.6576199531555176,1.1082650423049927,1.1460553407669067,10.11705493927002,0.43783509731292725,-0.05989528447389603,-0.9336227178573608,0.1878790706396103,9.21777057647705,-19.08922576904297,26.452444076538086,0.07660996913909912,0.05319023132324219,-0.2724457383155823,1.0694453716278076,10.063864707946777,0.7102808356285095
4_20251106_214239,1762436523290,4,0.16881974041461945,0.12139908224344254,0.6736481785774231,0.709196925163269,0.24480891227722168,3.6596455574035645,1.115320086479187,1.43215012550354,10.399558067321777,0.735900342464447,-0.22360703349113464,-1.0087591409683228,0.33998438715934753,9.709815979003906,-19.217750549316406,26.252859115600586,0.2901637554168701,0.2685546875,0.020495593547821045,1.14198637008667,10.131003379821777,0.715404748916626
4_20251106_214239,1762436523309,4,0.1724548190832138,0.13305576145648956,0.6697943210601807,0.7098810076713562,0.24480891227722168,3.6596455574035645,1.115320086479187,1.43215012550354,10.399558067321777,0.735900342464447,-0.24559816718101501,-1.055795669555664,0.2630154490470886,10.27396297454834,-19.36608123779297,26.00162696838379,0.2901637554168701,0.2685546875,0.020495593547821045,1.14198637008667,10.131003379821777,0.715404748916626
4_20251106_214239,1762436523328,4,0.1768714189529419,0.14469937980175018,0.6653512120246887,0.7106943130493164,0.2581482231616974,3.662750720977783,1.1240872144699097,1.6045252084732056,10.454623222351074,1.2314788103103638,-0.20100504159927368,-1.114438772201538,0.11091011762619019,10.784814834594727,-19.616561889648438,25.59764289855957,0.3700309991836548,0.2588958740234375,0.4128592610359192,1.2344942092895508,10.195727348327637,0.8186195492744446
4_20251106_214239,1762436523347,4,0.1825386881828308,0.15566644072532654,0.6606718301773071,0.7113088369369507,0.2798968255519867,3.669424295425415,1.1439138650894165,0.9760743379592896,10.42708969116211,1.8359887599945068,-0.12709039449691772,-1.1565883159637451,-0.06074285879731178,11.30765438079834,-19.86651611328125,25.22117805480957,-0.2448728084564209,0.14270973205566406,0.6878896951675415,1.2209471464157104,10.284379959106445,1.1480990648269653
4_20251106_214239,1762436523366,4,0.18956495821475983,0.1653517186641693,0.6562880873680115,0.7113437056541443,0.2798968255519867,3.669424295425415,1.1439138650894165,0.9760743379592896,10.42708969116211,1.8359887599945068,-0.12709039449691772,-1.1565883159637451,-0.06074285879731178,11.79162311553955,-20.15679168701172,24.86948585510254,-0.2448728084564209,0.14270973205566406,0.6878896951675415,1.2209471464157104,10.284379959106445,1.1480990648269653
4_20251106_214239,1762436523385,4,0.19769112765789032,0.17333124577999115,0.6524398922920227,0.710771918296814,0.2877419590950012,3.6733837127685547,1.1573418378829956,0.2614358365535736,10.38160228729248,1.8407769203186035,-0.018356483429670334,-1.2152314186096191,-0.22811980545520782,12.327353477478027,-20.393394470214844,24.493776321411133,-0.7676090002059937,0.07777786254882812,0.5541422367095947,1.0290448665618896,10.303824424743652,1.2866346836090088
4_20251106_214239,1762436523403,4,0.2065514475107193,0.1799066960811615,0.6502375602722168,0.7086333632469177,0.2897006571292877,3.6785285472869873,1.1822266578674316,-0.9691309928894043,9.930315017700195,1.4936325550079346,-0.018356483429670334,-1.2152314186096191,-0.22811980545520782,12.826018333435059,-20.644668579101562,24.08930015563965,-1.3640625476837158,-0.2746706008911133,0.10011053085327148,0.39493149518966675,10.204985618591309,1.393522024154663
4_20251106_214239,1762436523423,4,0.21515204012393951,0.1870890110731125,0.6478967070579529,0.7063548564910889,0.28348302841186523,3.6796882152557373,1.1945242881774902,-1.2444522380828857,9.866870880126953,1.187187910079956,-0.05989528447389603,-1.3355717658996582,0.011950042098760605,13.36877155303955,-20.7789306640625,23.52647590637207,-1.311506986618042,-0.2704925537109375,-0.16506731510162354,0.06705477833747864,10.13736343383789,1.3522552251815796
4_20251106_214239,1762436523441,4,0.22329671680927277,0.1955845206975937,0.6446980237960815,0.7044499516487122,0.28348302841186523,3.6796882152557373,1.1945242881774902,-1.2444522380828857,9.866870880126953,1.187187910079956,-0.16190969944000244,-1.4388078451156616,0.18971166014671326,13.934908866882324,-20.912948608398438,23.099794387817383,-1.311506986618042,-0.2704925537109375,-0.16506731510162354,0.06705477833747864,10.13736343383789,1.3522552251815796
4_20251106_214239,1762436523462,4,0.23113642632961273,0.2056414783000946,0.640211284160614,0.7031479477882385,0.2617710530757904,3.681757688522339,1.2147146463394165,-1.334230899810791,10.350479125976562,1.438568353652954,-0.16190969944000244,-1.4388078451156616,0.18971166014671326,14.54525089263916,-21.131149291992188,22.61916160583496,-0.8939499258995056,0.18599987030029297,0.12170064449310303,-0.4402809739112854,10.16447925567627,1.316867709159851
4_20251106_214239,1762436523480,4,0.2386196255683899,0.21630363166332245,0.6346690058708191,0.7024732232093811,0.2478417307138443,3.684164524078369,1.2257455587387085,-1.317472219467163,10.580312728881836,1.8623237609863281,-0.28041744232177734,-1.3862733840942383,0.2807305157184601,15.130812644958496,-21.36309051513672,22.09673500061035,-0.7017530202865601,0.33266735076904297,0.43636488914489746,-0.615719199180603,10.247645378112793,1.4259588718414307
4_20251106_214239,1762436523499,4,0.24567481875419617,0.22614197432994843,0.6291033625602722,0.7019491791725159,0.23270981013774872,3.688161849975586,1.237941026687622,-1.3078958988189697,10.871195793151855,2.051457643508911,-0.28041744232177734,-1.3862733840942383,0.2807305157184601,15.72240924835205,-21.494041442871094,21.522356033325195,-0.5537413358688354,0.49884033203125,0.500399112701416,-0.7541545629501343,10.372355461120605,1.5510585308074951
4_20251106_214239,1762436523519,4,0.252523273229599,0.2349826693534851,0.6242877244949341,0.7009137272834778,0.21521766483783722,3.6938722133636475,1.2522436380386353,-1.530547022819519,10.935835838317871,2.244182586669922,-0.20344850420951843,-1.2879242897033691,0.20070722699165344,16.299705505371094,-21.66345977783203,20.94669532775879,-0.6211140155792236,0.45078372955322266,0.5544991493225098,-0.9094330072402954,10.485052108764648,1.689683437347412
4_20251106_214239,1762436523539,4,0.25953078269958496,0.24269144237041473,0.6204771399497986,0.6991085410118103,0.19556564092636108,3.7006237506866455,1.2672220468521118,-1.9076175689697266,10.921470642089844,2.147221565246582,-0.005528324283659458,-1.102832317352295,-0.057688530534505844,16.875267028808594,-21.881622314453125,20.22130012512207,-0.7985477447509766,0.3491353988647461,0.3660304546356201,-1.10906982421875,10.572335243225098,1.781191110610962
4_20251106_214239,1762436523556,4,0.2664741277694702,0.2490537464618683,0.6178616285324097,0.6965706944465637,0.17700670659542084,3.7068817615509033,1.2796005010604858,-2.3337671756744385,10.939427375793457,1.9102058410644531,0.060445062816143036,-1.0521304607391357,-0.13587923347949982,16.875267028808594,-21.881622314453125,20.22130012512207,-0.9797579050064087,0.2936735153198242,0.10321187973022461,-1.3540092706680298,10.645753860473633,1.8069939613342285
4_20251106_214239,1762436523576,4,0.2735981345176697,0.2547847628593445,0.6159453392028809,0.6934263706207275,0.17700670659542084,3.7068817615509033,1.2796005010604858,-2.3337671756744385,10.939427375793457,1.9102058410644531,0.09526435285806656,-1.033193588256836,-0.14931824803352356,17.452255249023438,-22.06305694580078,19.591310501098633,-0.9797579050064087,0.2936735153198242,0.10321187973022461,-1.3540092706680298,10.645753860473633,1.8069939613342285
4_20251106_214239,1762436523595,4,0.28066566586494446,0.26034772396087646,0.6143381595611572,0.6899524927139282,0.12481960654258728,3.721799373626709,1.3060165643692017,-3.1333961486816406,10.773037910461426,1.7988801002502441,0.13680315017700195,-1.000817894935608,-0.11816415190696716,18.00186538696289,-22.284957885742188,19.081193923950195,-1.1887964010238647,0.06690502166748047,-0.007682681083679199,-1.9445997476577759,10.706132888793945,1.8065627813339233
4_20251106_214239,1762436523614,4,0.2872220575809479,0.2658427357673645,0.6130221486091614,0.686319887638092,0.12481960654258728,3.721799373626709,1.3060165643692017,-3.1333961486816406,10.773037910461426,1.7988801002502441,0.1850614696741104,-0.9104099273681641,-0.11449895799160004,18.490928649902344,-22.52191162109375,18.419679641723633,-1.1887964010238647,0.06690502166748047,-0.007682681083679199,-1.9445997476577759,10.706132888793945,1.8065627813339233
4_20251106_214239,1762436523634,4,0.29311659932136536,0.2708171308040619,0.6122313141822815,0.6825786232948303,0.06412199884653091,3.734304904937744,1.3288112878799438,-3.518846035003662,10.471382141113281,1.7521952390670776,0.22904373705387115,-0.7497524619102478,-0.12305107712745667,18.905075073242188,-22.564720153808594,17.88060188293457,-1.0381619930267334,-0.1806936264038086,-0.036327481269836426,-2.4806840419769287,10.65207576751709,1.788522720336914
4_20251106_214239,1762436523653,4,0.2979578673839569,0.2747114896774292,0.6121945977210999,0.6789495348930359,0.03135740011930466,3.738868236541748,1.3386974334716797,-3.567924976348877,10.318159103393555,1.5738348960876465,0.22904373705387115,-0.7497524619102478,-0.12305107712745667,19.396175384521484,-22.52796173095703,17.400117874145508,-0.8697926998138428,-0.2671337127685547,-0.17175030708312988,-2.698132276535034,10.58529281616211,1.7455852031707764
4_20251106_214239,1762436523671,4,0.30164340138435364,0.277797669172287,0.6128388047218323,0.6754763722419739,-0.001757938414812088,3.742210865020752,1.3467707633972168,-3.423082113265991,10.223591804504395,1.26499605178833,0.3078452944755554,-0.5017414093017578,-0.03569740429520607,19.822635650634766,-22.546615600585938,17.037771224975586,-0.5799598693847656,-0.28936100006103516,-0.3844712972640991,-2.8431222438812256,10.51295280456543,1.6494673490524292
4_20251106_214239,1762436523691,4,0.30437591671943665,0.28086617588996887,0.6137193441390991,0.6721741557121277,-0.036021362990140915,3.744481086730957,1.353129506111145,-3.220780849456787,10.160148620605469,1.0854387283325195,0.29135194420814514,-0.4259941577911377,0.044325873255729675,20.180801391601562,-22.493881225585938,16.59296989440918,-0.3021268844604492,-0.2822437286376953,-0.45122289657592773,-2.918653964996338,10.442392349243164,1.5366616249084473
4_20251106_214239,1762436523709,4,0.30613330006599426,0.2838898301124573,0.614520251750946,0.6693682074546814,-0.0653914362192154,3.745612144470215,1.3576585054397583,-2.9490504264831543,10.113463401794434,1.1680351495742798,0.25103485584259033,-0.3386405110359192,0.11946223676204681,20.551475524902344,-22.416725158691406,16.29786491394043,-0.024317026138305664,-0.26314353942871094,-0.2949012517929077,-2.9247334003448486,10.376606941223145,1.4629364013671875
4_20251106_214239,1762436523730,4,0.3070216178894043,0.28676560521125793,0.6150861382484436,0.6672123074531555,-0.09661253541707993,3.746096134185791,1.361565351486206,-2.527688980102539,10.146980285644531,1.1309266090393066,0.25103485584259033,-0.3386405110359192,0.11946223676204681,20.77532196044922,-22.34990692138672,16.077972412109375,0.31763553619384766,-0.1837015151977539,-0.2656078338623047,-2.8453245162963867,10.330681800842285,1.3965344429016113
4_20251106_214239,1762436523748,4,0.30713725090026855,0.2895674407482147,0.6158350110054016,0.6652553081512451,-0.09661253541707993,3.746096134185791,1.361565351486206,-2.527688980102539,10.146980285644531,1.1309266090393066,0.28646501898765564,-0.18531343340873718,0.14817287027835846,20.975505828857422,-22.272125244140625,15.857362747192383,0.31763553619384766,-0.1837015151977539,-0.2656078338623047,-2.8453245162963867,10.330681800842285,1.3965344429016113
4_20251106_214239,1762436523768,4,0.30678051710128784,0.291858434677124,0.6168937683105469,0.6634353399276733,-0.142229363322258,3.7466542720794678,1.366443395614624,-2.0057754516601562,10.291824340820312,1.339213252067566,0.28646501898765564,-0.18531343340873718,0.14817287027835846,21.141056060791016,-22.147705078125,15.757984161376953,0.5578048229217529,-0.02640056610107422,-0.002019047737121582,-2.563580274581909,10.318224906921387,1.3412322998046875
4_20251106_214239,1762436523786,4,0.3064228892326355,0.29330646991729736,0.6182243227958679,0.6617212891578674,-0.1614570915699005,3.7465741634368896,1.369346261024475,-2.012957811355591,10.208030700683594,1.5570762157440186,0.3194517195224762,-0.029542943462729454,0.030886847525835037,21.27569580078125,-22.138160705566406,15.682281494140625,0.44049787521362305,-0.08815574645996094,0.17267513275146484,-2.453455686569214,10.296186447143555,1.3844010829925537
4_20251106_214239,1762436523805,4,0.3057573437690735,0.2940915822982788,0.620165228843689,0.6598618626594543,-0.1782882809638977,3.7460591793060303,1.3724331855773926,-1.9303613901138306,10.136207580566406,1.5044059753417969,0.3194517195224762,-0.029542943462729454,0.030886847525835037,21.325454711914062,-22.11040496826172,15.738836288452148,0.41847550868988037,-0.12798309326171875,0.09600389003753662,-2.348836898803711,10.264190673828125,1.4084020853042603
4_20251106_214239,1762436523824,4,0.304328978061676,0.2944749593734741,0.6230480670928955,0.6576316952705383,-0.1782882809638977,3.7460591793060303,1.3724331855773926,-1.9303613901138306,10.136207580566406,1.5044059753417969,0.4269639253616333,0.0578107088804245,0.016226094216108322,21.379741668701172,-22.00690460205078,15.756425857543945,0.41847550868988037,-0.12798309326171875,0.09600389003753662,-2.348836898803711,10.264190673828125,1.4084020853042603
4_20251106_214239,1762436523843,4,0.3020046055316925,0.2943655252456665,0.6267489194869995,0.6552311778068542,-0.20269517600536346,3.743945360183716,1.3752158880233765,-1.176220417022705,10.107477188110352,0.7227327823638916,0.5216479301452637,0.22640937566757202,-0.014928005635738373,21.481372833251953,-21.913726806640625,15.87032699584961,0.8113803863525391,-0.102020263671875,-0.5039478540420532,-1.9876008033752441,10.209497451782227,1.2266806364059448
4_20251106_214239,1762436523862,4,0.2995450794696808,0.29400065541267395,0.6307088136672974,0.6527194976806641,-0.20980529487133026,3.742269277572632,1.3734772205352783,-0.9583575129508972,10.014108657836914,0.42347049713134766,0.5008785128593445,0.1915901005268097,-0.06074285879731178,21.435474395751953,-21.84344482421875,16.05917739868164,0.8233945965766907,-0.15631103515625,-0.6425681114196777,-1.781752109527588,10.170419692993164,1.0660386085510254
4_20251106_214239,1762436523882,4,0.29763931035995483,0.2936869263648987,0.6345299482345581,0.6500235795974731,-0.2143067568540573,3.7399725914001465,1.3691191673278809,-0.9236429929733276,9.966226577758789,0.20441043376922607,0.5008785128593445,0.1915901005268097,-0.06074285879731178,21.451618194580078,-21.744483947753906,16.291555404663086,0.6864873170852661,-0.16335487365722656,-0.6893025636672974,-1.6101303100585938,10.129581451416016,0.8937129974365234
4_20251106_214239,1762436523901,4,0.29617321491241455,0.2934131324291229,0.6379311084747314,0.6474828720092773,-0.21607863903045654,3.7376255989074707,1.3634295463562012,-0.7752088904380798,10.029670715332031,0.2534894347190857,0.36832088232040405,0.13172534108161926,-0.040584322065114975,21.396156311035156,-21.625038146972656,16.50800323486328,0.6679372191429138,-0.07992839813232422,-0.5121788382530212,-1.4431461095809937,10.109599113464355,0.7656682729721069
4_20251106_214239,1762436523921,4,0.29473623633384705,0.29322317242622375,0.6407423615455627,0.6454455256462097,-0.21493934094905853,3.7349555492401123,1.3563357591629028,-0.485522985458374,10.003334999084473,0.30376553535461426,0.3341124653816223,0.134168803691864,-0.017982330173254013,21.36737823486328,-21.466064453125,16.699190139770508,0.7660984992980957,-0.08501148223876953,-0.36952221393585205,-1.2516214847564697,10.088346481323242,0.6732877492904663
4_20251106_214239,1762436523939,4,0.2932485342025757,0.2931015193462372,0.643235981464386,0.6436957716941833,-0.21160128712654114,3.7329556941986084,1.3495699167251587,-0.2916009724140167,10.203241348266602,0.38875603675842285,0.3341124653816223,0.134168803691864,-0.017982330173254013,21.304466247558594,-21.259788513183594,16.944028854370117,0.7680164575576782,0.09191513061523438,-0.22762537002563477,-1.0596174001693726,10.111326217651367,0.6163814067840576
4_20251106_214239,1762436523959,4,0.29173317551612854,0.2928098440170288,0.645780622959137,0.6419668793678284,-0.2056993544101715,3.731262445449829,1.341805338859558,-0.2772364020347595,10.248729705810547,0.4114999771118164,0.37748387455940247,0.2215224653482437,-0.08273398876190186,21.255149841308594,-21.027603149414062,17.18988609313965,0.6259047985076904,0.1099233627319336,-0.16390514373779297,-0.90314120054245,10.138806343078613,0.5754051208496094
4_20251106_214239,1762436523978,4,0.2898607552051544,0.29187583923339844,0.648891806602478,0.6401005387306213,-0.19917091727256775,3.729722738265991,1.3340909481048584,-0.30117735266685486,10.101492881774902,0.13857272267341614,0.47033530473709106,0.2685590386390686,-0.09311869740486145,21.114593505859375,-20.901840209960938,17.470746994018555,0.4815710484981537,-0.02985095977783203,-0.349465936422348,-0.7827484011650085,10.131343841552734,0.48803865909576416
4_20251106_214239,1762436523997,4,0.2875393331050873,0.29087936878204346,0.6526767015457153,0.6377487778663635,-0.19088272750377655,3.7279129028320312,1.3245161771774292,-0.1479550451040268,10.03445816040039,-0.18223650753498077,0.5130957961082458,0.2893284261226654,-0.08090139925479889,21.114593505859375,-20.901840209960938,17.470746994018555,0.5078346729278564,-0.07750797271728516,-0.536220133304596,-0.6557897329330444,10.111966133117676,0.35398364067077637
4_20251106_214239,1762436524015,4,0.28483784198760986,0.2899143397808075,0.6567729115486145,0.6351900696754456,-0.1814350187778473,3.72621750831604,1.3136895895004272,-0.08211733400821686,10.120645523071289,-0.2768034338951111,0.5014894008636475,0.3198716640472412,-0.07845793664455414,20.964576721191406,-20.726776123046875,17.765687942504883,0.45893794298171997,0.006943702697753906,-0.5046296715736389,-0.5410552620887756,10.113701820373535,0.22782623767852783
4_20251106_214239,1762436524035,4,0.28195714950561523,0.288830041885376,0.6608563661575317,0.632729172706604,-0.1706520915031433,3.7246389389038086,1.3022464513778687,0.11778991669416428,10.125433921813965,-0.19420699775218964,0.5014894008636475,0.3198716640472412,-0.07845793664455414,20.867218017578125,-20.485206604003906,18.009843826293945,0.5270761251449585,0.009386062622070312,-0.337626576423645,-0.409286230802536,10.116047859191895,0.14341959357261658
4_20251106_214239,1762436524053,4,0.278645783662796,0.28723475337028503,0.6654361486434937,0.6301169991493225,-0.1589556634426117,3.7233128547668457,1.289496660232544,0.12018401175737381,10.179300308227539,-0.5413513779640198,0.6401556730270386,0.4915246367454529,-0.17375284433364868,20.75647735595703,-20.257667541503906,18.320829391479492,0.4235762059688568,0.050601959228515625,-0.5478167533874512,-0.3033922016620636,10.128698348999023,0.006465405225753784
4_20251106_214239,1762436524073,4,0.2747567892074585,0.28483349084854126,0.670987069606781,0.6270207166671753,-0.1589556634426117,3.7233128547668457,1.289496660232544,0.12018401175737381,10.179300308227539,-0.5413513779640198,0.6688662767410278,0.5269548296928406,-0.21040472388267517,20.708091735839844,-19.989425659179688,18.729673385620117,0.4235762059688568,0.050601959228515625,-0.5478167533874512,-0.3033922016620636,10.128698348999023,0.006465405225753784
4_20251106_214239,1762436524091,4,0.27078256011009216,0.2821033298969269,0.6768724918365479,0.623649001121521,-0.13207699358463287,3.7224104404449463,1.2582241296768188,0.500845730304718,10.282247543334961,-1.1745904684066772,0.6511512398719788,0.4994658827781677,-0.2036852091550827,20.632709503173828,-19.772735595703125,19.109445571899414,0.5457398295402527,0.08812141418457031,-0.8005017638206482,-0.044894084334373474,10.19412612915039,-0.37408870458602905
4_20251106_214239,1762436524111,4,0.26702508330345154,0.27967435121536255,0.682490885257721,0.6202306151390076,-0.11611639708280563,3.7224600315093994,1.2386890649795532,0.6085801720619202,10.304990768432617,-1.358936071395874,0.5809018015861511,0.3931754231452942,-0.17863976955413818,20.559947967529297,-19.506080627441406,19.517305374145508,0.5227794051170349,0.08869171142578125,-0.7878779172897339,0.08580076694488525,10.216299057006836,-0.5710581541061401
4_20251106_214239,1762436524130,4,0.2640255093574524,0.27798962593078613,0.6872891783714294,0.6169650554656982,-0.09984742850065231,3.722698926925659,1.2191433906555176,0.7653936147689819,10.28703498840332,-1.2691574096679688,0.48133087158203125,0.3107087016105652,-0.13771182298660278,20.365032196044922,-19.247772216796875,19.9608097076416,0.5436742901802063,0.05658912658691406,-0.5584794282913208,0.22171932458877563,10.230445861816406,-0.710677981376648
4_20251106_214239,1762436524150,4,0.26148152351379395,0.2767469584941864,0.6911933422088623,0.6142395734786987,-0.08170735090970993,3.7228078842163086,1.1981765031814575,0.8372165560722351,10.187681198120117,-1.1781816482543945,0.40985968708992004,0.21968987584114075,-0.11694242060184479,20.27163314819336,-18.908042907714844,20.436857223510742,0.4923977851867676,-0.03421211242675781,-0.37400293350219727,0.34481877088546753,10.221893310546875,-0.8041787147521973
4_20251106_214239,1762436524169,4,0.2595060169696808,0.27592143416404724,0.6943755745887756,0.6118549704551697,-0.08170735090970993,3.7228078842163086,1.1981765031814575,0.8372165560722351,10.187681198120117,-1.1781816482543945,0.38420337438583374,0.12744930386543274,-0.10839031636714935,20.178123474121094,-18.580062866210938,20.831541061401367,0.4923977851867676,-0.03421211242675781,-0.37400293350219727,0.34481877088546753,10.221893310546875,-0.8041787147521973
4_20251106_214239,1762436524188,4,0.2581390142440796,0.27561163902282715,0.6971212029457092,0.609446108341217,-0.0476263128221035,3.7216460704803467,1.159729242324829,0.3679732084274292,9.834550857543945,-0.8968750238418579,0.4129140377044678,0.09324086457490921,-0.10716858506202698,20.097816467285156,-18.226707458496094,21.281309127807617,-0.040341198444366455,-0.2952079772949219,-0.03787451982498169,0.40831440687179565,10.129758834838867,-0.8590005040168762
4_20251106_214239,1762436524207,4,0.2569839656352997,0.2755877375602722,0.6998922824859619,0.6067630648612976,-0.03279833495616913,3.718818187713623,1.1412155628204346,0.10342532396316528,9.471844673156738,-1.1159350872039795,0.4831634759902954,0.09446259588003159,-0.11449895799160004,19.97982406616211,-17.912063598632812,21.593652725219727,-0.24391129612922668,-0.526331901550293,-0.20554769039154053,0.34733662009239197,9.998176574707031,-0.910387396812439
4_20251106_214239,1762436524226,4,0.2556646764278412,0.27552148699760437,0.703107476234436,0.6036251783370972,-0.01996554620563984,3.7135415077209473,1.1215791702270508,-0.10964946448802948,9.054075241088867,-1.657001256942749,0.5350869297981262,0.09201913326978683,-0.11755327880382538,19.887104034423828,-17.58300018310547,21.880205154418945,-0.365588903427124,-0.7552814483642578,-0.597291111946106,0.25593942403793335,9.809356689453125,-1.059710144996643
4_20251106_214239,1762436524244,4,0.2542429566383362,0.27551010251045227,0.7066599130630493,0.6000720262527466,-0.00979672372341156,3.7058451175689697,1.1009265184402466,-0.30476850271224976,8.612363815307617,-2.269890546798706,0.5088197588920593,0.04864773899316788,-0.08884264528751373,19.782806396484375,-17.2423095703125,22.1800479888916,-0.44856634736061096,-0.9575939178466797,-0.9681442975997925,0.1437978446483612,9.569957733154297,-1.3017462491989136
4_20251106_214239,1762436524264,4,0.2530612647533417,0.2759261429309845,0.7099282145500183,0.5965120792388916,-0.0012563075870275497,3.693052291870117,1.0750880241394043,-0.5776957869529724,8.034188270568848,-2.630202293395996,0.5088197588920593,0.04864773899316788,-0.08884264528751373,19.722515106201172,-16.98607635498047,22.452974319458008,-0.5771949291229248,-1.2286157608032227,-1.0627648830413818,-0.0005008727312088013,9.26280403137207,-1.5674374103546143
4_20251106_214239,1762436524284,4,0.2524992823600769,0.2768135666847229,0.7124032378196716,0.5933801531791687,0.00466937106102705,3.6759450435638428,1.0471868515014648,-0.7201446294784546,7.633176803588867,-2.6709020137786865,0.27974551916122437,-0.045425429940223694,-0.029588758945465088,19.773902893066406,-16.69676971435547,22.649744033813477,-0.5757150053977966,-1.3037023544311523,-0.8827717304229736,-0.14442960917949677,8.93687915802002,-1.788130283355713
4_20251106_214239,1762436524302,4,0.2522093951702118,0.2775743305683136,0.71414715051651,0.5910471677780151,0.008276918902993202,3.6576011180877686,1.0214111804962158,-0.7369033098220825,7.427284240722656,-2.56795597076416,0.18689405918121338,0.09079740196466446,-0.06868410110473633,19.75045394897461,-16.449356079101562,22.788713455200195,-0.4739789664745331,-1.2076759338378906,-0.6238605976104736,-0.26292434334754944,8.634960174560547,-1.9440953731536865
4_20251106_214239,1762436524321,4,0.251510351896286,0.27709928154945374,0.7157964706420898,0.5895709991455078,0.010230411775410175,3.636295795440674,0.995063841342926,-0.8613964319229126,7.059790134429932,-2.6996312141418457,0.18689405918121338,0.09079740196466446,-0.06868410110473633,19.71179962158203,-16.25323486328125,22.953168869018555,-0.478777676820755,-1.2601361274719238,-0.604428768157959,-0.3826187551021576,8.319926261901855,-2.0952024459838867
4_20251106_214239,1762436524341,4,0.25022244453430176,0.2747514545917511,0.7178512811660767,0.588718831539154,0.01034953910857439,3.606813907623291,0.962961733341217,-0.9930717945098877,6.568999767303467,-2.960587978363037,0.07021889835596085,0.37362778186798096,-0.23545017838478088,19.623699188232422,-16.072853088378906,23.115400314331055,-0.4883624315261841,-1.4007411003112793,-0.6923084259033203,-0.5047093629837036,7.969740867614746,-2.268279552459717
4_20251106_214239,1762436524359,4,0.24883562326431274,0.27123504877090454,0.7199680209159851,0.5883522629737854,0.01034953910857439,3.606813907623291,0.962961733341217,-0.9930717945098877,6.568999767303467,-2.960587978363037,-0.07333431392908096,0.3559126853942871,-0.2238437533378601,19.57196044921875,-15.890357971191406,23.306135177612305,-0.4883624315261841,-1.4007411003112793,-0.6923084259033203,-0.5047093629837036,7.969740867614746,-2.268279552459717
4_20251106_214239,1762436524380,4,0.24781620502471924,0.26748737692832947,0.7212764620780945,0.5888954401016235,0.005034692585468292,3.540846586227417,0.9001033306121826,-1.2983194589614868,5.838799476623535,-3.2047858238220215,-0.33173006772994995,0.2746676802635193,-0.1474856585264206,19.430686950683594,-15.788764953613281,23.491853713989258,-0.5330005884170532,-1.415898323059082,-0.5909366607666016,-0.7653188705444336,7.254697799682617,-2.61384916305542
4_20251106_214239,1762436524398,4,0.24758471548557281,0.2641126811504364,0.7207975387573242,0.5910983681678772,0.0005164798349142075,3.506054162979126,0.8717064261436462,-1.3258516788482666,5.51200532913208,-2.8432772159576416,-0.6389950513839722,0.22946369647979736,-0.0497472919523716,19.430686950683594,-15.788764953613281,23.491853713989258,-0.4484262466430664,-1.3941540718078613,-0.18354225158691406,-0.8774254322052002,6.906159400939941,-2.6597349643707275
4_20251106_214239,1762436524417,4,0.2478453814983368,0.26083967089653015,0.7182580828666687,0.5955171585083008,-0.005123069044202566,3.4671003818511963,0.8439915180206299,-1.2815607786178589,5.424620151519775,-2.382413148880005,-0.9016668796539307,0.17937280237674713,0.014393500983715057,19.37017822265625,-15.768974304199219,23.625093460083008,-0.3233082890510559,-1.1852316856384277,0.22185754776000977,-0.958252489566803,6.609851837158203,-2.6042706966400146
4_20251106_214239,1762436524436,4,0.2488200068473816,0.2577233910560608,0.7138479351997375,0.6017378568649292,-0.011476049199700356,3.427164316177368,0.8196766972541809,-1.3210633993148804,5.54193115234375,-1.870076060295105,-1.109360933303833,0.17204242944717407,-0.023480113595724106,19.302505493164062,-15.673553466796875,23.651296615600586,-0.2902487516403198,-0.8543362617492676,0.5873557329177856,-1.0308146476745605,6.396267414093018,-2.4574317932128906
4_20251106_214239,1762436524455,4,0.25053831934928894,0.25382667779922485,0.7082183361053467,0.6092859506607056,-0.018613139167428017,3.3879354000091553,0.7993254065513611,-1.4323890209197998,5.926184177398682,-1.4558970928192139,-1.20832097530365,0.30826523900032043,-0.1419878751039505,19.163326263427734,-15.770462036132812,23.67108726501465,-0.3212594985961914,-0.3760666847229004,0.8012278079986572,-1.1111295223236084,6.302250862121582,-2.257124900817871
4_20251106_214239,1762436524475,4,0.2522038519382477,0.2479664385318756,0.7025051712989807,0.6175696849822998,-0.026810556650161743,3.348487377166748,0.781821072101593,-1.45992112159729,6.2302350997924805,-1.3206305503845215,-1.2303121089935303,0.5684936046600342,-0.2959257662296295,19.079425811767578,-15.975471496582031,23.596338272094727,-0.2790333032608032,-0.05761289596557617,0.7491955757141113,-1.1808878183364868,6.287847995758057,-2.069826126098633
4_20251106_214239,1762436524493,4,0.2530991733074188,0.2394421249628067,0.6974895596504211,0.6261921525001526,-0.026810556650161743,3.348487377166748,0.781821072101593,-1.45992112159729,6.2302350997924805,-1.3206305503845215,-1.2303121089935303,0.5684936046600342,-0.2959257662296295,19.03531265258789,-16.11571502685547,23.564931869506836,-0.2790333032608032,-0.05761289596557617,0.7491955757141113,-1.1808878183364868,6.287847995758057,-2.069826126098633
4_20251106_214239,1762436524512,4,0.25393274426460266,0.22896385192871094,0.6924718022346497,0.635276734828949,-0.044454753398895264,3.2841644287109375,0.7578233480453491,-1.8298094272613525,7.203435897827148,-1.0189740657806396,-1.478323221206665,0.7596942186355591,-0.49079158902168274,18.922500610351562,-16.40966796875,23.433290481567383,-0.45131707191467285,0.6880602836608887,0.7219595909118652,-1.3784923553466797,6.51537561416626,-1.7409336566925049
4_20251106_214239,1762436524532,4,0.2551809847354889,0.2173282504081726,0.6865703463554382,0.6451916694641113,-0.05597051978111267,3.2574033737182617,0.75130295753479,-2.0165491104125977,7.892935752868652,-0.3474293053150177,-1.6011070013046265,0.8562108874320984,-0.5512672066688538,18.833850860595703,-16.71392059326172,23.234785079956055,-0.5104453563690186,1.1020479202270508,1.1148035526275635,-1.506103754043579,6.790887832641602,-1.4622328281402588
4_20251106_214239,1762436524553,4,0.2562331557273865,0.20416580140590668,0.6800970435142517,0.655842125415802,-0.06912091374397278,3.2378597259521484,0.7511686086654663,-2.233214855194092,8.724885940551758,0.5312049388885498,-1.648754358291626,1.0254204273223877,-0.673440158367157,18.803611755371094,-17.06401824951172,22.99712562561035,-0.5816888809204102,1.54719877243042,1.5947502851486206,-1.6515259742736816,7.177687168121338,-1.0635453462600708
4_20251106_214239,1762436524569,4,0.25698524713516235,0.18893934786319733,0.6736544370651245,0.6666709780693054,-0.08210860192775726,3.227159261703491,0.7563849091529846,-2.7299904823303223,9.490997314453125,1.3607600927352905,-1.617600440979004,1.30580735206604,-0.8200476765632629,18.687671661376953,-17.42021942138672,22.81009864807129,-0.86277174949646,1.8506479263305664,1.9394443035125732,-1.8672187328338623,7.640349388122559,-0.5786842703819275
4_20251106_214239,1762436524590,4,0.2567068040370941,0.1709255874156952,0.667969822883606,0.6772757172584534,-0.08210860192775726,3.227159261703491,0.7563849091529846,-2.7299904823303223,9.490997314453125,1.3607600927352905,-1.617600440979004,1.30580735206604,-0.8200476765632629,18.554710388183594,-17.86498260498047,22.60721778869629,-0.86277174949646,1.8506479263305664,1.9394443035125732,-1.8672187328338623,7.640349388122559,-0.5786842703819275
4_20251106_214239,1762436524609,4,0.25432896614074707,0.15137076377868652,0.6629247665405273,0.6877022981643677,-0.12163114547729492,3.2245798110961914,0.791194498538971,-3.110652208328247,10.206832885742188,2.5482332706451416,-1.547961711883545,1.565424919128418,-0.7907261848449707,18.403831481933594,-18.186569213867188,22.487092971801758,-0.7854549884796143,1.6735773086547852,2.088564157485962,-2.325197219848633,8.533255577087402,0.45966920256614685
4_20251106_214239,1762436524627,4,0.24996256828308105,0.13318070769309998,0.6575781106948853,0.6981208324432373,-0.1403401494026184,3.2311594486236572,0.8149687051773071,-2.7455520629882812,10.537219047546387,2.872633457183838,-1.5253597497940063,1.3180246353149414,-0.1987982839345932,18.208045959472656,-18.43653106689453,22.420656204223633,-0.33628392219543457,1.6031713485717773,1.9303714036941528,-2.4092681407928467,8.93404769897461,0.9422620534896851
4_20251106_214239,1762436524647,4,0.2449290007352829,0.11889521777629852,0.6505590081214905,0.7089757919311523,-0.15872320532798767,3.2441723346710205,0.8453465700149536,-2.2715206146240234,11.272207260131836,3.32511830329895,-1.5937765836715698,0.8519347906112671,0.15305978059768677,17.869850158691406,-18.845779418945312,22.33213996887207,0.1101980209350586,1.8705272674560547,1.906285047531128,-2.381718635559082,9.401679992675781,1.4188332557678223
4_20251106_214239,1762436524665,4,0.2404175102710724,0.1099248081445694,0.6413280963897705,0.7202876210212708,-0.174357607960701,3.263751983642578,0.8815211057662964,-1.7148926258087158,12.032333374023438,4.085244655609131,-1.6255416870117188,0.5190135836601257,0.4383336007595062,17.666690826416016,-19.24494171142578,22.113855361938477,0.5334608554840088,2.104522705078125,2.133129119873047,-2.2483534812927246,9.927810668945312,1.952115535736084
4_20251106_214239,1762436524684,4,0.23582299053668976,0.10495603829622269,0.6306100487709045,0.731917142868042,-0.174357607960701,3.263751983642578,0.8815211057662964,-1.7148926258087158,12.032333374023438,4.085244655609131,-1.6255416870117188,0.5190135836601257,0.4383336007595062,17.394649505615234,-19.786476135253906,21.91724967956543,0.5334608554840088,2.104522705078125,2.133129119873047,-2.2483534812927246,9.927810668945312,1.952115535736084
4_20251106_214239,1762436524703,4,0.231184184551239,0.10210040211677551,0.6197112202644348,0.7430258393287659,-0.18689952790737152,3.292639970779419,0.929361879825592,-1.0924270153045654,12.412995338439941,4.893252372741699,-1.2932312488555908,0.37973642349243164,0.4432205259799957,17.07355499267578,-20.34320068359375,21.66435432434082,0.924741268157959,1.9881477355957031,2.352909564971924,-2.0171682834625244,10.424847602844238,2.5403428077697754
4_20251106_214239,1762436524722,4,0.2270093560218811,0.09919410198926926,0.6105043888092041,0.7522709965705872,-0.19639946520328522,3.35436749458313,1.0259745121002197,-0.4400350749492645,12.65001106262207,5.454668998718262,-0.8870061635971069,0.5153483748435974,0.15977929532527924,16.753154754638672,-20.89897918701172,21.316843032836914,1.0208568572998047,1.4038028717041016,1.8435263633728027,-1.4608919620513916,11.246208190917969,3.611142635345459
4_20251106_214239,1762436524741,4,0.223679780960083,0.09470628947019577,0.6045804023742676,0.7586043477058411,-0.19753094017505646,3.389355182647705,1.0784838199615479,-0.7704207301139832,12.216679573059082,4.5125908851623535,-0.8870061635971069,0.5153483748435974,0.15977929532527924,16.423385620117188,-21.40532684326172,20.96989631652832,0.552376925945282,0.7763776779174805,0.7211587429046631,-1.3227976560592651,11.440301895141602,3.7914321422576904
4_20251106_214239,1762436524760,4,0.22101065516471863,0.08955951035022736,0.6013936400413513,0.7625346183776855,-0.19753094017505646,3.389355182647705,1.0784838199615479,-0.7704207301139832,12.216679573059082,4.5125908851623535,-0.4325227439403534,0.46709007024765015,-0.003321576863527298,16.141544342041016,-21.93280029296875,20.54328727722168,0.552376925945282,0.7763776779174805,0.7211587429046631,-1.3227976560592651,11.440301895141602,3.7914321422576904
4_20251106_214239,1762436524779,4,0.21880358457565308,0.0855063945055008,0.5989612936973572,0.7655449509620667,-0.1975727081298828,3.425658702850342,1.1307837963104248,-0.9643427133560181,11.873125076293945,3.722538471221924,-0.4154185354709625,0.33269983530044556,0.0687604546546936,15.869168281555176,-22.50957489013672,20.10259437561035,0.2867640256881714,0.34625816345214844,-0.05511474609375,-1.2511067390441895,11.526866912841797,3.777653217315674
4_20251106_214239,1762436524799,4,0.21678566932678223,0.08282820135354996,0.5964593291282654,0.7683616876602173,-0.19658954441547394,3.4864468574523926,1.2172508239746094,-1.177417516708374,11.120182037353516,3.2365365028381348,-0.3964817523956299,0.258174329996109,0.06631700694561005,15.73708438873291,-22.964736938476562,19.683191299438477,0.02934896945953369,-0.3096923828125,-0.3691062927246094,-1.2067664861679077,11.429874420166016,3.605642795562744
4_20251106_214239,1762436524818,4,0.21525289118289948,0.0807337760925293,0.5939879417419434,0.7709258198738098,-0.19658954441547394,3.4864468574523926,1.2172508239746094,-1.177417516708374,11.120182037353516,3.2365365028381348,-0.33050835132598877,0.32353687286376953,0.02294560708105564,15.584376335144043,-23.335205078125,19.426847457885742,0.02934896945953369,-0.3096923828125,-0.3691062927246094,-1.2067664861679077,11.429874420166016,3.605642795562744
4_20251106_214239,1762436524838,4,0.21367603540420532,0.07805487513542175,0.5921820998191833,0.773026704788208,-0.19631923735141754,3.5368449687957764,1.293107271194458,-1.3246545791625977,10.32414436340332,2.746943473815918,-0.277363121509552,0.41944262385368347,0.009506583213806152,15.47448444366455,-23.57879638671875,19.282747268676758,-0.08081114292144775,-0.7766180038452148,-0.5957257747650146,-1.24384343624115,11.100762367248535,3.3426692485809326
4_20251106_214239,1762436524856,4,0.21163201332092285,0.07467661052942276,0.5909949541091919,0.7748291492462158,-0.1960510015487671,3.555487632751465,1.324271321296692,-1.1403088569641113,10.109871864318848,2.6272385120391846,-0.28102830052375793,0.4799182415008545,0.017447825521230698,15.47448444366455,-23.57879638671875,19.282747268676758,0.08282768726348877,-0.7927131652832031,-0.5723445415496826,-1.2231365442276,10.90258502960205,3.199583053588867
4_20251106_214239,1762436524875,4,0.2091512680053711,0.07084933668375015,0.5899287462234497,0.7766725420951843,-0.19475115835666656,3.570589780807495,1.352165699005127,-0.8422436714172363,9.951862335205078,2.575765371322632,-0.28102830052375793,0.4799182415008545,0.017447825521230698,15.384730339050293,-23.683197021484375,19.115007400512695,0.3047143220901489,-0.7605781555175781,-0.4990541934967041,-1.1469579935073853,10.712440490722656,3.074819564819336
4_20251106_214239,1762436524894,4,0.20629733800888062,0.06701040267944336,0.5885717868804932,0.7788031101226807,-0.19223035871982574,3.5830273628234863,1.3777657747268677,-0.6782479286193848,10.016502380371094,2.746943235397339,-0.45023781061172485,0.3834016025066376,0.1359555721282959,15.28360652923584,-23.764083862304688,19.02840232849121,0.3749680519104004,-0.5567512512207031,-0.2623012065887451,-1.0532159805297852,10.573253631591797,3.009244441986084
4_20251106_214239,1762436524913,4,0.20362776517868042,0.064412422478199,0.5859591960906982,0.7816895842552185,-0.18867546319961548,3.5937161445617676,1.403773546218872,-0.6303659081459045,10.162542343139648,3.624380588531494,-0.5772976875305176,0.1915901005268097,0.24713295698165894,15.202229499816895,-23.919265747070312,18.99526023864746,0.3382800817489624,-0.3285694122314453,0.4921088218688965,-0.9686459898948669,10.491111755371094,3.1322717666625977
4_20251106_214239,1762436524932,4,0.2012665569782257,0.06365154683589935,0.5819234848022461,0.7853695750236511,-0.18386444449424744,3.6031627655029297,1.4319461584091187,-0.44602036476135254,10.233168601989746,4.395280361175537,-0.5772976875305176,0.1915901005268097,0.24713295698165894,15.123461723327637,-24.036102294921875,18.895326614379883,0.4181005358695984,-0.20635509490966797,1.0104069709777832,-0.8641209006309509,10.439523696899414,3.384873390197754
4_20251106_214239,1762436524959,4,0.1987212896347046,0.06360596418380737,0.5778805017471313,0.7889982461929321,-0.17709462344646454,3.6122405529022217,1.4634560346603394,-0.21977800130844116,10.318159103393555,4.482665061950684,-0.34761255979537964,0.12378410249948502,0.24102430045604706,14.99414348602295,-24.18177032470703,18.84697151184082,0.5154743790626526,-0.0970916748046875,0.8782331943511963,-0.7352523803710938,10.415250778198242,3.6044318675994873
4_20251106_214239,1762436524970,4,0.19671691954135895,0.06379340589046478,0.575133204460144,0.7914888858795166,-0.16985437273979187,3.619382858276367,1.491822600364685,-0.14556095004081726,10.163739204406738,4.1834025382995605,-0.16496402025222778,0.15432734787464142,0.09563849866390228,14.865729331970215,-24.314613342285156,18.7718448638916,0.47175315022468567,-0.20120906829833984,0.4631764888763428,-0.6173141002655029,10.364948272705078,3.7202260494232178
4_20251106_214239,1762436524990,4,0.1953989416360855,0.06326112151145935,0.5739032030105591,0.7927498817443848,-0.16985437273979187,3.619382858276367,1.491822600364685,-0.14556095004081726,10.163739204406738,4.1834025382995605,-0.0867733284831047,0.18975749611854553,-0.04058432579040527,14.748993873596191,-24.458946228027344,18.669912338256836,0.47175315022468567,-0.20120906829833984,0.4631764888763428,-0.6173141002655029,10.364948272705078,3.7202260494232178
4_20251106_214239,1762436525009,4,0.19495230913162231,0.06194973737001419,0.5734520554542542,0.7932897210121155,-0.15409967303276062,3.629652738571167,1.5486795902252197,-0.6698685884475708,9.741180419921875,3.5753016471862793,-0.11365138739347458,0.12378410249948502,-0.06379717588424683,14.632245063781738,-24.614891052246094,18.47310447692871,-0.07998460531234741,-0.42583465576171875,-0.12090611457824707,-0.5898839831352234,10.167015075683594,3.6962077617645264
4_20251106_214239,1762436525029,4,0.1950913965702057,0.06092437729239464,0.5727641582489014,0.7938317060470581,-0.14767983555793762,3.6319944858551025,1.5739942789077759,-0.7847853302955627,9.599929809570312,3.671065330505371,-0.15091413259506226,0.026045745238661766,0.006452259607613087,14.525679588317871,-24.79596710205078,18.35735511779785,-0.15592104196548462,-0.45366859436035156,-0.02011394500732422,-0.6288642883300781,10.053598403930664,3.6911792755126953
4_20251106_214239,1762436525048,4,0.19523897767066956,0.06085550785064697,0.5716116428375244,0.7946310639381409,-0.1418609768152237,3.6330106258392334,1.597853422164917,-0.7309181094169617,9.613097190856934,3.6219863891601562,-0.13625337183475494,-0.07902298867702484,0.06692786514759064,14.49262523651123,-24.97174072265625,18.19048500061035,-0.08164304494857788,-0.3524007797241211,-0.05535435676574707,-0.6492750644683838,9.965497970581055,3.6773407459259033
4_20251106_214239,1762436525066,4,0.19549016654491425,0.06188788264989853,0.5703219175338745,0.7954158782958984,-0.13645195960998535,3.6334426403045654,1.620216727256775,-0.6926125288009644,9.77110767364502,3.566922187805176,-0.09166025370359421,-0.11384227126836777,0.029054254293441772,14.368624687194824,-25.04058074951172,17.99503517150879,-0.03466993570327759,-0.15551185607910156,-0.08833479881286621,-0.6579425930976868,9.926619529724121,3.655256986618042
4_20251106_214239,1762436525085,4,0.19625727832317352,0.0631224736571312,0.5693336129188538,0.7958378195762634,-0.1320292353630066,3.6332457065582275,1.6412917375564575,-0.9188548922538757,9.705269813537598,3.593257427215576,-0.06539306789636612,-0.07719039171934128,-0.0754036158323288,14.314017295837402,-25.167709350585938,17.828237533569336,-0.20872986316680908,-0.1770792007446289,-0.049599647521972656,-0.7101250290870667,9.882349014282227,3.642857074737549
4_20251106_214239,1762436525104,4,0.19747954607009888,0.0634951964020729,0.5687066912651062,0.7959540486335754,-0.12927721440792084,3.6321983337402344,1.661508560180664,-1.2384669780731201,9.568805694580078,3.7141594886779785,-0.054397501051425934,-0.03381899744272232,-0.13587923347949982,14.324978828430176,-25.20337677001953,17.706289291381836,-0.4226735830307007,-0.25083446502685547,0.05704212188720703,-0.8157933950424194,9.819640159606934,3.6571173667907715
4_20251106_214239,1762436525124,4,0.19900096952915192,0.06322271376848221,0.5682766437530518,0.7959039807319641,-0.12854155898094177,3.6301991939544678,1.6819206476211548,-1.4790740013122559,9.506559371948242,3.721341609954834,-0.040347613394260406,-0.05764272063970566,-0.10777945816516876,14.348633766174316,-25.22595977783203,17.61212730407715,-0.530624508857727,-0.25046443939208984,0.05137920379638672,-0.9484494924545288,9.757023811340332,3.6699624061584473
4_20251106_214239,1762436525143,4,0.2003542184829712,0.06315377354621887,0.567879855632782,0.7958531975746155,-0.12854155898094177,3.6301991939544678,1.6819206476211548,-1.4790740013122559,9.506559371948242,3.721341609954834,-0.014080431312322617,-0.14010944962501526,0.002176206558942795,14.383471488952637,-25.260711669921875,17.558740615844727,-0.530624508857727,-0.25046443939208984,0.05137920379638672,-0.9484494924545288,9.757023811340332,3.6699624061584473
4_20251106_214239,1762436525161,4,0.20135648548603058,0.06431908905506134,0.5674595832824707,0.7958066463470459,-0.13114780187606812,3.624389410018921,1.7161741256713867,-1.4144333600997925,9.309045791625977,3.4424290657043457,0.0018020514398813248,-0.1950872838497162,0.10052542388439178,14.397461891174316,-25.23426055908203,17.505693435668945,-0.28271591663360596,-0.3142862319946289,-0.17262697219848633,-1.1317174434661865,9.623332023620605,3.615056037902832
4_20251106_214239,1762436525182,4,0.20189672708511353,0.0664493665099144,0.567014217376709,0.79581218957901,-0.13326087594032288,3.6199557781219482,1.7320189476013184,-1.2408610582351685,9.294681549072266,3.297585964202881,0.0018020514398813248,-0.1950872838497162,0.10052542388439178,14.443175315856934,-25.293197631835938,17.438753128051758,-0.08731484413146973,-0.2629203796386719,-0.25397586822509766,-1.1535462141036987,9.557601928710938,3.5515618324279785
4_20251106_214239,1762436525200,4,0.20215314626693726,0.06873077899217606,0.5663761496543884,0.7960076928138733,-0.13514146208763123,3.615732431411743,1.7457271814346313,-1.1439001560211182,9.476633071899414,3.3358917236328125,-0.06722566485404968,-0.1847025752067566,0.11213186383247375,14.44579792022705,-25.243240356445312,17.466840744018555,0.007716774940490723,-0.0647745132446289,-0.17253613471984863,-1.1516169309616089,9.541407585144043,3.508427858352661
4_20251106_214239,1762436525220,4,0.2025780975818634,0.07076575607061386,0.5654550194740295,0.79637610912323,-0.13688057661056519,3.61173939704895,1.7590911388397217,-1.1343238353729248,9.548456192016602,3.6327600479125977,-0.06600393354892731,-0.16026799380779266,0.060819219797849655,14.551539421081543,-25.31102752685547,17.429121017456055,0.013834476470947266,0.005639076232910156,0.09946560859680176,-1.148158311843872,9.542817115783691,3.533294439315796
4_20251106_214239,1762436525238,4,0.20325447618961334,0.07236674427986145,0.5646265149116516,0.7966477274894714,-0.13688057661056519,3.61173939704895,1.7590911388397217,-1.1343238353729248,9.548456192016602,3.6327600479125977,0.017073670402169228,-0.09185115247964859,-0.027145300060510635,14.6112699508667,-25.320289611816406,17.498891830444336,0.013834476470947266,0.005639076232910156,0.09946560859680176,-1.148158311843872,9.542817115783691,3.533294439315796
4_20251106_214239,1762436525259,4,0.2041787952184677,0.07312917709350586,0.5645703077316284,0.7963815331459045,-0.14083875715732574,3.6029629707336426,1.7857615947723389,-1.3198662996292114,9.414386749267578,3.4136998653411865,0.08549051731824875,-0.052144937217235565,-0.10533598065376282,14.6112699508667,-25.320289611816406,17.498891830444336,-0.13479173183441162,-0.0850687026977539,-0.12116646766662598,-1.1850745677947998,9.499455451965332,3.5348663330078125
4_20251106_214239,1762436525277,4,0.20542185008525848,0.07327701896429062,0.5651461482048035,0.7956395149230957,-0.1436806619167328,3.598937749862671,1.7959680557250977,-1.5796260833740234,9.404809951782227,3.2556896209716797,0.07082977145910263,-0.04970148205757141,-0.14504221081733704,14.706954002380371,-25.33959197998047,17.556352615356445,-0.3156411647796631,-0.07571601867675781,-0.2233412265777588,-1.2639849185943604,9.480525970458984,3.4790308475494385
4_20251106_214239,1762436525297,4,0.206948921084404,0.07312572002410889,0.5656980872154236,0.7948650121688843,-0.14772364497184753,3.595003843307495,1.805105447769165,-1.8094594478607178,9.435933113098145,3.2520980834960938,0.047616906464099884,-0.041760239750146866,-0.12977057695388794,14.742003440856934,-25.362457275390625,17.570810317993164,-0.43637967109680176,-0.035674095153808594,-0.18154621124267578,-1.373079776763916,9.471607208251953,3.4336442947387695
4_20251106_214239,1762436525316,4,0.20832453668117523,0.07288122922182083,0.566116988658905,0.7942296862602234,-0.15422886610031128,3.590949535369873,1.8151497840881348,-1.9770464897155762,9.562820434570312,3.40891170501709,0.04028652608394623,-0.05397753044962883,-0.08212313055992126,14.779364585876465,-25.347381591796875,17.559030532836914,-0.4831733703613281,0.07297039031982422,-0.01978611946105957,-1.493873119354248,9.489850044250488,3.4286978244781494
4_20251106_214239,1762436525334,4,0.2094344049692154,0.07292810082435608,0.566430926322937,0.7937094569206238,-0.16084837913513184,3.587662696838379,1.8231267929077148,-2.030913829803467,9.4957857131958,3.346665143966675,0.08854483813047409,-0.0014431677991524339,-0.05219075083732605,14.826699256896973,-25.36931610107422,17.56046485900879,-0.4296325445175171,0.004748344421386719,-0.06562614440917969,-1.6012812852859497,9.491037368774414,3.4122912883758545
4_20251106_214239,1762436525353,4,0.20995259284973145,0.07275481522083282,0.5671813488006592,0.7930523157119751,-0.169042706489563,3.584501266479492,1.830466389656067,-2.168574333190918,9.540077209472656,3.171895980834961,0.13802489638328552,0.04376082122325897,-0.054023344069719315,14.841099739074707,-25.330711364746094,17.54823112487793,-0.4538344144821167,0.039231300354003906,-0.19231629371643066,-1.7147399187088013,9.500845909118652,3.3642122745513916
4_20251106_214239,1762436525372,4,0.21020522713661194,0.07231508940458298,0.568401038646698,0.7921518683433533,-0.17855195701122284,3.5811820030212402,1.8365041017532349,-2.343343734741211,9.38565731048584,3.0234618186950684,0.16184860467910767,0.11034507304430008,-0.027145300060510635,14.851876258850098,-25.35503387451172,17.548192977905273,-0.5028830766677856,-0.09215068817138672,-0.2726001739501953,-1.8404606580734253,9.477807998657227,3.2960619926452637
4_20251106_214239,1762436525391,4,0.2097117155790329,0.07142018526792526,0.5699635148048401,0.7912406325340271,-0.18898187577724457,3.577138662338257,1.8409534692764282,-2.3493289947509766,9.15342903137207,2.827145576477051,0.16429206728935242,0.12561669945716858,0.06814959645271301,14.891465187072754,-25.29053497314453,17.618566513061523,-0.4070945978164673,-0.2595033645629883,-0.37513303756713867,-1.9422343969345093,9.412932395935059,3.2022786140441895
4_20251106_214239,1762436525410,4,0.20855621993541718,0.0709812343120575,0.5715134739875793,0.7904671430587769,-0.19942261278629303,3.572270393371582,1.84359610080719,-2.136253833770752,9.03851318359375,2.6248443126678467,0.1135902926325798,0.12622755765914917,0.20681586861610413,14.881999015808105,-25.241233825683594,17.632646560668945,-0.15521550178527832,-0.29953575134277344,-0.4619474411010742,-1.9810383319854736,9.338048934936523,3.086791753768921
4_20251106_214239,1762436525430,4,0.2064576894044876,0.07123321294784546,0.5725963711738586,0.7902116179466248,-0.2091234028339386,3.5664076805114746,1.8449289798736572,-1.7376365661621094,9.010980606079102,2.6559677124023438,-0.017134755849838257,0.10484729707241058,0.3302105665206909,14.828019142150879,-25.119773864746094,17.64634895324707,0.19472134113311768,-0.2616548538208008,-0.34465932846069336,-1.932357907295227,9.272635459899902,3.000627040863037
4_20251106_214239,1762436525450,4,0.20361889898777008,0.0721067562699318,0.5725850462913513,0.7908769249916077,-0.2091234028339386,3.5664076805114746,1.8449289798736572,-1.7376365661621094,9.010980606079102,2.6559677124023438,-0.14114028215408325,0.04131736233830452,0.39618393778800964,14.805773735046387,-25.07207489013672,17.741037368774414,0.19472134113311768,-0.2616548538208008,-0.34465932846069336,-1.932357907295227,9.272635459899902,3.000627040863037
4_20251106_214239,1762436525469,4,0.20070737600326538,0.07367433607578278,0.5714414715766907,0.7923025488853455,-0.21958912909030914,3.554943799972534,1.8476327657699585,-0.7309181094169617,9.318622589111328,3.3035712242126465,-0.19672897458076477,-0.021601703017950058,0.3570885956287384,14.768115043640137,-25.087554931640625,17.793367385864258,0.8428513407707214,0.06448173522949219,0.25536465644836426,-1.573769450187683,9.254140853881836,3.0482065677642822
4_20251106_214239,1762436525486,4,0.19848164916038513,0.07554110139608383,0.5697140097618103,0.7939298152923584,-0.2201356440782547,3.5508222579956055,1.850486159324646,-0.48791706562042236,9.434736251831055,3.674656629562378,-0.19672897458076477,-0.021601703017950058,0.3570885956287384,14.680500984191895,-25.131057739257812,17.81617546081543,0.8686819076538086,0.14447593688964844,0.5011601448059082,-1.356598973274231,9.290260314941406,3.1734964847564697
4_20251106_214239,1762436525506,4,0.19707907736301422,0.07680147141218185,0.5680757164955139,0.7953309416770935,-0.21793463826179504,3.5468552112579346,1.8556901216506958,-0.43165573477745056,9.500574111938477,3.8362584114074707,-0.1893986165523529,-0.004497490357607603,0.24041342735290527,14.642743110656738,-25.14667510986328,17.882020950317383,0.7399545907974243,0.16825103759765625,0.5302095413208008,-1.1716103553771973,9.33232307434082,3.30604887008667
4_20251106_214239,1762436525525,4,0.19649264216423035,0.07702349871397018,0.5669751167297363,0.79623943567276,-0.21793463826179504,3.5468552112579346,1.8556901216506958,-0.43165573477745056,9.500574111938477,3.8362584114074707,-0.13503164052963257,0.03581957891583443,0.08769726753234863,14.577485084533691,-25.22612762451172,17.89150047302246,0.7399545907974243,0.16825103759765625,0.5302095413208008,-1.1716103553771973,9.33232307434082,3.30604887008667
4_20251106_214239,1762436525544,4,0.1969451904296875,0.07658085227012634,0.5665350556373596,0.7964835166931152,-0.2101241648197174,3.5406596660614014,1.8686254024505615,-0.8637905716896057,9.371292114257812,3.7416913509368896,0.004245509393513203,0.04803687334060669,-0.16520074009895325,14.464076042175293,-25.307945251464844,17.817922592163086,0.14759057760238647,0.009426116943359375,0.2648296356201172,-1.0113811492919922,9.361865997314453,3.4768617153167725
4_20251106_214239,1762436525563,4,0.19810941815376282,0.07558513432741165,0.5666791200637817,0.7961873412132263,-0.2101241648197174,3.5406596660614014,1.8686254024505615,-0.8637905716896057,9.371292114257812,3.7416913509368896,0.004245509393513203,0.04803687334060669,-0.16520074009895325,14.437800407409668,-25.33531951904297,17.883996963500977,0.14759057760238647,0.009426116943359375,0.2648296356201172,-1.0113811492919922,9.361865997314453,3.4768617153167725
4_20251106_214239,1762436525582,4,0.19947682321071625,0.07436449080705643,0.5670748949050903,0.795678973197937,-0.20646126568317413,3.5373666286468506,1.8755580186843872,-1.1415060758590698,9.264755249023438,3.5346016883850098,0.037843070924282074,0.037041306495666504,-0.1633681356906891,14.407380104064941,-25.44951629638672,17.840089797973633,-0.10409998893737793,-0.07768821716308594,0.046192169189453125,-1.037406086921692,9.342443466186523,3.4884095191955566
4_20251106_214239,1762436525601,4,0.20069217681884766,0.07339723408222198,0.5675120949745178,0.7951512336730957,-0.2025039941072464,3.530879020690918,1.8865020275115967,-1.4216156005859375,9.238420486450195,3.2066102027893066,0.03356701880693436,0.023602286353707314,-0.11816415190696716,14.394476890563965,-25.47447967529297,17.74445915222168,-0.26025867462158203,-0.06408500671386719,-0.21463489532470703,-1.1613569259643555,9.302505493164062,3.4212450981140137
4_20251106_214239,1762436525620,4,0.20160983502864838,0.07270107418298721,0.5678867101669312,0.7947155237197876,-0.20202340185642242,3.527446985244751,1.8906596899032593,-1.5173795223236084,9.210887908935547,3.170698881149292,0.03356701880693436,0.023602286353707314,-0.11816415190696716,14.361132621765137,-25.42609405517578,17.689977645874023,-0.28481805324554443,-0.07329463958740234,-0.20043706893920898,-1.232561469078064,9.28418254852295,3.371135950088501
4_20251106_214239,1762436525640,4,0.20226311683654785,0.07233061641454697,0.5680426359176636,0.794471800327301,-0.20244351029396057,3.523834466934204,1.8940627574920654,-1.5520938634872437,9.155823707580566,3.171895980834961,-0.024465132504701614,0.009552396833896637,-0.010041087865829468,14.402316093444824,-25.34783172607422,17.638967514038086,-0.25562596321105957,-0.10268688201904297,-0.1593918800354004,-1.296467900276184,9.25851058959961,3.3312878608703613
4_20251106_214239,1762436525660,4,0.20252211391925812,0.0722106546163559,0.5679243206977844,0.7945013642311096,-0.20372533798217773,3.5200021266937256,1.8972101211547852,-1.547305703163147,9.24679946899414,3.204216241836548,-0.044623665511608124,-0.0008323030779138207,0.04371500760316849,14.39163875579834,-25.323379516601562,17.625490188598633,-0.2006702423095703,-0.009368896484375,-0.10165715217590332,-1.3466354608535767,9.256168365478516,3.305873394012451
4_20251106_214239,1762436525680,4,0.20245692133903503,0.07241717725992203,0.5675939917564392,0.7947351336479187,-0.20372533798217773,3.5200021266937256,1.8972101211547852,-1.547305703163147,9.24679946899414,3.204216241836548,-0.0666147992014885,-0.0026648971252143383,0.0840320736169815,14.443202018737793,-25.269973754882812,17.628507614135742,-0.2006702423095703,-0.009368896484375,-0.10165715217590332,-1.3466354608535767,9.256168365478516,3.305873394012451
4_20251106_214239,1762436525698,4,0.2020619809627533,0.07278032600879669,0.5670715570449829,0.7951753735542297,-0.2074403464794159,3.5141701698303223,1.9022164344787598,-1.4958326816558838,9.341365814208984,3.266462802886963,-0.0666147992014885,-0.0026648971252143383,0.0840320736169815,14.443202018737793,-25.269973754882812,17.628507614135742,-0.08341991901397705,0.05586719512939453,-0.025797367095947266,-1.4124127626419067,9.28549861907959,3.29226016998291
4_20251106_214239,1762436525716,4,0.20125532150268555,0.07319869101047516,0.5665979385375977,0.795678973197937,-0.2074403464794159,3.5141701698303223,1.9022164344787598,-1.4958326816558838,9.341365814208984,3.266462802886963,-0.05928441882133484,0.022380556911230087,0.14817285537719727,14.504849433898926,-25.24182891845703,17.726102828979492,-0.08341991901397705,0.05586719512939453,-0.025797367095947266,-1.4124127626419067,9.28549861907959,3.29226016998291
4_20251106_214239,1762436525735,4,0.20025594532489777,0.07375576347112656,0.5661280751228333,0.7962139248847961,-0.20912404358386993,3.511937141418457,1.9043351411819458,-1.3509896993637085,9.419174194335938,3.2377336025238037,-0.06905825436115265,0.022380556911230087,0.15794670581817627,14.481169700622559,-25.242469787597656,17.63050651550293,0.049138426780700684,0.10694026947021484,-0.04362130165100098,-1.4001281261444092,9.312233924865723,3.2813549041748047
4_20251106_214239,1762436525755,4,0.19919776916503906,0.07439450919628143,0.5655815601348877,0.796808123588562,-0.2109462022781372,3.5082156658172607,1.9084776639938354,-1.1558705568313599,9.358125686645508,3.3825767040252686,-0.06905825436115265,0.022380556911230087,0.15794670581817627,14.469082832336426,-25.243125915527344,17.616498947143555,0.17452001571655273,0.02707195281982422,0.0829770565032959,-1.3303905725479126,9.331053733825684,3.2995996475219727
4_20251106_214239,1762436525773,4,0.19805316627025604,0.07503390312194824,0.5648335218429565,0.7975637316703796,-0.21059702336788177,3.5066964626312256,1.9109951257705688,-0.9763132333755493,9.359322547912598,3.531010627746582,-0.10387755185365677,0.0016111558070406318,0.17321830987930298,14.391032218933105,-25.335792541503906,17.61170768737793,0.28326189517974854,0.022614479064941406,0.18512892723083496,-1.2595751285552979,9.336708068847656,3.345881700515747
4_20251106_214239,1762436525792,4,0.1969301551580429,0.0758189931511879,0.5639445185661316,0.7983962893486023,-0.208931103348732,3.5051462650299072,1.9142147302627563,-0.7799971103668213,9.32700252532959,3.599242687225342,-0.08738420158624649,-0.01793651469051838,0.1664988100528717,14.337367057800293,-25.415252685546875,17.702775955200195,0.38366246223449707,-0.0077648162841796875,0.20268869400024414,-1.1636595726013184,9.33476734161377,3.3965539932250977
4_20251106_214239,1762436525812,4,0.19582000374794006,0.0766931101679802,0.5631279945373535,0.7991617918014526,-0.20554572343826294,3.5037035942077637,1.9183671474456787,-0.5980455875396729,9.370095252990723,3.703385829925537,-0.07333431392908096,-0.02465602569282055,0.10785579681396484,14.245621681213379,-25.533958435058594,17.710481643676758,0.4524911642074585,0.02826213836669922,0.24546551704406738,-1.0505367517471313,9.341833114624023,3.4579203128814697
4_20251106_214239,1762436525831,4,0.195319265127182,0.07747264206409454,0.5624139904975891,0.7997117638587952,-0.20130807161331177,3.5027482509613037,1.9231756925582886,-0.619592547416687,9.468254089355469,3.844637870788574,-0.05745182931423187,-0.002054032403975725,-0.010041087865829468,14.19373607635498,-25.610992431640625,17.558256149291992,0.3447554111480713,0.10113716125488281,0.3093740940093994,-0.9643479585647583,9.367116928100586,3.535263776779175
4_20251106_214239,1762436525849,4,0.19558309018611908,0.07752496749162674,0.561927080154419,0.7999843955039978,-0.19700782001018524,3.5022053718566895,1.9282416105270386,-0.7668294906616211,9.4957857131958,3.8350610733032227,-0.05745182931423187,-0.002054032403975725,-0.010041087865829468,14.118393898010254,-25.665176391601562,17.473161697387695,0.15801477432250977,0.1029348373413086,0.2398378849029541,-0.9248442649841309,9.392850875854492,3.5952231884002686
4_20251106_214239,1762436525870,4,0.19659727811813354,0.07682988047599792,0.5619933605194092,0.7997562885284424,-0.19258271157741547,3.5015995502471924,1.9336692094802856,-1.026589274406433,9.391643524169922,3.5393900871276855,-0.001863136887550354,0.03581957891583443,-0.1273271143436432,14.031977653503418,-25.69544219970703,17.428651809692383,-0.08139598369598389,-0.0009660720825195312,-0.044666290283203125,-0.9451932907104492,9.392609596252441,3.5840563774108887
4_20251106_214239,1762436525889,4,0.19794310629367828,0.0756566971540451,0.5626744627952576,0.7990569472312927,-0.18966925144195557,3.5007576942443848,1.937423586845398,-1.2695902585983276,9.275527954101562,3.252098321914673,0.06777544319629669,0.04986947029829025,-0.20002003014087677,13.981724739074707,-25.72386932373047,17.439680099487305,-0.2595175504684448,-0.09366512298583984,-0.2655665874481201,-1.0100727081298828,9.369193077087402,3.517664909362793
4_20251106_214239,1762436525908,4,0.1992863267660141,0.07451833039522171,0.5634523034095764,0.7982816100120544,-0.18966925144195557,3.5007576942443848,1.937423586845398,-1.2695902585983276,9.275527954101562,3.252098321914673,0.00668896920979023,0.022380556911230087,-0.1523725837469101,13.96994686126709,-25.712509155273438,17.48000144958496,-0.2595175504684448,-0.09366512298583984,-0.2655665874481201,-1.0100727081298828,9.369193077087402,3.517664909362793
4_20251106_214239,1762436525926,4,0.20049546658992767,0.07338214665651321,0.5640454888343811,0.7976649403572083,-0.18786633014678955,3.4989562034606934,1.9423506259918213,-1.5844142436981201,9.323410987854004,3.40891170501709,-0.03973674774169922,0.0022220206446945667,-0.08395572006702423,14.020001411437988,-25.684349060058594,17.496007919311523,-0.3896043300628662,-0.03102397918701172,-0.03780841827392578,-1.194809913635254,9.354434967041016,3.4467201232910156
4_20251106_214239,1762436525947,4,0.20133034884929657,0.07241076231002808,0.5643222332000732,0.7973476052284241,-0.188677117228508,3.497915267944336,1.9448364973068237,-1.5425174236297607,9.324607849121094,3.4771435260772705,-0.03301724046468735,-0.008162680082023144,-0.00943022407591343,14.069029808044434,-25.6923828125,17.3625431060791,-0.2781660556793213,-0.02386188507080078,0.024338722229003906,-1.2643513679504395,9.348469734191895,3.4528048038482666
4_20251106_214239,1762436525965,4,0.20166204869747162,0.07162754982709885,0.5643573999404907,0.7973096370697021,-0.18981733918190002,3.4970548152923584,1.94707453250885,-1.4132362604141235,9.377277374267578,3.450808525085449,-0.03301724046468735,-0.008162680082023144,-0.00943022407591343,14.121989250183105,-25.62548065185547,17.271211624145508,-0.11910784244537354,0.023046493530273438,-0.0015971660614013672,-1.29412841796875,9.354230880737305,3.4524056911468506
4_20251106_214239,1762436525984,4,0.2016059309244156,0.07124336808919907,0.564376175403595,0.7973449230194092,-0.19073890149593353,3.4961721897125244,1.949108362197876,-1.2516344785690308,9.310242652893066,3.4603848457336426,-0.007971784099936485,0.00833066739141941,0.06020835414528847,14.136401176452637,-25.57526397705078,17.353857040405273,0.03399515151977539,-0.035190582275390625,0.006383419036865234,-1.2856296300888062,9.345433235168457,3.4540014266967773
4_20251106_214239,1762436526003,4,0.20133696496486664,0.07114811986684799,0.564494252204895,0.7973378300666809,-0.19127416610717773,3.4950690269470215,1.95097815990448,-1.1439001560211182,9.265952110290527,3.392153024673462,-0.0036957310512661934,0.016882775351405144,0.04615846648812294,14.185751914978027,-25.559661865234375,17.369600296020508,0.11338365077972412,-0.0635843276977539,-0.049478769302368164,-1.2572838068008423,9.329536437988281,3.44163179397583
4_20251106_214239,1762436526022,4,0.20107276737689972,0.07117684185504913,0.564579427242279,0.7973416447639465,-0.19133737683296204,3.493830680847168,1.9527667760849,-1.1020034551620483,9.285104751586914,3.4148969650268555,-0.029962914064526558,0.016271909698843956,0.041271548718214035,14.212040901184082,-25.520668029785156,17.398405075073242,0.12422430515289307,-0.03554534912109375,-0.021387815475463867,-1.2262277603149414,9.320650100708008,3.4362847805023193
4_20251106_214239,1762436526040,4,0.20090605318546295,0.0713757798075676,0.5645001530647278,0.7974219918251038,-0.19088214635849,3.492540121078491,1.9545763731002808,-1.019407033920288,9.226449966430664,3.550163507461548,-0.029962914064526558,0.016271909698843956,0.041271548718214035,14.237215995788574,-25.506385803222656,17.386133193969727,0.1654566526412964,-0.07536029815673828,0.09110283851623535,-1.1848636865615845,9.301810264587402,3.4590606689453125
4_20251106_214239,1762436526060,4,0.200664684176445,0.07156866043806076,0.5643136501312256,0.7975974678993225,-0.19088214635849,3.492540121078491,1.9545763731002808,-1.019407033920288,9.226449966430664,3.550163507461548,-0.01896734908223152,0.012606720440089703,0.028443388640880585,14.286046028137207,-25.514686584472656,17.279699325561523,0.1654566526412964,-0.07536029815673828,0.09110283851623535,-1.1848636865615845,9.301810264587402,3.4590606689453125
4_20251106_214239,1762436526079,4,0.20054864883422852,0.07186827063560486,0.5640788078308105,0.7977657914161682,-0.18954241275787354,3.4906630516052246,1.957034707069397,-0.9643427133560181,9.198917388916016,3.5561487674713135,-0.012247837148606777,0.00833066739141941,-0.0008781170472502708,14.273846626281738,-25.52709197998047,17.1843318939209,0.17641675472259521,-0.08231449127197266,0.07767033576965332,-1.1407594680786133,9.281231880187988,3.47847843170166
4_20251106_214239,1762436526100,4,0.20075349509716034,0.07220481336116791,0.5638684034347534,0.7978326678276062,-0.18599405884742737,3.4873573780059814,1.9613057374954224,-1.0002541542053223,9.264755249023438,3.545375347137451,-0.012247837148606777,0.00833066739141941,-0.0008781170472502708,14.261462211608887,-25.528152465820312,17.210874557495117,0.07843172550201416,-0.004607200622558594,0.048368215560913086,-1.0786858797073364,9.269362449645996,3.497007131576538
4_20251106_214239,1762436526118,4,0.20130373537540436,0.07245198637247086,0.5636410117149353,0.7978322505950928,-0.18439508974552155,3.485921859741211,1.9636393785476685,-1.1115797758102417,9.277923583984375,3.653109550476074,-0.030573779717087746,-0.009995274245738983,-0.06746236979961395,14.298823356628418,-25.513076782226562,17.199094772338867,-0.02631509304046631,0.0068492889404296875,0.12488198280334473,-1.0852646827697754,9.271074295043945,3.5282275676727295
4_20251106_214239,1762436526137,4,0.20205911993980408,0.07246296852827072,0.56337571144104,0.7978277206420898,-0.18298867344856262,3.484488010406494,1.966328740119934,-1.1570676565170288,9.273134231567383,3.655503749847412,-0.011636972427368164,-0.010606138966977596,-0.06440804898738861,14.298823356628418,-25.513076782226562,17.199094772338867,-0.057442426681518555,0.00164794921875,0.1018209457397461,-1.0996252298355103,9.271486282348633,3.553682804107666
4_20251106_214239,1762436526156,4,0.2028646469116211,0.0723557323217392,0.5631517171859741,0.7977911829948425,-0.18181346356868744,3.483215808868408,1.9689133167266846,-1.1582646369934082,9.304258346557617,3.564527988433838,0.00485637504607439,-0.023434296250343323,-0.05768853798508644,14.342732429504395,-25.59766387939453,17.185693740844727,-0.04691147804260254,0.02621746063232422,0.00867605209350586,-1.1113531589508057,9.278040885925293,3.555851936340332
4_20251106_214239,1762436526174,4,0.20359471440315247,0.07228148728609085,0.563042163848877,0.7976891994476318,-0.180983304977417,3.4821557998657227,1.9711576700210571,-1.2037525177001953,9.312637329101562,3.5226316452026367,0.00974329188466072,-0.031986404210329056,-0.06196458265185356,14.334366798400879,-25.53527069091797,17.14597511291504,-0.07391953468322754,0.027677536010742188,-0.02657604217529297,-1.1298329830169678,9.28495979309082,3.5492076873779297
4_20251106_214239,1762436526194,4,0.20443087816238403,0.07233833521604538,0.5630813837051392,0.7974424958229065,-0.18060830235481262,3.481022834777832,1.9732712507247925,-1.2947282791137695,9.280317306518555,3.4651730060577393,0.010354157537221909,-0.031986404210329056,-0.0650189071893692,14.369601249694824,-25.569480895996094,17.038522720336914,-0.13191628456115723,-0.0037136077880859375,-0.06722784042358398,-1.1628119945526123,9.28403091430664,3.5324008464813232
4_20251106_214239,1762436526213,4,0.20527450740337372,0.0723147839307785,0.5631945729255676,0.7971479296684265,-0.18069419264793396,3.480062484741211,1.9748432636260986,-1.3174723386764526,9.306652069091797,3.410108804702759,0.010354157537221909,-0.031986404210329056,-0.0650189071893692,14.455002784729004,-25.56378936767578,17.028440475463867,-0.12372827529907227,0.018096923828125,-0.09783387184143066,-1.1937440633773804,9.288555145263672,3.5079426765441895
4_20251106_214239,1762436526232,4,0.2060975730419159,0.07223037630319595,0.5632438659667969,0.7969083786010742,-0.18092288076877594,3.479248523712158,1.9760701656341553,-1.2552257776260376,9.309045791625977,3.4316554069519043,-0.006750054657459259,-0.03381899744272232,-0.05157988891005516,14.492363929748535,-25.54871368408203,17.016660690307617,-0.04918539524078369,0.01639270782470703,-0.061029911041259766,-1.206040382385254,9.29265308380127,3.492685317993164
4_20251106_214239,1762436526251,4,0.2065223604440689,0.0721515417098999,0.5633302330970764,0.7967444658279419,-0.18116824328899384,3.4784719944000244,1.9770450592041016,-1.2073438167572021,9.319819450378418,3.3873648643493652,-0.012247837148606777,-0.038095053285360336,-0.024701841175556183,14.579583168029785,-25.505752563476562,17.04791831970215,-0.0010427236557006836,0.02173328399658203,-0.08425617218017578,-1.2063010931015015,9.298086166381836,3.471621036529541
4_20251106_214239,1762436526270,4,0.20717363059520721,0.07231330126523972,0.5633520483970642,0.7965452671051025,-0.18165527284145355,3.4779391288757324,1.9776511192321777,-1.3031076192855835,9.359322547912598,3.3718032836914062,-0.01591302454471588,-0.032597269862890244,-0.04730383679270744,14.61965274810791,-25.45220184326172,16.95583152770996,-0.07744526863098145,0.048989295959472656,-0.07985401153564453,-1.225662350654602,9.310333251953125,3.451657295227051
4_20251106_214239,1762436526291,4,0.207967147231102,0.07248324155807495,0.5634086728096008,0.796282947063446,-0.18165527284145355,3.4779391288757324,1.9776511192321777,-1.3031076192855835,9.359322547912598,3.3718032836914062,-0.03912588581442833,-0.032597269862890244,-0.030199620872735977,14.666789054870605,-25.474411010742188,16.984296798706055,-0.07744526863098145,0.048989295959472656,-0.07985401153564453,-1.225662350654602,9.310333251953125,3.451657295227051
4_20251106_214239,1762436526310,4,0.20863620936870575,0.07253161072731018,0.5633468627929688,0.7961472272872925,-0.18392416834831238,3.4771580696105957,1.979138731956482,-1.3414132595062256,9.32700252532959,3.624380588531494,-0.04889972507953644,-0.04298197105526924,0.016226094216108322,14.733048439025879,-25.382003784179688,16.93453025817871,-0.0633549690246582,0.007987022399902344,0.1394634246826172,-1.2780582904815674,9.319015502929688,3.484917163848877
4_20251106_214239,1762436526329,4,0.20902030169963837,0.07265350967645645,0.5630992650985718,0.796210527420044,-0.1847783476114273,3.4769978523254395,1.9806989431381226,-1.16903817653656,9.38326358795166,3.6854300498962402,-0.03179550915956497,-0.03748418763279915,0.02966511994600296,14.756110191345215,-25.4053955078125,16.92146873474121,0.08721601963043213,0.051398277282714844,0.16041040420532227,-1.2562541961669922,9.331865310668945,3.525019645690918
4_20251106_214239,1762436526347,4,0.20926997065544128,0.07291349768638611,0.5627313852310181,0.7963812351226807,-0.18501682579517365,3.477137804031372,1.9822834730148315,-1.0565154552459717,9.444313049316406,3.626774787902832,-0.012247837148606777,-0.03320813551545143,0.007673989050090313,14.77051067352295,-25.366798400878906,16.90923500061035,0.1597909927368164,0.08995819091796875,0.08140420913696289,-1.216306447982788,9.354354858398438,3.545370578765869
4_20251106_214239,1762436526367,4,0.20954303443431854,0.07333098351955414,0.5624447464942932,0.7964736223220825,-0.1849062442779541,3.4775807857513428,1.984082579612732,-1.0888359546661377,9.464662551879883,3.6219863891601562,-0.012247837148606777,-0.03320813551545143,0.007673989050090313,14.744221687316895,-25.405784606933594,16.880430221557617,0.10197639465332031,0.08824634552001953,0.06129264831542969,-1.190812349319458,9.376416206359863,3.5606937408447266
4_20251106_214239,1762436526385,4,0.2102067470550537,0.07400113344192505,0.5622743368148804,0.7963570356369019,-0.18492865562438965,3.4780664443969727,1.9859336614608765,-1.2372699975967407,9.400022506713867,3.612410068511963,0.014630211517214775,-0.05886445194482803,-0.05707767233252525,14.768494606018066,-25.404335021972656,16.894927978515625,-0.03716611862182617,0.018884658813476562,0.04137301445007324,-1.2001038789749146,9.38113784790039,3.5710370540618896
4_20251106_214239,1762436526404,4,0.2110690474510193,0.07451654225587845,0.562280535697937,0.7960764765739441,-0.18556752800941467,3.4784088134765625,1.9875001907348633,-1.4252067804336548,9.337775230407715,3.501084327697754,0.014630211517214775,-0.05886445194482803,-0.05707767233252525,14.746844291687012,-25.35582733154297,16.908519744873047,-0.1800823211669922,-0.034689903259277344,-0.05596208572387695,-1.2451244592666626,9.372465133666992,3.557046413421631
4_20251106_214239,1762436526424,4,0.21209728717803955,0.07460875064134598,0.5624482035636902,0.7956759929656982,-0.18706263601779938,3.478428602218628,1.9885327816009521,-1.5688526630401611,9.261164665222168,3.390955924987793,0.034177884459495544,-0.03381899744272232,-0.08701004087924957,14.782500267028809,-25.36627197265625,16.936758041381836,-0.2589825391769409,-0.08903980255126953,-0.1328723430633545,-1.3098701238632202,9.350204467773438,3.5238282680511475
4_20251106_214239,1762436526442,4,0.21307797729969025,0.07420767098665237,0.5628547668457031,0.7951638102531433,-0.18965989351272583,3.4780948162078857,1.9888896942138672,-1.7388336658477783,9.221661567687988,3.296389102935791,0.024404047057032585,-0.016103921458125114,-0.07418188452720642,14.768397331237793,-25.404464721679688,16.908443450927734,-0.34317076206207275,-0.10283374786376953,-0.18195152282714844,-1.3956629037857056,9.324495315551758,3.4783406257629395
4_20251106_214239,1762436526461,4,0.2139160931110382,0.07351085543632507,0.5633448362350464,0.7946563363075256,-0.19335125386714935,3.47719669342041,1.9884767532348633,-1.8417798280715942,9.112730026245117,3.204216241836548,0.00668896920979023,-0.013660461641848087,-0.03142135217785835,14.757014274597168,-25.39257049560547,16.89470100402832,-0.3568936586380005,-0.16941165924072266,-0.2192995548248291,-1.4848861694335938,9.28214168548584,3.423515796661377
4_20251106_214239,1762436526480,4,0.21440157294273376,0.07268039882183075,0.5638196468353271,0.7942650318145752,-0.19769272208213806,3.4757637977600098,1.987430214881897,-1.789109706878662,9.070833206176758,3.185063362121582,-0.030573779717087746,-0.03320813551545143,0.019280418753623962,14.842724800109863,-25.374855041503906,16.938947677612305,-0.24337875843048096,-0.16904640197753906,-0.19076204299926758,-1.5457309484481812,9.239879608154297,3.3758254051208496
4_20251106_214239,1762436526499,4,0.21468999981880188,0.07204057276248932,0.5640267133712769,0.7940983772277832,-0.20228451490402222,3.4740142822265625,1.9862968921661377,-1.7160897254943848,9.098365783691406,3.325118064880371,-0.030573779717087746,-0.03320813551545143,0.019280418753623962,14.903048515319824,-25.38330841064453,16.9276180267334,-0.13628697395324707,-0.11321067810058594,-0.04056596755981445,-1.5798027515411377,9.211576461791992,3.3656840324401855
4_20251106_214239,1762436526519,4,0.21479734778404236,0.07165015488862991,0.5638582110404968,0.7942243218421936,-0.20693399012088776,3.4720370769500732,1.9858298301696777,-1.5987788438796997,9.13667106628418,3.5848779678344727,-0.07455604523420334,-0.03931678086519241,0.05226711556315422,14.940608024597168,-25.367965698242188,16.888803482055664,-0.015180826187133789,-0.05992412567138672,0.1753549575805664,-1.583598017692566,9.196595191955566,3.4095230102539062
4_20251106_214239,1762436526539,4,0.2146143764257431,0.07077445834875107,0.5636006593704224,0.7945350408554077,-0.20693399012088776,3.4720370769500732,1.9858298301696777,-1.5987788438796997,9.13667106628418,3.5848779678344727,-0.053786635398864746,0.07613665610551834,-0.0033215759322047234,14.940608024597168,-25.367965698242188,16.888803482055664,-0.015180826187133789,-0.05992412567138672,0.1753549575805664,-1.583598017692566,9.196595191955566,3.4095230102539062
4_20251106_214239,1762436526559,4,0.21441946923732758,0.06953134387731552,0.5633402466773987,0.79488205909729,-0.21520459651947021,3.467238426208496,1.9865331649780273,-1.5173795223236084,9.089986801147461,3.4627788066864014,-0.028130320832133293,0.08529961854219437,-0.027756165713071823,14.938084602355957,-25.41779327392578,16.847200393676758,0.05272233486175537,-0.058844566345214844,0.004013776779174805,-1.5701018571853638,9.148831367492676,3.4587650299072266
4_20251106_214239,1762436526576,4,0.2143327295780182,0.06814566999673843,0.5631767511367798,0.7951412200927734,-0.21859808266162872,3.4651803970336914,1.986781120300293,-1.5520938634872437,9.180961608886719,3.435246706008911,-0.047067128121852875,0.07124973088502884,-0.04547123983502388,14.938084602355957,-25.41779327392578,16.847200393676758,0.014406323432922363,0.025704383850097656,-0.018814802169799805,-1.566500186920166,9.155257225036621,3.454061508178711
4_20251106_214239,1762436526596,4,0.2144595980644226,0.06698640435934067,0.5631034970283508,0.7952574491500854,-0.21859808266162872,3.4651803970336914,1.986781120300293,-1.5520938634872437,9.180961608886719,3.435246706008911,-0.047067128121852875,0.07124973088502884,-0.04547123983502388,14.94835376739502,-25.45439910888672,16.819866180419922,0.014406323432922363,0.025704383850097656,-0.018814802169799805,-1.566500186920166,9.155257225036621,3.454061508178711
4_20251106_214239,1762436526615,4,0.21469102799892426,0.06561242789030075,0.5630924701690674,0.7953173518180847,-0.22581785917282104,3.4614715576171875,1.98764967918396,-1.6777842044830322,9.185750961303711,3.528616428375244,-0.04645626246929169,0.11034507304430008,-0.07967966794967651,15.022261619567871,-25.44855499267578,16.714677810668945,-0.07964897155761719,0.01683521270751953,0.05326962471008301,-1.598135232925415,9.168915748596191,3.475346803665161
4_20251106_214239,1762436526634,4,0.2150261402130127,0.06401947885751724,0.5631516575813293,0.7953147292137146,-0.22964051365852356,3.4596917629241943,1.9882932901382446,-1.656237244606018,9.166597366333008,3.517843246459961,-0.04523453116416931,0.12134063988924026,-0.0699058324098587,15.057211875915527,-25.4715576171875,16.74265480041504,-0.04648160934448242,-0.0018548965454101562,0.0339970588684082,-1.6097556352615356,9.168452262878418,3.4838461875915527
4_20251106_214239,1762436526654,4,0.21513687074184418,0.06227158010005951,0.563203752040863,0.7953866720199585,-0.23304720222949982,3.4580671787261963,1.989013433456421,-1.593990683555603,9.161808967590332,3.534601926803589,-0.04523453116416931,0.12134063988924026,-0.0699058324098587,15.047635078430176,-25.434005737304688,16.67537498474121,0.012611985206604004,-0.005314826965332031,0.040604591369628906,-1.606602668762207,9.167123794555664,3.49399733543396
4_20251106_214239,1762436526671,4,0.2149260938167572,0.06062333285808563,0.5631925463676453,0.7955788969993591,-0.23601731657981873,3.45652437210083,1.9898381233215332,-1.5676555633544922,9.13427734375,3.565725088119507,-0.05195404589176178,0.11523199826478958,-0.04852556809782982,15.03564739227295,-25.434532165527344,16.647851943969727,0.031157732009887695,-0.026277542114257812,0.05738210678100586,-1.5988132953643799,9.160554885864258,3.508342981338501
4_20251106_214239,1762436526691,4,0.21480658650398254,0.0594414658844471,0.5629969835281372,0.7958387136459351,-0.23889395594596863,3.454848527908325,1.991257905960083,-1.5137883424758911,9.145050048828125,3.689021110534668,-0.08432988077402115,0.10118211060762405,0.0070631243288517,15.04944133758545,-25.408355712890625,16.621837615966797,0.06801998615264893,-0.012403488159179688,0.14454245567321777,-1.58180832862854,9.157453536987305,3.54447865486145
4_20251106_214239,1762436526710,4,0.21442805230617523,0.058460135012865067,0.5625832080841064,0.7963059544563293,-0.2407851219177246,3.4534943103790283,1.9930487871170044,-1.350989818572998,9.189340591430664,3.7788000106811523,-0.08005382865667343,0.11767545342445374,0.03760635852813721,15.086197853088379,-25.40570068359375,16.596277236938477,0.1846548318862915,0.02550983428955078,0.18745708465576172,-1.5356446504592896,9.163830757141113,3.5913429260253906
4_20251106_214239,1762436526729,4,0.21374234557151794,0.057626787573099136,0.5620647072792053,0.7969169616699219,-0.24157953262329102,3.452364444732666,1.9952980279922485,-1.1403089761734009,9.262361526489258,3.7093710899353027,-0.07027998566627502,0.10362556576728821,0.05043451860547066,15.097369194030762,-25.429481506347656,16.54217529296875,0.31626856327056885,0.07882499694824219,0.09442257881164551,-1.4565775394439697,9.183536529541016,3.6149485111236572
4_20251106_214239,1762436526749,4,0.21304979920387268,0.05732158198952675,0.5614615082740784,0.7975493669509888,-0.2409919649362564,3.4516987800598145,1.997751235961914,-0.981101393699646,9.312637329101562,3.769223690032959,-0.08127555251121521,0.06208676099777222,0.04432586953043938,15.126069068908691,-25.3524169921875,16.53122329711914,0.3803809881210327,0.10328102111816406,0.12342000007629395,-1.3614823818206787,9.209356307983398,3.645803689956665
4_20251106_214239,1762436526768,4,0.21258720755577087,0.057702213525772095,0.560783863067627,0.7981219291687012,-0.2391607016324997,3.4514052867889404,2.0010781288146973,-0.9523721933364868,9.33178997039795,3.9332194328308105,-0.07577776908874512,0.026656610891222954,0.0052305301651358604,15.054883003234863,-25.30816650390625,16.650983810424805,0.3272881507873535,0.0979471206665039,0.2299327850341797,-1.2796603441238403,9.233842849731445,3.703286647796631
4_20251106_214239,1762436526787,4,0.21270278096199036,0.05852098390460014,0.5600151419639587,0.7985711097717285,-0.236639603972435,3.451359987258911,2.004629373550415,-0.9631456136703491,9.313834190368652,3.9032931327819824,-0.02935204841196537,0.03765217214822769,-0.033864814788103104,15.029805183410645,-25.322311401367188,16.649738311767578,0.25321173667907715,0.06399250030517578,0.1600050926208496,-1.2163573503494263,9.249841690063477,3.743288040161133
4_20251106_214239,1762436526806,4,0.21290744841098785,0.05905570462346077,0.5594586730003357,0.7988672256469727,-0.236639603972435,3.451359987258911,2.004629373550415,-0.9631456136703491,9.313834190368652,3.9032931327819824,-0.02935204841196537,0.03765217214822769,-0.033864814788103104,14.954066276550293,-25.377037048339844,16.61870765686035,0.25321173667907715,0.06399250030517578,0.1600050926208496,-1.2163573503494263,9.249841690063477,3.743288040161133
4_20251106_214239,1762436526824,4,0.2132176160812378,0.05946610867977142,0.5592563152313232,0.7988957762718201,-0.2332322895526886,3.451068878173828,2.008132219314575,-0.9248400926589966,9.168991088867188,3.7273268699645996,0.007910696789622307,0.0474260076880455,-0.0546342134475708,14.917508125305176,-25.379417419433594,16.61723518371582,0.23321378231048584,-0.06468009948730469,-0.012768983840942383,-1.1580538749694824,9.233671188354492,3.740095853805542
4_20251106_214239,1762436526843,4,0.21371780335903168,0.05997063219547272,0.5593662261962891,0.798647403717041,-0.2294483780860901,3.450031042098999,2.010503053665161,-0.8997020721435547,8.951128005981445,3.452005386352539,0.020127994939684868,0.00283288536593318,-0.11510983109474182,14.90432071685791,-25.393173217773438,16.65703010559082,0.206681489944458,-0.22603416442871094,-0.23047232627868652,-1.1063835620880127,9.177162170410156,3.6824777126312256
4_20251106_214239,1762436526862,4,0.21469411253929138,0.06051107123494148,0.5595830082893372,0.7981927990913391,-0.22266815602779388,3.446650743484497,2.0109434127807617,-1.2145260572433472,8.969083786010742,3.1132407188415527,-0.044012799859046936,0.005276344250887632,-0.16642245650291443,14.85779094696045,-25.358543395996094,16.642343521118164,-0.10157930850982666,-0.12761592864990234,-0.3692913055419922,-1.1129467487335205,9.096699714660645,3.482532024383545
4_20251106_214239,1762436526881,4,0.21613231301307678,0.06055218726396561,0.5597584247589111,0.7976783514022827,-0.22056378424167633,3.4445722103118896,2.010352373123169,-1.4946355819702148,9.014572143554688,3.4017293453216553,-0.11548397690057755,0.02115882746875286,-0.2085721343755722,14.882472038269043,-25.344940185546875,16.69765281677246,-0.30535101890563965,-0.06570243835449219,-0.06464219093322754,-1.1892845630645752,9.08027458190918,3.466371536254883
4_20251106_214239,1762436526901,4,0.2178618609905243,0.05978978052735329,0.5595658421516418,0.7974004745483398,-0.2203119844198227,3.442472219467163,2.0107109546661377,-1.798686146736145,9.073226928710938,3.7788000106811523,-0.12525780498981476,0.026656610891222954,-0.21773511171340942,14.858099937438965,-25.346527099609375,16.696672439575195,-0.48752129077911377,-0.00563812255859375,0.24994277954101562,-1.3111648559570312,9.078865051269531,3.5288572311401367
4_20251106_214239,1762436526920,4,0.21958878636360168,0.058333974331617355,0.5590605735778809,0.797389030456543,-0.2220594435930252,3.440830707550049,2.0120620727539062,-2.0309135913848877,9.171384811401367,3.9032931327819824,-0.08555160462856293,0.04070649668574333,-0.19940915703773499,14.894150733947754,-25.356430053710938,16.670846939086914,-0.5757989883422852,0.07401561737060547,0.2995486259460449,-1.4551146030426025,9.097369194030762,3.6037445068359375
4_20251106_214239,1762436526940,4,0.22107776999473572,0.05634968727827072,0.5585152506828308,0.797502338886261,-0.2220594435930252,3.440830707550049,2.0120620727539062,-2.0309135913848877,9.171384811401367,3.9032931327819824,-0.06233873963356018,0.055978115648031235,-0.16642245650291443,14.972201347351074,-25.263763427734375,16.67563819885254,-0.5757989883422852,0.07401561737060547,0.2995486259460449,-1.4551146030426025,9.097369194030762,3.6037445068359375
