session_id,timestamp,label,quaternion_w,quaternion_x,quaternion_y,quaternion_z,position_x,position_y,position_z,accelerometer_x,accelerometer_y,accelerometer_z,gyroscope_x,gyroscope_y,gyroscope_z,magnetometer_x,magnetometer_y,magnetometer_z,linear_acceleration_x,linear_acceleration_y,linear_acceleration_z,gravity_x,gravity_y,gravity_z
1_20251106_212709,1762435592579,1,0.38185402750968933,0.5282783508300781,0.6650703549385071,0.3644048571586609,0.47361868619918823,2.335662364959717,1.780048131942749,-1.8334004878997803,7.2680768966674805,-4.04990291595459,-0.10431278496980667,0.07265472412109375,-0.12646807730197906,37.888519287109375,-14.773426055908203,13.774372100830078,-0.7382818460464478,1.2894225120544434,-0.6456427574157715,-1.0951186418533325,5.978654384613037,-3.4042601585388184
1_20251106_212709,1762435592600,1,0.38235971331596375,0.5268396139144897,0.6657447218894958,0.36472591757774353,0.4437713623046875,2.3394932746887207,1.6834925413131714,-1.6023701429367065,8.059326171875,-3.8691484928131104,-0.1079779714345932,0.16367356479167938,-0.10081176459789276,37.9541015625,-14.670345306396484,13.914100646972656,-0.4058011770248413,1.6645374298095703,-0.37191057205200195,-1.1965689659118652,6.39478874206543,-3.4972379207611084
1_20251106_212709,1762435592619,1,0.3822775185108185,0.5251813530921936,0.6665728688240051,0.365689754486084,0.4171053171157837,2.347428560256958,1.599808692932129,-1.5652613639831543,8.086858749389648,-3.749443531036377,0.021525345742702484,0.1929950714111328,-0.17716985940933228,37.98643493652344,-14.518741607666016,13.985832214355469,-0.29495394229888916,1.35365629196167,-0.20176458358764648,-1.2703074216842651,6.7332024574279785,-3.5476789474487305
1_20251106_212709,1762435592638,1,0.3815414011478424,0.5232041478157043,0.6684120893478394,0.36593565344810486,0.39020469784736633,2.3578763008117676,1.5192530155181885,-1.8417798280715942,7.793581008911133,-3.9325923919677734,0.15774816274642944,0.254692405462265,-0.28712549805641174,38.029449462890625,-14.391597747802734,14.071041107177734,-0.457177996635437,0.8483028411865234,-0.30793094635009766,-1.3846018314361572,6.945278167724609,-3.624661445617676
1_20251106_212709,1762435592657,1,0.3801494240760803,0.5208413004875183,0.6714349389076233,0.365220308303833,0.36372649669647217,2.370516538619995,1.4407012462615967,-1.7208778858184814,7.934833526611328,-4.362333297729492,0.18462622165679932,0.3365482687950134,-0.36409446597099304,38.029449462890625,-14.391597747802734,14.071041107177734,-0.26902079582214355,0.7916445732116699,-0.5901374816894531,-1.451857089996338,7.143188953399658,-3.772195816040039
1_20251106_212709,1762435592676,1,0.37839969992637634,0.5178390145301819,0.6752145886421204,0.36433735489845276,0.33975833654403687,2.3852362632751465,1.3681299686431885,-1.507803201675415,8.50103759765625,-4.533511161804199,0.09971602261066437,0.3829739987850189,-0.40990927815437317,38.022918701171875,-14.280323028564453,14.16754150390625,-0.04475688934326172,1.0862789154052734,-0.6090521812438965,-1.4630463123321533,7.414758682250977,-3.9244589805603027
1_20251106_212709,1762435592695,1,0.37686020135879517,0.514126181602478,0.6790707111358643,0.36402416229248047,0.33975833654403687,2.3852362632751465,1.3681299686431885,-1.507803201675415,8.50103759765625,-4.533511161804199,0.09971602261066437,0.3829739987850189,-0.40990927815437317,37.97358703613281,-14.059749603271484,14.318519592285156,-0.04475688934326172,1.0862789154052734,-0.6090521812438965,-1.4630463123321533,7.414758682250977,-3.9244589805603027
1_20251106_212709,1762435592714,1,0.37539052963256836,0.5102152824401855,0.6827700138092041,0.3641255795955658,0.31294408440589905,2.4088375568389893,1.281617522239685,-1.186993956565857,9.184553146362305,-4.535905361175537,0.12048542499542236,0.31883320212364197,-0.41601794958114624,37.94792175292969,-13.850147247314453,14.47021484375,0.2208418846130371,1.4158353805541992,-0.48915719985961914,-1.407835841178894,7.7687177658081055,-4.046748161315918
1_20251106_212709,1762435592733,1,0.3740915358066559,0.5067359209060669,0.6863820552825928,0.36352986097335815,0.2921654284000397,2.4307806491851807,1.2133402824401855,-1.3821128606796265,9.230040550231934,-4.4664764404296875,0.12048542499542236,0.31883320212364197,-0.41601794958114624,37.90998840332031,-13.62985610961914,14.729812622070312,0.020578503608703613,1.169057846069336,-0.335782527923584,-1.40269136428833,8.060982704162598,-4.1306939125061035
1_20251106_212709,1762435592751,1,0.37293726205825806,0.5039702653884888,0.6896991729736328,0.3622799515724182,0.2510368525981903,2.477910280227661,1.0832443237304688,-1.7950949668884277,9.030134201049805,-4.875866889953613,0.1082681268453598,0.25835761427879333,-0.25474968552589417,37.82743835449219,-13.337535858154297,15.002548217773438,-0.25458574295043945,0.6271524429321289,-0.534177303314209,-1.5405092239379883,8.402981758117676,-4.341689586639404
1_20251106_212709,1762435592771,1,0.3715936541557312,0.5016159415245056,0.6922999620437622,0.36196738481521606,0.23069091141223907,2.5040934085845947,1.0169063806533813,-1.4970297813415527,9.206100463867188,-5.081759929656982,0.1082681268453598,0.25835761427879333,-0.25474968552589417,37.82141876220703,-12.98941421508789,15.198184967041016,0.03478360176086426,0.6424951553344727,-0.5920562744140625,-1.531813383102417,8.563605308532715,-4.48970365524292
1_20251106_212709,1762435592790,1,0.3705187439918518,0.5002874135971069,0.6933236718177795,0.3629471957683563,0.23069091141223907,2.5040934085845947,1.0169063806533813,-1.4970297813415527,9.206100463867188,-5.081759929656982,-0.1690644472837448,0.06837867200374603,0.13070595264434814,37.770694732666016,-12.782344818115234,15.443511962890625,0.03478360176086426,0.6424951553344727,-0.5920562744140625,-1.531813383102417,8.563605308532715,-4.48970365524292
1_20251106_212709,1762435592810,1,0.37033092975616455,0.5002553462982178,0.6924344897270203,0.36487531661987305,0.19419407844543457,2.562549352645874,0.8843974471092224,-1.0876388549804688,9.72921085357666,-4.527525901794434,-0.3407174348831177,-0.02813795395195484,0.2931959927082062,37.73577880859375,-12.511554718017578,15.677135467529297,0.29748713970184326,0.8160867691040039,0.0418705940246582,-1.385125994682312,8.913124084472656,-4.569396495819092
1_20251106_212709,1762435592829,1,0.37101882696151733,0.5010820627212524,0.6897655725479126,0.3680831789970398,0.1796162724494934,2.5925183296203613,0.8283019065856934,-1.052924394607544,9.97580337524414,-3.860769271850586,-0.4366231858730316,-0.029359685257077217,0.34634122252464294,37.771949768066406,-12.285152435302734,15.804512023925781,0.26576125621795654,0.8501434326171875,0.566901683807373,-1.3186856508255005,9.125659942626953,-4.427670955657959
1_20251106_212709,1762435592848,1,0.3719746172428131,0.5017688870429993,0.6865120530128479,0.37224191427230835,0.1676311194896698,2.6222381591796875,0.7808595895767212,-0.8578053116798401,10.241546630859375,-3.1916184425354004,-0.32727840542793274,0.01706603355705738,0.3127436637878418,37.74739074707031,-12.275394439697266,15.92544174194336,0.36870425939559937,0.8927097320556641,0.9888420104980469,-1.2265095710754395,9.348836898803711,-4.180460453033447
1_20251106_212709,1762435592867,1,0.3722779154777527,0.5023499131202698,0.6839240193367004,0.37590113282203674,0.15665048360824585,2.656373977661133,0.7332490682601929,-0.6770509481430054,10.258306503295898,-3.3687820434570312,-0.06094139814376831,0.0750981867313385,0.20645317435264587,37.65777587890625,-12.34482192993164,16.028820037841797,0.43956685066223145,0.7275753021240234,0.6493425369262695,-1.1166177988052368,9.530731201171875,-4.018124580383301
1_20251106_212709,1762435592886,1,0.37131524085998535,0.5028300881385803,0.6829901933670044,0.3779038190841675,0.1478544920682907,2.6873221397399902,0.6906827688217163,-0.7105682492256165,9.581974029541016,-3.8715429306030273,-0.06094139814376831,0.0750981867313385,0.20645317435264587,37.615478515625,-12.447795867919922,16.038753509521484,0.32483965158462524,0.04099464416503906,0.11726522445678711,-1.0354079008102417,9.540979385375977,-3.9888081550598145
1_20251106_212709,1762435592905,1,0.3695976436138153,0.5030883550643921,0.6838817000389099,0.37763145565986633,0.1401267945766449,2.715449333190918,0.6488783955574036,-0.8063322305679321,9.076818466186523,-4.486825942993164,0.23838230967521667,0.11663699150085449,-0.08920533955097198,37.570068359375,-12.601398468017578,16.088180541992188,0.18326056003570557,-0.37132835388183594,-0.39841413497924805,-0.9895927906036377,9.44814682006836,-4.088411808013916
1_20251106_212709,1762435592924,1,0.3679448962211609,0.5027711987495422,0.6855602264404297,0.3766229450702667,0.13328827917575836,2.740767240524292,0.6082057952880859,-0.8063322305679321,8.936763763427734,-4.437747001647949,0.07405970990657806,0.10991747677326202,-0.1399071216583252,37.49846649169922,-12.79385757446289,16.09528350830078,0.14660847187042236,-0.4091062545776367,-0.2794680595397949,-0.9529407024383545,9.345870018005371,-4.158278942108154
1_20251106_212709,1762435592942,1,0.367268830537796,0.5017014145851135,0.6868879199028015,0.3762902319431305,0.12657791376113892,2.762578248977661,0.571540117263794,-1.1786144971847534,8.949931144714355,-4.182775974273682,0.07405970990657806,0.10991747677326202,-0.1399071216583252,37.45587158203125,-12.897235870361328,16.145767211914062,-0.18053901195526123,-0.31675052642822266,-0.019597530364990234,-0.9980754852294922,9.266681671142578,-4.163178443908691
1_20251106_212709,1762435592961,1,0.36727213859558105,0.5004947185516357,0.6876553893089294,0.37649208307266235,0.12657791376113892,2.762578248977661,0.571540117263794,-1.1786144971847534,8.949931144714355,-4.182775974273682,0.011140646412968636,0.05005272850394249,-0.03850356861948967,37.422645568847656,-13.050045013427734,16.195682525634766,-0.18053901195526123,-0.31675052642822266,-0.019597530364990234,-0.9980754852294922,9.266681671142578,-4.163178443908691
1_20251106_212709,1762435592981,1,0.3669815957546234,0.4999586045742035,0.6881106495857239,0.37665584683418274,0.11770500987768173,2.7858991622924805,0.5311897397041321,-1.4264037609100342,9.012178421020508,-4.07743501663208,0.09971603006124496,0.03783543407917023,0.06534343957901001,37.34470748901367,-13.130962371826172,16.272254943847656,-0.3426625728607178,-0.20360279083251953,0.06859493255615234,-1.0837411880493164,9.215781211853027,-4.146029949188232
1_20251106_212709,1762435593000,1,0.3660274147987366,0.5004054307937622,0.6883589625358582,0.3765372037887573,0.10260841250419617,2.8221988677978516,0.4633396863937378,-1.106791615486145,8.862546920776367,-4.54787540435791,0.12476147711277008,0.004237873945385218,0.08183678984642029,37.318641662597656,-13.14645767211914,16.406173706054688,0.000186920166015625,-0.2515430450439453,-0.28878307342529297,-1.1069785356521606,9.114089965820312,-4.259092330932617
1_20251106_212709,1762435593019,1,0.36506953835487366,0.5012492537498474,0.6884792447090149,0.37612465023994446,0.09564177691936493,2.83707332611084,0.43208786845207214,-1.177417516708374,8.678201675415039,-4.3707122802734375,0.049625128507614136,0.011568250134587288,0.037854522466659546,37.3552131652832,-13.132465362548828,16.502521514892578,-0.0563511848449707,-0.3487110137939453,-0.08929586410522461,-1.1210663318634033,9.026912689208984,-4.281416416168213
1_20251106_212709,1762435593040,1,0.36451834440231323,0.5015094876289368,0.6886085271835327,0.37607571482658386,0.0873894914984703,2.853682279586792,0.39612865447998047,-1.1654469966888428,8.84698486328125,-4.192352294921875,-0.05300015211105347,0.07815250754356384,-0.015290706418454647,37.405479431152344,-13.092426300048828,16.58637237548828,-0.03550457954406738,-0.14394283294677734,0.07125139236450195,-1.1299424171447754,8.990927696228027,-4.263603687286377
1_20251106_212709,1762435593059,1,0.3642619252204895,0.5008510947227478,0.688822865486145,0.3768082857131958,0.0873894914984703,2.853682279586792,0.39612865447998047,-1.1654469966888428,8.84698486328125,-4.192352294921875,-0.056665338575839996,0.10136537253856659,-0.050109993666410446,37.405479431152344,-13.092426300048828,16.58637237548828,-0.03550457954406738,-0.14394283294677734,0.07125139236450195,-1.1299424171447754,8.990927696228027,-4.263603687286377
1_20251106_212709,1762435593076,1,0.3640214502811432,0.49984973669052124,0.6892461180686951,0.37759557366371155,0.07429388165473938,2.8791985511779785,0.3422357141971588,-1.303107738494873,9.021754264831543,-4.124120235443115,0.033742643892765045,0.07754164189100266,-0.05866210535168648,37.42049789428711,-13.029788970947266,16.682796478271484,-0.13131940364837646,0.01915454864501953,0.0932912826538086,-1.1717883348464966,9.002599716186523,-4.217411518096924
1_20251106_212709,1762435593097,1,0.36351439356803894,0.49911490082740784,0.6899876594543457,0.3777018189430237,0.06676094979047775,2.8909342288970947,0.316217839717865,-1.5221678018569946,8.745235443115234,-4.197140693664551,0.09360738843679428,0.07754164189100266,-0.05499691516160965,37.40570068359375,-13.068927764892578,16.749095916748047,-0.28030359745025635,-0.20589160919189453,0.016216754913330078,-1.2418642044067383,8.951127052307129,-4.213357448577881
1_20251106_212709,1762435593115,1,0.36276328563690186,0.49864786863327026,0.6908926963806152,0.377386212348938,0.05819758027791977,2.9013671875,0.2902747392654419,-1.5808231830596924,8.522583961486816,-4.188760757446289,0.07344885170459747,0.1056414246559143,-0.043390486389398575,37.367942810058594,-13.084545135498047,16.81494140625,-0.2711672782897949,-0.34283447265625,0.019677162170410156,-1.3096559047698975,8.865418434143066,-4.208437919616699
1_20251106_212709,1762435593135,1,0.3618830442428589,0.4980466961860657,0.6918197274208069,0.3773269057273865,0.05062084272503853,2.9096169471740723,0.2681860625743866,-1.4132362604141235,8.593210220336914,-4.170804977416992,0.012362373992800713,0.14595848321914673,-0.025064542889595032,37.40461730957031,-13.070415496826172,16.89777374267578,-0.08286428451538086,-0.21776676177978516,0.030106544494628906,-1.3303719758987427,8.8109769821167,-4.200911521911621
1_20251106_212709,1762435593152,1,0.3609722852706909,0.49722304940223694,0.6925806403160095,0.3778892457485199,0.043491967022418976,2.917022943496704,0.2465127408504486,-1.1594617366790771,8.495052337646484,-4.027158737182617,0.02274707518517971,0.11724784970283508,-0.01406897697597742,37.416404724121094,-13.07016372680664,16.952327728271484,0.1367281675338745,-0.25273990631103516,0.13900232315063477,-1.2961899042129517,8.74779224395752,-4.166161060333252
1_20251106_212709,1762435593173,1,0.36016395688056946,0.4966657757759094,0.6931799650192261,0.3782942593097687,0.036918263882398605,2.923799753189087,0.22375622391700745,-1.0241951942443848,8.449563980102539,-4.166017055511475,0.09605084359645844,0.06349175423383713,0.005478694103658199,37.402217864990234,-13.096881866455078,17.032405853271484,0.21759569644927979,-0.23858261108398438,0.00011539459228515625,-1.2417908906936646,8.688146591186523,-4.16613245010376
1_20251106_212709,1762435593192,1,0.3592892289161682,0.4967387616634369,0.6937125325202942,0.3780539035797119,0.032131027430295944,2.9285824298858643,0.20372384786605835,-0.9272342324256897,8.308313369750977,-4.33839225769043,0.10582467913627625,0.03355938196182251,0.004256964661180973,37.39014434814453,-13.085926055908203,17.113277435302734,0.2516452670097351,-0.3038663864135742,-0.13780784606933594,-1.1788794994354248,8.61217975616455,-4.200584411621094
1_20251106_212709,1762435593210,1,0.3584851920604706,0.4968836307525635,0.6942481994628906,0.377643346786499,0.028810618445277214,2.931513786315918,0.18525220453739166,-0.777603030204773,8.05453872680664,-4.380289077758789,0.054512038826942444,0.06410261988639832,-0.001240817829966545,37.35551452636719,-13.039295196533203,17.234508514404297,0.3210211992263794,-0.44611263275146484,-0.14376354217529297,-1.0986242294311523,8.500651359558105,-4.236525535583496
1_20251106_212709,1762435593230,1,0.35773900151252747,0.49680227041244507,0.6946936845779419,0.37763872742652893,0.02654365636408329,2.9329934120178223,0.16522999107837677,-0.6914154887199402,7.969547271728516,-4.409018039703369,0.020914481952786446,0.07204385846853256,0.012198206037282944,37.377784729003906,-13.063762664794922,17.329574584960938,0.32576698064804077,-0.4248838424682617,-0.13799381256103516,-1.017182469367981,8.394431114196777,-4.271024227142334
1_20251106_212709,1762435593250,1,0.3570050001144409,0.49667736887931824,0.694998025894165,0.37793755531311035,0.02518022619187832,2.932903528213501,0.14602592587471008,-0.7572531700134277,7.902512550354004,-4.331210136413574,0.020914481952786446,0.07204385846853256,0.012198206037282944,37.414764404296875,-13.037616729736328,17.46673583984375,0.20794343948364258,-0.39353466033935547,-0.04814863204956055,-0.9651966094970703,8.29604721069336,-4.283061504364014
1_20251106_212709,1762435593269,1,0.3566458821296692,0.496674507856369,0.6949353218078613,0.37839534878730774,0.023968495428562164,2.931549072265625,0.12860813736915588,-0.9583575129508972,7.8318867683410645,-4.314451217651367,-0.0768238753080368,0.04088975861668587,0.03296760469675064,37.498870849609375,-13.045291900634766,17.537487030029297,0.005471289157867432,-0.37132883071899414,-0.025111675262451172,-0.9638288021087646,8.203215599060059,-4.289339542388916
1_20251106_212709,1762435593287,1,0.35651320219039917,0.49648353457450867,0.6946749687194824,0.37924811244010925,0.02297099493443966,2.929365396499634,0.11270227283239365,-0.9260371923446655,7.81153678894043,-4.382682800292969,-0.08904116600751877,0.04394408315420151,0.031135011464357376,37.460208892822266,-13.073734283447266,17.63010025024414,0.030233263969421387,-0.3133430480957031,-0.07467460632324219,-0.9562704563140869,8.124879837036133,-4.308008193969727
1_20251106_212709,1762435593306,1,0.3564770221710205,0.4962438642978668,0.6943799257278442,0.38013508915901184,0.02297099493443966,2.929365396499634,0.11270227283239365,-0.9260371923446655,7.81153678894043,-4.382682800292969,-0.0615522563457489,0.057993970811367035,0.04335230588912964,37.469688415527344,-13.11142349243164,17.710895538330078,0.030233263969421387,-0.3133430480957031,-0.07467460632324219,-0.9562704563140869,8.124879837036133,-4.308008193969727
1_20251106_212709,1762435593325,1,0.3561342656612396,0.4960917830467224,0.6942123770713806,0.38095998764038086,0.02104122005403042,2.9210691452026367,0.07862965017557144,-0.957160472869873,7.481151580810547,-4.839956283569336,-0.09576067328453064,0.08609375357627869,0.04640663042664528,37.53010940551758,-13.119739532470703,17.686050415039062,-0.0015273094177246094,-0.43918275833129883,-0.37549638748168945,-0.9556331634521484,7.920334339141846,-4.4644598960876465
1_20251106_212709,1762435593344,1,0.35577255487442017,0.4958488643169403,0.6939710974693298,0.3820522725582123,0.020025545731186867,2.9153966903686523,0.06130289286375046,-1.0002542734146118,7.512274742126465,-4.822000503540039,-0.2161010354757309,0.10930661112070084,0.024415500462055206,37.51188659667969,-13.22153091430664,17.73751449584961,-0.03569692373275757,-0.3264474868774414,-0.28603267669677734,-0.9645573496818542,7.838722229003906,-4.535967826843262
1_20251106_212709,1762435593363,1,0.3559007942676544,0.4950408935546875,0.6934659481048584,0.3838934004306793,0.01869669370353222,2.909480094909668,0.04485906660556793,-1.0972152948379517,7.646344184875488,-4.5299201011657715,-0.33705222606658936,0.13862812519073486,-0.02262108400464058,37.48107147216797,-13.33626937866211,17.74767303466797,-0.10612630844116211,-0.15390253067016602,0.004838466644287109,-0.9910889863967896,7.800246715545654,-4.534758567810059
1_20251106_212709,1762435593382,1,0.3565710186958313,0.4933740198612213,0.6928547620773315,0.3865119516849518,0.01869669370353222,2.909480094909668,0.04485906660556793,-1.0972152948379517,7.646344184875488,-4.5299201011657715,-0.38897573947906494,0.1838321089744568,-0.05621864274144173,37.42608642578125,-13.452327728271484,17.729820251464844,-0.10612630844116211,-0.15390253067016602,0.004838466644287109,-0.9910889863967896,7.800246715545654,-4.534758567810059
1_20251106_212709,1762435593401,1,0.3573368787765503,0.49106353521347046,0.6923618316650391,0.3896178603172302,0.016688592731952667,2.9037106037139893,0.029248731210827827,-1.2145260572433472,7.8486456871032715,-4.260583877563477,-0.39447349309921265,0.2186513990163803,-0.029951460659503937,37.38256072998047,-13.59176254272461,17.61731719970703,-0.178749680519104,0.03871870040893555,0.21933984756469727,-1.0357763767242432,7.809926986694336,-4.479923725128174
1_20251106_212709,1762435593420,1,0.35784831643104553,0.4887326955795288,0.691814124584198,0.3930370509624481,0.012262210249900818,2.895718812942505,0.005221516825258732,-1.1450971364974976,8.140726089477539,-4.028356552124023,-0.40363648533821106,0.22842523455619812,0.037854526191949844,37.31761169433594,-13.659191131591797,17.68112564086914,-0.06326174736022949,0.2277998924255371,0.3060488700866699,-1.081835389137268,7.912926197052002,-4.334405422210693
1_20251106_212709,1762435593440,1,0.35813722014427185,0.48684510588645935,0.6908637881278992,0.3967704772949219,0.012262210249900818,2.895718812942505,0.005221516825258732,-1.1450971364974976,8.140726089477539,-4.028356552124023,-0.426849365234375,0.20643410086631775,0.11482347548007965,37.26201629638672,-13.787670135498047,17.649490356445312,-0.06326174736022949,0.2277998924255371,0.3060488700866699,-1.081835389137268,7.912926197052002,-4.334405422210693
1_20251106_212709,1762435593459,1,0.3582843840122223,0.4852776527404785,0.6894956827163696,0.4009160101413727,0.009678550995886326,2.89298152923584,-0.006353650242090225,-1.0900328159332275,8.247262954711914,-4.0451154708862305,-0.426849365234375,0.20643410086631775,0.11482347548007965,37.142574310302734,-13.97048568725586,17.627864837646484,-0.006557941436767578,0.2674694061279297,0.2314319610595703,-1.08347487449646,7.979793548583984,-4.276547431945801
1_20251106_212709,1762435593479,1,0.3585951328277588,0.48425936698913574,0.6875810027122498,0.40513545274734497,0.0068065873347222805,2.891273021697998,-0.022329863160848618,-0.8218938708305359,8.40048599243164,-3.9469566345214844,-0.4580034613609314,0.1312977373600006,0.19057069718837738,36.95555877685547,-14.270687103271484,17.64196014404297,0.19192737340927124,0.28494834899902344,0.22108936309814453,-1.0138212442398071,8.115537643432617,-4.168045997619629
1_20251106_212709,1762435593498,1,0.35909146070480347,0.4837104380130768,0.6854633688926697,0.40892234444618225,0.00615924596786499,2.891906499862671,-0.028341958299279213,-0.8661847114562988,8.473505973815918,-3.7243056297302246,-0.5025966167449951,0.1471802294254303,0.16002747416496277,36.95555877685547,-14.270687103271484,17.64196014404297,0.11810922622680664,0.2863750457763672,0.3549923896789551,-0.9842939376831055,8.18713092803955,-4.07929801940918
1_20251106_212709,1762435593516,1,0.35968804359436035,0.4828297793865204,0.6832711100578308,0.41308656334877014,0.00615924596786499,2.891906499862671,-0.028341958299279213,-0.8661847114562988,8.473505973815918,-3.7243056297302246,-0.5526875257492065,0.19727113842964172,0.11115829646587372,36.88163375854492,-14.512706756591797,17.580429077148438,0.11810922622680664,0.2863750457763672,0.3549923896789551,-0.9842939376831055,8.18713092803955,-4.07929801940918
1_20251106_212709,1762435593536,1,0.3605325520038605,0.4810161888599396,0.6812553405761719,0.4177688956260681,0.006541651673614979,2.8959014415740967,-0.0354965440928936,-0.7333122491836548,8.55610179901123,-3.500457286834717,-0.5526875257492065,0.19727113842964172,0.11115829646587372,36.76923370361328,-14.794506072998047,17.489601135253906,0.17077922821044922,0.23575878143310547,0.383098840713501,-0.904091477394104,8.320343017578125,-3.8835561275482178
1_20251106_212709,1762435593555,1,0.3615354597568512,0.4785788059234619,0.6794695854187012,0.4225820004940033,0.0072871926240623,2.898648977279663,-0.03689153119921684,-0.8003469705581665,8.505826950073242,-3.419057846069336,-0.5801764130592346,0.2241491675376892,-0.011625518091022968,36.60859298706055,-15.067195892333984,17.42410659790039,0.08299565315246582,0.14838695526123047,0.3715987205505371,-0.8833426237106323,8.357439994812012,-3.790656566619873
1_20251106_212709,1762435593574,1,0.3627258837223053,0.47576794028282166,0.6778830289840698,0.4272579848766327,0.007847153581678867,2.9016611576080322,-0.03717893734574318,-0.9284312725067139,8.576452255249023,-3.3975110054016113,-0.6015567183494568,0.24797290563583374,-0.060494694858789444,36.37293243408203,-15.370441436767578,17.42272186279297,-0.036070942878723145,0.17520999908447266,0.314516544342041,-0.8923603296279907,8.40124225616455,-3.7120275497436523
1_20251106_212709,1762435593592,1,0.3641138970851898,0.4724314212799072,0.6765515804290771,0.43186527490615845,0.008595433086156845,2.905297040939331,-0.03645644336938858,-0.8242879509925842,8.625530242919922,-3.3436436653137207,-0.6308781504631042,0.2516380846500397,-0.07210112363100052,36.170989990234375,-15.744762420654297,17.231998443603516,0.054457902908325195,0.1794300079345703,0.2947072982788086,-0.8787458539009094,8.446100234985352,-3.6383509635925293
1_20251106_212709,1762435593611,1,0.36571064591407776,0.4687767028808594,0.6752785444259644,0.4364664852619171,0.009393309243023396,2.9094929695129395,-0.034376922994852066,-0.8470318913459778,8.716506958007812,-3.1305689811706543,-0.6834126114845276,0.24369683861732483,-0.07637717574834824,35.9422607421875,-16.158740997314453,17.08005142211914,0.025371134281158447,0.2163257598876953,0.40622568130493164,-0.8724030256271362,8.500181198120117,-3.536794662475586
1_20251106_212709,1762435593631,1,0.36756327748298645,0.4649919271469116,0.6735560297966003,0.4415903389453888,0.009606009349226952,2.914637804031372,-0.030134525150060654,-1.0648949146270752,8.812271118164062,-2.8253214359283447,-0.7408338189125061,0.25896844267845154,-0.08309668302536011,35.80567932128906,-16.44186019897461,16.96120834350586,-0.15399354696273804,0.24967193603515625,0.569178581237793,-0.9109013676643372,8.562599182128906,-3.3945000171661377
1_20251106_212709,1762435593650,1,0.36960285902023315,0.4608649015426636,0.6716278791427612,0.4471166133880615,0.008948846720159054,2.920370578765869,-0.02491118758916855,-1.2516345977783203,9.104351043701172,-2.7463159561157227,-0.7585489153862,0.2821812927722931,-0.04461221396923065,35.635154724121094,-16.689014434814453,16.774105072021484,-0.2725865840911865,0.43340110778808594,0.5185472965240479,-0.9790480136871338,8.670949935913086,-3.2648632526397705
1_20251106_212709,1762435593669,1,0.3714139461517334,0.4566999673843384,0.6695284843444824,0.45299938321113586,0.006986189167946577,2.9280014038085938,-0.0171698946505785,-1.3964775800704956,9.19053840637207,-2.5320444107055664,-0.7585489153862,0.2821812927722931,-0.04461221396923065,35.45273971557617,-16.93655776977539,16.545963287353516,-0.3339437246322632,0.41567039489746094,0.5862550735473633,-1.0625338554382324,8.77486801147461,-3.1182994842529297
1_20251106_212709,1762435593689,1,0.37291842699050903,0.4530911147594452,0.6669679284095764,0.4591231346130371,0.004455822519958019,2.936521530151367,-0.0073238397017121315,-1.2815607786178589,9.19293212890625,-2.2986197471618652,-0.7469424605369568,0.25835761427879333,0.199122816324234,35.35393524169922,-17.192447662353516,16.456153869628906,-0.17522156238555908,0.33445167541503906,0.6557438373565674,-1.1063392162322998,8.858480453491211,-2.9543635845184326
1_20251106_212709,1762435593707,1,0.37385067343711853,0.45058324933052063,0.6636646389961243,0.4655745327472687,0.0029809868428856134,2.945157527923584,0.002894940786063671,-0.8266820907592773,9.407203674316406,-2.22320556640625,-0.7188426852226257,0.2290360927581787,0.40131905674934387,35.195594787597656,-17.43881607055664,16.269542694091797,0.22372567653656006,0.4389781951904297,0.5849263668060303,-1.0504077672958374,8.968225479125977,-2.8081319332122803
1_20251106_212709,1762435593727,1,0.3738583028316498,0.4494495391845703,0.6595273017883301,0.47249212861061096,0.003817096585407853,2.9554717540740967,0.014947247691452503,-0.20661048591136932,9.571200370788574,-2.1501855850219727,-0.6980733275413513,0.19116248190402985,0.5601438283920288,35.070682525634766,-17.745044708251953,16.02901840209961,0.6750378608703613,0.4823799133300781,0.5263569355010986,-0.8816483616828918,9.088820457458496,-2.6765425205230713
1_20251106_212709,1762435593745,1,0.3732485771179199,0.4496229290962219,0.6545558571815491,0.47966793179512024,0.00794790405780077,2.9666430950164795,0.02818918228149414,0.33445584774017334,9.589155197143555,-2.023298501968384,-0.6937972903251648,0.1887190192937851,0.5564786791801453,34.965309143066406,-18.137447357177734,15.77410888671875,0.9728833436965942,0.4002676010131836,0.5225954055786133,-0.6384274959564209,9.188887596130371,-2.545893907546997
1_20251106_212709,1762435593765,1,0.37260401248931885,0.4499170184135437,0.6494596600532532,0.48676797747612,0.01568402349948883,2.9787728786468506,0.04294702410697937,0.5475306510925293,9.504165649414062,-2.047239303588867,-0.6779147982597351,0.22720350325107574,0.40254077315330505,34.849159240722656,-18.50552749633789,15.519237518310547,0.9487665295600891,0.25222301483154297,0.3989238739013672,-0.4012358784675598,9.25194263458252,-2.4461631774902344
1_20251106_212709,1762435593784,1,0.372338205575943,0.44924381375312805,0.6450901031494141,0.49335888028144836,0.025229498744010925,2.9893510341644287,0.05750497058033943,0.5331660509109497,9.117518424987793,-1.9945690631866455,-0.676082193851471,0.2724074721336365,0.2504354417324066,34.640052795410156,-19.017162322998047,15.244514465332031,0.7475215792655945,-0.10753917694091797,0.36127519607543945,-0.21435551345348358,9.225057601928711,-2.355844259262085
1_20251106_212709,1762435593802,1,0.3724539279937744,0.4474477171897888,0.6415029168128967,0.4995424151420593,0.025229498744010925,2.9893510341644287,0.05750497058033943,0.5331660509109497,9.117518424987793,-1.9945690631866455,-0.7310599684715271,0.28279218077659607,0.2669287919998169,34.5537109375,-19.50802993774414,14.947925567626953,0.7475215792655945,-0.10753917694091797,0.36127519607543945,-0.21435551345348358,9.225057601928711,-2.355844259262085
1_20251106_212709,1762435593822,1,0.37265661358833313,0.4455038905143738,0.6375969052314758,0.506086528301239,0.03747180476784706,2.9988820552825928,0.0724542960524559,0.9425569772720337,9.03611946105957,-1.947884440422058,-0.8116941452026367,0.18077778816223145,0.3781062066555023,34.40362548828125,-20.041484832763672,14.742706298828125,0.9255300164222717,-0.15115070343017578,0.32636773586273193,0.017026975750923157,9.187270164489746,-2.27425217628479
1_20251106_212709,1762435593840,1,0.3732714354991913,0.44455423951148987,0.6323419809341431,0.5130141973495483,0.0698716789484024,3.0173864364624023,0.10283223539590836,1.5494608879089355,9.571199417114258,-1.703686237335205,-0.8116941452026367,0.18077778816223145,0.3781062066555023,34.16490173339844,-20.65462875366211,14.410823822021484,1.0073801279067993,0.29340553283691406,0.38986921310424805,0.5420807600021362,9.277793884277344,-2.093555450439453
1_20251106_212709,1762435593859,1,0.3745913505554199,0.44448965787887573,0.6260204911231995,0.5198159217834473,0.08837098628282547,3.027905225753784,0.12009297311306,1.0909910202026367,9.739984512329102,-1.2835218906402588,-0.9143194556236267,-0.06478983163833618,0.3396216928958893,33.983882904052734,-21.326175689697266,14.039527893066406,0.43912822008132935,0.3697528839111328,0.6480268239974976,0.6518628001213074,9.370231628417969,-1.9315487146377563
1_20251106_212709,1762435593879,1,0.377167284488678,0.4440940022468567,0.6194167137145996,0.5261636972427368,0.10602182149887085,3.039973735809326,0.14067015051841736,0.37276142835617065,9.88003921508789,-0.8406137228012085,-0.961966872215271,-0.0037033683620393276,0.12093211710453033,33.73809814453125,-22.07650375366211,13.610130310058594,-0.2232811450958252,0.40784645080566406,0.8727480173110962,0.5960425734519958,9.472192764282227,-1.7133617401123047
1_20251106_212709,1762435593901,1,0.3807767927646637,0.44179999828338623,0.6136713624000549,0.5321928858757019,0.12061206251382828,3.0525295734405518,0.16296988725662231,-0.12042292952537537,9.83095932006836,-0.808293342590332,-0.9192063212394714,0.12213476747274399,-0.09225966036319733,33.42564010620117,-22.718448638916016,13.166648864746094,-0.573172390460968,0.28701305389404297,0.7240546941757202,0.45274946093559265,9.543946266174316,-1.5323480367660522
1_20251106_212709,1762435593919,1,0.3846716284751892,0.43760693073272705,0.6094834804534912,0.5376409292221069,0.1318897306919098,3.064922571182251,0.1859772950410843,-0.39694133400917053,9.696889877319336,-0.9327864646911621,-0.8422374129295349,0.18505384027957916,-0.16739602386951447,33.42564010620117,-22.718448638916016,13.166648864746094,-0.6797526478767395,0.12235450744628906,0.47964930534362793,0.28281131386756897,9.574535369873047,-1.41243577003479
1_20251106_212709,1762435593937,1,0.38830044865608215,0.43285077810287476,0.6062568426132202,0.542508602142334,0.1393984854221344,3.075474977493286,0.20678550004959106,-0.583681046962738,9.556835174560547,-0.9507421851158142,-0.8556764125823975,0.19116248190402985,-0.09592485427856445,33.128990173339844,-23.296680450439453,12.71146011352539,-0.6931939125061035,-0.01416015625,0.36935490369796753,0.10951285064220428,9.570995330810547,-1.3200970888137817
1_20251106_212709,1762435593956,1,0.391556054353714,0.428379088640213,0.6027225852012634,0.5476319193840027,0.14488089084625244,3.0851407051086426,0.22799336910247803,-0.5609370470046997,9.425159454345703,-0.7352733016014099,-0.9033238291740417,0.17711259424686432,0.05862392112612724,32.87373352050781,-23.78476333618164,12.27310562133789,-0.5363599061965942,-0.116668701171875,0.46785908937454224,-0.024577118456363678,9.541828155517578,-1.2031323909759521
1_20251106_212709,1762435593975,1,0.39424294233322144,0.42462506890296936,0.5982775688171387,0.5534708499908447,0.14994345605373383,3.095097780227661,0.25248223543167114,-0.26287177205085754,9.461071014404297,-0.5114250779151917,-0.9167628884315491,0.16672790050506592,0.21317268908023834,32.5095100402832,-24.267436981201172,11.830604553222656,-0.19063572585582733,-0.064605712890625,0.5533658862113953,-0.07223604619503021,9.525676727294922,-1.064790964126587
1_20251106_212709,1762435593994,1,0.39619991183280945,0.4217061400413513,0.5930536389350891,0.5598901510238647,0.15448859333992004,3.1040940284729004,0.27649247646331787,-0.0809202790260315,9.529302597045898,-0.3689762353897095,-0.933256208896637,0.16550615429878235,0.28403303027153015,32.07548141479492,-24.703975677490234,11.318634033203125,-0.006947383284568787,0.0029010772705078125,0.5566518306732178,-0.07397289574146271,9.52640151977539,-0.9256280660629272
1_20251106_212709,1762435594013,1,0.39778152108192444,0.41910967230796814,0.5873777270317078,0.5666607022285461,0.15889251232147217,3.1129472255706787,0.3011808395385742,-0.042614713311195374,9.63823413848877,-0.2408919334411621,-0.933256208896637,0.16550615429878235,0.28403303027153015,31.643964767456055,-25.102298736572266,10.753389358520508,0.025086544454097748,0.08946609497070312,0.5477889180183411,-0.06770125776529312,9.548768043518066,-0.7886808514595032
1_20251106_212709,1762435594033,1,0.3992125988006592,0.41589197516441345,0.5818268656730652,0.5737078189849854,0.16329285502433777,3.1218760013580322,0.32683396339416504,0.011252522468566895,9.737589836120605,0.012882530689239502,-0.9631885886192322,0.1826103776693344,0.25959840416908264,31.19997787475586,-25.49020767211914,10.323081970214844,0.06316302716732025,0.15105724334716797,0.6412506699562073,-0.05191050469875336,9.586532592773438,-0.6283681392669678
1_20251106_212709,1762435594052,1,0.4009646475315094,0.4121127724647522,0.5763318538665771,0.5807168483734131,0.16834008693695068,3.1314384937286377,0.3551715612411499,0.16088369488716125,9.795047760009766,0.25468653440475464,-0.9955644011497498,0.24369683861732483,0.20156626403331757,30.744009017944336,-25.65408706665039,9.937091827392578,0.17023536562919617,0.16681194305419922,0.7064437866210938,-0.009351667016744614,9.628235816955566,-0.4517572522163391
1_20251106_212709,1762435594070,1,0.4024856686592102,0.40729185938835144,0.5714162588119507,0.5878793001174927,0.1737142950296402,3.1401548385620117,0.3825162947177887,0.4206433892250061,9.847718238830566,0.8137085437774658,-1.0151121616363525,0.35059815645217896,0.07267381995916367,30.23969268798828,-25.820598602294922,9.495075225830078,0.3439960479736328,0.17558574676513672,1.012372612953186,0.0766473338007927,9.67213249206543,-0.1986641138792038
1_20251106_212709,1762435594090,1,0.4043004512786865,0.4019981920719147,0.5666233897209167,0.5948752164840698,0.1737142950296402,3.1401548385620117,0.3825162947177887,0.4206433892250061,9.847718238830566,0.8137085437774658,-1.029162049293518,0.32616356015205383,0.05862392485141754,29.70798683166504,-26.039203643798828,9.078054428100586,0.3439960479736328,0.17558574676513672,1.012372612953186,0.0766473338007927,9.67213249206543,-0.1986641138792038
1_20251106_212709,1762435594109,1,0.4063670039176941,0.3966905474662781,0.5615562200546265,0.6017948985099792,0.18814587593078613,3.1610076427459717,0.448699951171875,0.4529637396335602,10.072763442993164,1.3260456323623657,-1.0145012140274048,0.28340303897857666,0.07694986462593079,29.23841094970703,-26.240604400634766,8.596168518066406,0.2237965315580368,0.25353050231933594,1.0066502094268799,0.22916720807552338,9.819232940673828,0.31939539313316345
1_20251106_212709,1762435594129,1,0.4083884358406067,0.3916817009449005,0.5562973022460938,0.6085537672042847,0.19527451694011688,3.1713685989379883,0.4835393726825714,0.3212882876396179,10.0177001953125,1.5367263555526733,-0.9766276478767395,0.2351447343826294,0.10138446092605591,28.677589416503906,-26.33548355102539,8.126251220703125,0.07369686663150787,0.15877437591552734,0.9738647937774658,0.24759142100811005,9.858925819396973,0.5628615617752075
1_20251106_212709,1762435594147,1,0.41040778160095215,0.3872099816799164,0.550912082195282,0.6149225831031799,0.20202559232711792,3.181519031524658,0.5196502804756165,0.23988893628120422,9.971014976501465,1.6612194776535034,-0.9558582305908203,0.22109484672546387,0.10321705043315887,28.188983917236328,-26.438419342041016,7.686044692993164,-0.006161987781524658,0.08967113494873047,0.8786863088607788,0.24605092406272888,9.881343841552734,0.7825331687927246
1_20251106_212709,1762435594165,1,0.41234344244003296,0.38279250264167786,0.5455877780914307,0.6211092472076416,0.20826029777526855,3.190913677215576,0.5547441244125366,0.3105148673057556,9.986576080322266,1.8359886407852173,-0.9534147381782532,0.2290360927581787,0.10382792353630066,27.75375747680664,-26.450679779052734,7.290197372436523,0.051571160554885864,0.08418560028076172,0.8427643775939941,0.25894370675086975,9.902390480041504,0.9932242631912231
1_20251106_212709,1762435594185,1,0.41418182849884033,0.37828007340431213,0.5402904152870178,0.6272510290145874,0.2150891274213791,3.2014317512512207,0.595004677772522,0.34044110774993896,10.100296020507812,2.051457643508911,-0.9595233798027039,0.21559706330299377,0.11848866939544678,27.321453094482422,-26.412578582763672,6.881889343261719,0.0651979148387909,0.1583242416381836,0.8465867042541504,0.27524319291114807,9.941971778869629,1.2048709392547607
1_20251106_212709,1762435594204,1,0.41598623991012573,0.37387847900390625,0.5347959995269775,0.6333747506141663,0.2150891274213791,3.2014317512512207,0.595004677772522,0.34044110774993896,10.100296020507812,2.051457643508911,-0.9314236044883728,0.17161481082439423,0.1838511824607849,26.971529006958008,-26.41928482055664,6.489475250244141,0.0651979148387909,0.1583242416381836,0.8465867042541504,0.27524319291114807,9.941971778869629,1.2048709392547607
1_20251106_212709,1762435594224,1,0.4174262583255768,0.37010154128074646,0.5290521383285522,0.6394403576850891,0.22856129705905914,3.2204036712646484,0.6749139428138733,0.6265358924865723,9.953058242797852,2.511124610900879,-0.8868305087089539,0.1477910876274109,0.2351638376712799,26.680038452148438,-26.448612213134766,6.247663497924805,0.2612176239490509,-0.001140594482421875,0.8741164207458496,0.36531826853752136,9.954198837280273,1.6370081901550293
1_20251106_212709,1762435594242,1,0.4184952676296234,0.3668794333934784,0.5232434272766113,0.6453506946563721,0.22856129705905914,3.2204036712646484,0.6749139428138733,0.6265358924865723,9.953058242797852,2.511124610900879,-0.8849979043006897,0.15573233366012573,0.21195095777511597,26.41703987121582,-26.41275405883789,5.927055358886719,0.2612176239490509,-0.001140594482421875,0.8741164207458496,0.36531826853752136,9.954198837280273,1.6370081901550293
1_20251106_212709,1762435594261,1,0.4195406138896942,0.36343786120414734,0.5175243616104126,0.6512043476104736,0.23678968846797943,3.2301714420318604,0.7180120348930359,0.7749700546264648,10.139799118041992,2.5685830116271973,-0.9155411124229431,0.14412589371204376,0.14170151948928833,26.078414916992188,-26.419872283935547,5.656778335571289,0.32772141695022583,0.14848041534423828,0.7452598810195923,0.447248637676239,9.991318702697754,1.823323130607605
1_20251106_212709,1762435594280,1,0.42117607593536377,0.35964852571487427,0.5117554068565369,0.6567876935005188,0.2526077628135681,3.2496073246002197,0.8001178503036499,0.5583040714263916,10.501306533813477,3.234142303466797,-0.9100433588027954,0.13251946866512299,0.09099975973367691,25.847347259521484,-26.457515716552734,5.39012336730957,0.04311239719390869,0.3591442108154297,0.9703421592712402,0.5151916742324829,10.142162322998047,2.2638001441955566
1_20251106_212709,1762435594299,1,0.4231119155883789,0.3556382656097412,0.5061312913894653,0.6620640754699707,0.2526077628135681,3.2496073246002197,0.8001178503036499,0.5583040714263916,10.501306533813477,3.234142303466797,-0.8141376376152039,0.13435205817222595,0.07939332723617554,25.62876319885254,-26.493961334228516,5.083410263061523,0.04311239719390869,0.3591442108154297,0.9703421592712402,0.5151916742324829,10.142162322998047,2.2638001441955566
1_20251106_212709,1762435594321,1,0.42474469542503357,0.35182565450668335,0.5011450052261353,0.6668315529823303,0.26635074615478516,3.2709052562713623,0.8911982178688049,0.296150267124176,10.121843338012695,3.4484143257141113,-0.6785256266593933,0.15328887104988098,0.08244764804840088,25.361040115356445,-26.534122467041016,4.828800201416016,-0.14937984943389893,-0.06490802764892578,0.7493429183959961,0.44553011655807495,10.186751365661621,2.6990714073181152
1_20251106_212709,1762435594340,1,0.4258262813091278,0.34838730096817017,0.4970652759075165,0.670987606048584,0.26635074615478516,3.2709052562713623,0.8911982178688049,0.296150267124176,10.121843338012695,3.4484143257141113,-0.62110435962677,0.15573233366012573,0.0916106253862381,25.138635635375977,-26.63375473022461,4.561315536499023,-0.14937984943389893,-0.06490802764892578,0.7493429183959961,0.44553011655807495,10.186751365661621,2.6990714073181152
1_20251106_212709,1762435594358,1,0.4265790283679962,0.34516337513923645,0.49335798621177673,0.6749003529548645,0.277010977268219,3.286921739578247,0.9778714179992676,0.2853768467903137,9.656190872192383,3.249704122543335,-0.6339325308799744,0.14595849812030792,0.12948423624038696,25.138635635375977,-26.63375473022461,4.561315536499023,-0.11054223775863647,-0.3832273483276367,0.3623645305633545,0.3959190845489502,10.03941822052002,2.8873395919799805
1_20251106_212709,1762435594376,1,0.4271368384361267,0.3421664237976074,0.4894295334815979,0.6789219379425049,0.2818560302257538,3.292539596557617,1.0196621417999268,0.43620502948760986,9.622673034667969,3.343073844909668,-0.6681409478187561,0.15878665447235107,0.1844620555639267,24.943225860595703,-26.681842803955078,4.322900772094727,0.03222876787185669,-0.33339691162109375,0.36458730697631836,0.4039762616157532,9.956069946289062,2.9784865379333496
1_20251106_212709,1762435594395,1,0.42740145325660706,0.33919310569763184,0.48512527346611023,0.6833223700523376,0.2818560302257538,3.292539596557617,1.0196621417999268,0.43620502948760986,9.622673034667969,3.343073844909668,-0.6968515515327454,0.1477910876274109,0.20156626403331757,24.73492431640625,-26.743282318115234,4.083730697631836,0.03222876787185669,-0.33339691162109375,0.36458730697631836,0.4039762616157532,9.956069946289062,2.9784865379333496
1_20251106_212709,1762435594415,1,0.42759761214256287,0.33622097969055176,0.4805319607257843,0.6878988146781921,0.29400694370269775,3.3018882274627686,1.1038540601730347,0.7510290145874023,9.815399169921875,3.736903190612793,-0.7096797823905945,0.1111392080783844,0.17163389921188354,24.574562072753906,-26.81423568725586,3.8597755432128906,0.21847474575042725,-0.0837087631225586,0.529055118560791,0.5325542688369751,9.899107933044434,3.207848072052002
1_20251106_212709,1762435594435,1,0.4282025396823883,0.3333926796913147,0.4757198691368103,0.6922301054000854,0.3002876043319702,3.305992841720581,1.1471039056777954,0.5762598514556885,9.841733932495117,4.00264835357666,-0.703571081161499,0.11602611839771271,0.10810396820306778,24.452167510986328,-26.85769271850586,3.637819290161133,0.03496444225311279,-0.045899391174316406,0.6358404159545898,0.5412954092025757,9.887633323669434,3.3668079376220703
1_20251106_212709,1762435594453,1,0.4291702210903168,0.33022719621658325,0.4711388349533081,0.6962694525718689,0.3049743175506592,3.308973550796509,1.1858928203582764,0.26382994651794434,9.67294979095459,4.10200309753418,-0.6559236645698547,0.1465693563222885,0.03235674276947975,24.361398696899414,-26.98666763305664,3.415485382080078,-0.22197237610816956,-0.17174625396728516,0.5881562232971191,0.4858023226261139,9.844696044921875,3.5138468742370605
1_20251106_212709,1762435594471,1,0.4303423762321472,0.32663965225219727,0.4672302305698395,0.6998627781867981,0.3049743175506592,3.308973550796509,1.1858928203582764,0.26382994651794434,9.67294979095459,4.10200309753418,-0.5789546966552734,0.19482767581939697,0.0018135053105652332,24.262065887451172,-27.053516387939453,3.1804656982421875,-0.22197237610816956,-0.17174625396728516,0.5881562232971191,0.4858023226261139,9.844696044921875,3.5138468742370605
1_20251106_212709,1762435594492,1,0.4312064051628113,0.3227909207344055,0.46417638659477234,0.7031410336494446,0.308849960565567,3.3106043338775635,1.2285009622573853,0.13335156440734863,9.34615421295166,4.061303615570068,-0.5514658093452454,0.21315360069274902,0.05251527577638626,24.17080307006836,-27.183162689208984,3.025714874267578,-0.2819606065750122,-0.3988332748413086,0.43796539306640625,0.41531217098236084,9.744987487792969,3.623338222503662
1_20251106_212709,1762435594510,1,0.43162479996681213,0.31917524337768555,0.46119701862335205,0.7064874768257141,0.31531116366386414,3.30948805809021,1.3039942979812622,0.5415453910827637,9.24560260772705,3.940401792526245,-0.5832307934761047,0.18199950456619263,0.13559287786483765,24.061397552490234,-27.213130950927734,2.790996551513672,0.11430662870407104,-0.31194496154785156,0.2057936191558838,0.4272387623786926,9.557547569274902,3.7346081733703613
1_20251106_212709,1762435594530,1,0.4315497875213623,0.3159793019294739,0.45766541361808777,0.7102564573287964,0.31935566663742065,3.3074240684509277,1.3436295986175537,0.6349152326583862,9.233631134033203,4.2767720222473145,-0.6156066060066223,0.1429041624069214,0.17835339903831482,23.94858169555664,-27.294139862060547,2.636320114135742,0.16614121198654175,-0.25913333892822266,0.4337310791015625,0.4687740206718445,9.492764472961426,3.843040943145752
1_20251106_212709,1762435594551,1,0.43150606751441956,0.3132041096687317,0.453559935092926,0.7141352295875549,0.32384130358695984,3.3049156665802,1.3832385540008545,0.6804031133651733,9.312637329101562,4.486255645751953,-0.6186608672142029,0.1416824460029602,0.17529907822608948,23.872817993164062,-27.372089385986328,2.4155330657958984,0.169303297996521,-0.1441020965576172,0.5145716667175293,0.5110998153686523,9.45673942565918,3.971683979034424
1_20251106_212709,1762435594568,1,0.4313989579677582,0.3103351294994354,0.4494151473045349,0.7180620431900024,0.32827028632164,3.302263021469116,1.4185304641723633,0.7522261142730713,9.250391006469727,4.550896644592285,-0.582619845867157,0.1471802294254303,0.1325385570526123,23.722023010253906,-27.492206573486328,2.1639785766601562,0.19290107488632202,-0.16507911682128906,0.46337032318115234,0.5593250393867493,9.415470123291016,4.087526321411133
1_20251106_212709,1762435594587,1,0.4314451515674591,0.3073875606060028,0.4456348717212677,0.721649169921875,0.3330470323562622,3.2990481853485107,1.4550209045410156,0.6816002130508423,9.213282585144043,4.488649845123291,-0.5642939209938049,0.16123011708259583,0.07023035734891891,23.617855072021484,-27.64682388305664,1.913595199584961,0.09782016277313232,-0.16174983978271484,0.32089853286743164,0.58378005027771,9.375032424926758,4.167751312255859
1_20251106_212709,1762435594606,1,0.4318107068538666,0.3041797876358032,0.4421899914741516,0.7249014973640442,0.3373865485191345,3.295691728591919,1.488932490348816,0.6002007722854614,9.186946868896484,4.60236930847168,-0.5813981890678406,0.16856049001216888,0.03296760469675064,23.503021240234375,-27.765369415283203,1.7446098327636719,0.013136565685272217,-0.1504688262939453,0.34769439697265625,0.5870642066001892,9.33741569519043,4.254674911499023
1_20251106_212709,1762435594625,1,0.43247517943382263,0.3007161319255829,0.43876776099205017,0.7280232310295105,0.3417305052280426,3.2917277812957764,1.5264109373092651,0.509225070476532,9.198917388916016,4.808261871337891,-0.5844524502754211,0.1471802294254303,0.08000419288873672,23.41297149658203,-27.870174407958984,1.6174182891845703,-0.062271296977996826,-0.11079883575439453,0.4428696632385254,0.5714963674545288,9.30971622467041,4.365392208099365
1_20251106_212709,1762435594644,1,0.43279656767845154,0.29749682545661926,0.4351405203342438,0.7313244938850403,0.3453708291053772,3.288106918334961,1.5597312450408936,0.5415453910827637,9.215676307678223,4.883676528930664,-0.5441353917121887,0.13251946866512299,0.15147535502910614,23.36016845703125,-27.97165298461914,1.397085189819336,-0.023960769176483154,-0.07523155212402344,0.4146275520324707,0.5655061602592468,9.290907859802246,4.469048976898193
1_20251106_212709,1762435594663,1,0.43260377645492554,0.2948288917541504,0.43150126934051514,0.7346676588058472,0.3491460084915161,3.283813238143921,1.5943933725357056,0.6109742522239685,9.049285888671875,4.924376487731934,-0.48732495307922363,0.1312977373600006,0.17590993642807007,23.318452835083008,-28.085430145263672,1.2310428619384766,0.036374449729919434,-0.1932973861694336,0.36426210403442383,0.5745998024940491,9.242583274841309,4.56011438369751
1_20251106_212709,1762435594681,1,0.4320371448993683,0.2924875319004059,0.4281918406486511,0.7378663420677185,0.353117972612381,3.2789838314056396,1.6282955408096313,0.7151175737380981,8.969083786010742,4.914799690246582,-0.500764012336731,0.14962369203567505,0.1685795783996582,23.24177360534668,-28.187824249267578,0.9421463012695312,0.11241424083709717,-0.21879959106445312,0.28374814987182617,0.602703332901001,9.187883377075195,4.631051540374756
1_20251106_212709,1762435594701,1,0.4314960539340973,0.2899529039859772,0.42484918236732483,0.7411084175109863,0.35756632685661316,3.2737693786621094,1.6633113622665405,0.7594084143638611,9.061256408691406,4.997395992279053,-0.547800600528717,0.16550615429878235,0.1380363404750824,23.15412139892578,-28.266162872314453,0.6803207397460938,0.12536406517028809,-0.1013021469116211,0.2930755615234375,0.634044349193573,9.162558555603027,4.704320430755615
1_20251106_212709,1762435594721,1,0.4312722384929657,0.2870461344718933,0.4212878942489624,0.744395911693573,0.3621252477169037,3.268601655960083,1.6961113214492798,0.8324283957481384,8.994222640991211,5.1410417556762695,-0.5410810708999634,0.16672790050506592,0.10443878173828125,23.136775970458984,-28.378353118896484,0.5152587890625,0.15870726108551025,-0.13466930389404297,0.3493771553039551,0.6737211346626282,9.128891944885254,4.7916646003723145
1_20251106_212709,1762435594739,1,0.431243360042572,0.2840316593647003,0.4178679883480072,0.7474901676177979,0.3621252477169037,3.268601655960083,1.6961113214492798,0.8324283957481384,8.994222640991211,5.1410417556762695,-0.4977096617221832,0.1520671397447586,0.06351084262132645,23.070690155029297,-28.493717193603516,0.348236083984375,0.15870726108551025,-0.13466930389404297,0.3493771553039551,0.6737211346626282,9.128891944885254,4.7916646003723145
1_20251106_212709,1762435594759,1,0.43136855959892273,0.28110364079475403,0.4148002564907074,0.7502284049987793,0.36699870228767395,3.261929750442505,1.7325005531311035,0.6995558738708496,8.757205963134766,5.373269081115723,-0.49221187829971313,0.17039307951927185,0.04946095123887062,23.01022720336914,-28.52023696899414,0.08844757080078125,0.02066779136657715,-0.2973489761352539,0.4652833938598633,0.6788880825042725,9.05455493927002,4.907985687255859
1_20251106_212709,1762435594778,1,0.431485116481781,0.2779369354248047,0.4118597209453583,0.7529563307762146,0.37483635544776917,3.2491295337677,1.7953444719314575,0.6923736333847046,8.818255424499512,5.401998519897461,-0.49648791551589966,0.162451833486557,0.06717602908611298,22.871431350708008,-28.628215789794922,-0.04070472717285156,0.01590883731842041,-0.14567852020263672,0.3240213394165039,0.6764647960662842,8.963933944702148,5.077977180480957
1_20251106_212709,1762435594797,1,0.43155625462532043,0.27490946650505066,0.408807635307312,0.7556853294372559,0.37874820828437805,3.242262363433838,1.8268053531646729,0.7378615140914917,8.759600639343262,5.489383220672607,-0.46594470739364624,0.1270216852426529,0.11787780374288559,22.871431350708008,-28.628215789794922,-0.04070472717285156,0.04911738634109497,-0.1634664535522461,0.32912492752075195,0.6887441277503967,8.923067092895508,5.1602582931518555
1_20251106_212709,1762435594816,1,0.43115293979644775,0.2723919153213501,0.40574803948402405,0.7584710717201233,0.382832407951355,3.2352538108825684,1.8578588962554932,0.8228520154953003,8.74643325805664,5.585146903991699,-0.44028836488723755,0.09708931297063828,0.1594165861606598,22.744400024414062,-28.759166717529297,-0.3050575256347656,0.10728633403778076,-0.14130687713623047,0.33991098403930664,0.7155656814575195,8.887740135192871,5.245235919952393
1_20251106_212709,1762435594835,1,0.43057695031166077,0.2704070806503296,0.40259355306625366,0.761184573173523,0.382832407951355,3.2352538108825684,1.8578588962554932,0.8228520154953003,8.74643325805664,5.585146903991699,-0.4470078945159912,0.10136537253856659,0.1435341238975525,22.63037109375,-28.86501693725586,-0.48729515075683594,0.10728633403778076,-0.14130687713623047,0.33991098403930664,0.7155656814575195,8.887740135192871,5.245235919952393
1_20251106_212709,1762435594854,1,0.4300743043422699,0.26829811930656433,0.3994404077529907,0.763871431350708,0.3880942165851593,3.2278225421905518,1.8918691873550415,1.0060005187988281,8.866138458251953,5.664152145385742,-0.4470078945159912,0.10136537253856659,0.1435341238975525,22.515539169311523,-28.983562469482422,-0.656280517578125,0.23234784603118896,-0.017281532287597656,0.3351325988769531,0.7736526727676392,8.88341999053955,5.329019546508789
1_20251106_212709,1762435594874,1,0.43005117774009705,0.26591554284095764,0.3965012729167938,0.7662451863288879,0.39918678998947144,3.2152063846588135,1.9503788948059082,1.101764440536499,8.726083755493164,5.759916305541992,-0.44456443190574646,0.11236093193292618,0.07328467816114426,22.3878173828125,-29.115459442138672,-0.826019287109375,0.20367103815078735,-0.12348747253417969,0.2767319679260254,0.8980934023857117,8.849571228027344,5.483184337615967
1_20251106_212709,1762435594893,1,0.4306706488132477,0.2635437548160553,0.393805593252182,0.7681045532226562,0.4048239290714264,3.2085964679718018,1.9776257276535034,1.0299415588378906,8.551313400268555,5.667743682861328,-0.41951894760131836,0.10686314851045609,0.004256964661180973,22.251121520996094,-29.197383880615234,-1.0492591857910156,0.10547852516174316,-0.23860645294189453,0.14764738082885742,0.9244630336761475,8.78991985321045,5.520096302032471
1_20251106_212709,1762435594911,1,0.4314195215702057,0.26109498739242554,0.39125755429267883,0.7698208689689636,0.4048239290714264,3.2085964679718018,1.9776257276535034,1.0299415588378906,8.551313400268555,5.667743682861328,-0.44456443190574646,0.04333321750164032,-0.04461221396923065,22.189672470092773,-29.22525405883789,-1.1738853454589844,0.10547852516174316,-0.23860645294189453,0.14764738082885742,0.9244630336761475,8.78991985321045,5.520096302032471
1_20251106_212709,1762435594931,1,0.4324513077735901,0.2587701380252838,0.38832494616508484,0.7715099453926086,0.4145476222038269,3.191091299057007,2.032956123352051,0.5331660509109497,8.122770309448242,5.622255325317383,-0.509316086769104,0.003016145434230566,0.004256964661180973,22.101016998291016,-29.31655502319336,-1.395425796508789,-0.29448145627975464,-0.4601106643676758,0.0734257698059082,0.8276475071907043,8.582880973815918,5.548829555511475
1_20251106_212709,1762435594950,1,0.4334075152873993,0.2566014528274536,0.3846641182899475,0.7735289931297302,0.41709885001182556,3.1817500591278076,2.0573832988739014,0.37276142835617065,8.121572494506836,5.840118408203125,-0.5655156970024109,-0.009201150387525558,0.09588667750358582,22.036523818969727,-29.418155670166016,-1.6838302612304688,-0.36390888690948486,-0.3690471649169922,0.2330312728881836,0.7366703152656555,8.490619659423828,5.607087135314941
1_20251106_212709,1762435594969,1,0.4339260756969452,0.25457990169525146,0.3803115487098694,0.7760543823242188,0.41709885001182556,3.1817500591278076,2.0573832988739014,0.37276142835617065,8.121572494506836,5.840118408203125,-0.5655156970024109,-0.009201150387525558,0.09588667750358582,21.999431610107422,-29.456050872802734,-1.902353286743164,-0.36390888690948486,-0.3690471649169922,0.2330312728881836,0.7366703152656555,8.490619659423828,5.607087135314941
1_20251106_212709,1762435594989,1,0.4338309168815613,0.2524399161338806,0.37554314732551575,0.7791227102279663,0.4212491810321808,3.1622695922851562,2.1139111518859863,0.7689847946166992,8.629121780395508,6.515254974365234,-0.5777329802513123,0.02683986909687519,0.18812724947929382,21.962623596191406,-29.50516128540039,-2.2563037872314453,0.057454586029052734,0.12522315979003906,0.6237468719482422,0.7115302085876465,8.503898620605469,5.891508102416992
1_20251106_212709,1762435595006,1,0.4334896206855774,0.2503660023212433,0.3710056245326996,0.7821498513221741,0.4212491810321808,3.1622695922851562,2.1139111518859863,0.7689847946166992,8.629121780395508,6.515254974365234,-0.47144246101379395,0.0598265640437603,0.15025362372398376,21.9473819732666,-29.591297149658203,-2.515451431274414,0.057454586029052734,0.12522315979003906,0.6237468719482422,0.7115302085876465,8.503898620605469,5.891508102416992
1_20251106_212709,1762435595026,1,0.43313029408454895,0.24843573570251465,0.3674279749393463,0.7846493124961853,0.4267370402812958,3.1474645137786865,2.1684203147888184,1.0742323398590088,8.629121780395508,6.617003917694092,-0.38286709785461426,0.09647844731807709,0.061067383736371994,21.94442367553711,-29.676502227783203,-2.7876243591308594,0.25913476943969727,0.07650375366210938,0.45531511306762695,0.8150975704193115,8.552618026733398,6.161688804626465
1_20251106_212709,1762435595045,1,0.4329991936683655,0.24626490473747253,0.3648741543292999,0.7865952849388123,0.4267370402812958,3.1474645137786865,2.1684203147888184,1.0742323398590088,8.629121780395508,6.617003917694092,-0.33277618885040283,0.11969130486249924,-0.07026852667331696,21.934524536132812,-29.662586212158203,-3.004110336303711,0.25913476943969727,0.07650375366210938,0.45531511306762695,0.8150975704193115,8.552618026733398,6.161688804626465
1_20251106_212709,1762435595064,1,0.43364691734313965,0.24372774362564087,0.36308553814888,0.787855327129364,0.4337916970252991,3.132293462753296,2.2230074405670166,0.8467929363250732,8.15509033203125,6.498496055603027,-0.33277618885040283,0.11969130486249924,-0.07026852667331696,21.860763549804688,-29.714611053466797,-3.3054676055908203,-0.007486581802368164,-0.29674530029296875,0.2170886993408203,0.8542795181274414,8.451835632324219,6.281407356262207
1_20251106_212709,1762435595083,1,0.43480271100997925,0.24077461659908295,0.361893892288208,0.7886742353439331,0.4337916970252991,3.132293462753296,2.2230074405670166,0.8467929363250732,8.15509033203125,6.498496055603027,-0.2991786301136017,0.1526780128479004,-0.16189825534820557,21.83405303955078,-29.77737045288086,-3.4699630737304688,-0.007486581802368164,-0.29674530029296875,0.2170886993408203,0.8542795181274414,8.451835632324219,6.281407356262207
1_20251106_212709,1762435595102,1,0.4360760748386383,0.23764903843402863,0.36085203289985657,0.7893962264060974,0.43922072649002075,3.1148388385772705,2.274794816970825,0.6816002130508423,8.085661888122559,6.618200778961182,-0.2985677719116211,0.13251946866512299,-0.16739603877067566,21.83755111694336,-29.737812042236328,-3.6583995819091797,-0.12296414375305176,-0.23396778106689453,0.2387223243713379,0.804564356803894,8.319629669189453,6.379478454589844
1_20251106_212709,1762435595121,1,0.4372597634792328,0.2347462922334671,0.3596104383468628,0.7901762127876282,0.4409483075141907,3.105677843093872,2.30013108253479,0.5942155718803406,8.062917709350586,6.74508810043335,-0.25947242975234985,0.09892190992832184,-0.119137704372406,21.80267333984375,-29.737903594970703,-3.8896484375,-0.1682789921760559,-0.2053699493408203,0.29248762130737305,0.7624945640563965,8.268287658691406,6.452600479125977
1_20251106_212709,1762435595141,1,0.43811681866645813,0.23241093754768372,0.3584025502204895,0.7909402251243591,0.442222535610199,3.0959725379943848,2.326134443283081,0.6133683919906616,8.089252471923828,6.672068119049072,-0.25947242975234985,0.09892190992832184,-0.119137704372406,21.79278564453125,-29.71236801147461,-4.011257171630859,-0.1193009614944458,-0.14322853088378906,0.17557430267333984,0.7326693534851074,8.232481002807617,6.496493816375732
1_20251106_212709,1762435595159,1,0.43870052695274353,0.23072664439678192,0.35740622878074646,0.7915604114532471,0.4427529573440552,3.08738374710083,2.3485963344573975,0.5056338906288147,8.114391326904297,6.589471817016602,-0.17150790989398956,0.04638754203915596,-0.0678250715136528,21.857919692993164,-29.65628433227539,-4.196977615356445,-0.18162840604782104,-0.09447193145751953,0.07438230514526367,0.6872622966766357,8.208863258361816,6.515089511871338
1_20251106_212709,1762435595180,1,0.43923142552375793,0.22936491668224335,0.3565109968185425,0.7920652627944946,0.44226667284965515,3.077315092086792,2.373640537261963,0.36677616834640503,8.044961929321289,6.559545516967773,-0.15806889533996582,0.054939646273851395,-0.07515545189380646,21.935956954956055,-29.57522964477539,-4.287065505981445,-0.25638896226882935,-0.1311206817626953,0.035564422607421875,0.6231651306152344,8.176082611083984,6.523981094360352
1_20251106_212709,1762435595199,1,0.4398173391819,0.22799032926559448,0.3557833433151245,0.7924640774726868,0.44226667284965515,3.077315092086792,2.373640537261963,0.36677616834640503,8.044961929321289,6.559545516967773,-0.15806889533996582,0.054939646273851395,-0.07515545189380646,21.935956954956055,-29.57522964477539,-4.287065505981445,-0.25638896226882935,-0.1311206817626953,0.035564422607421875,0.6231651306152344,8.176082611083984,6.523981094360352
1_20251106_212709,1762435595218,1,0.4401806890964508,0.22665491700172424,0.35525763034820557,0.7928811311721802,0.43824851512908936,3.0569779872894287,2.4170377254486084,0.25545060634613037,7.618812084197998,6.644536018371582,-0.1079779714345932,0.06776780635118484,-0.004295140504837036,22.058002471923828,-29.578632354736328,-4.404071807861328,-0.2244202196598053,-0.38193464279174805,0.06604671478271484,0.47987082600593567,8.000746726989746,6.578489303588867
1_20251106_212709,1762435595236,1,0.4400084614753723,0.22549980878829956,0.35481736063957214,0.7935029864311218,0.4360070526599884,3.046536445617676,2.4358439445495605,0.42543160915374756,7.614023685455322,6.467372894287109,-0.10431278496980667,0.06410261988639832,0.05251527577638626,22.159099578857422,-29.52096939086914,-4.507223129272461,-0.04355138540267944,-0.30937862396240234,-0.08889341354370117,0.468982994556427,7.923402309417725,6.5562663078308105
1_20251106_212709,1762435595256,1,0.4394221603870392,0.22460123896598816,0.35424602031707764,0.7943375706672668,0.4360070526599884,3.046536445617676,2.4358439445495605,0.42543160915374756,7.614023685455322,6.467372894287109,-0.10431278496980667,0.06410261988639832,0.05251527577638626,22.199874877929688,-29.454853057861328,-4.5990447998046875,-0.04355138540267944,-0.30937862396240234,-0.08889341354370117,0.468982994556427,7.923402309417725,6.5562663078308105
1_20251106_212709,1762435595274,1,0.43863147497177124,0.22393082082271576,0.3532995581626892,0.7953847050666809,0.4337499141693115,3.033918857574463,2.4565300941467285,0.536757230758667,7.611629486083984,6.5092692375183105,-0.16234493255615234,0.015233438462018967,0.09222148358821869,22.249706268310547,-29.450191497802734,-4.745761871337891,0.05421936511993408,-0.2494182586669922,-0.03759765625,0.4825378656387329,7.861047744750977,6.5468668937683105
1_20251106_212709,1762435595293,1,0.438042551279068,0.22338514029979706,0.351982444524765,0.7964459657669067,0.4311821162700653,3.0131325721740723,2.490311861038208,0.6612503528594971,7.823507308959961,6.742693901062012,-0.17578396201133728,0.024396410211920738,0.03907625004649162,22.28726577758789,-29.43484878540039,-4.784576416015625,0.12127101421356201,-0.007937431335449219,0.14084291458129883,0.5399793386459351,7.83144474029541,6.601850986480713
1_20251106_212709,1762435595312,1,0.4378244876861572,0.2225387990474701,0.35071244835853577,0.7973625063896179,0.4301314055919647,3.003161668777466,2.5076563358306885,0.543939471244812,7.897724151611328,6.836063861846924,-0.17395135760307312,0.05555051565170288,-0.03911443054676056,22.324417114257812,-29.431659698486328,-4.864202499389648,0.0031681060791015625,0.053023338317871094,0.18737030029296875,0.5407713651657104,7.844700813293457,6.648693561553955
1_20251106_212709,1762435595332,1,0.43831050395965576,0.2213117629289627,0.3496891260147095,0.7978862524032593,0.4301314055919647,3.003161668777466,2.5076563358306885,0.543939471244812,7.897724151611328,6.836063861846924,-0.17395135760307312,0.05555051565170288,-0.03911443054676056,22.336997985839844,-29.43032455444336,-4.917778015136719,0.0031681060791015625,0.053023338317871094,0.18737030029296875,0.5407713651657104,7.844700813293457,6.648693561553955
1_20251106_212709,1762435595351,1,0.4388306140899658,0.21980583667755127,0.3490312695503235,0.7983046174049377,0.4266192615032196,2.9835290908813477,2.543144941329956,0.35480567812919617,7.669087886810303,6.980906963348389,-0.10736710578203201,0.08120682835578918,-0.06843593716621399,22.31392478942871,-29.41854476928711,-4.999591827392578,-0.11863496899604797,-0.13460969924926758,0.21912813186645508,0.47344064712524414,7.80369758605957,6.761778831481934
1_20251106_212709,1762435595371,1,0.43914663791656494,0.21841105818748474,0.34874677658081055,0.7986379265785217,0.4266192615032196,2.9835290908813477,2.543144941329956,0.35480567812919617,7.669087886810303,6.980906963348389,-0.10736710578203201,0.08120682835578918,-0.06843593716621399,22.22931480407715,-29.423160552978516,-5.097639083862305,-0.11863496899604797,-0.13460969924926758,0.21912813186645508,0.47344064712524414,7.80369758605957,6.761778831481934
1_20251106_212709,1762435595389,1,0.4389006495475769,0.21720118820667267,0.3484748601913452,0.7992215752601624,0.42425981163978577,2.9724230766296387,2.5625200271606445,0.39311128854751587,7.637964725494385,6.883945941925049,-0.06521744281053543,0.04272235184907913,0.054958734661340714,22.16686248779297,-29.463993072509766,-5.181980133056641,-0.0642634928226471,-0.13258600234985352,0.0977334976196289,0.45737478137016296,7.770550727844238,6.78621244430542
1_20251106_212709,1762435595408,1,0.4382071793079376,0.2165500521659851,0.34805721044540405,0.7999604344367981,0.42089372873306274,2.9545681476593018,2.5914804935455322,0.545136570930481,7.51945686340332,6.834866523742676,-0.05910879373550415,0.010957385413348675,0.09466494619846344,22.194339752197266,-29.423381805419922,-5.315370559692383,0.07321351766586304,-0.16587162017822266,0.02826547622680664,0.4719230532646179,7.685328483581543,6.806601047515869
1_20251106_212709,1762435595427,1,0.4372890591621399,0.2163367122411728,0.34741491079330444,0.8007993102073669,0.41999638080596924,2.945260763168335,2.6061923503875732,0.7199057340621948,7.653526306152344,6.852822780609131,-0.05238928645849228,-0.003703367430716753,0.08916716277599335,22.144481658935547,-29.45126724243164,-5.3584089279174805,0.19838613271713257,-0.025442123413085938,0.036977291107177734,0.5215196013450623,7.67896842956543,6.815845489501953
1_20251106_212709,1762435595446,1,0.43656209111213684,0.21645066142082214,0.34666264057159424,0.8014909029006958,0.41983598470687866,2.9364473819732666,2.6204769611358643,0.7737729549407959,7.6894378662109375,6.928236484527588,-0.04505890607833862,-0.0061468263156712055,0.043963171541690826,22.094032287597656,-29.479961395263672,-5.32034969329834,0.20180273056030273,0.00837564468383789,0.08991289138793945,0.5719702243804932,7.6810622215271,6.838323593139648
1_20251106_212709,1762435595465,1,0.4360926151275635,0.21675936877727509,0.34603437781333923,0.8019344210624695,0.4199121296405792,2.927926778793335,2.6341757774353027,0.6552650928497314,7.627191543579102,6.885142803192139,-0.006574432365596294,-0.009812015108764172,-0.001240817829966545,22.092819213867188,-29.504802703857422,-5.347909927368164,0.06663590669631958,-0.04309654235839844,0.03745555877685547,0.5886291861534119,7.6702880859375,6.847687244415283
1_20251106_212709,1762435595485,1,0.4357793629169464,0.2170901894569397,0.34573692083358765,0.8021435141563416,0.4199121296405792,2.927926778793335,2.6341757774353027,0.6552650928497314,7.627191543579102,6.885142803192139,0.03191004693508148,-0.03424660116434097,-0.006738600321114063,22.055965423583984,-29.507587432861328,-5.308832168579102,0.06663590669631958,-0.04309654235839844,0.03745555877685547,0.5886291861534119,7.6702880859375,6.847687244415283
1_20251106_212709,1762435595504,1,0.4356827735900879,0.21760793030261993,0.34569698572158813,0.8020728826522827,0.41962164640426636,2.9183382987976074,2.6481235027313232,0.47810178995132446,7.478757381439209,6.717555999755859,0.041073016822338104,-0.06112464889883995,0.02380463480949402,22.06774139404297,-29.51894760131836,-5.349154472351074,-0.08842194080352783,-0.15322446823120117,-0.10410499572753906,0.5665237307548523,7.63198184967041,6.821660995483398
1_20251106_212709,1762435595524,1,0.43539372086524963,0.218185156583786,0.34575194120407104,0.8020493388175964,0.41711369156837463,2.9007861614227295,2.6689469814300537,0.17285418510437012,7.284834861755371,6.58109188079834,0.011140646412968636,-0.06540069729089737,0.054347869008779526,22.09231185913086,-29.517086029052734,-5.375205993652344,-0.2741657793521881,-0.2244725227355957,-0.1639237403869629,0.4470199644565582,7.509307384490967,6.745015621185303
1_20251106_212709,1762435595542,1,0.43497610092163086,0.2184528112411499,0.3455658257007599,0.8022832274436951,0.41711369156837463,2.9007861614227295,2.6689469814300537,0.17285418510437012,7.284834861755371,6.58109188079834,-0.01634826883673668,-0.05257254093885422,0.07206295430660248,22.04296112060547,-29.53268814086914,-5.390948295593262,-0.2741657793521881,-0.2244725227355957,-0.1639237403869629,0.4470199644565582,7.509307384490967,6.745015621185303
1_20251106_212709,1762435595560,1,0.4344713091850281,0.2183864265680313,0.34536442160606384,0.8026614785194397,0.4118962585926056,2.8816580772399902,2.6873326301574707,0.1596866399049759,7.348278522491455,6.630171298980713,-0.037117667496204376,-0.04096611216664314,0.08916716277599335,21.977506637573242,-29.612407684326172,-5.354434967041016,-0.19097985327243805,-0.09156656265258789,-0.07062768936157227,0.35066649317741394,7.439845085144043,6.700798988342285
1_20251106_212709,1762435595580,1,0.4337477385997772,0.2181815207004547,0.34499451518058777,0.8032673597335815,0.4085707366466522,2.872309684753418,2.6960346698760986,0.19679516553878784,7.469181060791016,6.6684770584106445,-0.037117667496204376,-0.04096611216664314,0.08916716277599335,21.97801399230957,-29.600116729736328,-5.327138900756836,-0.12309706211090088,0.023468971252441406,-0.02585744857788086,0.3198922276496887,7.445712089538574,6.694334506988525
1_20251106_212709,1762435595599,1,0.43288102746009827,0.21753528714179993,0.34468528628349304,0.8040425777435303,0.4058752954006195,2.8645660877227783,2.7033700942993164,0.37994372844696045,7.5469889640808105,6.6517181396484375,-0.0774347335100174,0.03355938196182251,0.07572814077138901,22.019691467285156,-29.521175384521484,-5.445730209350586,0.048041194677352905,0.08102178573608398,-0.034093379974365234,0.33190253376960754,7.465967178344727,6.685811519622803
1_20251106_212709,1762435595620,1,0.43217572569847107,0.21666158735752106,0.34447938203811646,0.8047458529472351,0.4031611979007721,2.856243133544922,2.7112855911254883,0.4134610891342163,7.543397903442383,6.621791839599609,-0.0774347335100174,0.03355938196182251,0.07572814077138901,22.019691467285156,-29.521175384521484,-5.445730209350586,0.06524685025215149,0.06194448471069336,-0.05121612548828125,0.3482142388820648,7.4814534187316895,6.673007965087891
1_20251106_212709,1762435595638,1,0.43190500140190125,0.21615931391716003,0.34415239095687866,0.8051660656929016,0.40072163939476013,2.8488619327545166,2.718116044998169,0.30931782722473145,7.398555278778076,6.682841777801514,-0.09331721812486649,0.01706603355705738,0.05312614142894745,21.96933937072754,-29.549739837646484,-5.421187400817871,-0.031117141246795654,-0.06631851196289062,0.007866859436035156,0.3404349684715271,7.464873790740967,6.6749749183654785
1_20251106_212709,1762435595656,1,0.43153002858161926,0.21575462818145752,0.34372058510780334,0.8056599497795105,0.40072163939476013,2.8488619327545166,2.718116044998169,0.30931782722473145,7.398555278778076,6.682841777801514,-0.10248018801212311,0.018898626789450645,0.09099975973367691,21.89560317993164,-29.578540802001953,-5.532788276672363,-0.031117141246795654,-0.06631851196289062,0.007866859436035156,0.3404349684715271,7.464873790740967,6.6749749183654785
1_20251106_212709,1762435595675,1,0.4308543801307678,0.21513085067272186,0.34309157729148865,0.8064560890197754,0.3981150686740875,2.84142804145813,2.724518299102783,0.23510074615478516,7.31117057800293,6.643339157104492,-0.10186932981014252,0.03355938196182251,0.1068822368979454,21.797199249267578,-29.609333038330078,-5.60482120513916,-0.08426737785339355,-0.12296247482299805,-0.025308609008789062,0.3193681240081787,7.434133052825928,6.668647766113281
1_20251106_212709,1762435595695,1,0.43000176548957825,0.21432141959667206,0.34254831075668335,0.8073570728302002,0.3929082155227661,2.8255903720855713,2.734957218170166,0.30452960729599,7.11724853515625,6.365623474121094,-0.10431278496980667,0.0750981867313385,0.07878246158361435,21.75952911376953,-29.636425018310547,-5.647369384765625,-0.0014525055885314941,-0.21410608291625977,-0.22094106674194336,0.3059821128845215,7.33135461807251,6.586564540863037
1_20251106_212709,1762435595714,1,0.4292663037776947,0.21317408978939056,0.3421935439109802,0.8082022070884705,0.3929082155227661,2.8255903720855713,2.734957218170166,0.30452960729599,7.11724853515625,6.365623474121094,-0.13546688854694366,0.13007602095603943,0.01158734131604433,21.770503997802734,-29.660472869873047,-5.674439430236816,-0.0014525055885314941,-0.21410608291625977,-0.22094106674194336,0.3059821128845215,7.33135461807251,6.586564540863037
1_20251106_212709,1762435595733,1,0.42894113063812256,0.2114747166633606,0.3420104682445526,0.8088985085487366,0.38784611225128174,2.80586314201355,2.742068290710449,0.296150267124176,6.487600326538086,6.396746635437012,-0.17150792479515076,0.1826103776693344,-0.040947023779153824,21.793354034423828,-29.695743560791016,-5.755348205566406,0.002517879009246826,-0.592289924621582,-0.11688709259033203,0.2936323881149292,7.079890251159668,6.513633728027344
1_20251106_212709,1762435595752,1,0.42898133397102356,0.20888638496398926,0.341642826795578,0.8097046613693237,0.3861021101474762,2.7945058345794678,2.745138645172119,0.509225070476532,6.622866630554199,6.505678176879883,-0.22892919182777405,0.18994075059890747,-0.050109993666410446,21.79424285888672,-29.694530487060547,-5.876995086669922,0.17247414588928223,-0.3656187057495117,-0.006364345550537109,0.33675092458724976,6.988485336303711,6.51204252243042
1_20251106_212709,1762435595771,1,0.42890405654907227,0.20584283769130707,0.340599000453949,0.8109638690948486,0.3856968581676483,2.78402042388916,2.748661994934082,0.7929257750511169,7.099292755126953,6.733117580413818,-0.22892919182777405,0.18994075059890747,-0.050109993666410446,21.719507217407227,-29.73629379272461,-5.948310852050781,0.3649398684501648,0.08864593505859375,0.17685985565185547,0.42798590660095215,7.010646820068359,6.556257724761963
1_20251106_212709,1762435595790,1,0.42902860045433044,0.20294927060604095,0.33864879608154297,0.8124426603317261,0.38660213351249695,2.7749691009521484,2.753788471221924,0.898266077041626,7.342293739318848,7.204754829406738,-0.3846997022628784,0.14840194582939148,-0.060494694858789444,21.721101760864258,-29.722522735595703,-6.069693565368652,0.376224160194397,0.265317440032959,0.5187978744506836,0.522041916847229,7.076976299285889,6.685956954956055
1_20251106_212709,1762435595810,1,0.4296669065952301,0.20075425505638123,0.3361235558986664,0.8136983513832092,0.38660213351249695,2.7749691009521484,2.753788471221924,0.898266077041626,7.342293739318848,7.204754829406738,-0.35721075534820557,0.11908044666051865,-0.10264435410499573,21.784133911132812,-29.692493438720703,-6.161327362060547,0.376224160194397,0.265317440032959,0.5187978744506836,0.522041916847229,7.076976299285889,6.685956954956055
1_20251106_212709,1762435595830,1,0.4306201934814453,0.19881518185138702,0.3335573375225067,0.8147258758544922,0.3900327980518341,2.762056827545166,2.771843433380127,0.6373093128204346,7.774428367614746,7.7135009765625,-0.27413317561149597,0.09098067134618759,-0.10997474193572998,21.833879470825195,-29.67635726928711,-6.199650764465332,0.05576753616333008,0.4768218994140625,0.6763973236083984,0.5815417766571045,7.297606468200684,7.037103652954102
1_20251106_212709,1762435595848,1,0.4315798878669739,0.19712425768375397,0.33159658312797546,0.8154290318489075,0.39140668511390686,2.7586259841918945,2.7813963890075684,0.5547129511833191,7.704999923706055,7.682377815246582,-0.15257109701633453,0.04883100092411041,-0.03483837842941284,21.774444580078125,-29.666690826416016,-6.309968948364258,-0.02146303653717041,0.3259148597717285,0.5162191390991211,0.5761759877204895,7.379085063934326,7.166158676147461
1_20251106_212709,1762435595867,1,0.431812047958374,0.19635970890522003,0.3304952383041382,0.8159375786781311,0.39274415373802185,2.755640983581543,2.792361259460449,0.5319690108299255,7.61881160736084,7.46571159362793,-0.04200458526611328,-0.009812014177441597,0.0812259167432785,21.753583908081055,-29.617107391357422,-6.404507637023926,-0.03536558151245117,0.19178104400634766,0.23964262008666992,0.5673345923423767,7.427030563354492,7.22606897354126
1_20251106_212709,1762435595886,1,0.4310796856880188,0.19668012857437134,0.32987260818481445,0.8164994120597839,0.39425599575042725,2.753019332885742,2.802968978881836,0.6552650928497314,7.505092620849609,7.2957305908203125,-0.012683079577982426,-0.04096611216664314,0.13559287786483765,21.720932006835938,-29.56778335571289,-6.55360221862793,0.07034438848495483,0.06244945526123047,0.05572938919067383,0.5849207043647766,7.442643165588379,7.240001201629639
1_20251106_212709,1762435595905,1,0.430027574300766,0.19756881892681122,0.3293967843055725,0.8170315623283386,0.3963273763656616,2.750653028488159,2.813695192337036,0.7689847946166992,7.526639461517334,7.278972148895264,-0.012683079577982426,-0.04096611216664314,0.13559287786483765,21.699464797973633,-29.530620574951172,-6.661921501159668,0.14725124835968018,0.06719732284545898,0.03117656707763672,0.621733546257019,7.459442138671875,7.247795581817627
1_20251106_212709,1762435595925,1,0.42943108081817627,0.19835609197616577,0.32868900895118713,0.8174394965171814,0.3986518681049347,2.7488458156585693,2.8242781162261963,0.7390585541725159,7.604447364807129,7.377130508422852,-0.09148462116718292,-0.009812015108764172,0.03907625004649162,21.698352813720703,-29.55533218383789,-6.702998161315918,0.09386003017425537,0.11600446701049805,0.10346794128417969,0.6451985239982605,7.488442897796631,7.273662567138672
1_20251106_212709,1762435595942,1,0.42925751209259033,0.19824928045272827,0.32786884903907776,0.8178858160972595,0.3986518681049347,2.7488458156585693,2.8242781162261963,0.7390585541725159,7.604447364807129,7.377130508422852,-0.08476511389017105,-0.013477202504873276,0.0060895588248968124,21.72482681274414,-29.52768325805664,-6.796103477478027,0.09386003017425537,0.11600446701049805,0.10346794128417969,0.6451985239982605,7.488442897796631,7.273662567138672
1_20251106_212709,1762435595963,1,0.4292135536670685,0.19803538918495178,0.3271845281124115,0.8182346820831299,0.40223971009254456,2.746720314025879,2.843252420425415,0.4206433892250061,7.512274742126465,7.39508581161499,-0.05238928645849228,-0.029359685257077217,-0.025064542889595032,21.66420555114746,-29.519634246826172,-6.744226455688477,-0.18489378690719604,-0.011944293975830078,0.07924318313598633,0.6055371761322021,7.524219036102295,7.315842628479004
1_20251106_212709,1762435595980,1,0.4295564293861389,0.1980351060628891,0.32672932744026184,0.8182367086410522,0.40267521142959595,2.7454891204833984,2.8520047664642334,0.24228304624557495,7.420102119445801,7.353188991546631,-0.03895026445388794,-0.007979420945048332,-0.03667097166180611,21.639522552490234,-29.53323745727539,-6.79953670501709,-0.29060328006744385,-0.08329343795776367,0.029877185821533203,0.5328863263130188,7.5033955574035645,7.323311805725098
1_20251106_212709,1762435596000,1,0.42975056171417236,0.19775357842445374,0.3265339136123657,0.8182808756828308,0.4022696614265442,2.7442238330841064,2.8613524436950684,0.24826829135417938,7.5146684646606445,7.3591742515563965,-0.04261545091867447,0.023174678906798363,-0.03300578519701958,21.65039825439453,-29.557422637939453,-6.8130903244018555,-0.22769443690776825,0.009018421173095703,0.028689861297607422,0.47596272826194763,7.505650043487549,7.330484390258789
1_20251106_212709,1762435596019,1,0.42985355854034424,0.19719332456588745,0.3264402449131012,0.8183993101119995,0.4022696614265442,2.7442238330841064,2.8613524436950684,0.24826829135417938,7.5146684646606445,7.3591742515563965,-0.024900373071432114,0.024396410211920738,-0.017123300582170486,21.64948272705078,-29.581859588623047,-6.881199836730957,-0.22769443690776825,0.009018421173095703,0.028689861297607422,0.47596272826194763,7.505650043487549,7.330484390258789
1_20251106_212709,1762435596041,1,0.42976975440979004,0.1967465877532959,0.32647761702537537,0.8185359239578247,0.4014630615711212,2.743248701095581,2.870692491531372,0.3560027480125427,7.591279983520508,7.335233688354492,0.02946658618748188,-0.010422879830002785,0.003035235218703747,21.62561798095703,-29.571155548095703,-6.854884147644043,-0.09596797823905945,0.06850433349609375,0.0037994384765625,0.4519707262516022,7.522775650024414,7.33143424987793
1_20251106_212709,1762435596059,1,0.42957374453544617,0.19690680503845215,0.32674843072891235,0.8184922337532043,0.3994605541229248,2.7408509254455566,2.8863515853881836,0.3224853575229645,7.365037441253662,7.301715850830078,0.06611847132444382,-0.015309796668589115,-0.004906006157398224,21.62561798095703,-29.571155548095703,-6.854884147644043,-0.09302160143852234,-0.11416769027709961,-0.02457427978515625,0.4155069589614868,7.479205131530762,7.326290130615234
1_20251106_212709,1762435596077,1,0.4293919503688812,0.19722604751586914,0.32727253437042236,0.8183013796806335,0.3994605541229248,2.7408509254455566,2.8863515853881836,0.3224853575229645,7.365037441253662,7.301715850830078,0.06611847132444382,0.025007275864481926,-0.05194259062409401,21.622501373291016,-29.621784210205078,-6.815391540527344,-0.09302160143852234,-0.11416769027709961,-0.02457427978515625,0.4155069589614868,7.479205131530762,7.326290130615234
1_20251106_212709,1762435596096,1,0.4293819069862366,0.1970369964838028,0.328064501285553,0.8180350065231323,0.3965413272380829,2.7360761165618896,2.898818254470825,0.2973473072052002,7.0286664962768555,7.031183242797852,0.0722271203994751,0.04699840769171715,-0.09531398117542267,21.622501373291016,-29.621784210205078,-6.815391540527344,-0.0752391517162323,-0.318605899810791,-0.21836376190185547,0.3725864589214325,7.3472723960876465,7.249547004699707
1_20251106_212709,1762435596115,1,0.4296509921550751,0.1965653896331787,0.3290596604347229,0.8176073431968689,0.3965413272380829,2.7360761165618896,2.898818254470825,0.2973473072052002,7.0286664962768555,7.031183242797852,0.05634463578462601,0.038446299731731415,-0.07515545189380646,21.618892669677734,-29.673091888427734,-6.708316802978516,-0.0752391517162323,-0.318605899810791,-0.21836376190185547,0.3725864589214325,7.3472723960876465,7.249547004699707
1_20251106_212709,1762435596134,1,0.42979535460472107,0.19615350663661957,0.3298563063144684,0.8173093199729919,0.39321938157081604,2.726990222930908,2.907038450241089,0.3679732084274292,6.845518112182617,6.862398624420166,0.05634463578462601,0.038446299731731415,-0.07515545189380646,21.642658233642578,-29.68392562866211,-6.721116065979004,0.007006973028182983,-0.3270602226257324,-0.2571597099304199,0.3609662353992462,7.17257833480835,7.119558334350586
1_20251106_212709,1762435596154,1,0.4296562969684601,0.19599737226963043,0.33008837699890137,0.8173262476921082,0.3916642963886261,2.72164249420166,2.9102420806884766,0.34882044792175293,6.948464393615723,7.058714866638184,0.015416698530316353,0.010957385413348675,-0.013458111323416233,21.641756057739258,-29.69675064086914,-6.694347381591797,-0.009716629981994629,-0.1792912483215332,-0.048674583435058594,0.35853707790374756,7.127755641937256,7.107389450073242
1_20251106_212709,1762435596172,1,0.4291991889476776,0.19605453312397003,0.3297503590583801,0.817689061164856,0.39036720991134644,2.7165892124176025,2.913414716720581,0.4242345690727234,7.137598037719727,7.154479026794434,-0.03650680184364319,0.0030161445029079914,0.06228911504149437,21.6568603515625,-29.64559555053711,-6.706317901611328,0.05255797505378723,0.00787353515625,0.037671566009521484,0.37167659401893616,7.129724502563477,7.116807460784912
1_20251106_212709,1762435596192,1,0.42871344089508057,0.19593383371829987,0.3292943835258484,0.8181564211845398,0.38942641019821167,2.7113778591156006,2.916785478591919,0.48887521028518677,7.07774543762207,7.182011127471924,0.002588537521660328,0.024396410211920738,0.018306853249669075,21.681739807128906,-29.631717681884766,-6.678040504455566,0.09375888109207153,-0.04158306121826172,0.05216264724731445,0.39511632919311523,7.119328498840332,7.129848480224609
1_20251106_212709,1762435596210,1,0.4283681809902191,0.19580958783626556,0.32935601472854614,0.8183422088623047,0.3888970911502838,2.706855058670044,2.919318437576294,0.5068309307098389,7.092109680175781,6.988089084625244,0.01663842797279358,0.03722456842660904,-0.02262108400464058,21.705913543701172,-29.63039779663086,-6.650027275085449,0.0893716812133789,-0.021774768829345703,-0.11340761184692383,0.41745924949645996,7.113884449005127,7.101496696472168
1_20251106_212709,1762435596230,1,0.42821428179740906,0.1955486238002777,0.3295261263847351,0.8184166550636292,0.3887956440448761,2.7018401622772217,2.9218475818634033,0.5678805112838745,7.034651756286621,7.053926944732666,0.01663842797279358,0.03722456842660904,-0.02262108400464058,21.743473052978516,-29.615055084228516,-6.688840866088867,0.12033700942993164,-0.0633859634399414,-0.0380558967590332,0.44754350185394287,7.0980377197265625,7.091982841491699
1_20251106_212709,1762435596250,1,0.42832744121551514,0.19544316828250885,0.32969537377357483,0.8183144330978394,0.38921430706977844,2.69669771194458,2.9239888191223145,0.6169595122337341,6.973602294921875,7.006044864654541,-0.0010766498744487762,0.029894191771745682,-0.03606010600924492,21.83925437927246,-29.634220123291016,-6.644896507263184,0.13553279638290405,-0.09954833984375,-0.06875038146972656,0.4814267158508301,7.073150634765625,7.074795246124268
1_20251106_212709,1762435596268,1,0.42837631702423096,0.19556447863578796,0.32954058051109314,0.8183222413063049,0.38921430706977844,2.69669771194458,2.9239888191223145,0.6169595122337341,6.973602294921875,7.006044864654541,0.00014507956802845,-0.04096611216664314,-0.004906006157398224,21.85101890563965,-29.65719223022461,-6.780097007751465,0.13553279638290405,-0.09954833984375,-0.06875038146972656,0.4814267158508301,7.073150634765625,7.074795246124268
1_20251106_212709,1762435596288,1,0.4282321333885193,0.196098193526268,0.3292151987552643,0.8184009194374084,0.38963252305984497,2.686325788497925,2.926908254623413,0.29854434728622437,6.926917552947998,6.9342217445373535,-0.027343833819031715,-0.037300921976566315,0.006700423080474138,21.899354934692383,-29.66616439819336,-6.818947792053223,-0.15037056803703308,-0.08746051788330078,-0.09667062759399414,0.44891491532325745,7.014378070831299,7.030892372131348
1_20251106_212709,1762435596306,1,0.42759647965431213,0.19613274931907654,0.32883620262145996,0.8188772797584534,0.38963252305984497,2.686325788497925,2.926908254623413,0.29854434728622437,6.926917552947998,6.9342217445373535,-0.04872409999370575,-0.004314232151955366,-0.023231949657201767,21.887874603271484,-29.654399871826172,-6.819173812866211,-0.15037056803703308,-0.08746051788330078,-0.09667062759399414,0.44891491532325745,7.014378070831299,7.030892372131348
1_20251106_212709,1762435596325,1,0.4268887937068939,0.19535759091377258,0.3288070857524872,0.8194432854652405,0.3892901539802551,2.6806821823120117,2.92842960357666,0.3560027480125427,6.868261814117432,7.11976432800293,-0.04872409999370575,-0.004314232151955366,-0.023231949657201767,21.939437866210938,-29.600994110107422,-6.816156387329102,-0.07432973384857178,-0.11689329147338867,0.07109737396240234,0.4303324818611145,6.98515510559082,7.048666954040527
1_20251106_212709,1762435596344,1,0.4261739253997803,0.19425107538700104,0.3287495970726013,0.8201012015342712,0.38828954100608826,2.6705517768859863,2.93072247505188,0.3919142186641693,6.874247074127197,6.917463302612305,-0.04200458526611328,0.02073122002184391,-0.02872973307967186,21.949806213378906,-29.637462615966797,-6.857006072998047,-0.018841862678527832,-0.07270526885986328,-0.10637903213500977,0.41075608134269714,6.9469523429870605,7.0238423347473145
1_20251106_212709,1762435596364,1,0.42634740471839905,0.19370107352733612,0.32847273349761963,0.8202520608901978,0.38828954100608826,2.6705517768859863,2.93072247505188,0.3919142186641693,6.874247074127197,6.917463302612305,-0.04200458526611328,0.02073122002184391,-0.02872973307967186,21.964712142944336,-29.58657455444336,-6.841943740844727,-0.018841862678527832,-0.07270526885986328,-0.10637903213500977,0.41075608134269714,6.9469523429870605,7.0238423347473145
1_20251106_212709,1762435596382,1,0.4261576533317566,0.1935221552848816,0.3279479146003723,0.8206028342247009,0.3875598609447479,2.660439968109131,2.9320156574249268,0.5379542708396912,7.005922317504883,7.035971164703369,-0.08537597954273224,-0.029359685257077217,0.07817159593105316,21.963104248046875,-29.611957550048828,-6.815439224243164,0.10075116157531738,0.05612754821777344,0.02595806121826172,0.4372031092643738,6.949794769287109,7.010013103485107
1_20251106_212709,1762435596402,1,0.42574653029441833,0.19371344149112701,0.32705244421958923,0.8211283087730408,0.3877685070037842,2.6564278602600098,2.933391809463501,0.5762597918510437,7.153160095214844,7.278972148895264,-0.07071522623300552,-0.056237731128931046,0.10443878173828125,21.955036163330078,-29.54916000366211,-6.895708084106445,0.11124533414840698,0.16269207000732422,0.21516704559326172,0.4650144577026367,6.9904680252075195,7.063805103302002
1_20251106_212709,1762435596421,1,0.4251263439655304,0.19439111649990082,0.32606616616249084,0.821681559085846,0.3884609043598175,2.6530232429504395,2.936189889907837,0.6241418123245239,7.190268516540527,7.531549453735352,0.05512290447950363,-0.09166788309812546,0.12642990052700043,21.932384490966797,-29.513614654541016,-6.841832160949707,0.1273018717765808,0.15984058380126953,0.3741950988769531,0.4968399405479431,7.030427932739258,7.157354354858398
1_20251106_212709,1762435596439,1,0.4242960512638092,0.19588316977024078,0.3257673978805542,0.8218748569488525,0.38938406109809875,2.6506237983703613,2.939014196395874,0.631324052810669,7.238150119781494,7.332839488983154,0.18951314687728882,-0.1258763074874878,0.19118157029151917,21.861778259277344,-29.480167388916016,-6.898048400878906,0.10758727788925171,0.16617774963378906,0.14038801193237305,0.5237367749214172,7.071972370147705,7.192451477050781
1_20251106_212709,1762435596460,1,0.42260295152664185,0.19813458621501923,0.3260791003704071,0.8220838308334351,0.39077985286712646,2.6483569145202637,2.9411187171936035,0.6349152326583862,7.1890716552734375,6.886340141296387,0.17179806530475616,-0.14786744117736816,0.2406616061925888,21.824203491210938,-29.507122039794922,-6.954113006591797,0.0889427661895752,0.09367942810058594,-0.2448887825012207,0.545972466468811,7.095392227172852,7.131228923797607
1_20251106_212709,1762435596480,1,0.42079979181289673,0.2007627785205841,0.3262539207935333,0.8223018050193787,0.39077985286712646,2.6483569145202637,2.9411187171936035,0.6349152326583862,7.1890716552734375,6.886340141296387,0.17179806530475616,-0.14786744117736816,0.2406616061925888,21.824203491210938,-29.507122039794922,-6.954113006591797,0.0889427661895752,0.09367942810058594,-0.2448887825012207,0.545972466468811,7.095392227172852,7.131228923797607
1_20251106_212709,1762435596499,1,0.4195590019226074,0.20301957428455353,0.32597455382347107,0.8224924802780151,0.3926062285900116,2.6460225582122803,2.942448854446411,0.6648415327072144,7.074154853820801,6.92344856262207,-0.037728533148765564,-0.10083085298538208,0.12642991542816162,21.68642234802246,-29.590534210205078,-7.02867317199707,0.09509527683258057,-0.016989707946777344,-0.16622447967529297,0.5697462558746338,7.091144561767578,7.089673042297363
1_20251106_212709,1762435596516,1,0.41902461647987366,0.20422407984733582,0.3251121938228607,0.8228079676628113,0.394546240568161,2.6446683406829834,2.943192481994629,0.7306792140007019,7.295608997344971,6.962951183319092,-0.037728533148765564,-0.10083085298538208,0.12642991542816162,21.68642234802246,-29.590534210205078,-7.02867317199707,0.12874633073806763,0.16357135772705078,-0.10137748718261719,0.6019328832626343,7.13203763961792,7.064328670501709
1_20251106_212709,1762435596536,1,0.4192746579647064,0.2049025446176529,0.3242760896682739,0.8228418827056885,0.39827191829681396,2.644227981567383,2.9454193115234375,0.6612503528594971,7.4871368408203125,7.283760070800781,-0.10431278496980667,-0.0018707733834162354,-0.012236383743584156,21.63294219970703,-29.681339263916016,-7.059514999389648,0.031642794609069824,0.24143695831298828,0.15422582626342773,0.6296075582504272,7.245699882507324,7.1295342445373535
1_20251106_212709,1762435596555,1,0.4196365177631378,0.20466244220733643,0.32364585995674133,0.8229652643203735,0.40009674429893494,2.644994020462036,2.947129487991333,0.5750627517700195,7.476363182067871,7.2490458488464355,-0.0823216587305069,0.045165810734033585,-0.07759890705347061,21.61964225769043,-29.706844329833984,-7.101081848144531,-0.04363584518432617,0.18453073501586914,0.09560918807983398,0.6186985969543457,7.291832447052002,7.153436660766602
1_20251106_212709,1762435596574,1,0.42034411430358887,0.20390751957893372,0.32354259490966797,0.8228321671485901,0.40121760964393616,2.645975351333618,2.9493377208709717,0.38712602853775024,7.362643241882324,7.317277908325195,-0.0823216587305069,0.045165810734033585,-0.07759890705347061,21.494766235351562,-29.76528549194336,-7.080009460449219,-0.18525803089141846,0.05664873123168945,0.131072998046875,0.5723840594291687,7.305994510650635,7.18620491027832
1_20251106_212709,1762435596593,1,0.42150723934173584,0.20326942205429077,0.323803186416626,0.8222923278808594,0.4013005197048187,2.647174119949341,2.9515721797943115,0.233903706073761,7.420101642608643,7.274184226989746,-0.030398156493902206,0.015844302251935005,-0.12097030878067017,21.44359588623047,-29.81814956665039,-7.137092590332031,-0.27078431844711304,0.09128570556640625,0.07038354873657227,0.504688024520874,7.328815937042236,7.203800678253174
1_20251106_212709,1762435596612,1,0.42249658703804016,0.20235109329223633,0.3241408169269562,0.8218779563903809,0.4003276526927948,2.6482415199279785,2.9541802406311035,0.12138106673955917,7.302790641784668,7.380721092224121,-0.007796161808073521,0.0017944149440154433,-0.04583394527435303,21.4050235748291,-29.85806655883789,-7.152872085571289,-0.30664554238319397,-0.020820140838623047,0.14153671264648438,0.42802661657333374,7.323610782623291,7.239184379577637
1_20251106_212709,1762435596632,1,0.4228459298610687,0.20168781280517578,0.32467567920684814,0.8216502070426941,0.4003276526927948,2.6482415199279785,2.9541802406311035,0.12138106673955917,7.302790641784668,7.380721092224121,0.04168388247489929,-0.017753256484866142,0.047628358006477356,21.42959213256836,-29.856204986572266,-7.178923606872559,-0.30664554238319397,-0.020820140838623047,0.14153671264648438,0.42802661657333374,7.323610782623291,7.239184379577637
1_20251106_212709,1762435596653,1,0.42232745885849,0.20131653547286987,0.32523927092552185,0.8217849731445312,0.3971669673919678,2.648958921432495,2.9599266052246094,0.45056962966918945,7.142386436462402,7.131734848022461,0.06000982224941254,-0.017142390832304955,0.08916716277599335,21.39495086669922,-29.821186065673828,-7.152570724487305,0.05120086669921875,-0.12096357345581055,-0.10726451873779297,0.3993687629699707,7.263350009918213,7.238999366760254
1_20251106_212709,1762435596670,1,0.4213793873786926,0.20120449364185333,0.32567036151885986,0.8221282958984375,0.3971669673919678,2.648958921432495,2.9599266052246094,0.45056962966918945,7.142386436462402,7.131734848022461,0.0361860990524292,-0.029970549046993256,0.06351084262132645,21.393739700317383,-29.846027374267578,-7.180130958557129,0.05120086669921875,-0.12096357345581055,-0.10726451873779297,0.3993687629699707,7.263350009918213,7.238999366760254
1_20251106_212709,1762435596689,1,0.42084449529647827,0.2015644609928131,0.3258588910102844,0.8222393989562988,0.39601096510887146,2.6480839252471924,2.963596820831299,0.5774568319320679,7.139991760253906,7.213134288787842,0.0361860990524292,-0.029970549046993256,0.06351084262132645,21.381752014160156,-29.846553802490234,-7.207653999328613,0.11531704664230347,-0.07205390930175781,-0.004487514495849609,0.4621397852897644,7.212045669555664,7.217621803283691
1_20251106_212709,1762435596708,1,0.42060500383377075,0.20169997215270996,0.3258763551712036,0.8223218321800232,0.39593198895454407,2.6473000049591064,2.9654531478881836,0.572668731212616,7.123233795166016,7.244257926940918,0.01358410157263279,-0.008590285666286945,0.02380463480949402,21.380538940429688,-29.871402740478516,-7.2352142333984375,0.08842313289642334,-0.07104969024658203,0.02130889892578125,0.4842455983161926,7.194283485412598,7.222949028015137
1_20251106_212709,1762435596726,1,0.4204990267753601,0.2015049308538437,0.32596275210380554,0.822389543056488,0.39609041810035706,2.6466169357299805,2.967085123062134,0.5774568915367126,7.203435897827148,7.207149028778076,0.014194969087839127,0.018287761136889458,-0.029951460659503937,21.426761627197266,-29.918048858642578,-7.274857521057129,0.07456904649734497,0.007321834564208984,-0.012639999389648438,0.5028878450393677,7.1961140632629395,7.219789028167725
1_20251106_212709,1762435596745,1,0.4205349087715149,0.20120440423488617,0.3261302411556244,0.822378396987915,0.39609041810035706,2.6466169357299805,2.967085123062134,0.5774568915367126,7.203435897827148,7.207149028778076,0.014194969087839127,0.018287761136889458,-0.029951460659503937,21.392627716064453,-29.870746612548828,-7.221207618713379,0.07456904649734497,0.007321834564208984,-0.012639999389648438,0.5028878450393677,7.1961140632629395,7.219789028167725
1_20251106_212709,1762435596765,1,0.42067086696624756,0.20103496313095093,0.32640591263771057,0.822240948677063,0.3968764841556549,2.6452293395996094,2.9709980487823486,0.5343631505966187,7.111262798309326,7.325656890869141,0.017860155552625656,0.01401170901954174,-0.03606010600924492,21.405616760253906,-29.857257843017578,-7.233969688415527,0.014015257358551025,-0.07345724105834961,0.07407617568969727,0.5203478932380676,7.184720039367676,7.251580715179443
1_20251106_212709,1762435596783,1,0.42067381739616394,0.20088084042072296,0.326771080493927,0.8221320509910583,0.39738959074020386,2.6443824768066406,2.9725232124328613,0.5834421515464783,7.129219055175781,7.14490270614624,0.07039453089237213,0.009735655970871449,-0.03300578519701958,21.390005111694336,-29.920703887939453,-7.249296188354492,0.05047541856765747,-0.044400691986083984,-0.0853424072265625,0.5329667329788208,7.173619747161865,7.230245113372803
1_20251106_212709,1762435596804,1,0.42072123289108276,0.20078518986701965,0.327243834733963,0.8219430446624756,0.39783570170402527,2.6432080268859863,2.973342180252075,0.5080280303955078,7.055002212524414,6.971330165863037,0.0722271203994751,0.0017944149440154433,-0.06599247455596924,21.449018478393555,-29.95413589477539,-7.2746686935424805,-0.0199509859085083,-0.0948939323425293,-0.20713233947753906,0.5279790163040161,7.149896144866943,7.178462505340576
1_20251106_212709,1762435596823,1,0.4209836721420288,0.20084147155284882,0.32788971066474915,0.821537435054779,0.39796173572540283,2.64143443107605,2.9737982749938965,0.41944634914398193,6.910159111022949,7.06110954284668,0.03191004693508148,0.02378554455935955,-0.08798360824584961,21.446720123291016,-29.980464935302734,-7.153550148010254,-0.0868261456489563,-0.1917896270751953,-0.09388256072998047,0.5062724947929382,7.1019487380981445,7.15499210357666
1_20251106_212709,1762435596840,1,0.4215589165687561,0.20051886141300201,0.32844582200050354,0.821099042892456,0.39773815870285034,2.639338254928589,2.9740233421325684,0.3811407685279846,6.952054977416992,7.079064846038818,-0.0029092440381646156,0.0494418665766716,-0.08798360824584961,21.45921516418457,-29.967655181884766,-7.09873104095459,-0.10010537505149841,-0.11991500854492188,-0.06074190139770508,0.48124614357948303,7.071969985961914,7.139806747436523
1_20251106_212709,1762435596860,1,0.42182332277297974,0.1994917243719101,0.3287501633167267,0.8210916519165039,0.3970719873905182,2.6369211673736572,2.9740490913391113,0.3356528878211975,6.9664201736450195,7.074276924133301,-0.0022983793169260025,0.04088975861668587,-0.07393372058868408,21.43625259399414,-29.94412612915039,-7.099184036254883,-0.11647459864616394,-0.08443975448608398,-0.05242347717285156,0.45212748646736145,7.0508599281311035,7.126700401306152
1_20251106_212709,1762435596880,1,0.4220804274082184,0.1985914707183838,0.32902491092681885,0.8210676908493042,0.3957575261592865,2.6344921588897705,2.9739177227020264,0.22791846096515656,7.007120132446289,7.075473785400391,-0.0022983793169260025,0.04088975861668587,-0.07393372058868408,21.439071655273438,-29.89389419555664,-7.098128318786621,-0.17936722934246063,-0.03499174118041992,-0.040981292724609375,0.4072856903076172,7.042111873626709,7.116455078125
1_20251106_212709,1762435596899,1,0.4220416247844696,0.19807010889053345,0.32923179864883423,0.821130633354187,0.3940823972225189,2.6323845386505127,2.973719596862793,0.22911550104618073,7.072957992553711,7.087444305419922,0.0031994031742215157,0.0030161445029079914,0.05312614142894745,21.47441864013672,-29.91635513305664,-7.124217987060547,-0.14253614842891693,0.024677276611328125,-0.0232086181640625,0.37165164947509766,7.048280715942383,7.110652923583984
1_20251106_212709,1762435596920,1,0.42149627208709717,0.19772768020629883,0.3293217718601227,0.8214571475982666,0.39220285415649414,2.630298376083374,2.9737548828125,0.3356528878211975,7.086124897003174,7.183207988739014,-0.0035201087594032288,-0.0018707733834162354,0.10749310255050659,21.533344268798828,-29.938304901123047,-7.041195869445801,-0.028798997402191162,0.030275344848632812,0.0580439567565918,0.36445188522338867,7.055849552154541,7.125164031982422
1_20251106_212709,1762435596938,1,0.42055100202560425,0.19758890569210052,0.32929667830467224,0.8219848871231079,0.39119982719421387,2.6288304328918457,2.9740002155303955,0.5786539316177368,7.149568557739258,7.213134288787842,0.010529778897762299,0.007292197551578283,0.10627137124538422,21.54875946044922,-29.875125885009766,-6.998836517333984,0.17136162519454956,0.07497549057006836,0.07037591934204102,0.40729230642318726,7.0745930671691895,7.142758369445801
1_20251106_212709,1762435596956,1,0.419565886259079,0.1975388079881668,0.3292597234249115,0.8225150108337402,0.39103734493255615,2.6275439262390137,2.9743564128875732,0.7282850742340088,7.11844539642334,7.192784309387207,0.025190534070134163,0.015844302251935005,0.054958734661340714,21.54875946044922,-29.875125885009766,-6.998836517333984,0.2567942142486572,0.03508186340332031,0.04002094268798828,0.47149085998535156,7.0833635330200195,7.152763366699219
1_20251106_212709,1762435596975,1,0.41895100474357605,0.19772322475910187,0.32928645610809326,0.8227733373641968,0.39103734493255615,2.6275439262390137,2.9743564128875732,0.7282850742340088,7.11844539642334,7.192784309387207,0.020303616300225258,0.032337650656700134,-0.020788490772247314,21.55792808532715,-29.92483139038086,-6.972369194030762,0.2567942142486572,0.03508186340332031,0.04002094268798828,0.47149085998535156,7.0833635330200195,7.152763366699219
1_20251106_212709,1762435596994,1,0.4189090132713318,0.19776618480682373,0.3293333649635315,0.8227656483650208,0.39212602376937866,2.6244893074035645,2.9746053218841553,0.5630922913551331,6.950858116149902,7.039562225341797,0.015416696667671204,0.04027889668941498,-0.07576631009578705,21.595388412475586,-29.909626007080078,-6.997666358947754,0.03813141584396362,-0.09897661209106445,-0.08470630645751953,0.5249608755111694,7.049834728240967,7.124268531799316
1_20251106_212709,1762435597013,1,0.41924118995666504,0.19749806821346283,0.3295050859451294,0.8225920796394348,0.39212602376937866,2.6244893074035645,2.9746053218841553,0.5630922913551331,6.950858116149902,7.039562225341797,-0.005352702923119068,0.03966802731156349,-0.08431841433048248,21.620847702026367,-29.906551361083984,-7.145364761352539,0.03813141584396362,-0.09897661209106445,-0.08470630645751953,0.5249608755111694,7.049834728240967,7.124268531799316
1_20251106_212709,1762435597033,1,0.41982486844062805,0.1970003843307495,0.3295831084251404,0.8223824501037598,0.39230209589004517,2.622103214263916,2.9743945598602295,0.38712602853775024,6.809606552124023,7.063503265380859,-0.03650680184364319,0.03966803103685379,-0.04155788943171501,21.69719123840332,-29.839405059814453,-7.100553512573242,-0.11026787757873535,-0.1921825408935547,-0.048612117767333984,0.4973939061164856,7.001789093017578,7.112115383148193
1_20251106_212709,1762435597052,1,0.419954776763916,0.19609415531158447,0.3293810784816742,0.8226136565208435,0.39130958914756775,2.617581844329834,2.973419427871704,0.29136204719543457,7.029863357543945,7.116173267364502,-0.04872409999370575,0.02378554455935955,-0.0018516825512051582,21.719646453857422,-29.87521743774414,-7.127397537231445,-0.14009606838226318,0.0344390869140625,0.022324562072753906,0.43145811557769775,6.995424270629883,7.093848705291748
1_20251106_212709,1762435597070,1,0.4199785590171814,0.19550089538097382,0.3291376233100891,0.8228400945663452,0.39130958914756775,2.617581844329834,2.973419427871704,0.29136204719543457,7.029863357543945,7.116173267364502,-0.034063346683979034,0.011568250134587288,0.0299132838845253,21.766782760620117,-29.89742660522461,-7.098931312561035,-0.14009606838226318,0.0344390869140625,0.022324562072753906,0.43145811557769775,6.995424270629883,7.093848705291748
1_20251106_212709,1762435597091,1,0.4197106957435608,0.1950450837612152,0.328954815864563,0.8231579661369324,0.3890550136566162,2.614598035812378,2.9731533527374268,0.32727354764938354,7.180692195892334,7.184405326843262,-0.021846050396561623,0.01401170901954174,0.04946095123887062,21.71743392944336,-29.913028717041016,-7.114673614501953,-0.06323063373565674,0.13178682327270508,0.06255292892456055,0.3905041813850403,7.048905372619629,7.121852397918701
1_20251106_212709,1762435597110,1,0.41922634840011597,0.19470785558223724,0.3288731276988983,0.8235172033309937,0.3879062533378601,2.6139378547668457,2.973374605178833,0.4098699688911438,7.233362197875977,7.201164245605469,-0.017569996416568756,0.031115921214222908,0.05007181689143181,21.69325828552246,-29.914348602294922,-7.14268684387207,0.015492618083953857,0.14756536483764648,0.06344938278198242,0.39437735080718994,7.08579683303833,7.137714862823486
1_20251106_212709,1762435597129,1,0.4187021851539612,0.19433355331420898,0.3289235234260559,0.8238521218299866,0.3870466351509094,2.613431692123413,2.9736135005950928,0.4589489698410034,7.11844539642334,7.152084827423096,0.021525343880057335,0.026229003444314003,0.02930241823196411,21.686613082885742,-29.814823150634766,-7.127549171447754,0.051657289266586304,0.026118755340576172,0.01149606704711914,0.4072916805744171,7.092326641082764,7.140588760375977
1_20251106_212709,1762435597147,1,0.41832923889160156,0.19425736367702484,0.32924482226371765,0.8239311575889587,0.3863205909729004,2.612772226333618,2.9734530448913574,0.42662864923477173,7.009513854980469,6.988089084625244,0.027023131027817726,0.0341702476143837,0.018306853249669075,21.69929313659668,-29.813358306884766,-7.194640159606934,0.015469580888748169,-0.06625032424926758,-0.12199974060058594,0.41115906834602356,7.075764179229736,7.11008882522583
1_20251106_212709,1762435597165,1,0.4180479049682617,0.19417019188404083,0.32953399419784546,0.8239789009094238,0.3857927620410919,2.611902952194214,2.973041534423828,0.4769047200679779,6.977193355560303,7.004847526550293,0.027023131027817726,0.0341702476143837,0.018306853249669075,21.673425674438477,-29.82857894897461,-7.08775520324707,0.05259653925895691,-0.0788569450378418,-0.08419322967529297,0.424308180809021,7.0560503005981445,7.089040756225586
1_20251106_212709,1762435597185,1,0.417886346578598,0.19376833736896515,0.3295643627643585,0.8241432905197144,0.38552287220954895,2.6108803749084473,2.9725112915039062,0.5188014507293701,7.021484375,7.057518005371094,-0.04872409999370575,0.04333321750164032,0.007311287801712751,21.609886169433594,-29.870899200439453,-7.0234174728393555,0.07559460401535034,-0.027652740478515625,-0.02521800994873047,0.4432068467140198,7.049137115478516,7.082736015319824
1_20251106_212709,1762435597204,1,0.41774681210517883,0.19332163035869598,0.3293183743953705,0.824417233467102,0.38552287220954895,2.6108803749084473,2.9725112915039062,0.5188014507293701,7.021484375,7.057518005371094,-0.03650680184364319,0.01706603355705738,0.027469824999570847,21.635570526123047,-29.84433364868164,-7.008392333984375,0.07559460401535034,-0.027652740478515625,-0.02521800994873047,0.4432068467140198,7.049137115478516,7.082736015319824
1_20251106_212709,1762435597223,1,0.4174589216709137,0.19323213398456573,0.3290090262889862,0.8247075080871582,0.3853665888309479,2.6098437309265137,2.972046375274658,0.4769047498703003,7.044228553771973,7.101808547973633,-0.043837182223796844,0.014622574672102928,0.05007181689143181,21.601421356201172,-29.808643341064453,-7.049620628356934,0.026958346366882324,-0.0039272308349609375,0.015258312225341797,0.44994640350341797,7.048155784606934,7.086550235748291
1_20251106_212709,1762435597242,1,0.4171510338783264,0.1931714415550232,0.32859352231025696,0.8250430822372437,0.3851730525493622,2.609184503555298,2.9717702865600586,0.42303749918937683,7.123233795166016,7.128144264221191,-0.049945831298828125,0.031726788729429245,0.047628358006477356,21.566272735595703,-29.78591537475586,-7.050563812255859,-0.021527141332626343,0.060062408447265625,0.03327512741088867,0.4445646405220032,7.06317138671875,7.094869136810303
1_20251106_212709,1762435597261,1,0.4168027639389038,0.19288040697574615,0.32831916213035583,0.8253963589668274,0.38478198647499084,2.608855724334717,2.971647024154663,0.37276142835617065,7.1842827796936035,7.150887966156006,-0.026732968166470528,0.04516581445932388,0.03602192923426628,21.54180335998535,-29.787639617919922,-7.038028717041016,-0.057442545890808105,0.09688901901245117,0.0448155403137207,0.43020397424697876,7.087393760681152,7.106072425842285
1_20251106_212709,1762435597281,1,0.4164196848869324,0.19246849417686462,0.32839590311050415,0.8256552815437317,0.3846493363380432,2.60871958732605,2.9719364643096924,0.5152103304862976,7.150765895843506,7.24186372756958,-0.00962875597178936,0.04699840769171715,0.03663279488682747,21.489126205444336,-29.86575698852539,-7.082122802734375,0.06800508499145508,0.05069780349731445,0.10863351821899414,0.44720524549484253,7.100068092346191,7.133230209350586
1_20251106_212709,1762435597299,1,0.4159435033798218,0.1922488808631897,0.3283887207508087,0.8259493112564087,0.38580581545829773,2.6085093021392822,2.972738265991211,0.6708267331123352,7.101686477661133,7.095823764801025,-0.00962875597178936,0.04699840769171715,0.03663279488682747,21.51592254638672,-29.81447982788086,-7.0260210037231445,0.14848053455352783,0.0008440017700195312,-0.04251813888549805,0.5223461985588074,7.100842475891113,7.138341903686523
1_20251106_212709,1762435597319,1,0.41546061635017395,0.1923784613609314,0.3281775414943695,0.8262460231781006,0.3872394263744354,2.608834743499756,2.9726994037628174,0.7187086939811707,7.242938041687012,7.0132269859313965,-0.02245691418647766,0.021342085674405098,0.05618046596646309,21.505245208740234,-29.790027618408203,-7.039499282836914,0.15709000825881958,0.11367654800415039,-0.10009241104125977,0.5616186857223511,7.129261493682861,7.113319396972656
1_20251106_212709,1762435597340,1,0.41510477662086487,0.19273287057876587,0.3278651535511017,0.8264662623405457,0.38912373781204224,2.609339714050293,2.9727823734283447,0.697161853313446,7.183086395263672,7.149690628051758,-0.03895026445388794,0.005459603387862444,0.041519712656736374,21.454978942871094,-29.830066680908203,-7.123350143432617,0.10843455791473389,0.043060302734375,0.029096603393554688,0.5887272953987122,7.140026092529297,7.120594024658203
1_20251106_212709,1762435597359,1,0.4150303900241852,0.19332236051559448,0.32754963636398315,0.8264910578727722,0.38912373781204224,2.609339714050293,2.9727823734283447,0.697161853313446,7.183086395263672,7.149690628051758,-0.03528507426381111,-3.817921970039606e-05,0.021972041577100754,21.36847686767578,-29.848857879638672,-7.059465408325195,0.10843455791473389,0.043060302734375,0.029096603393554688,0.5887272953987122,7.140026092529297,7.120594024658203
1_20251106_212709,1762435597377,1,0.41493815183639526,0.1936665028333664,0.3271692395210266,0.8266074657440186,0.3923291862010956,2.6104235649108887,2.9735331535339355,0.5762597918510437,7.210618495941162,7.196375846862793,-0.03528507426381111,-3.817921970039606e-05,0.021972041577100754,21.36847686767578,-29.848857879638672,-7.059465408325195,-0.017364084720611572,0.051882266998291016,0.04543590545654297,0.5936238765716553,7.158736228942871,7.15093994140625
1_20251106_212709,1762435597396,1,0.4149387776851654,0.1937379688024521,0.3269767761230469,0.826666533946991,0.3937108814716339,2.610948324203491,2.9739990234375,0.5379542112350464,7.128022193908691,7.161661148071289,0.003810267895460129,0.016455167904496193,-0.01406897697597742,21.341991424560547,-29.888118743896484,-7.0612382888793945,-0.04453575611114502,-0.02457141876220703,0.00857686996459961,0.5824899673461914,7.152593612670898,7.1530842781066895
1_20251106_212709,1762435597415,1,0.4150279760360718,0.19378626346588135,0.3271237015724182,0.8265523314476013,0.3950226902961731,2.6111907958984375,2.974170684814453,0.5595011711120605,7.059789657592773,7.056320667266846,0.019081884995102882,0.012789979577064514,-0.000629953108727932,21.32879066467285,-29.91348648071289,-7.116321563720703,-0.018391013145446777,-0.07424306869506836,-0.07741069793701172,0.5778921842575073,7.134032726287842,7.133731365203857
1_20251106_212709,1762435597435,1,0.41511452198028564,0.193925142288208,0.32730066776275635,0.8264062404632568,0.3965696394443512,2.611199140548706,2.9742114543914795,0.6768119931221008,7.0609869956970215,7.0934295654296875,0.043516479432582855,-0.01836412027478218,0.007922152057290077,21.327987670898438,-29.92618179321289,-7.103069305419922,0.07913583517074585,-0.05843687057495117,-0.0322413444519043,0.597676157951355,7.119423866271973,7.125670909881592
1_20251106_212709,1762435597453,1,0.4149574339389801,0.19439171254634857,0.3275860846042633,0.8262624144554138,0.3980606198310852,2.6110622882843018,2.9741313457489014,0.6660385131835938,7.060986518859863,7.079064846038818,0.08933132886886597,-0.029970549046993256,0.0036460994742810726,21.3797607421875,-29.860897064208984,-7.0322065353393555,0.054689884185791016,-0.04674959182739258,-0.03728485107421875,0.6113486289978027,7.107736110687256,7.116349697113037
1_20251106_212709,1762435597473,1,0.4148845374584198,0.19529370963573456,0.32802143692970276,0.8259135484695435,0.399869829416275,2.6109468936920166,2.9738352298736572,0.6887824535369873,7.117248058319092,7.046744346618652,0.10032689571380615,-0.01836412027478218,-0.018345031887292862,21.339468002319336,-29.937946319580078,-7.102843284606934,0.0619470477104187,0.007609367370605469,-0.05568408966064453,0.6268354058265686,7.109638690948486,7.102428436279297
1_20251106_212709,1762435597491,1,0.41495203971862793,0.1960551142692566,0.32862547039985657,0.8254589438438416,0.4014904797077179,2.610983371734619,2.9736921787261963,0.6995559334754944,7.1687211990356445,7.14609956741333,0.07772490382194519,-0.04402043670415878,-0.07637717574834824,21.32647705078125,-29.951435089111328,-7.090081214904785,0.058176398277282715,0.04726600646972656,0.03493690490722656,0.6413795351982117,7.121455192565918,7.1111626625061035
1_20251106_212709,1762435597511,1,0.41562479734420776,0.19682835042476654,0.3290940523147583,0.8247494697570801,0.40318211913108826,2.611112356185913,2.9735732078552246,0.5786539316177368,7.147174835205078,7.125749588012695,0.07772490382194519,-0.04402043670415878,-0.07637717574834824,21.389127731323242,-29.910327911376953,-7.032772064208984,-0.05018049478530884,0.020576000213623047,0.011669635772705078,0.6288344264030457,7.126598834991455,7.11407995223999
1_20251106_212709,1762435597530,1,0.41634541749954224,0.1970812976360321,0.3295190930366516,0.8241556882858276,0.404424250125885,2.611161947250366,2.9736227989196777,0.5738657116889954,7.104081153869629,7.17363166809082,0.043516479432582855,-0.01836412027478218,-0.09470312297344208,21.437166213989258,-29.91970443725586,-7.031074523925781,-0.043974995613098145,-0.018013954162597656,0.04764127731323242,0.6178407073020935,7.122095108032227,7.125990390777588
