session_id,timestamp,label,quaternion_w,quaternion_x,quaternion_y,quaternion_z,position_x,position_y,position_z,accelerometer_x,accelerometer_y,accelerometer_z,gyroscope_x,gyroscope_y,gyroscope_z,magnetometer_x,magnetometer_y,magnetometer_z,linear_acceleration_x,linear_acceleration_y,linear_acceleration_z,gravity_x,gravity_y,gravity_z
9_20251106_211356,1762434799545,9,0.48372742533683777,0.38558852672576904,0.5634824633598328,0.5475552678108215,0.24382635951042175,2.9071238040924072,1.4011573791503906,-0.374197393655777,9.972211837768555,0.8268761038780212,-0.10755418241024017,-0.0840969830751419,0.08615483343601227,38.610435485839844,-17.82973861694336,6.255126953125,1.0266417264938354,1.0054826736450195,0.07211297750473022,-1.40083909034729,8.966729164123535,0.754763126373291
9_20251106_211356,1762434799564,9,0.4841974079608917,0.3862748444080353,0.5619922876358032,0.548187255859375,0.22769759595394135,2.9404678344726562,1.3567359447479248,-0.9140666723251343,9.939891815185547,1.1285326480865479,-0.07578921318054199,-0.10853156447410583,0.08371137082576752,38.5118408203125,-18.073749542236328,6.233161926269531,0.26135408878326416,0.6318264007568359,0.26430267095565796,-1.1754207611083984,9.308065414428711,0.8642299771308899
9_20251106_211356,1762434799583,9,0.48471251130104065,0.38714078068733215,0.5605888366699219,0.5485581159591675,0.22152183949947357,2.9586923122406006,1.3364310264587402,-0.8111203908920288,10.057201385498047,0.8065263032913208,-0.0647936537861824,-0.06699277460575104,0.13807833194732666,38.46730422973633,-18.23775863647461,6.066064834594727,0.29144036769866943,0.599308967590332,-0.046162962913513184,-1.1025607585906982,9.457892417907715,0.852689266204834
9_20251106_211356,1762434799602,9,0.48467153310775757,0.3880002200603485,0.5592921376228333,0.5493101477622986,0.2165476232767105,2.980125904083252,1.3146430253982544,-0.5944544076919556,10.180498123168945,0.735900342464447,-0.06906970590353012,-0.11769454181194305,0.1515173465013504,38.407073974609375,-18.453731536865234,5.992034912109375,0.40648508071899414,0.5780849456787109,-0.09343117475509644,-1.0009394884109497,9.602413177490234,0.8293315172195435
9_20251106_211356,1762434799621,9,0.48493295907974243,0.3893633782863617,0.5576320886611938,0.5498023629188538,0.21327215433120728,3.001394033432007,1.294962763786316,-0.5585429668426514,10.303794860839844,0.823284924030304,-0.03302869200706482,-0.17878101766109467,0.09287434071302414,38.305946350097656,-18.534618377685547,5.905429840087891,0.3539172410964966,0.5611057281494141,-0.0048372745513916016,-0.912460207939148,9.74268913269043,0.8281221985816956
9_20251106_211356,1762434799642,9,0.4855891764163971,0.3908713459968567,0.5561324954032898,0.5496720671653748,0.20999179780483246,3.024444341659546,1.2751696109771729,-0.9140666127204895,10.32893180847168,0.7909646034240723,0.021338270977139473,-0.20138300955295563,0.017737984657287598,38.15325927734375,-18.66891098022461,5.815807342529297,-0.0012851357460021973,0.468994140625,-0.029726088047027588,-0.9127814769744873,9.85993766784668,0.8206906914710999
9_20251106_211356,1762434799661,9,0.48653462529182434,0.39232245087623596,0.5550925731658936,0.548852801322937,0.20627839863300323,3.0476551055908203,1.2554824352264404,-1.1091856956481934,10.291824340820312,0.5300078392028809,0.025003457441926003,-0.15495729446411133,0.01040760800242424,38.12413787841797,-18.76974105834961,5.691068649291992,-0.15712332725524902,0.34550952911376953,-0.23254626989364624,-0.9520623683929443,9.946314811706543,0.7625541090965271
9_20251106_211356,1762434799679,9,0.48731210827827454,0.3934718072414398,0.5543453693389893,0.5480949282646179,0.20280791819095612,3.068312644958496,1.2377794981002808,-1.0720771551132202,10.276262283325195,0.40910589694976807,-0.028752638027071953,-0.11708367615938187,0.0537790022790432,38.08535385131836,-18.821544647216797,5.607444763183594,-0.09601181745529175,0.2639579772949219,-0.28275859355926514,-0.9760653376579285,10.012304306030273,0.6918644905090332
9_20251106_211356,1762434799699,9,0.48792290687561035,0.3944617509841919,0.5533444285392761,0.5478513240814209,0.19912932813167572,3.0915026664733887,1.2188485860824585,-0.981101393699646,10.467790603637695,0.6114072799682617,-0.028752638027071953,-0.11708367615938187,0.0537790022790432,38.08535385131836,-18.821544647216797,5.607444763183594,-0.0040288567543029785,0.36438846588134766,-0.06436574459075928,-0.977072536945343,10.103402137756348,0.675773024559021
9_20251106_211356,1762434799719,9,0.4885621964931488,0.3954050540924072,0.5518335103988647,0.5481255650520325,0.19912932813167572,3.0915026664733887,1.2188485860824585,-0.981101393699646,10.467790603637695,0.6114072799682617,-0.11183023452758789,-0.13174442946910858,0.12769363820552826,38.047767639160156,-18.860118865966797,5.456502914428711,-0.0040288567543029785,0.36438846588134766,-0.06436574459075928,-0.977072536945343,10.103402137756348,0.675773024559021
9_20251106_211356,1762434799737,9,0.4891532361507416,0.3964705169200897,0.5500403046607971,0.548630952835083,0.19608834385871887,3.1163735389709473,1.200700044631958,-0.7895734310150146,10.622209548950195,0.8951079249382019,-0.08495219051837921,-0.1519029587507248,0.13013708591461182,38.05378341674805,-18.995296478271484,5.237829208374023,0.14999932050704956,0.41504573822021484,0.17546790838241577,-0.9395727515220642,10.20716381072998,0.7196400165557861
9_20251106_211356,1762434799756,9,0.48973211646080017,0.3977687954902649,0.5482310652732849,0.5489855408668518,0.19398541748523712,3.158849000930786,1.1753665208816528,-0.4484144151210785,10.96336841583252,1.2219023704528809,-0.08495219051837921,-0.1519029587507248,0.13013708591461182,38.04682159423828,-19.132343292236328,5.126794815063477,0.335026353597641,0.5161476135253906,0.33964306116104126,-0.7834407687187195,10.447220802307129,0.8822593092918396
9_20251106_211356,1762434799776,9,0.49039068818092346,0.39965125918388367,0.5465818047523499,0.5486749410629272,0.1950429081916809,3.1835947036743164,1.1632423400878906,-0.24731016159057617,10.940624237060547,1.1129708290100098,0.07998128235340118,-0.26246950030326843,0.09104174375534058,38.04377746582031,-19.206066131591797,4.963016510009766,0.4289044737815857,0.39472293853759766,0.18456923961639404,-0.6762146353721619,10.54590129852295,0.9284015893936157
9_20251106_211356,1762434799796,9,0.4910565912723541,0.40204861760139465,0.5452225208282471,0.5476794242858887,0.1980728805065155,3.2096376419067383,1.1513338088989258,-0.08690552413463593,10.951398849487305,0.983689546585083,0.07998128235340118,-0.26246950030326843,0.09104174375534058,38.11103057861328,-19.325252532958984,4.801124572753906,0.47144728899002075,0.3243980407714844,0.04423040151596069,-0.5583528280258179,10.62700080871582,0.9394591450691223
9_20251106_211356,1762434799813,9,0.4919765293598175,0.40460672974586487,0.5440004467964172,0.546183168888092,0.1980728805065155,3.2096376419067383,1.1513338088989258,-0.08690552413463593,10.951398849487305,0.983689546585083,0.1044158786535263,-0.2887366712093353,-0.016470439732074738,38.16851043701172,-19.407154083251953,4.59898567199707,0.47144728899002075,0.3243980407714844,0.04423040151596069,-0.5583528280258179,10.62700080871582,0.9394591450691223
9_20251106_211356,1762434799832,9,0.4930601119995117,0.40664613246917725,0.5431268215179443,0.5445584654808044,0.2069217413663864,3.2521910667419434,1.1321898698806763,0.13694271445274353,10.67487907409668,0.7813882231712341,0.09403117746114731,-0.26246950030326843,-0.08366556465625763,38.214813232421875,-19.465282440185547,4.450948715209961,0.46988779306411743,-0.0019178390502929688,-0.13219290971755981,-0.3329450786113739,10.676796913146973,0.913581132888794
9_20251106_211356,1762434799851,9,0.4945410490036011,0.40831151604652405,0.542453944683075,0.5426366925239563,0.21345952153205872,3.271568536758423,1.1227941513061523,0.37276142835617065,10.549189567565918,0.7766000628471375,0.055546700954437256,-0.2801845371723175,-0.13742166757583618,38.22394561767578,-19.549823760986328,4.192781448364258,0.5645652413368225,-0.10208606719970703,-0.10958486795425415,-0.19180379807949066,10.651275634765625,0.8861849308013916
9_20251106_211356,1762434799870,9,0.4965032637119293,0.40964916348457336,0.5417072772979736,0.5405786633491516,0.22329586744308472,3.2915775775909424,1.1134785413742065,0.7737729549407959,10.504898071289062,1.0842416286468506,0.01278616301715374,-0.2594151496887207,-0.22660790383815765,38.285552978515625,-19.556522369384766,4.005743026733398,0.7724614143371582,-0.11710262298583984,0.1584453582763672,0.0013115406036376953,10.622000694274902,0.9257962703704834
9_20251106_211356,1762434799889,9,0.49896740913391113,0.41026610136032104,0.5411393046379089,0.538406491279602,0.2350117266178131,3.3093340396881104,1.1047669649124146,1.0359268188476562,10.512081146240234,0.8149056434631348,0.01278616301715374,-0.2594151496887207,-0.22660790383815765,38.385032653808594,-19.53586196899414,3.834218978881836,0.8276922106742859,-0.0879354476928711,-0.08871245384216309,0.20823459327220917,10.600016593933105,0.9036180973052979
9_20251106_211356,1762434799909,9,0.501715362071991,0.4096031188964844,0.5415560007095337,0.5359328985214233,0.24906910955905914,3.3264267444610596,1.0946358442306519,0.9784684181213379,10.38160228729248,0.4366379976272583,-0.007983237504959106,-0.15434642136096954,-0.5638052225112915,38.52519989013672,-19.437610626220703,3.6792659759521484,0.6161870956420898,-0.17473220825195312,-0.3735840916633606,0.36228135228157043,10.556334495544434,0.8102220892906189
9_20251106_211356,1762434799928,9,0.5053304433822632,0.40793535113334656,0.5425945520401001,0.5327485799789429,0.26290127635002136,3.340765953063965,1.0841686725616455,0.7797582149505615,10.160148620605469,0.327706515789032,-0.0391373410820961,-0.25697168707847595,-0.6670413613319397,38.644309997558594,-19.290042877197266,3.456806182861328,0.3339815139770508,-0.31694793701171875,-0.3860124945640564,0.44577670097351074,10.477096557617188,0.7137190103530884
9_20251106_211356,1762434799947,9,0.510076642036438,0.40615880489349365,0.543398916721344,0.5287480354309082,0.27648523449897766,3.3538339138031006,1.0733463764190674,0.607383131980896,10.275064468383789,0.3935442268848419,-0.0391373410820961,-0.25697168707847595,-0.6670413613319397,38.76531982421875,-19.116687774658203,3.1672935485839844,0.12928515672683716,-0.16162586212158203,-0.2561398446559906,0.47809797525405884,10.436690330505371,0.6496840715408325
9_20251106_211356,1762434799966,9,0.5158947706222534,0.40518051385879517,0.5435001254081726,0.5237260460853577,0.2889827489852905,3.3664157390594482,1.0633476972579956,0.3296676278114319,10.497715950012207,0.752659022808075,0.014007894322276115,-0.5886712670326233,-0.7354581952095032,38.97637176513672,-18.850139617919922,2.910093307495117,-0.11874428391456604,0.048819541931152344,0.08237999677658081,0.4484119117259979,10.448896408081055,0.6702790260314941
9_20251106_211356,1762434799984,9,0.5224714875221252,0.40494504570961,0.5431548357009888,0.5177121758460999,0.2889827489852905,3.3664157390594482,1.0633476972579956,0.3296676278114319,10.497715950012207,0.752659022808075,0.07509436458349228,-0.6381513476371765,-0.7702775001525879,39.22880172729492,-18.505062103271484,2.5748519897460938,-0.11874428391456604,0.048819541931152344,0.08237999677658081,0.4484119117259979,10.448896408081055,0.6702790260314941
9_20251106_211356,1762434800004,9,0.5292201042175293,0.40496599674224854,0.5429415702819824,0.511021614074707,0.30862098932266235,3.391757011413574,1.0454704761505127,-0.18865473568439484,10.861618995666504,0.763432502746582,0.08303561061620712,-0.7114550471305847,-0.8002098798751831,39.51194763183594,-18.04538345336914,2.2429676055908203,-0.45081645250320435,0.30014896392822266,0.06153351068496704,0.2621617317199707,10.561470031738281,0.701898992061615
9_20251106_211356,1762434800023,9,0.5364349484443665,0.4052003026008606,0.5424610376358032,0.5037720203399658,0.30862098932266235,3.391757011413574,1.0454704761505127,-0.18865473568439484,10.861618995666504,0.763432502746582,0.08853338658809662,-0.798808753490448,-0.82647705078125,39.85683059692383,-17.569034576416016,1.9002819061279297,-0.45081645250320435,0.30014896392822266,0.06153351068496704,0.2621617317199707,10.561470031738281,0.701898992061615
9_20251106_211356,1762434800042,9,0.5441348552703857,0.4056752026081085,0.541628360748291,0.4959673285484314,0.3185894191265106,3.4184770584106445,1.0340763330459595,-0.7093712091445923,10.989703178405762,1.4672974348068237,0.1459546685218811,-0.8379040360450745,-0.8484681844711304,40.13311004638672,-17.033321380615234,1.4208106994628906,-0.655489981174469,0.2870931625366211,0.5291181802749634,-0.0538812056183815,10.70261001586914,0.9381792545318604
9_20251106_211356,1762434800060,9,0.5518399477005005,0.40631532669067383,0.540900707244873,0.48765453696250916,0.3185894191265106,3.4184770584106445,1.0340763330459595,-0.7093712091445923,10.989703178405762,1.4672974348068237,0.22719967365264893,-0.9423619508743286,-0.8887852430343628,40.485801696777344,-16.453556060791016,0.7828788757324219,-0.655489981174469,0.2870931625366211,0.5291181802749634,-0.0538812056183815,10.70261001586914,0.9381792545318604
9_20251106_211356,1762434800080,9,0.5599391460418701,0.4076056480407715,0.5400270223617554,0.4782223105430603,0.3181103467941284,3.4461288452148438,1.0305678844451904,-1.194176197052002,11.067512512207031,1.627702236175537,0.316385954618454,-1.0462088584899902,-0.9596455693244934,40.87847900390625,-15.80875015258789,0.1612548828125,-0.7711588144302368,0.23890113830566406,0.4472320079803467,-0.42301735281944275,10.828611373901367,1.1804702281951904
9_20251106_211356,1762434800099,9,0.5685128569602966,0.4094417989253998,0.5391380786895752,0.46741920709609985,0.313435822725296,3.4590656757354736,1.0310455560684204,-1.578429102897644,10.740716934204102,1.674386978149414,0.4067939221858978,-1.1940381526947021,-1.0408905744552612,41.274681091308594,-15.10116195678711,-0.4590492248535156,-0.924329400062561,-0.07031631469726562,0.39513349533081055,-0.654099702835083,10.811033248901367,1.2792534828186035
9_20251106_211356,1762434800120,9,0.577693521976471,0.41185206174850464,0.5380948185920715,0.45508459210395813,0.3039892613887787,3.471924304962158,1.0336016416549683,-2.008169651031494,10.594676971435547,1.8922500610351562,0.4355045557022095,-1.2655092477798462,-1.1123617887496948,41.65949249267578,-14.393291473388672,-1.1879749298095703,-1.0832560062408447,-0.17308521270751953,0.49039721488952637,-0.9249137043952942,10.767762184143066,1.4018528461456299
9_20251106_211356,1762434800139,9,0.5872817635536194,0.4141647517681122,0.5369815826416016,0.44183534383773804,0.2913278341293335,3.481992721557617,1.0379881858825684,-2.58035945892334,10.409134864807129,2.1998918056488037,0.3945766091346741,-1.1598297357559204,-1.2229282855987549,42.076904296875,-13.556644439697266,-2.0754756927490234,-1.3243565559387207,-0.28690242767333984,0.638431191444397,-1.2560029029846191,10.696037292480469,1.5614606142044067
9_20251106_211356,1762434800157,9,0.5968562960624695,0.415080189704895,0.5365671515464783,0.42844679951667786,0.2913278341293335,3.481992721557617,1.0379881858825684,-2.58035945892334,10.409134864807129,2.1998918056488037,0.35059434175491333,-1.0242177248001099,-1.3389925956726074,42.076904296875,-13.556644439697266,-2.0754756927490234,-1.3243565559387207,-0.28690242767333984,0.638431191444397,-1.2560029029846191,10.696037292480469,1.5614606142044067
9_20251106_211356,1762434800177,9,0.6063575744628906,0.41448143124580383,0.5369967222213745,0.4149339497089386,0.25354570150375366,3.4941132068634033,1.0505038499832153,-4.098217964172363,9.508953094482422,2.4728190898895264,0.33287930488586426,-1.0071135759353638,-1.3591511249542236,42.46000289916992,-12.860504150390625,-2.9052200317382812,-1.9532787799835205,-0.8472623825073242,0.6323004961013794,-2.1449391841888428,10.356215476989746,1.840518593788147
9_20251106_211356,1762434800196,9,0.6157754063606262,0.4134029746055603,0.5374696850776672,0.40130415558815,0.22415830194950104,3.495469808578491,1.059783935546875,-5.016354560852051,9.182159423828125,2.634420871734619,0.40984824299812317,-0.9918419718742371,-1.306005835533142,42.84185791015625,-12.013275146484375,-3.8344764709472656,-2.2971324920654297,-0.939244270324707,0.6351218223571777,-2.719222068786621,10.121403694152832,1.9992990493774414
9_20251106_211356,1762434800214,9,0.6245020627975464,0.41268014907836914,0.5380555987358093,0.3875415623188019,0.22415830194950104,3.495469808578491,1.059783935546875,-5.016354560852051,9.182159423828125,2.634420871734619,0.40984824299812317,-0.9918419718742371,-1.306005835533142,43.17859649658203,-11.106307983398438,-4.777891159057617,-2.2971324920654297,-0.939244270324707,0.6351218223571777,-2.719222068786621,10.121403694152832,1.9992990493774414
9_20251106_211356,1762434800234,9,0.6320793032646179,0.412523478269577,0.5389053225517273,0.3740069568157196,0.14137378334999084,3.4853692054748535,1.0810993909835815,-5.874639511108398,8.279583930969238,2.0753986835479736,0.4947584271430969,-0.9130404591560364,-1.203991413116455,43.50849151611328,-10.100082397460938,-5.679136276245117,-2.0594968795776367,-1.2559499740600586,-0.01813960075378418,-3.8151426315307617,9.535533905029297,2.093538284301758
9_20251106_211356,1762434800252,9,0.6384503841400146,0.4126719832420349,0.5400151014328003,0.3612016439437866,0.09780597686767578,3.4751853942871094,1.0894180536270142,-6.16432523727417,7.943212509155273,1.88746178150177,0.5179712772369385,-0.7407765984535217,-1.0152342319488525,43.77512741088867,-9.147377014160156,-6.651470184326172,-1.8793458938598633,-1.2738571166992188,-0.16486132144927979,-4.284979343414307,9.217069625854492,2.05232310295105
9_20251106_211356,1762434800271,9,0.6439780592918396,0.41259968280792236,0.5413306355476379,0.3493063449859619,0.04826800152659416,3.460584878921509,1.0976983308792114,-6.416902542114258,7.61761474609375,2.0299108028411865,0.44100233912467957,-0.6106624007225037,-0.9455956816673279,44.026954650878906,-8.245429992675781,-7.652382850646973,-1.7055387496948242,-1.2795639038085938,-0.017929792404174805,-4.711363792419434,8.897178649902344,2.0478405952453613
9_20251106_211356,1762434800292,9,0.6489599347114563,0.412156879901886,0.5426796078681946,0.33834385871887207,-0.0038796328008174896,3.4428622722625732,1.1057552099227905,-6.56533670425415,7.49312162399292,2.117295265197754,0.38052672147750854,-0.48299166560173035,-0.8729027509689331,44.23217010498047,-7.297370910644531,-8.559587478637695,-1.4831781387329102,-1.1232457160949707,0.05556368827819824,-5.08215856552124,8.61636734008789,2.0617315769195557
9_20251106_211356,1762434800312,9,0.6532446146011353,0.4112176299095154,0.5442556142807007,0.32856857776641846,-0.0673450231552124,3.418826103210449,1.115738034248352,-6.741302967071533,7.381795883178711,2.366281747817993,0.38052672147750854,-0.48299166560173035,-0.8729027509689331,44.32209777832031,-6.433692932128906,-9.283562660217285,-1.3273158073425293,-0.9876575469970703,0.24364018440246582,-5.413987159729004,8.369453430175781,2.1226415634155273
9_20251106_211356,1762434800329,9,0.65684574842453,0.4098973870277405,0.546222984790802,0.31965333223342896,-0.11776204407215118,3.398494243621826,1.1244375705718994,-7.156679153442383,7.145977020263672,2.746943473815918,0.34876176714897156,-0.3626512885093689,-0.8283096551895142,44.42431640625,-5.557472229003906,-9.92568588256836,-1.3941535949707031,-0.9787807464599609,0.49944162368774414,-5.76252555847168,8.124757766723633,2.247501850128174
9_20251106_211356,1762434800349,9,0.6598024964332581,0.40879473090171814,0.5484656691551208,0.31101927161216736,-0.1797751933336258,3.3718886375427246,1.1356533765792847,-7.625922203063965,6.847911834716797,2.7385640144348145,0.5173603892326355,-0.21543289721012115,-0.6988063454627991,44.52201843261719,-4.756996154785156,-10.528843879699707,-1.4907169342041016,-1.0214767456054688,0.3928496837615967,-6.135205268859863,7.869388580322266,2.3457143306732178
9_20251106_211356,1762434800367,9,0.6615554094314575,0.40849021077156067,0.551260769367218,0.30264127254486084,-0.1797751933336258,3.3718886375427246,1.1356533765792847,-7.625922203063965,6.847911834716797,2.7385640144348145,0.6260943412780762,-0.15251383185386658,-0.5857963562011719,44.67754364013672,-3.9915695190429688,-10.99517822265625,-1.4907169342041016,-1.0214767456054688,0.3928496837615967,-6.135205268859863,7.869388580322266,2.3457143306732178
9_20251106_211356,1762434800386,9,0.6622118353843689,0.40918228030204773,0.554323673248291,0.2945684492588043,-0.24432209134101868,3.342376232147217,1.1461671590805054,-7.988628387451172,6.475629806518555,2.2992470264434814,0.6474745869636536,-0.0743231475353241,-0.45812562108039856,44.663185119628906,-3.4260406494140625,-11.350202560424805,-1.4827384948730469,-1.115006923675537,-0.03717398643493652,-6.505889892578125,7.590636730194092,2.336421012878418
9_20251106_211356,1762434800405,9,0.6619625687599182,0.41046619415283203,0.5574606657028198,0.2873336970806122,-0.3077603578567505,3.3114571571350098,1.1547656059265137,-8.395625114440918,6.029129981994629,2.0119550228118896,0.6071575284004211,0.06800833344459534,-0.2901378273963928,44.680564880371094,-2.9342803955078125,-11.624239921569824,-1.5117883682250977,-1.2492051124572754,-0.25957274436950684,-6.88383674621582,7.278335094451904,2.2715277671813965
9_20251106_211356,1762434800425,9,0.6606385707855225,0.41196492314338684,0.5607494711875916,0.28178292512893677,-0.36932021379470825,3.280164957046509,1.1612224578857422,-8.697280883789062,5.871119499206543,1.7509981393814087,0.6071575284004211,0.06800833344459534,-0.2901378273963928,44.6741943359375,-2.4200668334960938,-11.790600776672363,-1.4507551193237305,-1.125772476196289,-0.4164236783981323,-7.246525764465332,6.996891975402832,2.167421817779541
9_20251106_211356,1762434800444,9,0.657977283000946,0.413379967212677,0.5644599199295044,0.2785102427005768,-0.43859392404556274,3.2435009479522705,1.166462779045105,-8.658976554870605,5.801691055297852,1.6492490768432617,0.5283559560775757,0.2842544615268707,-0.10871101915836334,44.660484313964844,-2.0202178955078125,-11.824174880981445,-1.129960536956787,-0.9561605453491211,-0.4145381450653076,-7.529016017913818,6.757851600646973,2.0637872219085693
9_20251106_211356,1762434800462,9,0.6540767550468445,0.4148750305175781,0.5684335827827454,0.2773906886577606,-0.5582539439201355,3.1751787662506104,1.1726864576339722,-7.821041584014893,5.795705795288086,1.7509982585906982,0.46726953983306885,0.46812474727630615,0.06843975931406021,44.71761703491211,-1.84326171875,-11.61577320098877,-0.11775445938110352,-0.5973868370056152,-0.18677806854248047,-7.703287124633789,6.393092632293701,1.9377763271331787
9_20251106_211356,1762434800481,9,0.6493103504180908,0.4166133403778076,0.5725206136703491,0.2775779068470001,-0.5582539439201355,3.1751787662506104,1.1726864576339722,-7.821041584014893,5.795705795288086,1.7509982585906982,0.45138704776763916,0.576858639717102,0.18511490523815155,44.759952545166016,-1.7054443359375,-11.341073036193848,-0.11775445938110352,-0.5973868370056152,-0.18677806854248047,-7.703287124633789,6.393092632293701,1.9377763271331787
9_20251106_211356,1762434800500,9,0.6434878706932068,0.41816622018814087,0.5772908926010132,0.278918594121933,-0.6718536615371704,3.1050989627838135,1.1742643117904663,-7.551705360412598,6.025539398193359,1.0950151681900024,0.47887593507766724,0.854191243648529,0.31339651346206665,44.78226089477539,-1.6950759887695312,-10.961372375488281,0.10965347290039062,-0.22393417358398438,-0.6213411092758179,-7.661358833312988,6.249473571777344,1.7163562774658203
9_20251106_211356,1762434800519,9,0.6365834474563599,0.4199024736881256,0.5825994610786438,0.28110724687576294,-0.7238232493400574,3.0710906982421875,1.171765685081482,-7.532552719116211,5.795705795288086,0.9166547656059265,0.4849846065044403,0.9091690182685852,0.45145195722579956,44.80992889404297,-1.7859878540039062,-10.421097755432129,0.10304450988769531,-0.36301422119140625,-0.6397611498832703,-7.635597229003906,6.158720016479492,1.5564159154891968
9_20251106_211356,1762434800539,9,0.6288764476776123,0.4223434031009674,0.5876679420471191,0.2842303514480591,-0.7238232493400574,3.0710906982421875,1.171765685081482,-7.532552719116211,5.795705795288086,0.9166547656059265,0.48803892731666565,0.9702554941177368,0.6249375343322754,44.80992889404297,-1.7859878540039062,-10.421097755432129,0.10304450988769531,-0.36301422119140625,-0.6397611498832703,-7.635597229003906,6.158720016479492,1.5564159154891968
9_20251106_211356,1762434800560,9,0.6202659010887146,0.4255114495754242,0.5923896431922913,0.2885909378528595,-0.8258817791938782,2.9976553916931152,1.1609052419662476,-7.214137077331543,5.66642427444458,0.6700626611709595,0.48803892731666565,0.9702554941177368,0.6249375343322754,44.855587005615234,-2.2867355346679688,-8.765457153320312,0.31493520736694336,-0.29017114639282227,-0.6199363470077515,-7.529072284698486,5.956595420837402,1.289999008178711
9_20251106_211356,1762434800578,9,0.609910249710083,0.42926257848739624,0.5971685647964478,0.2951827049255371,-0.863761305809021,2.9675731658935547,1.151870846748352,-6.31754732131958,6.036313056945801,-0.1630837321281433,0.45688483119010925,1.3373852968215942,1.1453943252563477,44.855587005615234,-2.2867355346679688,-8.765457153320312,0.9692196846008301,0.06377410888671875,-1.162466287612915,-7.28676700592041,5.972538948059082,0.999382495880127
9_20251106_211356,1762434800597,9,0.5976269841194153,0.43391889333724976,0.6016631126403809,0.3042333126068115,-0.8953921794891357,2.938340902328491,1.138492226600647,-4.970866680145264,6.312830924987793,-0.5748686790466309,0.38052672147750854,1.3838109970092773,1.384242296218872,44.919891357421875,-2.7430877685546875,-7.703250885009766,1.8527207374572754,0.2722334861755371,-1.2594009637832642,-6.823587417602539,6.040597438812256,0.6845322847366333
9_20251106_211356,1762434800616,9,0.5843514800071716,0.43943825364112854,0.6050310134887695,0.3152218759059906,-0.9165782332420349,2.912571668624878,1.1213847398757935,-3.5930631160736084,6.770103454589844,-0.9184219837188721,0.32921409606933594,1.342272162437439,1.5284063816070557,44.992576599121094,-3.2502212524414062,-6.506446838378906,2.5844194889068604,0.5836048126220703,-1.2823634147644043,-6.177482604980469,6.186498641967773,0.3639414608478546
9_20251106_211356,1762434800635,9,0.5707268714904785,0.445624440908432,0.607151210308075,0.32719582319259644,-0.9262283444404602,2.890500068664551,1.1006388664245605,-2.35890531539917,7.064578056335449,-1.2739455699920654,0.32921409606933594,1.342272162437439,1.5284063816070557,44.831825256347656,-4.011177062988281,-5.228872299194336,3.0548620223999023,0.7024631500244141,-1.310309648513794,-5.413767337799072,6.362114906311035,0.036364078521728516
9_20251106_211356,1762434800654,9,0.5572209358215332,0.4522261321544647,0.6081864237785339,0.3392722010612488,-0.9242591857910156,2.872464179992676,1.0773550271987915,-1.3545808792114258,7.430874824523926,-1.2667632102966309,0.26690590381622314,1.0887633562088013,1.515578269958496,44.67561721801758,-4.8977203369140625,-3.8723487854003906,3.247349262237549,0.8550081253051758,-1.0425019264221191,-4.601930141448975,6.57586669921875,-0.2242613434791565
9_20251106_211356,1762434800673,9,0.5446256995201111,0.4587497115135193,0.6082910299301147,0.3505902886390686,-0.913002073764801,2.859112501144409,1.055356502532959,-0.7500708699226379,7.745698928833008,-0.647888720035553,0.26690590381622314,1.0887633562088013,1.515578269958496,44.48194885253906,-5.799476623535156,-2.490528106689453,3.0814874172210693,0.9358654022216797,-0.33890190720558167,-3.8315582275390625,6.809833526611328,-0.3089868128299713
9_20251106_211356,1762434800692,9,0.5333351492881775,0.4640534818172455,0.6085487604141235,0.36038365960121155,-0.8914716839790344,2.8479697704315186,1.0306543111801147,-0.6578980684280396,7.780413627624512,-0.7963228225708008,0.24491477012634277,1.141297698020935,0.9291481375694275,44.196128845214844,-6.83209228515625,-1.1418132781982422,2.5389280319213867,0.7764639854431152,-0.389868825674057,-3.196826219558716,7.0039496421813965,-0.4064539968967438
9_20251106_211356,1762434800711,9,0.522210955619812,0.46669861674308777,0.6108916401863098,0.3691876232624054,-0.8914716839790344,2.8479697704315186,1.0306543111801147,-0.6578980684280396,7.780413627624512,-0.7963228225708008,0.17894136905670166,1.3190592527389526,0.6774718761444092,43.8931884765625,-7.953399658203125,0.20456504821777344,2.5389280319213867,0.7764639854431152,-0.389868825674057,-3.196826219558716,7.0039496421813965,-0.4064539968967438
9_20251106_211356,1762434800730,9,0.5111309885978699,0.46685826778411865,0.6148689985275269,0.377789169549942,-0.8392106294631958,2.8319225311279297,0.9798735976219177,-1.5568821430206299,7.308775901794434,-1.5432817935943604,-0.02325485460460186,1.3929740190505981,0.5485794544219971,43.54584503173828,-8.990791320800781,1.6319255828857422,0.9541833400726318,0.16904067993164062,-0.7285274863243103,-2.5110654830932617,7.139735221862793,-0.81475430727005
9_20251106_211356,1762434800749,9,0.5008409023284912,0.4649486541748047,0.6190366744995117,0.3870074152946472,-0.8106398582458496,2.824448823928833,0.9516093730926514,-2.2104709148406982,7.2201948165893555,-1.3816800117492676,-0.02325485460460186,1.3929740190505981,0.5485794544219971,43.08146667480469,-9.959976196289062,2.9748687744140625,0.24047565460205078,0.06436777114868164,-0.453540563583374,-2.450946569442749,7.155827045440674,-0.9281394481658936
9_20251106_211356,1762434800768,9,0.4902692437171936,0.4615235924720764,0.6232735514640808,0.39769604802131653,-0.7838796973228455,2.816776990890503,0.9233162999153137,-2.0955541133880615,6.817986011505127,-1.9430961608886719,-0.2340031862258911,1.6251025199890137,0.822857677936554,42.62181091308594,-10.8531494140625,4.251813888549805,0.2843139171600342,-0.27027273178100586,-0.8119653463363647,-2.3798680305480957,7.088258743286133,-1.1311308145523071
9_20251106_211356,1762434800787,9,0.4784264862537384,0.4588700234889984,0.6263925433158875,0.41009610891342163,-0.7838796973228455,2.816776990890503,0.9233162999153137,-2.0955541133880615,6.817986011505127,-1.9430961608886719,-0.2297271341085434,1.4308475255966187,1.1942634582519531,42.146240234375,-11.597221374511719,5.53094482421875,0.2843139171600342,-0.27027273178100586,-0.8119653463363647,-2.3798680305480957,7.088258743286133,-1.1311308145523071
9_20251106_211356,1762434800806,9,0.46610379219055176,0.4591972231864929,0.6268547773361206,0.4230109751224518,-0.7258042097091675,2.8046722412109375,0.8650166988372803,-0.9020960927009583,7.732531547546387,-1.29549241065979,-0.1680298000574112,1.1449629068374634,1.389129400253296,41.547088623046875,-12.386367797851562,6.750314712524414,1.03291916847229,0.49411678314208984,0.025430679321289062,-1.935015320777893,7.238414764404297,-1.320923089981079
9_20251106_211356,1762434800825,9,0.4541325271129608,0.461934894323349,0.6252997517585754,0.4351781904697418,-0.6937264204025269,2.80159330368042,0.8393846750259399,-0.6339570879936218,7.855827331542969,-0.8705398440361023,-0.03363955765962601,1.1657322645187378,1.469152569770813,40.960418701171875,-13.17431640625,7.92962646484375,1.040846586227417,0.4939298629760742,0.3603065609931946,-1.674803614616394,7.3618974685668945,-1.2308464050292969
9_20251106_211356,1762434800845,9,0.44098010659217834,0.4653739035129547,0.6237622499465942,0.4470842778682709,-0.6562719345092773,2.7991461753845215,0.8125553727149963,0.09384892880916595,7.569733142852783,-1.624680995941162,0.1202983558177948,1.2536967992782593,1.6389729976654053,40.35139465332031,-13.926315307617188,9.122264862060547,1.4149221181869507,0.16626834869384766,-0.3150676488876343,-1.3210731744766235,7.4034647941589355,-1.3096133470535278
9_20251106_211356,1762434800864,9,0.42577898502349854,0.4698704779148102,0.6222326159477234,0.45908668637275696,-0.615986168384552,2.797301769256592,0.7857368588447571,1.0419120788574219,7.536215782165527,-2.2591171264648438,0.1202983558177948,1.2536967992782593,1.6389729976654053,39.669044494628906,-14.694961547851562,10.244115829467773,1.8903882503509521,0.1062006950378418,-0.7596030235290527,-0.8484761714935303,7.4300150871276855,-1.499514102935791
9_20251106_211356,1762434800882,9,0.40964120626449585,0.476424902677536,0.6190943121910095,0.47110047936439514,-0.5726511478424072,2.797250509262085,0.7599124908447266,2.0258865356445312,8.083267211914062,-2.1848998069763184,0.1563393771648407,1.1547366380691528,1.8845405578613281,38.91648483276367,-15.642570495605469,11.27872085571289,2.299490213394165,0.5226016044616699,-0.5483086109161377,-0.2736036777496338,7.560665607452393,-1.6365911960601807
9_20251106_211356,1762434800902,9,0.39341384172439575,0.48431816697120667,0.6141141653060913,0.48324450850486755,-0.5164865255355835,2.8003787994384766,0.73063725233078,3.1547043323516846,8.607574462890625,-2.299816608428955,0.10136154294013977,1.0270659923553467,2.0555827617645264,38.131195068359375,-16.74231719970703,12.295661926269531,2.7426464557647705,0.8375272750854492,-0.5305802822113037,0.41205790638923645,7.770047187805176,-1.7692363262176514
9_20251106_211356,1762434800921,9,0.3766786754131317,0.4922809600830078,0.6083115339279175,0.4957112967967987,-0.5164865255355835,2.8003787994384766,0.73063725233078,3.1547043323516846,8.607574462890625,-2.299816608428955,0.07265090942382812,1.0325638055801392,2.1252212524414062,37.22797393798828,-17.9996337890625,13.27798843383789,2.7426464557647705,0.8375272750854492,-0.5305802822113037,0.41205790638923645,7.770047187805176,-1.7692363262176514
9_20251106_211356,1762434800941,9,0.35961127281188965,0.5002062916755676,0.6021245718002319,0.5078576803207397,-0.3801906704902649,2.8133082389831543,0.6664753556251526,5.56915283203125,8.663837432861328,-3.3843436241149902,0.04394026845693588,0.8670193552970886,2.057415246963501,36.17144012451172,-19.41527557373047,14.062034606933594,3.4949417114257812,0.5676212310791016,-1.0836575031280518,2.0742111206054688,8.096216201782227,-2.3006861209869385
9_20251106_211356,1762434800959,9,0.34371110796928406,0.5083678960800171,0.5951206088066101,0.5188990831375122,-0.3102802336215973,2.8221051692962646,0.6369315385818481,6.444195747375488,9.33178997039795,-3.216756582260132,-0.07945440709590912,0.7790548205375671,1.836893081665039,35.09365463256836,-20.781875610351562,14.805606842041016,3.495987892150879,0.9884586334228516,-0.7328565120697021,2.9482078552246094,8.343331336975098,-2.4839000701904297
9_20251106_211356,1762434800979,9,0.3297388255596161,0.515268087387085,0.5879190564155579,0.529265820980072,-0.21453917026519775,2.837940216064453,0.5995841026306152,7.035538673400879,9.987772941589355,-3.2825942039489746,-0.2089577317237854,0.8523586392402649,1.4263920783996582,33.931270599365234,-22.1414794921875,15.546009063720703,3.269864797592163,1.3155536651611328,-0.6389553546905518,3.765673875808716,8.672219276428223,-2.643638849258423
9_20251106_211356,1762434800999,9,0.3179043233394623,0.5189085006713867,0.5820445418357849,0.5393468141555786,-0.12273435294628143,2.8555245399475098,0.5650108456611633,7.233051300048828,10.120645523071289,-3.544748306274414,-0.2089577317237854,0.8523586392402649,1.4263920783996582,32.76756286621094,-23.537673950195312,16.177490234375,2.77390193939209,1.1587409973144531,-0.7208876609802246,4.459149360656738,8.961904525756836,-2.8238606452941895
9_20251106_211356,1762434801016,9,0.30870744585990906,0.5187637805938721,0.5778923034667969,0.5492033958435059,-0.03462958335876465,2.8732988834381104,0.5328478217124939,6.684803009033203,9.753150939941406,-3.249077081680298,-0.3677825331687927,0.9500969648361206,0.9413654804229736,32.76756286621094,-23.537673950195312,16.177490234375,1.7805228233337402,0.6329975128173828,-0.34017324447631836,4.904280185699463,9.120153427124023,-2.9089038372039795
9_20251106_211356,1762434801035,9,0.3030940890312195,0.5160061717033386,0.5746983289718628,0.5582055449485779,0.05677236616611481,2.8925013542175293,0.5004766583442688,6.016849517822266,9.622673034667969,-2.9522085189819336,-0.6597759127616882,0.8114306926727295,0.2590295672416687,31.58963394165039,-24.77086639404297,16.676258087158203,0.8900556564331055,0.40201568603515625,-0.03464365005493164,5.12679386138916,9.220657348632812,-2.917564868927002
9_20251106_211356,1762434801054,9,0.29983705282211304,0.511959433555603,0.5717743635177612,0.5666298270225525,0.05677236616611481,2.8925013542175293,0.5004766583442688,6.016849517822266,9.622673034667969,-2.9522085189819336,-0.6915408968925476,0.6336690783500671,0.16495637595653534,30.46647071838379,-25.9114990234375,17.03015899658203,0.8900556564331055,0.40201568603515625,-0.03464365005493164,5.12679386138916,9.220657348632812,-2.917564868927002
9_20251106_211356,1762434801073,9,0.29831576347351074,0.5081279277801514,0.5686413049697876,0.5739867091178894,0.14916247129440308,2.9131734371185303,0.4691828787326813,5.451842308044434,9.704072952270508,-2.5631675720214844,-0.6554998755455017,0.4296402633190155,0.13013708591461182,29.427379608154297,-26.870086669921875,17.242019653320312,0.2600388526916504,0.3867321014404297,0.28351783752441406,5.191803455352783,9.317340850830078,-2.8466854095458984
9_20251106_211356,1762434801092,9,0.2980157732963562,0.5051800608634949,0.5653055310249329,0.5800080895423889,0.23215776681900024,2.932795763015747,0.44284787774086,5.050830841064453,9.669358253479004,-2.1513826847076416,-0.566924512386322,0.21033981442451477,0.10875682532787323,28.47951316833496,-27.733863830566406,17.323997497558594,-0.1127781867980957,0.2816143035888672,0.5562422275543213,5.163609027862549,9.387743949890137,-2.707624912261963
9_20251106_211356,1762434801111,9,0.29868239164352417,0.5034857988357544,0.561920166015625,0.5844113230705261,0.3767719566822052,2.969968557357788,0.40152955055236816,4.191349029541016,9.698087692260742,-1.8437410593032837,-0.46002310514450073,0.02097174897789955,0.13868919014930725,27.816247940063477,-28.29094696044922,17.382286071777344,-0.6829609870910645,0.2147083282470703,0.5525027513504028,4.87431001663208,9.483379364013672,-2.3962438106536865
9_20251106_211356,1762434801131,9,0.29966631531715393,0.5031137466430664,0.5585557222366333,0.5874454379081726,0.4456566870212555,2.9900078773498535,0.3826468884944916,4.132693290710449,9.840536117553711,-2.1226534843444824,-0.46002310514450073,0.02097174897789955,0.13868919014930725,27.268171310424805,-28.76378631591797,17.270862579345703,-0.5932936668395996,0.28572559356689453,0.2188723087310791,4.725986957550049,9.554810523986816,-2.3415257930755615
9_20251106_211356,1762434801150,9,0.30086764693260193,0.5039422512054443,0.5549197793006897,0.5895633697509766,0.5060955882072449,3.0090513229370117,0.36669841408729553,4.095584869384766,9.903980255126953,-1.9430961608886719,-0.4667426347732544,-0.23803488910198212,0.1985539197921753,26.77295684814453,-29.16986083984375,17.081623077392578,-0.5043215751647949,0.27933597564697266,0.3187437057495117,4.5999064445495605,9.62464427947998,-2.2618398666381836
9_20251106_211356,1762434801169,9,0.30297452211380005,0.5052774548530579,0.5505740642547607,0.5914130210876465,0.5624539852142334,3.028388500213623,0.3534202575683594,4.21409273147583,10.07874870300293,-1.579193115234375,-0.55653977394104,-0.21543289721012115,0.16373464465141296,26.42062759399414,-29.427581787109375,16.752002716064453,-0.3086509704589844,0.3632831573486328,0.5461175441741943,4.5227437019348145,9.715465545654297,-2.1253106594085693
9_20251106_211356,1762434801189,9,0.30554819107055664,0.5059508681297302,0.5459855794906616,0.5937624573707581,0.6185873746871948,3.049703359603882,0.34209343791007996,4.448714733123779,10.366040229797363,-1.483429193496704,-0.55653977394104,-0.21543289721012115,0.16373464465141296,26.215829849243164,-29.66240692138672,16.347431182861328,-0.059223175048828125,0.5204591751098633,0.513505220413208,4.507937908172607,9.8455810546875,-1.996934413909912
9_20251106_211356,1762434801208,9,0.30855780839920044,0.5060962438583374,0.5412075519561768,0.5964503288269043,0.6699293255805969,3.0713794231414795,0.3340581953525543,4.756356239318848,10.734732627868652,-1.1997284889221191,-0.6182371377944946,-0.18855483829975128,0.1252501755952835,26.07225799560547,-29.892860412597656,15.904766082763672,0.19873476028442383,0.7113218307495117,0.6377646923065186,4.557621479034424,10.02341079711914,-1.8374931812286377
9_20251106_211356,1762434801226,9,0.31250008940696716,0.5063104033470154,0.53589928150177,0.5990036725997925,0.7172542810440063,3.09350323677063,0.33040422201156616,5.011327743530273,11.085467338562012,-0.38453787565231323,-0.6903191208839417,-0.26857811212539673,0.09104174375534058,25.92879867553711,-30.11156463623047,15.543460845947266,0.36296510696411133,0.849644660949707,1.1623642444610596,4.648362636566162,10.235822677612305,-1.546902060508728
9_20251106_211356,1762434801246,9,0.31744468212127686,0.5064329504966736,0.5304338335990906,0.6011609435081482,0.7658312916755676,3.1183414459228516,0.3310425281524658,5.056816101074219,11.202777862548828,0.021261878311634064,-0.7294145226478577,-0.3467688262462616,0.01346193253993988,25.799726486206055,-30.30328369140625,15.075042724609375,0.32676267623901367,0.7735633850097656,1.2545311450958252,4.730053424835205,10.429214477539062,-1.233269214630127
9_20251106_211356,1762434801264,9,0.32284560799598694,0.5062161684036255,0.5260248184204102,0.6023402810096741,0.812606692314148,3.1435739994049072,0.33517295122146606,4.958657741546631,11.025614738464355,0.051188111305236816,-0.6328978538513184,-0.3980814516544342,-0.12520436942577362,25.806182861328125,-30.484237670898438,14.40927505493164,0.18288326263427734,0.47712039947509766,1.027565836906433,4.7757744789123535,10.548494338989258,-0.9763777256011963
9_20251106_211356,1762434801283,9,0.32881367206573486,0.5063944458961487,0.5225684642791748,0.6019704937934875,0.8570524454116821,3.1680362224578857,0.34222152829170227,4.77910041809082,10.727548599243164,0.16251370310783386,-0.49423155188560486,-0.5007067322731018,-0.2443229854106903,25.814865112304688,-30.61577606201172,13.825660705566406,0.0026607513427734375,0.14324283599853516,0.9111131429672241,4.776439666748047,10.584305763244629,-0.7485994696617126
9_20251106_211356,1762434801303,9,0.3353661298751831,0.5071796178817749,0.5195552110671997,0.6003005504608154,0.9008111953735352,3.192770004272461,0.3518724739551544,4.550463676452637,10.67368221282959,0.10744943469762802,-0.353121817111969,-0.6790792346000671,-0.4037586450576782,25.937042236328125,-30.676979064941406,13.207233428955078,-0.18078088760375977,0.0715017318725586,0.684839129447937,4.7312445640563965,10.602180480957031,-0.5773897171020508
9_20251106_211356,1762434801322,9,0.34244903922080994,0.5080043077468872,0.5170304179191589,0.5977790951728821,0.938178539276123,3.2146480083465576,0.3625566363334656,3.9567272663116455,10.440258026123047,0.14216387271881104,-0.353121817111969,-0.6790792346000671,-0.4037586450576782,26.059036254882812,-30.726837158203125,12.710716247558594,-0.6196138858795166,-0.12953853607177734,0.5756428241729736,4.576341152191162,10.569796562194824,-0.433478981256485
9_20251106_211356,1762434801341,9,0.35048505663871765,0.5084673762321472,0.5152344703674316,0.5942681431770325,0.9697869420051575,3.234295129776001,0.37424978613853455,3.1582956314086914,10.15536117553711,0.1289963275194168,-0.3164699077606201,-0.7236723899841309,-0.670095682144165,26.320899963378906,-30.67884063720703,12.099794387817383,-1.1344366073608398,-0.33154869079589844,0.4499802589416504,4.292732238769531,10.486909866333008,-0.3209839165210724
9_20251106_211356,1762434801360,9,0.35905852913856506,0.508160412311554,0.5141222476959229,0.5903628468513489,0.9947976469993591,3.250854730606079,0.38620203733444214,2.4640069007873535,9.719633102416992,-0.013452552258968353,-0.3317415118217468,-0.6717488169670105,-0.6859781742095947,26.66031837463379,-30.538856506347656,11.56124496459961,-1.4629802703857422,-0.6138219833374023,0.24602511525154114,3.9269871711730957,10.333455085754395,-0.2594776749610901
9_20251106_211356,1762434801380,9,0.3676891028881073,0.507407546043396,0.5131251215934753,0.5865533947944641,1.0134831666946411,3.264045238494873,0.39805757999420166,2.077359676361084,9.407203674316406,-0.07689615339040756,-0.3476240038871765,-0.6631967425346375,-0.5912941694259644,27.089454650878906,-30.329315185546875,10.905801773071289,-1.4797019958496094,-0.7410011291503906,0.14606523513793945,3.5570616722106934,10.148204803466797,-0.22296138107776642
9_20251106_211356,1762434801400,9,0.3757978677749634,0.506898820400238,0.5116864442825317,0.5831007957458496,1.0279028415679932,3.2759852409362793,0.4107667803764343,2.0055367946624756,9.578381538391113,-0.14512798190116882,-0.3586195707321167,-0.7071790099143982,-0.466677725315094,27.553455352783203,-30.13129425048828,10.386728286743164,-1.2412199974060059,-0.4558582305908203,0.062266722321510315,3.2467567920684814,10.034239768981934,-0.20739470422267914
9_20251106_211356,1762434801419,9,0.3835074305534363,0.5071805715560913,0.5093968510627747,0.5798317193984985,1.0368324518203735,3.285627841949463,0.42216363549232483,1.9839898347854614,9.808216094970703,-0.03499944508075714,-0.3519000709056854,-0.790256679058075,-0.41231077909469604,27.988847732543945,-29.797256469726562,9.84205436706543,-1.0102134943008423,-0.18081951141357422,0.1379162222146988,2.9942033290863037,9.989035606384277,-0.17291566729545593
9_20251106_211356,1762434801438,9,0.39120906591415405,0.5081456303596497,0.5065871477127075,0.5762924551963806,1.041506052017212,3.293745994567871,0.4333941340446472,1.628466248512268,9.761530876159668,0.22236618399620056,-0.33051979541778564,-0.8287411332130432,-0.4355236291885376,28.51850128173828,-29.519248962402344,9.259435653686523,-1.0925894975662231,-0.18200397491455078,0.31622546911239624,2.721055746078491,9.943534851074219,-0.09385930001735687
9_20251106_211356,1762434801456,9,0.3991623818874359,0.5093006491661072,0.5037469863891602,0.5722946524620056,1.041506052017212,3.293745994567871,0.4333941340446472,1.628466248512268,9.761530876159668,0.22236618399620056,-0.36045217514038086,-0.7664329409599304,-0.45873647928237915,28.51850128173828,-29.519248962402344,9.259435653686523,-1.0925894975662231,-0.18200397491455078,0.31622546911239624,2.721055746078491,9.943534851074219,-0.09385930001735687
9_20251106_211356,1762434801475,9,0.40708237886428833,0.5097615718841553,0.501083254814148,0.5686323046684265,1.0395402908325195,3.306950092315674,0.46077024936676025,1.2166812419891357,9.570003509521484,0.7406885623931885,-0.36045217514038086,-0.7664329409599304,-0.45873647928237915,29.046337127685547,-29.27850341796875,8.635477066040039,-0.975440502166748,-0.24365615844726562,0.5649466514587402,2.192121744155884,9.81365966796875,0.17574192583560944
9_20251106_211356,1762434801495,9,0.41461238265037537,0.5094165802001953,0.49853047728538513,0.5657373070716858,1.034257411956787,3.3121225833892822,0.47543734312057495,1.1831638813018799,9.623870849609375,0.5766928195953369,-0.37205860018730164,-0.6112732291221619,-0.42330634593963623,29.514034271240234,-29.0406494140625,7.900936126708984,-0.807166337966919,-0.15183067321777344,0.32076072692871094,1.9903302192687988,9.775701522827148,0.255932092666626
9_20251106_211356,1762434801514,9,0.4216664433479309,0.509010374546051,0.4961400032043457,0.5629839897155762,1.0265151262283325,3.317181348800659,0.48949575424194336,0.9976211786270142,9.82856559753418,0.3013714551925659,-0.3323523998260498,-0.6864096522331238,-0.39703917503356934,29.967243194580078,-28.829917907714844,7.287021636962891,-0.794167160987854,0.04229164123535156,0.03635150194168091,1.7917883396148682,9.786273956298828,0.265019953250885
9_20251106_211356,1762434801532,9,0.4287079870700836,0.5093073844909668,0.4935016632080078,0.5597066879272461,1.0161830186843872,3.3225302696228027,0.5036143660545349,0.7067382335662842,9.984182357788086,0.5431753993034363,-0.3323523998260498,-0.6864096522331238,-0.39703917503356934,30.401201248168945,-28.544219970703125,6.552064895629883,-0.8680400848388672,0.1583271026611328,0.22252434492111206,1.5747783184051514,9.825855255126953,0.3206510543823242
9_20251106_211356,1762434801551,9,0.43611225485801697,0.5102722644805908,0.4905511736869812,0.5556868314743042,1.0032436847686768,3.32824969291687,0.5183436870574951,0.43620502948760986,10.058399200439453,0.8005409836769104,-0.2761528491973877,-0.7810936570167542,-0.4556821584701538,30.78359603881836,-28.311927795410156,5.814090728759766,-0.9108587503433228,0.18603515625,0.38391196727752686,1.3470637798309326,9.872364044189453,0.41662901639938354
9_20251106_211356,1762434801571,9,0.44358545541763306,0.5109036564826965,0.4881153702735901,0.5513191223144531,0.9872404336929321,3.3344004154205322,0.5332716107368469,-0.005506165325641632,10.133813858032227,0.7574472427368164,-0.2761528491973877,-0.7810936570167542,-0.4556821584701538,31.206369400024414,-28.014060974121094,5.038358688354492,-1.082055926322937,0.20915985107421875,0.27265459299087524,1.076549768447876,9.924654006958008,0.48479264974594116
9_20251106_211356,1762434801591,9,0.45123234391212463,0.5104349255561829,0.48650944232940674,0.5469498634338379,0.9872404336929321,3.3344004154205322,0.5332716107368469,-0.005506165325641632,10.133813858032227,0.7574472427368164,-0.35006746649742126,-0.5880604386329651,-0.6346654891967773,31.61323356628418,-27.780044555664062,4.287849426269531,-1.082055926322937,0.20915985107421875,0.27265459299087524,1.076549768447876,9.924654006958008,0.48479264974594116
9_20251106_211356,1762434801610,9,0.45911121368408203,0.508740246295929,0.4853580892086029,0.542980432510376,0.9635650515556335,3.341970920562744,0.5505059361457825,-0.5741046667098999,10.143388748168945,0.7059741616249084,-0.4722404181957245,-0.49887412786483765,-0.6297786235809326,31.948997497558594,-27.513259887695312,3.548704147338867,-1.3205236196517944,0.17498779296875,0.17694520950317383,0.7464189529418945,9.968400955200195,0.5290289521217346
9_20251106_211356,1762434801629,9,0.467223197221756,0.5060551762580872,0.48390382528305054,0.5398589968681335,0.9132163524627686,3.3547849655151367,0.5809602737426758,-1.3090928792953491,10.103887557983398,1.4313859939575195,-0.6096850037574768,-0.44756147265434265,-0.6157287359237671,32.31247329711914,-27.170753479003906,2.9337711334228516,-1.3603451251983643,0.08537101745605469,0.6755707859992981,0.05125224590301514,10.018516540527344,0.7558152079582214
9_20251106_211356,1762434801650,9,0.47567564249038696,0.5024558305740356,0.48191529512405396,0.5376136302947998,0.8789228796958923,3.361590623855591,0.6028252243995667,-1.5652616024017334,9.996152877807617,2.147221565246582,-0.6096850037574768,-0.44756147265434265,-0.6157287359237671,32.78984069824219,-26.75737762451172,2.2299575805664062,-1.2932111024856567,-0.01789093017578125,1.1131250858306885,-0.27205049991607666,10.014043807983398,1.0340964794158936
9_20251106_211356,1762434801667,9,0.48386964201927185,0.49786433577537537,0.48014503717422485,0.5361548662185669,0.8490203022956848,3.3665196895599365,0.6229345202445984,-1.878888487815857,9.875249862670898,2.5338685512542725,-0.6622193455696106,-0.35409918427467346,-0.6206156611442566,33.19429016113281,-26.348495483398438,1.4961681365966797,-1.2854704856872559,-0.11103534698486328,1.1998176574707031,-0.5934180617332458,9.986285209655762,1.3340508937835693
9_20251106_211356,1762434801685,9,0.4912644922733307,0.4930817186832428,0.47919169068336487,0.5347008109092712,0.8147330284118652,3.370532274246216,0.6460634469985962,-2.3026440143585205,9.602323532104492,2.512321710586548,-0.39160627126693726,-0.18550051748752594,-0.5729681849479675,33.562095642089844,-25.930519104003906,0.8693027496337891,-1.3673808574676514,-0.30716991424560547,0.9426167011260986,-0.9352632164955139,9.909493446350098,1.5697050094604492
9_20251106_211356,1762434801704,9,0.4973004162311554,0.4889327585697174,0.47914671897888184,0.5329685211181641,0.7756235599517822,3.3731582164764404,0.6711629629135132,-2.6581673622131348,9.400022506713867,2.2645325660705566,-0.39160627126693726,-0.18550051748752594,-0.5729681849479675,33.92619323730469,-25.563980102539062,0.36302757263183594,-1.3783233165740967,-0.4075765609741211,0.5558620691299438,-1.279844045639038,9.807599067687988,1.7086704969406128
9_20251106_211356,1762434801724,9,0.5014644265174866,0.4857780337333679,0.4796133041381836,0.5315300822257996,0.7327824831008911,3.3744287490844727,0.6963657140731812,-2.5073392391204834,9.361716270446777,1.7426187992095947,-0.17169499397277832,-0.010182350873947144,-0.20034071803092957,34.282020568847656,-25.134910583496094,-0.19648361206054688,-0.9819961786270142,-0.3567066192626953,0.027158617973327637,-1.5253430604934692,9.718422889709473,1.715460181236267
9_20251106_211356,1762434801742,9,0.5037588477134705,0.48339781165122986,0.47990357875823975,0.5312684178352356,0.6948347687721252,3.374910831451416,0.7173648476600647,-2.060839891433716,9.473041534423828,1.4924354553222656,-0.18452313542366028,0.032578177750110626,-0.017081301659345627,34.622955322265625,-24.7451171875,-0.6761798858642578,-0.42839741706848145,-0.1963052749633789,-0.178419828414917,-1.6324424743652344,9.669346809387207,1.6708552837371826
9_20251106_211356,1762434801762,9,0.5050217509269714,0.4817820191383362,0.4794193208217621,0.5319738984107971,0.6948347687721252,3.374910831451416,0.7173648476600647,-2.060839891433716,9.473041534423828,1.4924354553222656,-0.20468167960643768,0.06678660213947296,0.10325904190540314,34.93590545654297,-24.408218383789062,-1.0497817993164062,-0.42839741706848145,-0.1963052749633789,-0.178419828414917,-1.6324424743652344,9.669346809387207,1.6708552837371826
9_20251106_211356,1762434801780,9,0.5055896043777466,0.4806036353111267,0.4783586263656616,0.5334532260894775,0.6533262133598328,3.375746011734009,0.7401492595672607,-1.4683005809783936,9.759136199951172,1.524755835533142,-0.1833014190196991,0.11687751114368439,0.13930004835128784,35.22135925292969,-24.135154724121094,-1.4797496795654297,0.13131356239318848,0.07183170318603516,-0.11687958240509033,-1.599614143371582,9.687304496765137,1.6416354179382324
9_20251106_211356,1762434801801,9,0.5055223107337952,0.4794691503047943,0.4774543344974518,0.535344660282135,0.591794490814209,3.3785462379455566,0.776351809501648,-0.4627790153026581,9.836944580078125,1.383504033088684,-0.14359521865844727,0.15291853249073029,0.1050916388630867,35.329986572265625,-23.962860107421875,-1.7427196502685547,0.7923108339309692,0.0835123062133789,-0.193933367729187,-1.2550898790359497,9.753432273864746,1.577437400817871
9_20251106_211356,1762434801819,9,0.5052195191383362,0.4782704710960388,0.47699618339538574,0.5371081829071045,0.5667897462844849,3.3804283142089844,0.7924381494522095,-0.18506357073783875,9.905177116394043,1.2877401113510132,-0.1423734724521637,0.17490966618061066,0.05011381581425667,35.422821044921875,-23.842666625976562,-1.8991069793701172,0.8560210466384888,0.12139606475830078,-0.2317577600479126,-1.04108464717865,9.783781051635742,1.5194978713989258
9_20251106_211356,1762434801839,9,0.5050709247589111,0.476838618516922,0.4768257141113281,0.5386701226234436,0.5667897462844849,3.3804283142089844,0.7924381494522095,-0.18506357073783875,9.905177116394043,1.2877401113510132,-0.1619211584329605,0.20545290410518646,2.290867269039154e-05,35.46188735961914,-23.80207061767578,-1.9509086608886719,0.8560210466384888,0.12139606475830078,-0.2317577600479126,-1.04108464717865,9.783781051635742,1.5194978713989258
9_20251106_211356,1762434801858,9,0.5050817728042603,0.47498297691345215,0.4769052267074585,0.5402268171310425,0.5280200839042664,3.3850486278533936,0.8203781247138977,0.0675138384103775,9.914752960205078,1.0519213676452637,-0.14909298717975616,0.19262473285198212,-0.012805250473320484,35.48050308227539,-23.699745178222656,-2.056436538696289,0.7119928598403931,0.08477973937988281,-0.3277866840362549,-0.6444790363311768,9.829973220825195,1.3797080516815186
9_20251106_211356,1762434801877,9,0.5050540566444397,0.4731830358505249,0.477079302072525,0.5416765809059143,0.5141419172286987,3.3876633644104004,0.8303980827331543,-0.03662946820259094,10.038049697875977,0.8292701840400696,-0.15947769582271576,0.16941188275814056,0.00307723181322217,35.48050308227539,-23.699745178222656,-2.056436538696289,0.4862796366214752,0.16646099090576172,-0.4403502345085144,-0.5229091048240662,9.871588706970215,1.269620418548584
9_20251106_211356,1762434801896,9,0.5051267743110657,0.47160470485687256,0.4769877791404724,0.5430640578269958,0.5012571811676025,3.391146183013916,0.839428186416626,-0.14675800502300262,10.185286521911621,0.8986990451812744,-0.22789454460144043,0.19506819546222687,0.005520690698176622,35.46620178222656,-23.73821258544922,-2.057718276977539,0.30092090368270874,0.2509584426879883,-0.2967371940612793,-0.44767889380455017,9.934328079223633,1.1954362392425537
9_20251106_211356,1762434801914,9,0.5053795576095581,0.4696134626865387,0.47668206691741943,0.5448200702667236,0.48960912227630615,3.3947885036468506,0.8475703597068787,-0.2317485213279724,10.056004524230957,1.0363597869873047,-0.22789454460144043,0.19506819546222687,0.005520690698176622,35.40336608886719,-23.767974853515625,-1.9931163787841797,0.17274430394172668,0.09734153747558594,-0.12726116180419922,-0.4044928252696991,9.958662986755371,1.163620948791504
9_20251106_211356,1762434801934,9,0.5056163668632507,0.4669133722782135,0.4764663577079773,0.5471049547195435,0.48960912227630615,3.3947885036468506,0.8475703597068787,-0.2317485213279724,10.056004524230957,1.0363597869873047,-0.3231894373893738,0.31968459486961365,0.025068361312150955,35.379913330078125,-23.74512481689453,-1.9259872436523438,0.17274430394172668,0.09734153747558594,-0.12726116180419922,-0.4044928252696991,9.958662986755371,1.163620948791504
9_20251106_211356,1762434801953,9,0.5056001543998718,0.4638120234012604,0.47622010111808777,0.5499648451805115,0.46989426016807556,3.402484178543091,0.8629794716835022,-0.029447153210639954,9.984182357788086,1.2482374906539917,-0.31524819135665894,0.2805892527103424,0.060498517006635666,35.28565216064453,-23.68909454345703,-1.8880424499511719,0.25477689504623413,0.0017757415771484375,0.07598876953125,-0.2842240333557129,9.982406616210938,1.1722487211227417
9_20251106_211356,1762434801973,9,0.5054439306259155,0.4610549211502075,0.47571077942848206,0.552859902381897,0.4618537425994873,3.406283140182495,0.8716835379600525,-0.009097322821617126,10.033260345458984,1.5929877758026123,-0.31524819135665894,0.2805892527103424,0.060498517006635666,35.252838134765625,-23.605194091796875,-1.7254714965820312,0.22010137140750885,0.040683746337890625,0.3365912437438965,-0.22919869422912598,9.992576599121094,1.2563965320587158
9_20251106_211356,1762434801991,9,0.505443274974823,0.45903944969177246,0.4747167229652405,0.5553862452507019,0.455406129360199,3.4099173545837402,0.881009578704834,-0.055782243609428406,10.149374961853027,2.021531343460083,-0.2902027368545532,0.2085072249174118,0.09287434071302414,35.18074035644531,-23.58538818359375,-1.6738204956054688,0.1387331634759903,0.12543869018554688,0.6121077537536621,-0.1945154070854187,10.02393627166748,1.409423589706421
9_20251106_211356,1762434802011,9,0.5053438544273376,0.457071989774704,0.47390031814575195,0.5577913522720337,0.44869089126586914,3.4134979248046875,0.8931185007095337,-0.1647137552499771,9.939891815185547,2.1544039249420166,-0.1839122772216797,0.23660700023174286,0.07699185609817505,35.156776428222656,-23.57482147216797,-1.6339893341064453,0.023841336369514465,-0.06723499298095703,0.5959842205047607,-0.18855509161949158,10.007126808166504,1.5584197044372559
9_20251106_211356,1762434802029,9,0.5048509836196899,0.45519962906837463,0.4736306667327881,0.55999356508255,0.4429668188095093,3.4164702892303467,0.9043702483177185,-0.18147243559360504,9.971014022827148,1.9233732223510742,-0.11793888360261917,0.2647067606449127,0.11303287744522095,35.14308166503906,-23.600868225097656,-1.621490478515625,0.005666136741638184,-0.028890609741210938,0.2919628620147705,-0.18713857233524323,9.99990463256836,1.6314103603363037
9_20251106_211356,1762434802049,9,0.5037034749984741,0.45356065034866333,0.4737439751625061,0.5622563362121582,0.4429668188095093,3.4164702892303467,0.9043702483177185,-0.18147243559360504,9.971014022827148,1.9233732223510742,-0.050743766129016876,0.2390504628419876,0.1924452781677246,35.12254333496094,-23.52765655517578,-1.5668220520019531,0.005666136741638184,-0.028890609741210938,0.2919628620147705,-0.18713857233524323,9.99990463256836,1.6314103603363037
9_20251106_211356,1762434802068,9,0.5020194053649902,0.45284101366996765,0.47371307015419006,0.5643646121025085,0.43306565284729004,3.420917272567749,0.9268637895584106,0.23270666599273682,9.775895118713379,1.480465054512024,0.010953569784760475,0.16880100965499878,0.29323798418045044,35.04722595214844,-23.558616638183594,-1.4621620178222656,0.3169659972190857,-0.15102672576904297,-0.1253342628479004,-0.08425931632518768,9.926921844482422,1.6057993173599243
9_20251106_211356,1762434802087,9,0.4998120367527008,0.4532957375049591,0.47325533628463745,0.566339373588562,0.4307534396648407,3.422546625137329,0.9364720582962036,0.500845730304718,9.88482666015625,1.4996178150177002,0.03905334323644638,0.11565577983856201,0.3402745723724365,34.971595764160156,-23.601593017578125,-1.4118309020996094,0.46808403730392456,-0.0336761474609375,-0.0849452018737793,0.03276168555021286,9.918502807617188,1.5845630168914795
9_20251106_211356,1762434802105,9,0.4973914325237274,0.4544147551059723,0.47249704599380493,0.5682037472724915,0.430417537689209,3.4242544174194336,0.9446892738342285,0.7414526343345642,10.016502380371094,1.409839153289795,0.021338270977139473,0.16024890542030334,0.33477678894996643,34.89295196533203,-23.695068359375,-1.3355236053466797,0.5669527649879456,0.078399658203125,-0.13977909088134766,0.17449986934661865,9.938102722167969,1.5496182441711426
9_20251106_211356,1762434802125,9,0.4948619306087494,0.45521682500839233,0.4718325138092041,0.5703186988830566,0.430417537689209,3.4242544174194336,0.9446892738342285,0.7414526343345642,10.016502380371094,1.409839153289795,0.021338270977139473,0.16024890542030334,0.33477678894996643,34.78761291503906,-23.839683532714844,-1.3288345336914062,0.5669527649879456,0.078399658203125,-0.13977909088134766,0.17449986934661865,9.938102722167969,1.5496182441711426
9_20251106_211356,1762434802144,9,0.49241799116134644,0.45576876401901245,0.4711031913757324,0.5725916028022766,0.4326114356517792,3.4261772632598877,0.9528186917304993,0.9401628375053406,9.947072982788086,1.2578139305114746,-0.025087449699640274,0.1578054577112198,0.3518809974193573,34.657318115234375,-23.975082397460938,-1.1471500396728516,0.6125303506851196,0.007176399230957031,-0.2334434986114502,0.32763245701789856,9.939896583557129,1.4912574291229248
9_20251106_211356,1762434802164,9,0.4899806082248688,0.4565492272377014,0.4700409173965454,0.5749289989471436,0.4435324966907501,3.4303252696990967,0.9629840850830078,1.447711706161499,10.090719223022461,1.030374526977539,-0.025087449699640274,0.1578054577112198,0.3518809974193573,34.46537780761719,-24.138626098632812,-1.0630607604980469,0.7570716142654419,0.10361289978027344,-0.29553961753845215,0.6906400918960571,9.987106323242188,1.3259141445159912
9_20251106_211356,1762434802182,9,0.48786717653274536,0.457754522562027,0.46857357025146484,0.5769620537757874,0.4435324966907501,3.4303252696990967,0.9629840850830078,1.447711706161499,10.090719223022461,1.030374526977539,-0.034861285239458084,0.0747278481721878,0.3512701392173767,34.284423828125,-24.314605712890625,-0.911163330078125,0.7570716142654419,0.10361289978027344,-0.29553961753845215,0.6906400918960571,9.987106323242188,1.3259141445159912
9_20251106_211356,1762434802201,9,0.48638099431991577,0.45880287885665894,0.4668048918247223,0.5788148641586304,0.4610024094581604,3.4359183311462402,0.9698347449302673,1.5063672065734863,10.316962242126465,1.393080472946167,-0.177803635597229,0.06434314697980881,0.20466259121894836,34.03680419921875,-24.59514617919922,-0.7503128051757812,0.5149787664413452,0.2294940948486328,0.09125161170959473,0.9913884401321411,10.087468147277832,1.3018288612365723
9_20251106_211356,1762434802220,9,0.48573222756385803,0.4587857127189636,0.46508514881134033,0.5807543992996216,0.4610024094581604,3.4359183311462402,0.9698347449302673,1.5063672065734863,10.316962242126465,1.393080472946167,-0.2492748200893402,0.1724662035703659,0.0690506249666214,33.817970275878906,-24.810096740722656,-0.7088088989257812,0.5149787664413452,0.2294940948486328,0.09125161170959473,0.9913884401321411,10.087468147277832,1.3018288612365723
9_20251106_211356,1762434802240,9,0.4856174886226654,0.4571257531642914,0.4641030430793762,0.5829408764839172,0.48263314366340637,3.4420979022979736,0.9808816909790039,1.1340848207473755,9.859688758850098,1.754589319229126,-0.26271381974220276,0.2653176486492157,-0.03357464820146561,33.56257629394531,-25.027435302734375,-0.6687755584716797,0.059340596199035645,-0.1923208236694336,0.2891920804977417,1.0747442245483398,10.052009582519531,1.4653972387313843
9_20251106_211356,1762434802259,9,0.48579102754592896,0.45437929034233093,0.4638783633708954,0.585118293762207,0.49165287613868713,3.4435653686523438,0.9870449900627136,0.8671427965164185,9.720830917358398,1.76296865940094,-0.26271381974220276,0.2653176486492157,-0.03357464820146561,33.56257629394531,-25.027435302734375,-0.6687755584716797,-0.16608119010925293,-0.26494312286376953,0.23805701732635498,1.0332239866256714,9.985774040222168,1.524911642074585
9_20251106_211356,1762434802279,9,0.48617368936538696,0.45159032940864563,0.46378570795059204,0.5870299339294434,0.49945810437202454,3.443936347961426,0.9947981238365173,0.6337181925773621,9.625066757202148,2.0478665828704834,-0.2541617155075073,0.25126776099205017,-0.06411789357662201,33.227325439453125,-25.36309051513672,-0.5799942016601562,-0.31960463523864746,-0.28856563568115234,0.41836392879486084,0.9533228278160095,9.9136323928833,1.6295026540756226
9_20251106_211356,1762434802297,9,0.4866763949394226,0.4493453800678253,0.46334511041641235,0.588681697845459,0.5048110485076904,3.443330764770508,1.0032413005828857,0.4170522391796112,9.53887939453125,2.366281509399414,-0.19612957537174225,0.16513583064079285,2.290867269039154e-05,33.227325439453125,-25.36309051513672,-0.5799942016601562,-0.42901650071144104,-0.2998018264770508,0.5894231796264648,0.8460687398910522,9.8386812210083,1.7768583297729492
9_20251106_211356,1762434802316,9,0.48690077662467957,0.4474853277206421,0.46292752027511597,0.5902394652366638,0.5086159110069275,3.441530704498291,1.0126193761825562,0.3260765075683594,9.3413667678833,2.3279762268066406,-0.11549542844295502,0.2396613210439682,0.044616032391786575,33.1387939453125,-25.4310302734375,-0.6252956390380859,-0.4159938097000122,-0.39785099029541016,0.4408942461013794,0.7420703172683716,9.739217758178711,1.8870819807052612
9_20251106_211356,1762434802335,9,0.48621952533721924,0.44567859172821045,0.463129460811615,0.5920069813728333,0.5114876627922058,3.438173770904541,1.0226470232009888,0.36557912826538086,9.259967803955078,1.929358720779419,-0.06906970590353012,0.28486528992652893,0.13258054852485657,33.114830017089844,-25.42046356201172,-0.5854644775390625,-0.3011929392814636,-0.38339996337890625,0.03382134437561035,0.6667720675468445,9.643367767333984,1.8955373764038086
9_20251106_211356,1762434802354,9,0.4846099317073822,0.44417887926101685,0.46346867084503174,0.594184398651123,0.5114876627922058,3.438173770904541,1.0226470232009888,0.36557912826538086,9.259967803955078,1.929358720779419,-0.04524598270654678,0.24210478365421295,0.25292089581489563,33.03990936279297,-25.450881958007812,-0.5348701477050781,-0.3011929392814636,-0.38339996337890625,0.03382134437561035,0.6667720675468445,9.643367767333984,1.8955373764038086
9_20251106_211356,1762434802373,9,0.48239096999168396,0.4436388909816742,0.4632589519023895,0.596552312374115,0.5140970349311829,3.433628559112549,1.0317559242248535,0.5906244516372681,9.286301612854004,1.6288992166519165,-0.024476584047079086,0.17063359916210175,0.34332889318466187,32.991477966308594,-25.442039489746094,-0.4825019836425781,-0.06091809272766113,-0.28565311431884766,-0.21331048011779785,0.6515425443649292,9.571954727172852,1.8422096967697144
9_20251106_211356,1762434802393,9,0.47982412576675415,0.4440588057041168,0.4624727666378021,0.5989152789115906,0.5167868733406067,3.4291088581085205,1.0389506816864014,0.8144726753234863,9.348548889160156,1.6109434366226196,-0.027530908584594727,0.17185534536838531,0.4074696898460388,32.891998291015625,-25.46269989013672,-0.3109779357910156,0.13034409284591675,-0.1787242889404297,-0.18501293659210205,0.6841285824775696,9.527273178100586,1.7959563732147217
9_20251106_211356,1762434802412,9,0.4768555164337158,0.44475093483924866,0.46138954162597656,0.6016021370887756,0.5206407904624939,3.423940420150757,1.04560124874115,1.0670499801635742,9.313835144042969,1.6169286966323853,-0.00859410222619772,0.1211535632610321,0.43679118156433105,32.904396057128906,-25.45001983642578,-0.24264144897460938,0.3063371181488037,-0.17075061798095703,-0.14322209358215332,0.7607128620147705,9.484585762023926,1.7601507902145386
9_20251106_211356,1762434802431,9,0.4738237261772156,0.44596102833747864,0.4600318968296051,0.6041361689567566,0.5305782556533813,3.4150071144104004,1.0546584129333496,1.2885042428970337,9.411993026733398,1.4373712539672852,-0.00859410222619772,0.1211535632610321,0.43679118156433105,32.719810485839844,-25.475975036621094,-0.10158348083496094,0.3400847911834717,-0.052971839904785156,-0.21232473850250244,0.948419451713562,9.464964866638184,1.6496959924697876
9_20251106_211356,1762434802451,9,0.4711437225341797,0.44805318117141724,0.45849916338920593,0.6058468818664551,0.5373290777206421,3.410717010498047,1.0578327178955078,1.3016717433929443,9.593944549560547,1.2781636714935303,0.030501240864396095,0.002645807806402445,0.42701733112335205,32.5166015625,-25.615867614746094,0.0501251220703125,0.28260183334350586,0.10318374633789062,-0.2972259521484375,1.0190699100494385,9.490760803222656,1.5753896236419678
9_20251106_211356,1762434802470,9,0.46854522824287415,0.4501461386680603,0.4568262994289398,0.6075718402862549,0.5373290777206421,3.410717010498047,1.0578327178955078,1.3016717433929443,9.593944549560547,1.2781636714935303,-0.06662625074386597,0.0014240783639252186,0.40013930201530457,32.26122283935547,-25.82159423828125,0.18503570556640625,0.28260183334350586,0.10318374633789062,-0.2972259521484375,1.0190699100494385,9.490760803222656,1.5753896236419678
9_20251106_211356,1762434802489,9,0.4665306508541107,0.45171791315078735,0.4547145962715149,0.6095364689826965,0.5524362325668335,3.407208204269409,1.0617661476135254,1.567416787147522,10.22838020324707,1.5319381952285767,-0.18941006064414978,0.044184610247612,0.2993466258049011,31.979339599609375,-26.07819366455078,0.2232952117919922,0.3664557933807373,0.5178508758544922,0.008006691932678223,1.2009609937667847,9.710529327392578,1.5239315032958984
9_20251106_211356,1762434802507,9,0.4654350280761719,0.45207351446151733,0.4525017738342285,0.6117531657218933,0.5608755350112915,3.4076104164123535,1.063851237297058,1.456091046333313,10.162542343139648,1.6001700162887573,-0.28775927424430847,0.12787307798862457,0.17106501758098602,31.722028732299805,-26.332931518554688,0.235504150390625,0.20410406589508057,0.36161041259765625,0.06099081039428711,1.2519869804382324,9.800931930541992,1.5391792058944702
9_20251106_211356,1762434802526,9,0.46516865491867065,0.4509410262107849,0.45060673356056213,0.6141855716705322,0.5691080093383789,3.4089584350585938,1.0662457942962646,1.3304009437561035,10.152965545654297,1.6899486780166626,-0.37694549560546875,0.16085977852344513,0.09409607201814651,31.466522216796875,-26.56201934814453,0.19417572021484375,0.06273114681243896,0.2816276550292969,0.12061560153961182,1.2676697969436646,9.871337890625,1.5693330764770508
9_20251106_211356,1762434802546,9,0.4656006693840027,0.4488602876663208,0.44868022203445435,0.6167872548103333,0.5773128271102905,3.411217212677002,1.0703425407409668,1.2585779428482056,10.170921325683594,2.129265785217285,-0.37694549560546875,0.16085977852344513,0.09409607201814651,31.272144317626953,-26.786865234375,0.1282672882080078,-0.007273435592651367,0.23966693878173828,0.4479461908340454,1.265851378440857,9.931254386901855,1.6813195943832397
9_20251106_211356,1762434802564,9,0.46666792035102844,0.4464282989501953,0.4463951289653778,0.6193982362747192,0.5841391086578369,3.4135470390319824,1.0760300159454346,1.1891491413116455,10.09311294555664,2.5685830116271973,-0.43864285945892334,0.11993183195590973,0.03911824896931648,31.015241622924805,-27.029449462890625,0.1812896728515625,-0.06136178970336914,0.1294870376586914,0.709810733795166,1.2505109310150146,9.96362590789795,1.8587722778320312
9_20251106_211356,1762434802584,9,0.467806339263916,0.44391342997550964,0.4441978633403778,0.6219214797019958,0.5909178853034973,3.4159414768218994,1.084977388381958,1.110143780708313,9.942285537719727,2.82714581489563,-0.36594995856285095,0.09977330267429352,0.02690095826983452,30.92166519165039,-27.197036743164062,0.05277824401855469,-0.11229372024536133,-0.017072677612304688,0.7746987342834473,1.2224375009536743,9.959358215332031,2.0524470806121826
9_20251106_211356,1762434802602,9,0.4687668979167938,0.4416801333427429,0.4423884451389313,0.6240742802619934,0.5960068702697754,3.4175045490264893,1.0947413444519043,0.9353746175765991,9.762728691101074,2.9109392166137695,-0.2718767821788788,0.09122119843959808,0.02323576807975769,30.819934844970703,-27.29034423828125,-0.047607421875,-0.2296503782272339,-0.1573038101196289,0.6867938041687012,1.165024995803833,9.920032501220703,2.2241454124450684
9_20251106_211356,1762434802621,9,0.46947968006134033,0.43990761041641235,0.4410405457019806,0.6257422566413879,0.5960068702697754,3.4175045490264893,1.0947413444519043,0.9353746175765991,9.762728691101074,2.9109392166137695,-0.1991838961839676,0.10954713821411133,0.03667479380965233,30.758188247680664,-27.318618774414062,-0.1316852569580078,-0.2296503782272339,-0.1573038101196289,0.6867938041687012,1.165024995803833,9.920032501220703,2.2241454124450684
9_20251106_211356,1762434802641,9,0.46970829367637634,0.43834188580513,0.44019001722335815,0.627266526222229,0.6032483577728271,3.4191484451293945,1.117651343345642,0.8072903752326965,9.651402473449707,2.5841445922851562,-0.1466495394706726,0.12176442891359329,0.0745484009385109,30.69463539123535,-27.37255096435547,-0.16222572326660156,-0.22933322191238403,-0.19069290161132812,0.20128726959228516,1.0366235971450806,9.842095375061035,2.382857322692871
9_20251106_211356,1762434802660,9,0.46944284439086914,0.43710604310035706,0.4395861029624939,0.6287493705749512,0.6060975790023804,3.4190001487731934,1.1296017169952393,0.9473451375961304,9.639431953430176,2.5374598503112793,-0.10388899594545364,0.08205822110176086,0.12463930994272232,30.60882568359375,-27.390396118164062,-0.19295501708984375,-0.07142281532287598,-0.16213035583496094,0.12368202209472656,1.0187679529190063,9.801562309265137,2.4137778282165527
9_20251106_211356,1762434802679,9,0.4688379168510437,0.43652668595314026,0.4388810396194458,0.6300943493843079,0.6086438298225403,3.4181883335113525,1.140939712524414,1.0095916986465454,9.554441452026367,2.6152679920196533,-0.06418278813362122,0.05090412124991417,0.13258054852485657,30.535091400146484,-27.41919708251953,-0.30455589294433594,-0.00734102725982666,-0.19769668579101562,0.1611921787261963,1.016932725906372,9.752138137817383,2.454075813293457
9_20251106_211356,1762434802699,9,0.4681416153907776,0.4363795518875122,0.4382241368293762,0.6311702728271484,0.6086438298225403,3.4181883335113525,1.140939712524414,1.0095916986465454,9.554441452026367,2.6152679920196533,-0.01714620739221573,0.08083648979663849,0.11364374309778214,30.46196174621582,-27.435577392578125,-0.4023761749267578,-0.00734102725982666,-0.19769668579101562,0.1611921787261963,1.016932725906372,9.752138137817383,2.454075813293457
9_20251106_211356,1762434802718,9,0.4673030376434326,0.43622350692749023,0.43799760937690735,0.6320561766624451,0.6133317351341248,3.4124114513397217,1.1634351015090942,1.008394718170166,9.20969009399414,2.4393017292022705,-0.012259290553629398,0.12054269760847092,0.09043088555335999,30.403034210205078,-27.41362762451172,-0.4853973388671875,-0.0027829408645629883,-0.35214710235595703,-0.03607773780822754,1.011177659034729,9.561837196350098,2.475379467010498
9_20251106_211356,1762434802736,9,0.46637511253356934,0.43571487069129944,0.4380943179130554,0.6330246329307556,0.6149275898933411,3.4082672595977783,1.1726142168045044,0.8503841161727905,9.105546951293945,2.336355447769165,-0.012259290553629398,0.12054269760847092,0.09043088555335999,30.403034210205078,-27.41362762451172,-0.4853973388671875,-0.12863481044769287,-0.3650321960449219,-0.11121916770935059,0.9790189266204834,9.470579147338867,2.4475746154785156
9_20251106_211356,1762434802756,9,0.46573930978775024,0.4349502921104431,0.4384362995624542,0.6337813138961792,0.6151074767112732,3.4035327434539795,1.1814411878585815,0.4840870499610901,9.352140426635742,2.16398024559021,-0.0006528608500957489,0.20117683708667755,0.008575014770030975,30.291950225830078,-27.445892333984375,-0.4903392791748047,-0.3959454894065857,-0.09475040435791016,-0.22687554359436035,0.8800325393676758,9.446890830993652,2.3908557891845703
9_20251106_211356,1762434802775,9,0.46495652198791504,0.4337097108364105,0.4393177926540375,0.6345953345298767,0.6134938597679138,3.3992888927459717,1.1885945796966553,0.23270666599273682,9.457480430603027,2.0945515632629395,-0.012259290553629398,0.29463914036750793,0.018348850309848785,30.192445755004883,-27.489784240722656,-0.5085716247558594,-0.5178607106208801,0.008471488952636719,-0.2370433807373047,0.7505673766136169,9.44900894165039,2.331594944000244
9_20251106_211356,1762434802794,9,0.4638122618198395,0.43187764286994934,0.44057413935661316,0.6358100175857544,0.6134938597679138,3.3992888927459717,1.1885945796966553,0.23270666599273682,9.457480430603027,2.0945515632629395,-0.04035906493663788,0.37038639187812805,0.08187878131866455,30.08026123046875,-27.535140991210938,-0.4597129821777344,-0.5178607106208801,0.008471488952636719,-0.2370433807373047,0.7505673766136169,9.44900894165039,2.331594944000244
9_20251106_211356,1762434802813,9,0.4620512127876282,0.42966917157173157,0.4418097138404846,0.6377281546592712,0.6063636541366577,3.3895139694213867,1.2032870054244995,0.3009384870529175,8.994221687316895,2.555415391921997,0.024392591789364815,0.4302510917186737,0.17900626361370087,29.934337615966797,-27.53265380859375,-0.4112701416015625,-0.2680351138114929,-0.3377962112426758,0.15243840217590332,0.5689736008644104,9.33201789855957,2.4029769897460938
9_20251106_211356,1762434802832,9,0.4591613709926605,0.42768311500549316,0.44327929615974426,0.64012610912323,0.6025687456130981,3.382993221282959,1.20982825756073,0.5463336110115051,8.802694320678711,2.223832845687866,0.16611319780349731,0.36000165343284607,0.3305007219314575,29.871702194213867,-27.56214141845703,-0.3737010955810547,-0.018112003803253174,-0.4234590530395508,-0.14331531524658203,0.5644456148147583,9.226153373718262,2.3671481609344482
9_20251106_211356,1762434802851,9,0.45507967472076416,0.42740070819854736,0.4446222484111786,0.6422944664955139,0.5999057292938232,3.3759782314300537,1.215537667274475,0.9078425168991089,8.927186965942383,2.183133125305176,0.16611319780349731,0.36000165343284607,0.3305007219314575,29.80687713623047,-27.60620880126953,-0.1336517333984375,0.2747175097465515,-0.23917293548583984,-0.14721202850341797,0.6331250071525574,9.166359901428223,2.3303451538085938
9_20251106_211356,1762434802872,9,0.4499412477016449,0.4293326735496521,0.44493377208709717,0.6444069147109985,0.6000002026557922,3.369291305541992,1.2218616008758545,1.4955936670303345,9.368898391723633,2.428528308868408,0.23575179278850555,0.15597285330295563,0.7037390470504761,29.681631088256836,-27.64196014404297,0.1312408447265625,0.6899749040603638,0.1620311737060547,0.07854652404785156,0.8056187629699707,9.206867218017578,2.3499817848205566
9_20251106_211356,1762434802890,9,0.4440637230873108,0.43228211998939514,0.44422662258148193,0.6469948291778564,0.6032617092132568,3.365335702896118,1.2274049520492554,2.0989065170288086,9.811806678771973,2.509927749633789,0.18016308546066284,0.2140050083398819,0.6786936521530151,29.443679809570312,-27.746971130371094,0.3228187561035156,1.034630298614502,0.4839515686035156,0.12795686721801758,1.0642762184143066,9.327855110168457,2.3819708824157715
9_20251106_211356,1762434802909,9,0.43821901082992554,0.4345143735408783,0.443458616733551,0.650004506111145,0.6100704669952393,3.362910509109497,1.2328122854232788,2.3538782596588135,9.88961410522461,2.3267791271209717,0.08486820012331009,0.29952606558799744,0.5290317535400391,29.164447784423828,-27.930381774902344,0.5789222717285156,1.0316816568374634,0.44940757751464844,-0.044153451919555664,1.32219660282135,9.440206527709961,2.3709325790405273
9_20251106_211356,1762434802929,9,0.43333983421325684,0.4352833330631256,0.44295409321784973,0.6530977487564087,0.6197608113288879,3.361818790435791,1.2372883558273315,2.2700846195220947,9.878841400146484,2.0646252632141113,-0.009815831668674946,0.3215171992778778,0.36898520588874817,28.84393310546875,-28.19219207763672,0.8995532989501953,0.7583104372024536,0.3509073257446289,-0.24504590034484863,1.5117741823196411,9.527934074401855,2.30967116355896
9_20251106_211356,1762434802946,9,0.429703027009964,0.434886634349823,0.4426117241382599,0.655990719795227,0.6288279891014099,3.3616631031036377,1.240553855895996,2.077359676361084,9.858491897583008,2.1508126258850098,-0.11366283148527145,0.3630560040473938,0.2755228877067566,28.528945922851562,-28.36529541015625,1.1409339904785156,0.4524683952331543,0.2644462585449219,-0.12708687782287598,1.6248912811279297,9.594045639038086,2.2778995037078857
9_20251106_211356,1762434802965,9,0.4268486797809601,0.4333927631378174,0.4422522485256195,0.659078061580658,0.6395225524902344,3.3617241382598877,1.2438989877700806,2.013916015625,9.67654037475586,2.2334094047546387,-0.19796216487884521,0.3850471079349518,0.2651382088661194,28.209840774536133,-28.60198974609375,1.4620933532714844,0.31121981143951416,0.06599617004394531,-0.035592079162597656,1.7026962041854858,9.610544204711914,2.2690014839172363
9_20251106_211356,1762434802984,9,0.42437440156936646,0.43134960532188416,0.44148609042167664,0.6625208854675293,0.6395225524902344,3.3617241382598877,1.2438989877700806,2.013916015625,9.67654037475586,2.2334094047546387,-0.23889011144638062,0.35939082503318787,0.32805728912353516,27.808353424072266,-28.79388427734375,1.7673587799072266,0.31121981143951416,0.06599617004394531,-0.035592079162597656,1.7026962041854858,9.610544204711914,2.2690014839172363
9_20251106_211356,1762434803004,9,0.4216764569282532,0.4294673204421997,0.4401569366455078,0.6663397550582886,0.6641213297843933,3.363096237182617,1.2502326965332031,2.424504280090332,9.832157135009766,2.5051393508911133,-0.23889011144638062,0.35939082503318787,0.32805728912353516,27.394763946533203,-28.99805450439453,1.9637393951416016,0.5073492527008057,0.15696239471435547,0.20667123794555664,1.9171550273895264,9.67519474029541,2.2984681129455566
9_20251106_211356,1762434803023,9,0.4193141758441925,0.42810919880867004,0.4383673369884491,0.6698747873306274,0.6641213297843933,3.363096237182617,1.2502326965332031,2.424504280090332,9.832157135009766,2.5051393508911133,-0.1423734724521637,0.2341635376214981,0.31217479705810547,27.053573608398438,-29.22162628173828,2.067920684814453,0.5073492527008057,0.15696239471435547,0.20667123794555664,1.9171550273895264,9.67519474029541,2.2984681129455566
9_20251106_211356,1762434803042,9,0.4168315827846527,0.42736688256263733,0.4371287226676941,0.6727015972137451,0.6913243532180786,3.3665521144866943,1.2612416744232178,2.26290225982666,9.848915100097656,3.0174765586853027,0.015229621902108192,0.16452495753765106,0.2810207009315491,26.69980239868164,-29.446533203125,2.225677490234375,0.1818234920501709,0.0985403060913086,0.48238253593444824,2.0810787677764893,9.750374794006348,2.5350940227508545
9_20251106_211356,1762434803061,9,0.4142124354839325,0.42751893401145935,0.4367005228996277,0.6744984984397888,0.7030268907546997,3.3680713176727295,1.2680723667144775,1.8798465728759766,9.68970775604248,3.042614459991455,0.015229621902108192,0.16452495753765106,0.2810207009315491,26.422767639160156,-29.60375213623047,2.3741798400878906,-0.16098570823669434,-0.04853343963623047,0.40601634979248047,2.040832281112671,9.738241195678711,2.6365981101989746
9_20251106_211356,1762434803080,9,0.4111579954624176,0.4277351200580597,0.43671202659606934,0.6762206554412842,0.7139458060264587,3.369661808013916,1.2748305797576904,1.7433829307556152,9.762727737426758,2.603297472000122,0.004844920709729195,0.3490060865879059,0.3561570644378662,26.15005111694336,-29.697105407714844,2.4158706665039062,-0.23795950412750244,0.01958942413330078,-0.02664041519165039,1.9813424348831177,9.743138313293457,2.6299378871917725
9_20251106_211356,1762434803099,9,0.40735384821891785,0.4267900884151459,0.43671855330467224,0.6791096925735474,0.7243596911430359,3.371126413345337,1.281049370765686,1.8152059316635132,9.701678276062012,2.4524693489074707,-0.1466495394706726,0.42658594250679016,0.428239107131958,25.834135055541992,-29.906265258789062,2.494264602661133,-0.13290917873382568,-0.03316783905029297,-0.14197468757629395,1.9481151103973389,9.734846115112305,2.5944440364837646
9_20251106_211356,1762434803120,9,0.4034442603588104,0.4251367449760437,0.43577805161476135,0.6830731630325317,0.7243596911430359,3.371126413345337,1.281049370765686,1.8152059316635132,9.701678276062012,2.4524693489074707,-0.30486348271369934,0.4308619797229767,0.5320860743522644,25.495651245117188,-30.091354370117188,2.5181407928466797,-0.13290917873382568,-0.03316783905029297,-0.14197468757629395,1.9481151103973389,9.734846115112305,2.5944440364837646
9_20251106_211356,1762434803139,9,0.3994487226009369,0.4232915937900543,0.43340978026390076,0.6880559325218201,0.7363076210021973,3.3726449012756348,1.28811776638031,2.237764358520508,9.731603622436523,2.749337673187256,-0.3677825331687927,0.4088708460330963,0.5919508337974548,25.495651245117188,-30.091354370117188,2.5181407928466797,0.2317194938659668,-0.002593994140625,0.12391471862792969,2.006044864654541,9.734197616577148,2.625422954559326
9_20251106_211356,1762434803157,9,0.3952973186969757,0.42156127095222473,0.43024852871894836,0.6934784054756165,0.7608515024185181,3.376481294631958,1.3033698797225952,3.196600914001465,9.974605560302734,3.455596446990967,-0.3677825331687927,0.4088708460330963,0.5919508337974548,25.17932891845703,-30.312667846679688,2.5557212829589844,0.8215212821960449,0.15769195556640625,0.5709571838378906,2.37507963180542,9.816913604736328,2.884639263153076
9_20251106_211356,1762434803176,9,0.39115992188453674,0.41955944895744324,0.42766454815864563,0.6986178159713745,0.7764094471931458,3.378892660140991,1.3125442266464233,3.209768533706665,9.923131942749023,3.188654661178589,-0.2498856633901596,0.48461809754371643,0.428239107131958,24.82705307006836,-30.52393341064453,2.605609893798828,0.6677510738372803,0.08497428894042969,0.24321246147155762,2.5420174598693848,9.838157653808594,2.9454421997070312
9_20251106_211356,1762434803195,9,0.3871917128562927,0.41709384322166443,0.42603784799575806,0.7032830715179443,0.7764094471931458,3.378892660140991,1.3125442266464233,3.209768533706665,9.923131942749023,3.188654661178589,-0.2498856633901596,0.48461809754371643,0.428239107131958,24.43680763244629,-30.76270294189453,2.6534996032714844,0.6677510738372803,0.08497428894042969,0.24321246147155762,2.5420174598693848,9.838157653808594,2.9454421997070312
9_20251106_211356,1762434803214,9,0.38377487659454346,0.41429707407951355,0.4245557188987732,0.707691490650177,0.8077649474143982,3.382812261581421,1.3300045728683472,2.8722004890441895,9.622673034667969,3.029447078704834,-0.31402647495269775,0.475455105304718,0.36409831047058105,24.059356689453125,-30.988250732421875,2.7156600952148438,0.18833398818969727,-0.17161846160888672,0.0466766357421875,2.683866500854492,9.794291496276855,2.9827704429626465
9_20251106_211356,1762434803233,9,0.3805314004421234,0.41142112016677856,0.42276036739349365,0.7121812701225281,0.8245967626571655,3.383695363998413,1.3392654657363892,2.973949909210205,9.53648567199707,3.139575481414795,-0.30547434091567993,0.4504096508026123,0.4080805480480194,23.671833038330078,-31.176925659179688,2.7781219482421875,0.23206663131713867,-0.20624446868896484,0.1254439353942871,2.7418832778930664,9.742730140686035,3.014131546020508
9_20251106_211356,1762434803252,9,0.37704721093177795,0.40889066457748413,0.4207717478275299,0.7166553735733032,0.8245967626571655,3.383695363998413,1.3392654657363892,2.973949909210205,9.53648567199707,3.139575481414795,-0.28898102045059204,0.41131430864334106,0.4288499355316162,23.28270149230957,-31.39098358154297,2.8670883178710938,0.23206663131713867,-0.20624446868896484,0.1254439353942871,2.7418832778930664,9.742730140686035,3.014131546020508
9_20251106_211356,1762434803272,9,0.3735792636871338,0.40680745244026184,0.4185931980609894,0.720920205116272,0.8608183860778809,3.3848094940185547,1.358080506324768,3.663450241088867,9.731603622436523,3.4172911643981934,-0.23644664883613586,0.33556708693504333,0.38670027256011963,22.882186889648438,-31.5931396484375,2.942312240600586,0.6373014450073242,0.0041790008544921875,0.2921142578125,3.026148796081543,9.727424621582031,3.1251769065856934
9_20251106_211356,1762434803291,9,0.37039217352867126,0.4052713215351105,0.41665756702423096,0.7245420813560486,0.8799368143081665,3.385313034057617,1.3682869672775269,3.6574649810791016,9.725619316101074,3.577695846557617,-0.17597103118896484,0.3025803864002228,0.28346413373947144,22.493650436401367,-31.80638885498047,2.9501819610595703,0.5050528049468994,-0.0014448165893554688,0.3620152473449707,3.152412176132202,9.72706413269043,3.2156805992126465
9_20251106_211356,1762434803312,9,0.3677563965320587,0.4037579596042633,0.4153843820095062,0.7274548411369324,0.9010418653488159,3.3850746154785156,1.3795992136001587,3.459951877593994,9.498180389404297,3.393350124359131,-0.17597103118896484,0.3025803864002228,0.28346413373947144,22.094646453857422,-31.983299255371094,3.012418746948242,0.2460317611694336,-0.1831073760986328,0.1421356201171875,3.2139201164245605,9.68128776550293,3.2512145042419434
9_20251106_211356,1762434803329,9,0.3654908239841461,0.4016605317592621,0.41471970081329346,0.7301320433616638,0.9175711870193481,3.3839869499206543,1.3883665800094604,3.349823236465454,9.269543647766113,3.282024383544922,-0.19246438145637512,0.36427775025367737,0.17534106969833374,21.73108673095703,-32.182533264160156,3.0350494384765625,0.10872244834899902,-0.3293952941894531,0.02464771270751953,3.241100788116455,9.598938941955566,3.2573766708374023
9_20251106_211356,1762434803349,9,0.3634105622768402,0.399188756942749,0.4139878749847412,0.7329359650611877,0.9365757703781128,3.3811004161834717,1.3988370895385742,3.415660858154297,9.049285888671875,3.4783406257629395,-0.23583579063415527,0.3587799370288849,0.2034408450126648,21.433687210083008,-32.28949737548828,3.0214309692382812,0.1396479606628418,-0.43972206115722656,0.1767711639404297,3.276012897491455,9.489007949829102,3.3015694618225098
9_20251106_211356,1762434803367,9,0.3613283336162567,0.3967195153236389,0.4128309190273285,0.7359524965286255,0.9528886079788208,3.377903461456299,1.4079747200012207,3.7161202430725098,9.09477424621582,3.612410068511963,-0.23033800721168518,0.34045401215553284,0.22237765789031982,21.160573959350586,-32.383392333984375,3.1171875,0.35208606719970703,-0.3153867721557617,0.2486724853515625,3.3640341758728027,9.410161018371582,3.3637375831604004
9_20251106_211356,1762434803386,9,0.3592315912246704,0.39449650049209595,0.4114859700202942,0.7389211654663086,0.9724711775779724,3.373262643814087,1.419409155845642,3.808293104171753,9.058862686157227,3.765632390975952,-0.1771927773952484,0.2702045738697052,0.18572577834129333,20.83639144897461,-32.53002166748047,3.142345428466797,0.3554069995880127,-0.2810392379760742,0.3215157985687256,3.4528861045837402,9.3399019241333,3.4441165924072266
9_20251106_211356,1762434803406,9,0.3572962284088135,0.3927576541900635,0.41043975949287415,0.7413636445999146,0.9915364384651184,3.3682432174682617,1.430936336517334,3.604794979095459,9.13906478881836,3.662686347961426,-0.13015618920326233,0.2298874855041504,0.14479783177375793,20.612220764160156,-32.62046813964844,3.213031768798828,0.12152719497680664,-0.16066932678222656,0.17485570907592773,3.4832677841186523,9.299734115600586,3.487830638885498
9_20251106_211356,1762434803424,9,0.35563430190086365,0.39130303263664246,0.4097053110599518,0.7433355450630188,1.0075292587280273,3.3635146617889404,1.4408453702926636,3.3582024574279785,9.122306823730469,3.5094637870788574,-0.14481693506240845,0.24332650005817413,0.12219585478305817,20.365285873413086,-32.68711853027344,3.2562332153320312,-0.1000521183013916,-0.14194202423095703,0.01730632781982422,3.45825457572937,9.264248847961426,3.492157459259033
9_20251106_211356,1762434803443,9,0.35415613651275635,0.3895995616912842,0.4090445637702942,0.745297372341156,1.0231081247329712,3.3584787845611572,1.4508424997329712,3.291167974472046,9.157020568847656,3.514252185821533,-0.21628811955451965,0.2812001407146454,0.1252501755952835,20.178068161010742,-32.77464294433594,3.2743263244628906,-0.13366937637329102,-0.08578300476074219,0.01767587661743164,3.424837350845337,9.242803573608398,3.4965763092041016
9_20251106_211356,1762434803462,9,0.3527778685092926,0.3873737156391144,0.40805184841156006,0.7476516962051392,1.0378236770629883,3.3533477783203125,1.460680603981018,3.3941140174865723,9.116320610046387,3.6207895278930664,-0.2566051781177521,0.33006930351257324,0.10936769098043442,20.039596557617188,-32.85899353027344,3.2943801879882812,-0.024578571319580078,-0.10118579864501953,0.09937071800231934,3.4186925888061523,9.217506408691406,3.521418809890747
9_20251106_211356,1762434803481,9,0.3515208065509796,0.38461950421333313,0.406983882188797,0.7502433657646179,1.0378236770629883,3.3533477783203125,1.460680603981018,3.3941140174865723,9.116320610046387,3.6207895278930664,-0.2724876403808594,0.30929991602897644,0.06599629670381546,19.86738395690918,-32.89550018310547,3.3140182495117188,-0.024578571319580078,-0.10118579864501953,0.09937071800231934,3.4186925888061523,9.217506408691406,3.521418809890747
9_20251106_211356,1762434803501,9,0.35068023204803467,0.38179075717926025,0.4058714509010315,0.752680242061615,1.065900206565857,3.3416407108306885,1.4792232513427734,3.348626136779785,9.062454223632812,3.6040306091308594,-0.33907192945480347,0.18040744960308075,0.02323576807975769,19.717132568359375,-32.96849060058594,3.3743934631347656,-0.06437826156616211,-0.0775909423828125,0.07834458351135254,3.4130043983459473,9.140045166015625,3.525686025619507
9_20251106_211356,1762434803520,9,0.3508663475513458,0.3795444965362549,0.40400081872940063,0.754733145236969,1.0771996974945068,3.33650541305542,1.4887067079544067,3.176251173019409,9.13547420501709,4.110382556915283,-0.39099541306495667,0.157194584608078,-0.05190059170126915,19.579042434692383,-33.06391143798828,3.245504379272461,-0.18940281867980957,-0.0036563873291015625,0.4677572250366211,3.3656539916992188,9.139130592346191,3.642625331878662
9_20251106_211356,1762434803540,9,0.35190707445144653,0.3769799768924713,0.40195104479789734,0.7566259503364563,1.0878379344940186,3.3308043479919434,1.5010523796081543,2.941629409790039,9.046892166137695,4.410841941833496,-0.36533910036087036,0.20056597888469696,-0.12520436942577362,19.481342315673828,-33.08214569091797,3.173736572265625,-0.3392195701599121,-0.0737905502319336,0.6145732402801514,3.280848979949951,9.120682716369629,3.7962687015533447
9_20251106_211356,1762434803559,9,0.3532120883464813,0.37379997968673706,0.40047594904899597,0.7583757638931274,1.095584750175476,3.324709177017212,1.5150420665740967,2.504706382751465,8.897260665893555,4.540122985839844,-0.2908135950565338,0.21033981442451477,-0.15513673424720764,19.39370346069336,-33.14887237548828,3.0067882537841797,-0.6209142208099365,-0.17873764038085938,0.595083475112915,3.1256206035614014,9.075998306274414,3.9450395107269287
9_20251106_211356,1762434803578,9,0.3543832302093506,0.37057843804359436,0.39969244599342346,0.759822428226471,1.0996936559677124,3.3180019855499268,1.5293201208114624,2.074965476989746,8.63630485534668,4.547305583953857,-0.2908135950565338,0.21033981442451477,-0.15513673424720764,19.39370346069336,-33.14887237548828,3.0067882537841797,-0.8405241966247559,-0.35175514221191406,0.4818129539489746,2.915489673614502,8.988059997558594,4.065492630004883
9_20251106_211356,1762434803596,9,0.35484522581100464,0.36745062470436096,0.39931720495224,0.7613216638565063,1.1013132333755493,3.310495138168335,1.5427407026290894,2.0713744163513184,8.390909194946289,4.297122001647949,-0.15642336010932922,0.2647067606449127,0.06782889366149902,19.39549446105957,-33.13483428955078,2.8583736419677734,-0.6752922534942627,-0.4777212142944336,0.1853036880493164,2.746666669845581,8.868630409240723,4.111818313598633
9_20251106_211356,1762434803615,9,0.3538029193878174,0.36499032378196716,0.3989467918872833,0.7631821632385254,1.1023292541503906,3.301955461502075,1.5562800168991089,2.5250563621520996,8.49984073638916,4.141505718231201,-0.15642336010932922,0.2647067606449127,0.06782889366149902,19.385013580322266,-33.110107421875,2.817861557006836,-0.17728829383850098,-0.2950315475463867,0.023749828338623047,2.7023446559906006,8.794872283935547,4.117755889892578
9_20251106_211356,1762434803635,9,0.35145503282546997,0.36420920491218567,0.39820629358291626,0.7650246620178223,1.1041491031646729,3.2939600944519043,1.5701135396957397,2.9667673110961914,8.973873138427734,4.2145256996154785,-0.040969930589199066,0.09855157136917114,0.2907945215702057,19.362136840820312,-33.098060607910156,2.709014892578125,0.21153807640075684,0.14320087432861328,0.07741594314575195,2.7552292346954346,8.830672264099121,4.137109756469727
9_20251106_211356,1762434803655,9,0.3489900231361389,0.3643425405025482,0.3973146975040436,0.7665517330169678,1.1066313982009888,3.287475347518921,1.5825676918029785,3.0613343715667725,9.09716796875,4.125944137573242,-0.05257636308670044,0.14314469695091248,0.17839539051055908,19.359601974487305,-33.15950012207031,2.5725326538085938,0.24488425254821777,0.2131967544555664,-0.00893259048461914,2.8164501190185547,8.883971214294434,4.134876728057861
9_20251106_211356,1762434803673,9,0.3472285866737366,0.36377623677253723,0.3968442976474762,0.7678630948066711,1.1092278957366943,3.281867027282715,1.5939542055130005,2.9033236503601074,9.085197448730469,3.972722053527832,-0.11671715974807739,0.20972894132137299,0.061109382659196854,19.26491928100586,-33.12724304199219,2.4747867584228516,0.06949877738952637,0.1609811782836914,-0.12972354888916016,2.833824872970581,8.924216270446777,4.102445602416992
9_20251106_211356,1762434803692,9,0.3464050889015198,0.36215999722480774,0.396490216255188,0.7691808342933655,1.111671805381775,3.276540756225586,1.604927897453308,2.8255157470703125,8.924793243408203,4.159461498260498,-0.17169499397277832,0.22805489599704742,0.018959715962409973,19.203779220581055,-33.143096923828125,2.404489517211914,-0.006647348403930664,0.000461578369140625,0.04561281204223633,2.832163095474243,8.924331665039062,4.113848686218262
9_20251106_211356,1762434803711,9,0.3459254205226898,0.36001861095428467,0.39602336287498474,0.7706410884857178,1.1141690015792847,3.2708580493927,1.6161807775497437,2.896141529083252,8.69735336303711,4.415629863739014,-0.17169499397277832,0.22805489599704742,0.018959715962409973,19.129043579101562,-33.18486022949219,2.3331737518310547,0.05118274688720703,-0.18158245086669922,0.2414250373840332,2.844958782196045,8.878935813903809,4.1742048263549805
9_20251106_211356,1762434803730,9,0.34520864486694336,0.35812607407569885,0.39538511633872986,0.7721705436706543,1.1141690015792847,3.2708580493927,1.6161807775497437,2.896141529083252,8.69735336303711,4.415629863739014,-0.10816504806280136,0.1516968011856079,0.11486547440290451,19.007492065429688,-33.1807861328125,2.382598876953125,0.05118274688720703,-0.18158245086669922,0.2414250373840332,2.844958782196045,8.878935813903809,4.1742048263549805
9_20251106_211356,1762434803750,9,0.3440306782722473,0.35702675580978394,0.3947429656982422,0.7735326886177063,1.1211073398590088,3.259840488433838,1.6397732496261597,3.238497734069824,8.960704803466797,4.470694065093994,-0.06845884025096893,0.08755600452423096,0.11730892956256866,18.904462814331055,-33.28746032714844,2.363048553466797,0.2809770107269287,0.07857131958007812,0.19530773162841797,2.9575207233428955,8.882133483886719,4.275386333465576
9_20251106_211356,1762434803770,9,0.3428872227668762,0.356547087430954,0.39418503642082214,0.7745454907417297,1.125476360321045,3.2555899620056152,1.6515089273452759,3.2349066734313965,9.09357738494873,4.555685043334961,-0.06968057155609131,0.08694513887166977,0.05194640904664993,18.79144859313965,-33.368736267089844,2.2354049682617188,0.2219088077545166,0.16915512084960938,0.22423887252807617,3.01299786567688,8.924422264099121,4.331446170806885
9_20251106_211356,1762434803788,9,0.34230613708496094,0.35589709877967834,0.3937916159629822,0.7753011584281921,1.125476360321045,3.2555899620056152,1.6515089273452759,3.2349066734313965,9.09357738494873,4.555685043334961,-0.10449986159801483,0.14436642825603485,-0.029909461736679077,18.64179229736328,-33.44091796875,2.2146835327148438,0.2219088077545166,0.16915512084960938,0.22423887252807617,3.01299786567688,8.924422264099121,4.331446170806885
9_20251106_211356,1762434803807,9,0.34227269887924194,0.3544136881828308,0.393594354391098,0.7760952115058899,1.134308934211731,3.24861478805542,1.675255298614502,3.034999370574951,8.972675323486328,4.615537643432617,-0.12771272659301758,0.17918570339679718,-0.07205913215875626,18.557601928710938,-33.42176818847656,2.2523269653320312,-0.003348112106323242,0.014027595520019531,0.18756437301635742,3.0383474826812744,8.958647727966309,4.42797327041626
9_20251106_211356,1762434803825,9,0.34240788221359253,0.3523769974708557,0.39353153109550476,0.7769943475723267,1.134308934211731,3.24861478805542,1.675255298614502,3.034999370574951,8.972675323486328,4.615537643432617,-0.09778034687042236,0.17124447226524353,-0.07450258731842041,18.518224716186523,-33.47438049316406,2.2497997283935547,-0.003348112106323242,0.014027595520019531,0.18756437301635742,3.0383474826812744,8.958647727966309,4.42797327041626
9_20251106_211356,1762434803846,9,0.3424885869026184,0.3504660427570343,0.39367157220840454,0.7777518033981323,1.1415433883666992,3.2411489486694336,1.6988601684570312,2.880579948425293,8.733264923095703,4.5736403465271,-0.025698313489556313,0.12481875717639923,-0.04579194262623787,18.54351234436035,-33.44834899902344,2.318889617919922,-0.11571884155273438,-0.1597585678100586,0.07905387878417969,2.9962987899780273,8.893023490905762,4.49458646774292
9_20251106_211356,1762434803865,9,0.342303067445755,0.34923437237739563,0.3940774202346802,0.778181791305542,1.1415433883666992,3.2411489486694336,1.6988601684570312,2.880579948425293,8.733264923095703,4.5736403465271,0.0329447016119957,0.07350611686706543,-0.00608573853969574,18.582988739013672,-33.395599365234375,2.3078994750976562,-0.11571884155273438,-0.1597585678100586,0.07905387878417969,2.9962987899780273,8.893023490905762,4.49458646774292
9_20251106_211356,1762434803885,9,0.34182795882225037,0.348722368478775,0.3946273922920227,0.7783415913581848,1.1463981866836548,3.231957197189331,1.7212910652160645,2.7788307666778564,8.69495964050293,4.435979843139648,0.0329447016119957,0.07350611686706543,-0.00608573853969574,18.591045379638672,-33.47001647949219,2.2932891845703125,-0.14511704444885254,-0.13001728057861328,-0.04402017593383789,2.923947811126709,8.824976921081543,4.480000019073486
9_20251106_211356,1762434803902,9,0.3412410616874695,0.3482799530029297,0.39522773027420044,0.7784925699234009,1.147746205329895,3.2279248237609863,1.7297700643539429,2.77284574508667,8.726082801818848,4.359368324279785,0.04516199976205826,0.08327995240688324,0.009796744212508202,18.58279037475586,-33.3958740234375,2.334930419921875,-0.12088155746459961,-0.0791158676147461,-0.09650516510009766,2.8937273025512695,8.805198669433594,4.455873489379883
9_20251106_211356,1762434803921,9,0.3405724763870239,0.34751924872398376,0.3957715630531311,0.7788488864898682,1.1490954160690308,3.2234888076782227,1.7388101816177368,2.863821268081665,8.74882698059082,4.4694976806640625,-0.02936350367963314,0.1321491301059723,0.012240203097462654,18.606781005859375,-33.383209228515625,2.484853744506836,-0.023924827575683594,-0.04509735107421875,0.010899066925048828,2.8877460956573486,8.793924331665039,4.458598613739014
9_20251106_211356,1762434803940,9,0.34005922079086304,0.3466835916042328,0.39611586928367615,0.7792704701423645,1.1490954160690308,3.2234888076782227,1.7388101816177368,2.863821268081665,8.74882698059082,4.4694976806640625,-0.018367938697338104,0.10710367560386658,0.018348850309848785,18.632366180419922,-33.356773376464844,2.513395309448242,-0.023924827575683594,-0.04509735107421875,0.010899066925048828,2.8877460956573486,8.793924331665039,4.458598613739014
9_20251106_211356,1762434803959,9,0.33942243456840515,0.3460673987865448,0.39632606506347656,0.7797149419784546,1.1523878574371338,3.215155839920044,1.7555150985717773,3.0302109718322754,8.717703819274902,4.451541900634766,0.029890375211834908,0.06617573648691177,0.012240203097462654,18.681110382080078,-33.353599548339844,2.5153579711914062,0.10017919540405273,-0.06314563751220703,-0.003558635711669922,2.9300317764282227,8.78084945678711,4.4551005363464355
9_20251106_211356,1762434803980,9,0.3388563394546509,0.3460947871208191,0.3967072069644928,0.779755175113678,1.1546295881271362,3.2108638286590576,1.7634979486465454,3.084078311920166,8.736856460571289,4.413235664367676,0.030501240864396095,0.05090412124991417,-0.012194384820759296,18.6815185546875,-33.34144592285156,2.556171417236328,0.12323737144470215,-0.03519439697265625,-0.033492088317871094,2.960840940475464,8.772050857543945,4.446727752685547
9_20251106_211356,1762434804001,9,0.33852261304855347,0.34621357917785645,0.3969818353652954,0.779707670211792,1.1546295881271362,3.2108638286590576,1.7634979486465454,3.084078311920166,8.736856460571289,4.413235664367676,0.030501240864396095,0.05090412124991417,-0.012194384820759296,18.6815185546875,-33.34144592285156,2.556171417236328,0.12323737144470215,-0.03519439697265625,-0.033492088317871094,2.960840940475464,8.772050857543945,4.446727752685547
9_20251106_211356,1762434804016,9,0.33866268396377563,0.3460407257080078,0.39712247252464294,0.779651939868927,1.1596194505691528,3.2039997577667236,1.7775510549545288,3.069713830947876,8.818255424499512,4.577231407165527,-0.06296106427907944,0.09366465359926224,-0.15391501784324646,18.630460739135742,-33.382568359375,2.5804500579833984,0.06163430213928223,0.024590492248535156,0.10190916061401367,3.0080795288085938,8.793664932250977,4.475322246551514
9_20251106_211356,1762434804035,9,0.3394572138786316,0.3451521694660187,0.39730843901634216,0.779605507850647,1.1596194505691528,3.2039997577667236,1.7775510549545288,3.069713830947876,8.818255424499512,4.577231407165527,-0.09533689171075821,0.12298616021871567,-0.24065780639648438,18.60256576538086,-33.44694519042969,2.5781497955322266,0.06163430213928223,0.024590492248535156,0.10190916061401367,3.0080795288085938,8.793664932250977,4.475322246551514
9_20251106_211356,1762434804055,9,0.3409420847892761,0.3435215353965759,0.3975170850753784,0.7795714735984802,1.161655306816101,3.2003440856933594,1.78511381149292,2.8291068077087402,8.700944900512695,4.610749244689941,-0.10144554078578949,0.11932097375392914,-0.25348591804504395,18.631771087646484,-33.35758972167969,2.594493865966797,-0.14317822456359863,-0.07417583465576172,0.10834169387817383,2.972285032272339,8.775120735168457,4.502407550811768
9_20251106_211356,1762434804074,9,0.3425184190273285,0.34150561690330505,0.3978390395641327,0.7796019315719604,1.1621992588043213,3.1956257820129395,1.7936267852783203,2.5418148040771484,8.530963897705078,4.668207168579102,-0.10144554078578949,0.11932097375392914,-0.25348591804504395,18.644254684448242,-33.35639190673828,2.5544357299804688,-0.3443763256072998,-0.1953258514404297,0.13263988494873047,2.8861911296844482,8.726289749145508,4.535567283630371
9_20251106_211356,1762434804093,9,0.3437034785747528,0.33959564566612244,0.39805760979652405,0.7798030972480774,1.1607547998428345,3.187650203704834,1.8065216541290283,2.647155284881592,8.645881652832031,4.628705024719238,-0.061128467321395874,0.02769125998020172,-0.13497820496559143,18.64986801147461,-33.27915954589844,2.366790771484375,-0.12348771095275879,-0.030393600463867188,0.0691843032836914,2.7706429958343506,8.676275253295898,4.559520721435547
9_20251106_211356,1762434804112,9,0.34481653571128845,0.33853599429130554,0.39815351366996765,0.7797234654426575,1.1598083972930908,3.1833057403564453,1.8131183385849,2.7596778869628906,8.571663856506348,4.561670303344727,-0.061128467321395874,0.02769125998020172,-0.13497820496559143,18.715225219726562,-33.19957733154297,2.3437938690185547,-0.008771896362304688,-0.08368968963623047,0.0017194747924804688,2.7684497833251953,8.655353546142578,4.559950828552246
9_20251106_211356,1762434804132,9,0.3460042178630829,0.33816617727279663,0.39849352836608887,0.7791839241981506,1.1598083972930908,3.1833057403564453,1.8131183385849,2.7596778869628906,8.571663856506348,4.561670303344727,0.08181387931108475,-0.039503857493400574,-0.21683406829833984,18.754701614379883,-33.146827697753906,2.332805633544922,-0.008771896362304688,-0.08368968963623047,0.0017194747924804688,2.7684497833251953,8.655353546142578,4.559950828552246
9_20251106_211356,1762434804151,9,0.3472929298877716,0.33819150924682617,0.3994309902191162,0.778118908405304,1.1558308601379395,3.1736247539520264,1.8240265846252441,2.2257938385009766,8.456747055053711,4.379718780517578,0.12274181842803955,0.033189043402671814,-0.27425533533096313,18.854415893554688,-33.09105682373047,2.418882369995117,-0.41012096405029297,-0.1326618194580078,-0.10941123962402344,2.6359148025512695,8.589408874511719,4.489130020141602
9_20251106_211356,1762434804169,9,0.34866994619369507,0.33765873312950134,0.40126556158065796,0.7767894268035889,1.1516298055648804,3.168879985809326,1.8280255794525146,1.8870289325714111,8.425623893737793,4.295925140380859,0.12274181842803955,0.033189043402671814,-0.27425533533096313,18.947458267211914,-32.958984375,2.330341339111328,-0.5991089344024658,-0.1310281753540039,-0.15456390380859375,2.486137866973877,8.556652069091797,4.450489044189453
9_20251106_211356,1762434804190,9,0.34938472509384155,0.3344056308269501,0.4041975736618042,0.7763552665710449,1.1516298055648804,3.168879985809326,1.8280255794525146,1.8870289325714111,8.425623893737793,4.295925140380859,0.013397028669714928,0.5139395594596863,-0.3084637522697449,19.052614212036133,-32.80302429199219,2.4455623626708984,-0.5991089344024658,-0.1310281753540039,-0.15456390380859375,2.486137866973877,8.556652069091797,4.450489044189453
9_20251106_211356,1762434804208,9,0.3497461676597595,0.32908207178115845,0.4073992967605591,0.7767936587333679,1.1368204355239868,3.1563527584075928,1.8317242860794067,1.6679688692092896,8.065311431884766,3.5824837684631348,0.013397028669714928,0.5139395594596863,-0.3084637522697449,19.166927337646484,-32.70838165283203,2.492372512817383,-0.531863808631897,-0.3420381546020508,-0.6284956932067871,2.1998326778411865,8.407349586486816,4.210979461669922
9_20251106_211356,1762434804227,9,0.3500031530857086,0.3247911036014557,0.40913838148117065,0.7775694727897644,1.1283854246139526,3.150358200073242,1.8318506479263306,1.8774524927139282,8.48427963256836,4.036165237426758,-0.22667281329631805,0.06006709113717079,0.011018474586308002,19.32929039001465,-32.61150360107422,2.6357593536376953,-0.25790417194366455,0.06154441833496094,-0.13985157012939453,2.1353566646575928,8.422735214233398,4.176016807556152
9_20251106_211356,1762434804247,9,0.3506653904914856,0.32384493947029114,0.40850934386253357,0.7779963612556458,1.1206432580947876,3.145784616470337,1.8338136672973633,2.23417329788208,8.83142375946045,4.847764492034912,-0.26393556594848633,-0.1769484132528305,0.10814596712589264,19.490455627441406,-32.527854919433594,2.8464622497558594,0.07905340194702148,0.3269510269165039,0.5373983383178711,2.1551198959350586,8.504472732543945,4.310366153717041
9_20251106_211356,1762434804265,9,0.35153427720069885,0.32478463649749756,0.40629756450653076,0.7783706784248352,1.1139452457427979,3.1426520347595215,1.8386210203170776,2.394577741622925,8.946340560913086,5.382845878601074,-0.19551870226860046,-0.20443733036518097,0.07088321447372437,19.57757568359375,-32.48503112792969,2.8912353515625,0.19156622886657715,0.35349464416503906,0.8579835891723633,2.2030115127563477,8.592845916748047,4.524862289428711
9_20251106_211356,1762434804284,9,0.35226309299468994,0.32565587759017944,0.403967946767807,0.7788894772529602,1.1139452457427979,3.1426520347595215,1.8386210203170776,2.394577741622925,8.946340560913086,5.382845878601074,-0.09655861556529999,-0.1048663854598999,-0.04762453958392143,19.680505752563477,-32.37848663330078,2.9243030548095703,0.19156622886657715,0.35349464416503906,0.8579835891723633,2.2030115127563477,8.592845916748047,4.524862289428711
9_20251106_211356,1762434804304,9,0.3531590700149536,0.3257797956466675,0.4030300974845886,0.7789177894592285,1.1077276468276978,3.1407759189605713,1.846171259880066,2.361060619354248,9.006193161010742,5.427136421203613,-0.07334575802087784,0.03807596117258072,-0.1465846300125122,19.756526947021484,-32.33496856689453,2.8199081420898438,0.12643933296203613,0.33067798614501953,0.7218194007873535,2.234621286392212,8.675515174865723,4.70531702041626
9_20251106_211356,1762434804321,9,0.3542025089263916,0.3245503306388855,0.4030437171459198,0.7789502143859863,1.10134756565094,3.1398966312408447,1.8549102544784546,2.1815030574798584,8.971478462219238,5.0656280517578125,-0.10511071979999542,0.0747278481721878,-0.1936212182044983,19.867919921875,-32.290687561035156,2.879179000854492,-0.04249453544616699,0.2367706298828125,0.28824901580810547,2.2239975929260254,8.734707832336426,4.777379035949707
9_20251106_211356,1762434804342,9,0.35556355118751526,0.3227856457233429,0.4031515121459961,0.779007613658905,1.0959348678588867,3.139714002609253,1.8614858388900757,1.9935662746429443,8.95950698852539,4.711301326751709,-0.13565397262573242,0.002645807806402445,-0.17957133054733276,19.964492797851562,-32.30876922607422,2.814992904663086,-0.18434500694274902,0.1798391342163086,-0.05286216735839844,2.1779112815856934,8.779667854309082,4.764163494110107
9_20251106_211356,1762434804360,9,0.35722821950912476,0.3215421736240387,0.4027979075908661,0.7789431810379028,1.0889865159988403,3.1396892070770264,1.8688526153564453,1.8822407722473145,8.838605880737305,4.769956588745117,-0.10449986159801483,-0.028508292511105537,-0.1520824134349823,20.0634765625,-32.288780212402344,2.711050033569336,-0.23653626441955566,0.047150611877441406,0.004634380340576172,2.11877703666687,8.791455268859863,4.765322208404541
9_20251106_211356,1762434804380,9,0.3586929440498352,0.3207031786441803,0.40248653292655945,0.7787768840789795,1.0742683410644531,3.1383731365203857,1.881261944770813,1.6631805896759033,8.46153450012207,4.558078765869141,-0.050743766129016876,-0.001630245242267847,-0.13009127974510193,20.164167404174805,-32.24327087402344,2.567087173461914,-0.30747854709625244,-0.2483062744140625,-0.1755380630493164,1.9706591367721558,8.709840774536133,4.733616828918457
9_20251106_211356,1762434804399,9,0.35976848006248474,0.3199217617511749,0.4025743007659912,0.778556764125824,1.0657075643539429,3.1362955570220947,1.8859790563583374,1.5805842876434326,8.327465057373047,4.408447742462158,-0.05685241520404816,0.008754454553127289,-0.10748928785324097,20.22579002380371,-32.23835754394531,2.474925994873047,-0.3120598793029785,-0.30590057373046875,-0.2601351737976074,1.8926441669464111,8.633365631103516,4.668582916259766
9_20251106_211356,1762434804421,9,0.36070436239242554,0.3191702961921692,0.40258461236953735,0.7784268260002136,1.0552880764007568,3.1330785751342773,1.890708565711975,1.6200867891311646,8.380136489868164,4.54371452331543,-0.12893445789813995,0.04723893105983734,-0.08061123639345169,20.337875366210938,-32.19313049316406,2.4395828247070312,-0.21804583072662354,-0.20258331298828125,-0.09989452362060547,1.838132619857788,8.582719802856445,4.643609046936035
9_20251106_211356,1762434804439,9,0.3614353537559509,0.31795379519462585,0.40215808153152466,0.7788059711456299,1.0471446514129639,3.1302738189697266,1.8943332433700562,1.8199942111968994,8.45914077758789,4.622719764709473,-0.17536017298698425,0.06312141567468643,-0.07205913215875626,20.337875366210938,-32.19313049316406,2.4395828247070312,-0.014510631561279297,-0.09886360168457031,-0.016711711883544922,1.8345048427581787,8.558004379272461,4.639431476593018
9_20251106_211356,1762434804456,9,0.36216866970062256,0.31648480892181396,0.4014027714729309,0.7794530391693115,1.039916753768921,3.127910852432251,1.8980430364608765,1.8702702522277832,8.627924919128418,4.847764492034912,-0.17536017298698425,0.06312141567468643,-0.07205913215875626,20.448747634887695,-32.172752380371094,2.376678466796875,0.028612375259399414,0.05593681335449219,0.16666650772094727,1.8416578769683838,8.571988105773926,4.681097984313965
9_20251106_211356,1762434804476,9,0.3631598949432373,0.31539544463157654,0.40035951137542725,0.7799697518348694,1.0320384502410889,3.125913619995117,1.9034146070480347,1.7673239707946777,8.758403778076172,5.2032880783081055,-0.1826905608177185,-0.01812359318137169,-0.07755691558122635,20.56385040283203,-32.07703399658203,2.315359115600586,-0.05946707725524902,0.14913272857666016,0.4177522659301758,1.8267910480499268,8.609271049499512,4.78553581237793
9_20251106_211356,1762434804495,9,0.3643105626106262,0.3145449161529541,0.3992173671722412,0.7803620100021362,1.02406907081604,3.124464750289917,1.9098049402236938,1.6500130891799927,8.772768020629883,5.254761695861816,-0.15520164370536804,0.014252237975597382,-0.07144826650619507,20.69132423400879,-31.991859436035156,2.132619857788086,-0.14142239093780518,0.1307973861694336,0.3753805160522461,1.7914354801177979,8.64197063446045,4.87938117980957
9_20251106_211356,1762434804515,9,0.3653325140476227,0.3135702610015869,0.3983106315135956,0.7807397246360779,1.0160576105117798,3.123230457305908,1.9165542125701904,1.6308603286743164,8.693763732910156,5.126677513122559,-0.12282580137252808,0.036243367940187454,-0.020746491849422455,20.820009231567383,-31.88184356689453,1.9774398803710938,-0.12846016883850098,0.041434288024902344,0.19783687591552734,1.7593204975128174,8.652329444885254,4.928840637207031
9_20251106_211356,1762434804533,9,0.36577120423316956,0.3126954734325409,0.39759519696235657,0.7812496423721313,1.008110523223877,3.1220057010650635,1.923923134803772,1.780491590499878,8.655457496643066,5.132662773132324,-0.09472602605819702,-0.0028519746847450733,0.06599629670381546,20.893619537353516,-31.87640380859375,1.912801742553711,0.016936898231506348,0.00250244140625,0.16305780410766602,1.7635546922683716,8.652955055236816,4.969604969024658
