session_id,timestamp,label,quaternion_w,quaternion_x,quaternion_y,quaternion_z,position_x,position_y,position_z,accelerometer_x,accelerometer_y,accelerometer_z,gyroscope_x,gyroscope_y,gyroscope_z,magnetometer_x,magnetometer_y,magnetometer_z,linear_acceleration_x,linear_acceleration_y,linear_acceleration_z,gravity_x,gravity_y,gravity_z
6_20251106_152839,1762414082059,6,0.564362108707428,0.5285342931747437,0.5466837882995605,0.32137787342071533,-0.3442758023738861,1.9174582958221436,-1.7008345127105713,-3.235145330429077,8.993024826049805,-1.4259707927703857,0.09364937990903854,-0.1263764500617981,-0.03461693972349167,41.87645721435547,-17.435501098632812,-4.7609405517578125,-0.4525797367095947,-0.3653421401977539,0.024060487747192383,-2.7825655937194824,9.358366966247559,-1.4500312805175781
6_20251106_152839,1762414082078,6,0.5652270317077637,0.5283666849136353,0.5471668839454651,0.31930461525917053,-0.3476468324661255,1.9156835079193115,-1.6996115446090698,-3.005311965942383,9.186946868896484,-1.531311273574829,0.09364937990903854,-0.1263764500617981,-0.03461693972349167,41.932838439941406,-17.305946350097656,-4.837436676025391,-0.17819714546203613,-0.13713645935058594,-0.06502401828765869,-2.8271148204803467,9.32408332824707,-1.4662872552871704
6_20251106_152839,1762414082097,6,0.5657985806465149,0.5290718674659729,0.5470324158668518,0.31734901666641235,-0.3506452441215515,1.9137624502182007,-1.6988744735717773,-2.752734422683716,9.238420486450195,-1.6210899353027344,0.1419076770544052,-0.13004164397716522,0.06556487083435059,42.00200653076172,-17.174789428710938,-4.994540214538574,0.05950427055358887,-0.06853008270263672,-0.12384223937988281,-2.8122386932373047,9.306950569152832,-1.4972476959228516
6_20251106_152839,1762414082117,6,0.5659493207931519,0.5301826596260071,0.5466402769088745,0.3158988654613495,-0.3529314696788788,1.9119824171066284,-1.698677659034729,-2.577965259552002,9.353337287902832,-1.6749571561813354,0.1272469311952591,-0.11660262197256088,0.03868682682514191,42.07732391357422,-17.143829345703125,-5.099200248718262,0.18741869926452637,0.037109375,-0.1421675682067871,-2.7653839588165283,9.316227912902832,-1.5327895879745483
6_20251106_152839,1762414082136,6,0.5658214092254639,0.5315726399421692,0.5461192727088928,0.3146909177303314,-0.3543919026851654,1.91037917137146,-1.6988900899887085,-2.545644998550415,9.317425727844238,-1.674957036972046,0.1272469311952591,-0.11660262197256088,0.03868682682514191,42.07732391357422,-17.143829345703125,-5.099200248718262,0.17579126358032227,0.0009584426879882812,-0.11373400688171387,-2.7214362621307373,9.31646728515625,-1.561223030090332
6_20251106_152839,1762414082155,6,0.5656558275222778,0.5327414870262146,0.5457397103309631,0.3136688470840454,-0.3555334806442261,1.908408761024475,-1.6993054151535034,-2.6318325996398926,9.15342903137207,-1.6390454769134521,0.06799305975437164,-0.08605939149856567,-0.07554487884044647,42.10781478881836,-17.05272674560547,-5.258566856384277,0.07168292999267578,-0.1304311752319336,-0.06225788593292236,-2.7035155296325684,9.283860206604004,-1.5767875909805298
6_20251106_152839,1762414082174,6,0.5656346082687378,0.5334821343421936,0.5455880165100098,0.3127107620239258,-0.3555334806442261,1.908408761024475,-1.6993054151535034,-2.6318325996398926,9.15342903137207,-1.6390454769134521,0.04233674332499504,-0.08789198100566864,-0.09325995296239853,42.157955169677734,-17.036048889160156,-5.350955009460449,0.07168292999267578,-0.1304311752319336,-0.06225788593292236,-2.7035155296325684,9.283860206604004,-1.5767875909805298
6_20251106_152839,1762414082193,6,0.565940797328949,0.5338639616966248,0.5455283522605896,0.31160736083984375,-0.35801389813423157,1.9035543203353882,-1.700121521949768,-2.8341336250305176,9.09597110748291,-1.5432816743850708,0.04844539240002632,-0.10499618947505951,-0.10792070627212524,42.19831848144531,-16.982093811035156,-5.483590126037598,-0.10236549377441406,-0.12752723693847656,0.030254125595092773,-2.7317681312561035,9.223498344421387,-1.5735357999801636
6_20251106_152839,1762414082212,6,0.5664682984352112,0.5339524745941162,0.5455605387687683,0.3104386329650879,-0.36012065410614014,1.9007996320724487,-1.7005460262298584,-3.020873546600342,9.112730026245117,-1.6091194152832031,0.0698256567120552,-0.11354829370975494,-0.11769454926252365,42.21392059326172,-16.930259704589844,-5.563141822814941,-0.23128437995910645,-0.08861446380615234,-0.02846693992614746,-2.7895891666412354,9.20134449005127,-1.5806524753570557
6_20251106_152839,1762414082231,6,0.5670748949050903,0.5339963436126709,0.5456899404525757,0.3090250492095947,-0.36326897144317627,1.8979099988937378,-1.701286792755127,-3.207613229751587,9.101957321166992,-1.703686237335205,0.07837776094675064,-0.12515473365783691,-0.11219676584005356,42.197998046875,-17.005722045898438,-5.6327972412109375,-0.33441925048828125,-0.07950973510742188,-0.09842705726623535,-2.8731939792633057,9.181467056274414,-1.6052591800689697
6_20251106_152839,1762414082249,6,0.5678070187568665,0.5340508818626404,0.5458731651306152,0.3072578012943268,-0.3671882748603821,1.8950722217559814,-1.70233154296875,-3.31415057182312,9.085197448730469,-1.7587506771087646,0.06677132844924927,-0.12698732316493988,-0.09203822910785675,42.184898376464844,-17.030960083007812,-5.701396942138672,-0.3527653217315674,-0.07701587677001953,-0.12279319763183594,-2.9613852500915527,9.162213325500488,-1.6359574794769287
6_20251106_152839,1762414082270,6,0.5685761570930481,0.5342185497283936,0.546040952205658,0.3052392899990082,-0.3671882748603821,1.8950722217559814,-1.70233154296875,-3.31415057182312,9.085197448730469,-1.7587506771087646,0.04600193724036217,-0.12698732316493988,-0.08104266226291656,42.226783752441406,-16.940139770507812,-5.752142906188965,-0.3527653217315674,-0.07701587677001953,-0.12279319763183594,-2.9613852500915527,9.162213325500488,-1.6359574794769287
6_20251106_152839,1762414082288,6,0.5694101452827454,0.5344160199165344,0.5461474061012268,0.30314117670059204,-0.3785742223262787,1.8889427185058594,-1.7053195238113403,-3.4949049949645996,9.13906478881836,-1.6677746772766113,0.03317377343773842,-0.12332213670015335,-0.08043179661035538,42.245906829833984,-16.825523376464844,-5.830374717712402,-0.3642444610595703,-0.008686065673828125,-0.0035085678100585938,-3.1306605339050293,9.147750854492188,-1.6642661094665527
6_20251106_152839,1762414082307,6,0.5703324675559998,0.5345169305801392,0.5461990237236023,0.30112987756729126,-0.3854546546936035,1.8864119052886963,-1.7068389654159546,-3.54996919631958,9.23482894897461,-1.7264301776885986,0.03317377343773842,-0.12332213670015335,-0.08043179661035538,42.2369384765625,-16.775550842285156,-5.883874893188477,-0.335446834564209,0.06966304779052734,-0.04973125457763672,-3.214522361755371,9.165165901184082,-1.676698923110962
6_20251106_152839,1762414082327,6,0.5712277889251709,0.5344446301460266,0.5463435053825378,0.2992934286594391,-0.39313286542892456,1.8843039274215698,-1.708520531654358,-3.4769492149353027,9.304258346557617,-1.7300214767456055,0.02217821031808853,-0.08667024970054626,-0.06821449846029282,42.22755432128906,-16.73773193359375,-5.978187561035156,-0.20994162559509277,0.11127376556396484,-0.042658090591430664,-3.26700758934021,9.192984580993652,-1.6873633861541748
6_20251106_152839,1762414082346,6,0.5718531012535095,0.5344910621643066,0.5461821556091309,0.29830917716026306,-0.4003790020942688,1.8833110332489014,-1.7099088430404663,-3.382382392883301,9.524515151977539,-1.6402426958084106,0.005684860050678253,-0.08728111535310745,-0.042558178305625916,42.19309997558594,-16.71405792236328,-6.073744773864746,-0.0922996997833252,0.2652244567871094,0.0376964807510376,-3.2900826930999756,9.25929069519043,-1.6779391765594482
6_20251106_152839,1762414082365,6,0.5724887251853943,0.5346673130989075,0.5458070039749146,0.29745951294898987,-0.40703657269477844,1.884103775024414,-1.7113213539123535,-3.207613229751587,9.892009735107422,-1.7120656967163086,0.031341180205345154,-0.06284652650356293,-0.024843106046319008,42.228431701660156,-16.748130798339844,-6.194711685180664,0.06597566604614258,0.5061750411987305,-0.027301311492919922,-3.2735888957977295,9.385834693908691,-1.6847643852233887
6_20251106_152839,1762414082385,6,0.5729484558105469,0.5349143743515015,0.5454932451248169,0.29670485854148865,-0.4121544063091278,1.8870793581008911,-1.7132972478866577,-2.767098903656006,10.103886604309082,-1.8700761795043945,0.05883009359240532,-0.04329885169863701,-0.048055969178676605,42.223480224609375,-16.63469696044922,-6.3144731521606445,0.40519213676452637,0.5744409561157227,-0.14824938774108887,-3.1722910404205322,9.52944564819336,-1.7218267917633057
6_20251106_152839,1762414082403,6,0.5731034278869629,0.5351848602294922,0.5454710125923157,0.2959577739238739,-0.4143086075782776,1.8910435438156128,-1.7151316404342651,-2.2715206146240234,10.240350723266602,-1.830573558807373,0.034395504742860794,-0.10316359996795654,-0.13479875028133392,42.24995422363281,-16.60704803466797,-6.407578468322754,0.720616340637207,0.5687236785888672,-0.08699750900268555,-2.9921369552612305,9.671627044677734,-1.7435760498046875
6_20251106_152839,1762414082421,6,0.5733788013458252,0.5353538990020752,0.5455928444862366,0.29489225149154663,-0.41439545154571533,1.897377848625183,-1.716079831123352,-2.1901211738586426,10.446243286132812,-1.3792858123779297,-0.05112555995583534,-0.14775672554969788,-0.34921228885650635,42.23885726928711,-16.606361389160156,-6.5567474365234375,0.6416127681732178,0.6196928024291992,0.29143214225769043,-2.8317339420318604,9.826550483703613,-1.6707179546356201
6_20251106_152839,1762414082441,6,0.5746747255325317,0.5347024202346802,0.5458460450172424,0.2930774688720703,-0.41435131430625916,1.9053194522857666,-1.7145081758499146,-2.7886457443237305,10.355267524719238,-0.8418107032775879,-0.11343376338481903,-0.07750727981328964,-0.6442599296569824,42.245697021484375,-16.49267578125,-6.621953010559082,0.034470558166503906,0.4229736328125,0.6631258726119995,-2.8231163024902344,9.932293891906738,-1.5049365758895874
6_20251106_152839,1762414082460,6,0.5770657658576965,0.5320546627044678,0.5473073124885559,0.2904610335826874,-0.4167194664478302,1.9127769470214844,-1.7109912633895874,-3.7007975578308105,10.038049697875977,-0.7400615215301514,-0.11343376338481903,-0.07750727981328964,-0.6442599296569824,42.314476013183594,-16.350440979003906,-6.63011360168457,-0.7021448612213135,0.08460426330566406,0.6119000911712646,-2.998652696609497,9.953445434570312,-1.351961612701416
6_20251106_152839,1762414082478,6,0.5798518657684326,0.5274484157562256,0.5505887866020203,0.2870922088623047,-0.4225635230541229,1.9192135334014893,-1.706286907196045,-4.506411552429199,9.841733932495117,-0.726893961429596,-0.1097685694694519,0.08253927528858185,-0.890438437461853,42.38233947753906,-16.019699096679688,-6.729419708251953,-1.206207036972046,-0.0893697738647461,0.5000541806221008,-3.3002045154571533,9.931103706359863,-1.2269481420516968
6_20251106_152839,1762414082498,6,0.5825294256210327,0.5217499732971191,0.5550821423530579,0.2834082245826721,-0.4339675307273865,1.925543189048767,-1.6989130973815918,-5.022339820861816,9.778289794921875,-0.434813916683197,-0.08655571937561035,0.03489182889461517,-0.8043064475059509,42.46479797363281,-15.65008544921875,-6.8679914474487305,-1.3777084350585938,-0.12225055694580078,0.6337073445320129,-3.6446313858032227,9.900540351867676,-1.06852126121521
6_20251106_152839,1762414082518,6,0.5851702690124512,0.5163243412971497,0.5593239665031433,0.2795383334159851,-0.4500048756599426,1.9311374425888062,-1.6887587308883667,-5.356316566467285,9.762727737426758,-0.03260535001754761,-0.041351720690727234,-0.01642080768942833,-0.7016811966896057,42.588661193847656,-15.1787109375,-6.894850730895996,-1.3693480491638184,-0.11025047302246094,0.8287327289581299,-3.986968517303467,9.872978210449219,-0.8613380789756775
6_20251106_152839,1762414082536,6,0.587694525718689,0.5117053985595703,0.562812089920044,0.27570870518684387,-0.4677165150642395,1.935463309288025,-1.677125334739685,-5.611288070678711,9.6873140335083,0.3372829258441925,0.038060691207647324,0.00740291690453887,-0.6314317584037781,42.773048400878906,-14.715522766113281,-6.960070610046387,-1.2994556427001953,-0.1485309600830078,0.9588967561721802,-4.311832427978516,9.835844993591309,-0.6216138601303101
6_20251106_152839,1762414082555,6,0.589876115322113,0.5078607797622681,0.5658372044563293,0.27194079756736755,-0.4898504614830017,1.93876314163208,-1.6623952388763428,-5.905762672424316,9.457480430603027,0.49529343843460083,0.17184005677700043,0.10330867767333984,-0.5996668338775635,42.93035125732422,-14.079452514648438,-6.969000816345215,-1.275144100189209,-0.3026914596557617,0.8935258388519287,-4.630618572235107,9.760171890258789,-0.3982324004173279
6_20251106_152839,1762414082575,6,0.5911351442337036,0.5045676827430725,0.5692634582519531,0.2681601047515869,-0.4898504614830017,1.93876314163208,-1.6623952388763428,-5.905762672424316,9.457480430603027,0.49529343843460083,0.30256515741348267,0.2493053376674652,-0.5257521867752075,42.93035125732422,-14.079452514648438,-6.969000816345215,-1.275144100189209,-0.3026914596557617,0.8935258388519287,-4.630618572235107,9.760171890258789,-0.3982324004173279
6_20251106_152839,1762414082595,6,0.590906023979187,0.5018680095672607,0.5735553503036499,0.2645615041255951,-0.5194563269615173,1.9401259422302246,-1.6438300609588623,-6.060181617736816,9.143853187561035,0.24391306936740875,0.41252079606056213,0.3317720890045166,-0.4139639139175415,43.022605895996094,-13.510955810546875,-6.900605201721191,-1.1436505317687988,-0.4930543899536133,0.5137163996696472,-4.916531085968018,9.636907577514648,-0.26980331540107727
6_20251106_152839,1762414082614,6,0.5891709923744202,0.4999845623970032,0.5784167051315308,0.26139456033706665,-0.5729562044143677,1.9353575706481934,-1.6150693893432617,-5.7956342697143555,8.448368072509766,-0.4946663975715637,0.48338109254837036,0.34521108865737915,-0.30217570066452026,43.13922119140625,-12.952484130859375,-6.926107406616211,-0.5275764465332031,-0.8164005279541016,-0.19256046414375305,-5.268057823181152,9.264768600463867,-0.30210593342781067
6_20251106_152839,1762414082634,6,0.5864070057868958,0.49925076961517334,0.5831548571586609,0.25846850872039795,-0.59833163022995,1.9292582273483276,-1.6032631397247314,-5.466444969177246,8.169454574584961,-0.6431005001068115,0.5127025842666626,0.3470436930656433,-0.2331479787826538,43.22996520996094,-12.409233093261719,-6.844723701477051,-0.15870952606201172,-0.876251220703125,-0.2727956771850586,-5.307735443115234,9.045705795288086,-0.37030482292175293
6_20251106_152839,1762414082651,6,0.5831704139709473,0.49945566058158875,0.5874584913253784,0.2556341886520386,-0.6236776113510132,1.919654130935669,-1.5925896167755127,-5.271326065063477,7.774428367614746,-0.7951258420944214,0.5084264874458313,0.37025654315948486,-0.2490304559469223,43.27652359008789,-11.983131408691406,-6.591475486755371,0.02912759780883789,-1.0170221328735352,-0.3398568034172058,-5.3004536628723145,8.791450500488281,-0.4552690386772156
6_20251106_152839,1762414082670,6,0.579606294631958,0.4998179078102112,0.5917813181877136,0.25304827094078064,-0.6468859314918518,1.9073801040649414,-1.5837937593460083,-5.4616570472717285,7.317155361175537,-0.7843523621559143,0.5084264874458313,0.37025654315948486,-0.2490304559469223,43.3321533203125,-11.606864929199219,-6.298244476318359,-0.12896251678466797,-1.179436206817627,-0.2632666826248169,-5.3326945304870605,8.496591567993164,-0.5210856795310974
6_20251106_152839,1762414082690,6,0.5760266184806824,0.4998137354850769,0.5964091420173645,0.2503511607646942,-0.6728709936141968,1.889968991279602,-1.5757170915603638,-5.821969032287598,7.031060218811035,-0.9184219241142273,0.5230872631072998,0.4661622941493988,-0.3467688262462616,43.29985809326172,-11.286117553710938,-6.036534309387207,-0.3914194107055664,-1.1724252700805664,-0.31786900758743286,-5.430549621582031,8.203485488891602,-0.6005529165267944
6_20251106_152839,1762414082708,6,0.5722693800926208,0.4994890093803406,0.6015245914459229,0.2473592907190323,-0.6980335712432861,1.8701618909835815,-1.569713830947876,-6.054196357727051,6.711448669433594,-1.0692501068115234,0.45283785462379456,0.6359826922416687,-0.32416683435440063,43.2623291015625,-11.053672790527344,-5.736123085021973,-0.4989171028137207,-1.193629264831543,-0.37495774030685425,-5.55527925491333,7.905077934265137,-0.6942923665046692
6_20251106_152839,1762414082728,6,0.567996084690094,0.49867528676986694,0.6072329878807068,0.24489088356494904,-0.7233462333679199,1.8472754955291748,-1.5660510063171387,-6.068561553955078,6.421762466430664,-1.437941312789917,0.3532668948173523,0.7984727025032043,-0.21726548671722412,43.24748229980469,-10.833549499511719,-5.299832344055176,-0.4106259346008301,-1.1866521835327148,-0.5949191451072693,-5.657935619354248,7.608414649963379,-0.8430221676826477
6_20251106_152839,1762414082747,6,0.562916100025177,0.4972294569015503,0.6134244203567505,0.24412861466407776,-0.7495178580284119,1.8199119567871094,-1.5645679235458374,-5.940476894378662,6.13566780090332,-1.5600403547286987,0.3111172318458557,0.8064139485359192,-0.05294287949800491,43.25571060180664,-10.625198364257812,-4.781726837158203,-0.22603273391723633,-1.1781978607177734,-0.5736145973205566,-5.714444160461426,7.313865661621094,-0.9864257574081421
6_20251106_152839,1762414082766,6,0.5572670102119446,0.4958909749984741,0.6192917823791504,0.244996577501297,-0.7731798887252808,1.7917441129684448,-1.564658761024475,-5.729796409606934,6.048283100128174,-1.5073702335357666,0.327610582113266,0.7905315160751343,0.11382318288087845,43.177635192871094,-10.435371398925781,-4.226770401000977,-0.012281417846679688,-1.0124664306640625,-0.4167555570602417,-5.717514991760254,7.060749530792236,-1.090614676475525
6_20251106_152839,1762414082786,6,0.5514094829559326,0.4955911338329315,0.6241292953491211,0.24657589197158813,-0.7731798887252808,1.7917441129684448,-1.564658761024475,-5.729796409606934,6.048283100128174,-1.5073702335357666,0.37159284949302673,0.8339028358459473,0.26898282766342163,43.097145080566406,-10.283622741699219,-3.6320571899414062,-0.012281417846679688,-1.0124664306640625,-0.4167555570602417,-5.717514991760254,7.060749530792236,-1.090614676475525
6_20251106_152839,1762414082805,6,0.544847309589386,0.49640512466430664,0.6283226609230042,0.24886538088321686,-0.815544843673706,1.7297254800796509,-1.5708436965942383,-5.2270355224609375,5.969278335571289,-2.018510341644287,0.43756622076034546,0.8503962159156799,0.4088708460330963,42.99632263183594,-10.271331787109375,-2.9866714477539062,0.34933948516845703,-0.7107996940612793,-0.6356062889099121,-5.5763750076293945,6.680078029632568,-1.382904052734375
6_20251106_152839,1762414082824,6,0.5374115109443665,0.4982648193836212,0.6320814490318298,0.2517818510532379,-0.8317782878875732,1.700433373451233,-1.5770606994628906,-5.061842918395996,5.988430976867676,-2.4207186698913574,0.47910505533218384,0.8956001996994019,0.5450937151908875,42.87989044189453,-10.322486877441406,-2.3566131591796875,0.41162586212158203,-0.5533175468444824,-0.8302516937255859,-5.473468780517578,6.541748523712158,-1.5904669761657715
6_20251106_152839,1762414082842,6,0.52913498878479,0.5011749863624573,0.6354181170463562,0.25511497259140015,-0.8460538983345032,1.6697224378585815,-1.5867880582809448,-4.743427753448486,6.054268836975098,-2.8636269569396973,0.4155750870704651,1.0122753381729126,0.6782621741294861,42.74867248535156,-10.401168823242188,-1.565378189086914,0.5840330123901367,-0.3899836540222168,-1.0185279846191406,-5.327460765838623,6.4442524909973145,-1.8450989723205566
6_20251106_152839,1762414082861,6,0.5199758410453796,0.5047698616981506,0.6383897662162781,0.2594050467014313,-0.8561545014381409,1.6391453742980957,-1.5995163917541504,-4.065897464752197,5.933366775512695,-3.116204261779785,0.2659132480621338,1.1161223649978638,0.8462499976158142,42.53105163574219,-10.498504638671875,-0.7237739562988281,1.0092506408691406,-0.4087085723876953,-1.0168843269348145,-5.075148105621338,6.342075347900391,-2.0993199348449707
6_20251106_152839,1762414082880,6,0.5100582242012024,0.5081992149353027,0.6410216093063354,0.26582977175712585,-0.8608003854751587,1.6091203689575195,-1.6146609783172607,-3.271056890487671,5.98603630065918,-3.211968421936035,0.17184005677700043,1.0971856117248535,1.011183500289917,42.201751708984375,-10.853469848632812,0.12214279174804688,1.4432733058929443,-0.28483104705810547,-0.8901188373565674,-4.714330196380615,6.270867347717285,-2.3218495845794678
6_20251106_152839,1762414082900,6,0.5000030994415283,0.5121054649353027,0.6423985362052917,0.2739872336387634,-0.8608003854751587,1.6091203689575195,-1.6146609783172607,-3.271056890487671,5.98603630065918,-3.211968421936035,0.15595756471157074,1.0312122106552124,1.1009806394577026,41.841224670410156,-11.3353271484375,0.9374065399169922,1.4432733058929443,-0.28483104705810547,-0.8901188373565674,-4.714330196380615,6.270867347717285,-2.3218495845794678
6_20251106_152839,1762414082919,6,0.4900331199169159,0.5167668461799622,0.6425430178642273,0.2827685475349426,-0.8517131209373474,1.5521736145019531,-1.6503477096557617,-2.029716730117798,6.160805702209473,-3.3963141441345215,0.13824249804019928,1.0183839797973633,1.11441969871521,41.510826110839844,-11.916336059570312,1.8601608276367188,1.8045318126678467,-0.0637359619140625,-0.7106406688690186,-3.8342485427856445,6.224541664123535,-2.685673475265503
6_20251106_152839,1762414082938,6,0.4800441563129425,0.5216857194900513,0.6420997381210327,0.2917354106903076,-0.8373422622680664,1.5242650508880615,-1.6717653274536133,-1.57124662399292,6.169185161590576,-3.63572359085083,0.10036889463663101,1.018994927406311,1.0967046022415161,41.17457580566406,-12.609687805175781,2.7129592895507812,1.810401439666748,-0.04428529739379883,-0.7600400447845459,-3.381648063659668,6.213470458984375,-2.875683546066284
6_20251106_152839,1762414082957,6,0.470088928937912,0.5264015197753906,0.6414216160774231,0.3008258044719696,-0.8184465765953064,1.4996424913406372,-1.6936627626419067,-1.2217082977294922,6.419368743896484,-3.811690092086792,0.07898862659931183,1.0086102485656738,1.036228895187378,40.72604751586914,-13.348533630371094,3.628131866455078,1.7279517650604248,0.1647186279296875,-0.7488052845001221,-2.949660062789917,6.254650115966797,-3.06288480758667
6_20251106_152839,1762414082976,6,0.4603072702884674,0.5307360291481018,0.6406168341636658,0.3099137842655182,-0.7953048944473267,1.4773434400558472,-1.7174229621887207,-1.0577125549316406,6.652792930603027,-4.140878677368164,0.07898862659931183,1.0086102485656738,1.036228895187378,40.72604751586914,-13.348533630371094,3.628131866455078,1.5135581493377686,0.3185138702392578,-0.8623952865600586,-2.571270704269409,6.3342790603637695,-3.2784833908081055
6_20251106_152839,1762414082996,6,0.45063021779060364,0.5344154238700867,0.6401048302650452,0.3187450170516968,-0.7678441405296326,1.4567573070526123,-1.7437536716461182,-0.5753016471862793,6.552241325378418,-4.648427963256836,0.03256290778517723,1.0855791568756104,0.909779965877533,40.24006652832031,-14.090972900390625,4.663480758666992,1.5967752933502197,0.17436981201171875,-1.0959556102752686,-2.172076940536499,6.377871513366699,-3.5524723529815674
6_20251106_152839,1762414083014,6,0.4407758116722107,0.5371782183647156,0.6400931477546692,0.32777583599090576,-0.734423041343689,1.4378299713134766,-1.77261221408844,0.500845730304718,6.607305526733398,-4.953675746917725,0.01973474770784378,0.8992654085159302,0.899395227432251,39.70482635498047,-14.860488891601562,5.57469367980957,2.138338088989258,0.1835470199584961,-1.1209628582000732,-1.6374924182891846,6.423758506774902,-3.8327128887176514
6_20251106_152839,1762414083034,6,0.4313223361968994,0.5400012731552124,0.6396648287773132,0.33643513917922974,-0.6927473545074463,1.4219751358032227,-1.8038595914840698,1.077823519706726,7.434466361999512,-4.618501663208008,0.01973474770784378,0.8992654085159302,0.899395227432251,39.182472229003906,-15.616653442382812,6.486660003662109,2.172252655029297,0.8085660934448242,-0.6286308765411377,-1.0944292545318604,6.6259002685546875,-3.98987078666687
6_20251106_152839,1762414083053,6,0.4236825406551361,0.5434468984603882,0.6381983757019043,0.3433094620704651,-0.6527826189994812,1.4115245342254639,-1.8314018249511719,0.6648414731025696,7.886950969696045,-4.325224876403809,-0.030356157571077347,0.5938330292701721,0.3532821536064148,38.639060974121094,-16.323509216308594,7.331119537353516,1.407416582107544,1.008840560913086,-0.2682833671569824,-0.7425751090049744,6.878110408782959,-4.056941509246826
6_20251106_152839,1762414083071,6,0.4180045425891876,0.5456326007843018,0.6373465657234192,0.34834834933280945,-0.6113250851631165,1.402778148651123,-1.8602887392044067,-0.23893079161643982,7.509880065917969,-4.519146919250488,-0.1610812097787857,0.8607809543609619,-0.009571487084031105,38.10390090942383,-16.891563415527344,8.11090087890625,0.40291550755500793,0.5054154396057129,-0.3697643280029297,-0.6418462991714478,7.004464626312256,-4.149382591247559
6_20251106_152839,1762414083091,6,0.4132158160209656,0.5443108677864075,0.6388830542564392,0.3532801568508148,-0.5711572170257568,1.3931046724319458,-1.8913805484771729,-1.066091775894165,6.6994781494140625,-4.874670028686523,-0.43047255277633667,1.1527743339538574,-0.10242293030023575,37.545169830322266,-17.448509216308594,8.876449584960938,-0.3393964171409607,-0.2439894676208496,-0.5802297592163086,-0.7266953587532043,6.943467617034912,-4.294440269470215
6_20251106_152839,1762414083111,6,0.40851667523384094,0.5395171642303467,0.6422792673110962,0.359878808259964,-0.5711572170257568,1.3931046724319458,-1.8913805484771729,-1.066091775894165,6.6994781494140625,-4.874670028686523,-0.7310180068016052,1.1979782581329346,0.09610810875892639,36.9224853515625,-17.84698486328125,9.642486572265625,-0.3393964171409607,-0.2439894676208496,-0.5802297592163086,-0.7266953587532043,6.943467617034912,-4.294440269470215
6_20251106_152839,1762414083129,6,0.4039730727672577,0.5332123637199402,0.6450309753417969,0.3693580627441406,-0.5034616589546204,1.3727936744689941,-1.952199935913086,-0.918854832649231,6.70306921005249,-4.726236343383789,-0.9503183960914612,1.0012798309326172,0.3410648703575134,36.427581787109375,-18.14826202392578,10.280113220214844,-0.07318484783172607,-0.1132512092590332,-0.19954681396484375,-0.8456699848175049,6.816320419311523,-4.526689529418945
6_20251106_152839,1762414083148,6,0.4005095958709717,0.5278159379959106,0.6451549530029297,0.38049641251564026,-0.5034616589546204,1.3727936744689941,-1.952199935913086,-0.918854832649231,6.70306921005249,-4.726236343383789,-1.1519038677215576,0.8956001996994019,0.4711790382862091,35.90880584716797,-18.450454711914062,10.849178314208984,-0.07318484783172607,-0.1132512092590332,-0.19954681396484375,-0.8456699848175049,6.816320419311523,-4.526689529418945
6_20251106_152839,1762414083167,6,0.3984713852405548,0.5234596133232117,0.6426777243614197,0.3926524519920349,-0.43718793988227844,1.3586745262145996,-1.9963939189910889,0.2195391058921814,7.722955226898193,-2.393186569213867,-1.1519038677215576,0.8956001996994019,0.4711790382862091,35.41218566894531,-18.78887176513672,11.431949615478516,0.76255863904953,0.6499624252319336,1.512918472290039,-0.5430195331573486,7.07299280166626,-3.9061050415039062
6_20251106_152839,1762414083186,6,0.39679375290870667,0.518413782119751,0.639314591884613,0.40629878640174866,-0.40143606066703796,1.3543943166732788,-2.0109238624572754,0.8803103566169739,7.497910022735596,-2.675690174102783,-1.017513632774353,1.091687798500061,0.5243242383003235,34.961280822753906,-19.18621826171875,11.94778060913086,1.1386640071868896,0.3399338722229004,0.9843320846557617,-0.258353590965271,7.157976150512695,-3.660022258758545
6_20251106_152839,1762414083205,6,0.3937755227088928,0.5126566290855408,0.6366159915924072,0.4205283224582672,-0.36239033937454224,1.3518683910369873,-2.0232584476470947,1.5937517881393433,7.719364166259766,-3.1245837211608887,-0.7383484244346619,0.7441057562828064,0.6660448908805847,34.47793197631836,-19.522354125976562,12.382362365722656,1.4816843271255493,0.4491105079650879,0.42835092544555664,0.11206747591495514,7.270253658294678,-3.5529346466064453
6_20251106_152839,1762414083226,6,0.38955214619636536,0.5091518759727478,0.633673906326294,0.43297910690307617,-0.3178104758262634,1.3518940210342407,-2.032682418823242,1.9325166940689087,8.109601974487305,-2.5954880714416504,-0.5673062205314636,0.29267674684524536,0.6519950032234192,33.952091217041016,-19.96173095703125,12.85390853881836,1.4563593864440918,0.671478271484375,0.7659573554992676,0.4761573076248169,7.43812370300293,-3.361445426940918
6_20251106_152839,1762414083244,6,0.38647183775901794,0.5091478824615479,0.6294059157371521,0.44187793135643005,-0.27392303943634033,1.3540747165679932,-2.0386228561401367,1.8080236911773682,8.224519729614258,-2.426703929901123,-0.5276000499725342,0.2034904956817627,0.4717898964881897,33.463600158691406,-20.39765167236328,13.218795776367188,1.065493106842041,0.6291170120239258,0.7477931976318359,0.7425305843353271,7.595402717590332,-3.174497127532959
6_20251106_152839,1762414083262,6,0.38506823778152466,0.510016918182373,0.6249514818191528,0.44837576150894165,-0.23244324326515198,1.3576513528823853,-2.0430710315704346,1.5470669269561768,8.2508544921875,-2.8097598552703857,-0.5728040337562561,0.3268851637840271,0.31540852785110474,32.99453353881836,-20.931495666503906,13.487937927246094,0.6436290740966797,0.5243616104125977,0.2917897701263428,0.9034378528594971,7.726492881774902,-3.1015496253967285
6_20251106_152839,1762414083282,6,0.38418617844581604,0.5094069242477417,0.6215242743492126,0.4545471966266632,-0.18757574260234833,1.3639304637908936,-2.048262357711792,1.2597750425338745,8.550116539001465,-3.2646384239196777,-0.7175789475440979,0.4490581154823303,0.22133538126945496,32.47751235961914,-21.467437744140625,13.646987915039062,0.28506970405578613,0.6588993072509766,-0.13047099113464355,0.9747053384780884,7.891217231750488,-3.134167432785034
6_20251106_152839,1762414083301,6,0.38341930508613586,0.5071181654930115,0.6188122034072876,0.4614024758338928,-0.14673423767089844,1.3720160722732544,-2.0529801845550537,1.101764440536499,8.772768020629883,-3.1461305618286133,-0.9710878729820251,0.5412986874580383,0.14803160727024078,32.0452880859375,-22.010108947753906,13.782176971435547,0.1016472578048706,0.7052402496337891,-0.009570598602294922,1.0001171827316284,8.067527770996094,-3.1365599632263184
6_20251106_152839,1762414083320,6,0.38348570466041565,0.5033105611801147,0.6158887147903442,0.46935948729515076,-0.10787924379110336,1.380988597869873,-2.0559842586517334,1.0203651189804077,8.538146018981934,-2.5978822708129883,-1.231316328048706,0.5810048580169678,0.14803160727024078,31.653541564941406,-22.48706817626953,13.866092681884766,0.016198277473449707,0.3764944076538086,0.4309420585632324,1.004166841506958,8.161651611328125,-3.0288243293762207
6_20251106_152839,1762414083339,6,0.3845631182193756,0.4977155327796936,0.6122986674308777,0.47904154658317566,-0.0710703507065773,1.3902859687805176,-2.055659055709839,0.9664978981018066,8.44357967376709,-1.8700761795043945,-1.3754802942276,0.5125880241394043,0.2915848195552826,31.21475601196289,-22.941688537597656,13.908023834228516,-0.030135154724121094,0.22554302215576172,0.9269986152648926,0.9966330528259277,8.218036651611328,-2.797074794769287
6_20251106_152839,1762414083358,6,0.38637155294418335,0.49166804552078247,0.6072807312011719,0.4900915026664734,-0.03762746602296829,1.400140404701233,-2.051757335662842,1.1245083808898926,8.821846008300781,-1.3314039707183838,-1.3369958400726318,0.39591285586357117,0.5066092014312744,30.900545120239258,-23.562835693359375,13.897590637207031,0.10230028629302979,0.4830474853515625,1.1725366115570068,1.0222080945968628,8.338798522949219,-2.5039405822753906
6_20251106_152839,1762414083378,6,0.38804030418395996,0.48678356409072876,0.6006088852882385,0.5017324686050415,0.000643853098154068,1.414214015007019,-2.042158842086792,1.3818739652633667,9.279119491577148,-0.9303923845291138,-1.1683971881866455,0.30855920910835266,0.6422211527824402,30.61290740966797,-24.15619659423828,13.780536651611328,0.28773272037506104,0.7522563934326172,1.2588387727737427,1.0941412448883057,8.526863098144531,-2.1892311573028564
6_20251106_152839,1762414083396,6,0.3887808620929718,0.4837840795516968,0.593087375164032,0.5128838419914246,0.03282860293984413,1.4285814762115479,-2.030998468399048,1.5087612867355347,9.707664489746094,-0.8310373425483704,-1.007739782333374,0.26885300874710083,0.6281712651252747,30.337947845458984,-24.748092651367188,13.596389770507812,0.3316960334777832,0.94464111328125,1.086555004119873,1.1770652532577515,8.763023376464844,-1.9175924062728882
6_20251106_152839,1762414083417,6,0.38870614767074585,0.4818832278251648,0.5858477354049683,0.5229517221450806,0.06966792047023773,1.447751760482788,-2.0145180225372314,1.5255199670791626,9.731603622436523,-0.6909825205802917,-0.9319924712181091,0.26702040433883667,0.6446646451950073,30.337947845458984,-24.748092651367188,13.596389770507812,0.2787637710571289,0.7748641967773438,0.9812878966331482,1.2467561960220337,8.95673942565918,-1.67227041721344
6_20251106_152839,1762414083436,6,0.3882271647453308,0.4802964925765991,0.5791842937469482,0.5321094989776611,0.10344681888818741,1.4658788442611694,-1.9976834058761597,2.017507314682007,9.558032035827637,-0.6993618607521057,-0.8922863006591797,0.21204259991645813,0.8438065052032471,30.006385803222656,-25.268478393554688,13.397857666015625,0.6166008710861206,0.4810342788696289,0.7783268094062805,1.4009064435958862,9.076997756958008,-1.4776886701583862
6_20251106_152839,1762414083455,6,0.3871186077594757,0.4794839024543762,0.5721120834350586,0.5412228107452393,0.1395832598209381,1.485880732536316,-1.9794796705245972,2.875791549682617,10.090719223022461,-0.6718297004699707,-0.7872175574302673,0.031226640567183495,1.0789895057678223,29.735254287719727,-26.0101318359375,13.197517395019531,1.179908037185669,0.8109779357910156,0.6446871757507324,1.6958835124969482,9.279741287231445,-1.3165168762207031
6_20251106_152839,1762414083473,6,0.38494279980659485,0.4808630645275116,0.5637044310569763,0.5502972602844238,0.17710132896900177,1.5075743198394775,-1.9603533744812012,3.7244997024536133,10.779022216796875,-0.2025863528251648,-0.6326687932014465,-0.15386536717414856,1.0710482597351074,29.4261417388916,-26.7908935546875,12.900299072265625,1.6228928565979004,1.1994247436523438,0.891144335269928,2.101606845855713,9.579597473144531,-1.0937306880950928
6_20251106_152839,1762414083492,6,0.382440984249115,0.4846436083316803,0.5544562339782715,0.5580660700798035,0.22011874616146088,1.5325071811676025,-1.9379867315292358,4.068052768707275,10.738323211669922,0.06794680655002594,-0.6326687932014465,-0.15386536717414856,1.0710482597351074,29.031021118164062,-27.589767456054688,12.599384307861328,1.5731568336486816,0.9269809722900391,0.9293419718742371,2.4948959350585938,9.811342239379883,-0.8613951802253723
6_20251106_152839,1762414083512,6,0.38030892610549927,0.48870691657066345,0.5461752414703369,0.5641127824783325,0.26540979743003845,1.5572654008865356,-1.91566002368927,4.107555389404297,10.202044486999512,-0.46833133697509766,-0.47384393215179443,0.0129006989300251,0.7179684042930603,28.680614471435547,-28.460540771484375,12.27181625366211,1.2901277542114258,0.3125619888305664,0.31445109844207764,2.817427635192871,9.889482498168945,-0.7827824354171753
6_20251106_152839,1762414083530,6,0.37813800573349,0.4911724627017975,0.5397065877914429,0.5696297287940979,0.31265243887901306,1.5812917947769165,-1.8949860334396362,4.354147911071777,10.073960304260254,-0.9782743453979492,-0.5294325947761536,-0.08911371231079102,0.7814983129501343,28.289709091186523,-29.19568634033203,11.877609252929688,1.2293760776519775,0.1475820541381836,-0.15639352798461914,3.1247718334198,9.92637825012207,-0.8218808174133301
6_20251106_152839,1762414083551,6,0.3760839104652405,0.49330422282218933,0.533281683921814,0.575171709060669,0.361986368894577,1.6057534217834473,-1.87549889087677,4.747977256774902,10.52285385131836,-0.8777222037315369,-0.6265601515769958,-0.21434098482131958,0.824869692325592,27.897197723388672,-29.956222534179688,11.509906768798828,1.2985641956329346,0.47718048095703125,-0.04467308521270752,3.4494130611419678,10.045673370361328,-0.8330491185188293
6_20251106_152839,1762414083569,6,0.3746432363986969,0.49668893218040466,0.5254083275794983,0.5804210901260376,0.41507869958877563,1.6325172185897827,-1.8550158739089966,4.685730457305908,10.802963256835938,-0.505439817905426,-0.8104304075241089,-0.18929553031921387,0.6434429287910461,27.416255950927734,-30.784561157226562,11.083385467529297,0.9890539646148682,0.6058311462402344,0.2620874047279358,3.69667649269104,10.197132110595703,-0.7675272226333618
6_20251106_152839,1762414083587,6,0.3744255006313324,0.4995422959327698,0.5168454051017761,0.5857762694358826,0.4621800482273102,1.656718134880066,-1.835601806640625,4.390059471130371,10.732337951660156,0.004503190517425537,-0.8104304075241089,-0.18929553031921387,0.6434429287910461,27.031391143798828,-31.63166046142578,10.660259246826172,0.5547065734863281,0.4281644821166992,0.6176243424415588,3.835352897644043,10.304173469543457,-0.6131211519241333
6_20251106_152839,1762414083606,6,0.376414030790329,0.49998050928115845,0.508389949798584,0.5914994478225708,0.5094956159591675,1.6820558309555054,-1.8135393857955933,3.865751266479492,10.694032669067383,0.33249473571777344,-1.2600269317626953,-0.057348739355802536,0.11748836189508438,26.606029510498047,-32.34313201904297,10.170494079589844,0.024318695068359375,0.3118877410888672,0.7564927339553833,3.841432571411133,10.382144927978516,-0.42399799823760986
6_20251106_152839,1762414083626,6,0.3807337284088135,0.4976091980934143,0.5001754760742188,0.5977051258087158,0.5550510883331299,1.7084217071533203,-1.7884858846664429,3.2624387741088867,10.720367431640625,0.559934139251709,-1.2600269317626953,-0.057348739355802536,0.11748836189508438,26.207551956176758,-33.014808654785156,9.628437042236328,-0.4631950855255127,0.27057743072509766,0.787145733833313,3.7256338596343994,10.449790000915527,-0.227211594581604
6_20251106_152839,1762414083645,6,0.3867183029651642,0.49347802996635437,0.49200356006622314,0.6040371656417847,0.593879222869873,1.7327852249145508,-1.7636038064956665,2.892550468444824,10.656923294067383,0.6006337404251099,-1.3333306312561035,-0.20395629107952118,0.07656043767929077,25.89557456970215,-33.667694091796875,9.02249526977539,-0.6664667129516602,0.16570663452148438,0.6622762680053711,3.5590171813964844,10.491216659545898,-0.061642542481422424
6_20251106_152839,1762414083664,6,0.3933233618736267,0.48931536078453064,0.48347681760787964,0.6100142598152161,0.6294136643409729,1.7567826509475708,-1.7370617389678955,3.066122531890869,10.801767349243164,0.9968571066856384,-1.221542477607727,-0.40126559138298035,0.25248947739601135,25.59073257446289,-34.20648193359375,8.310798645019531,-0.3943157196044922,0.24843978881835938,0.8467997312545776,3.4604382514953613,10.553327560424805,0.1500573754310608
6_20251106_152839,1762414083683,6,0.3995121121406555,0.4870426654815674,0.4741056561470032,0.6151449680328369,0.6635181903839111,1.7814605236053467,-1.7086137533187866,3.586839199066162,11.238689422607422,1.328439712524414,-1.1372430324554443,-0.46296292543411255,0.341675728559494,25.382251739501953,-34.775238037109375,7.467071533203125,0.1011209487915039,0.5482892990112305,0.9427058696746826,3.485718250274658,10.690400123596191,0.38573381304740906
6_20251106_152839,1762414083702,6,0.4049377143383026,0.4866456985473633,0.46404585242271423,0.6195666790008545,0.6971473097801208,1.8068389892578125,-1.6785485744476318,3.933983325958252,11.395503044128418,1.4936325550079346,-1.1030347347259521,-0.47762367129325867,0.3160194158554077,25.201557159423828,-35.29137420654297,6.544282913208008,0.358612060546875,0.564082145690918,0.8863190412521362,3.575371265411377,10.8314208984375,0.6073135137557983
6_20251106_152839,1762414083722,6,0.41000568866729736,0.4865590035915375,0.4540490210056305,0.6236947774887085,0.7303416132926941,1.8332974910736084,-1.646875023841858,4.029747009277344,11.687582969665527,1.7414218187332153,-1.088984727859497,-0.5802489519119263,0.2873087525367737,25.06125259399414,-35.730323791503906,5.678615570068359,0.36350059509277344,0.6849288940429688,0.9072866439819336,3.6662464141845703,11.002654075622559,0.8341351747512817
6_20251106_152839,1762414083741,6,0.4154163897037506,0.48683276772499084,0.4438647925853729,0.6272217631340027,0.7604955434799194,1.859347939491272,-1.6156690120697021,3.7795639038085938,11.911432266235352,1.9305555820465088,-1.0034637451171875,-0.6627156734466553,0.17429880797863007,24.895166397094727,-36.19597625732422,4.811439514160156,0.09065389633178711,0.7270231246948242,0.8771363496780396,3.6889100074768066,11.184409141540527,1.0534192323684692
6_20251106_152839,1762414083759,6,0.4212600886821747,0.4875035285949707,0.4338180422782898,0.629827082157135,0.7914357781410217,1.8892850875854492,-1.5814056396484375,3.39650821685791,11.986845970153809,1.488844394683838,-0.8599104285240173,-0.6132356524467468,0.032578177750110626,24.74758529663086,-36.571044921875,3.757373809814453,-0.23392152786254883,0.6419486999511719,0.34834015369415283,3.630429744720459,11.344897270202637,1.140504240989685
6_20251106_152839,1762414083777,6,0.42731302976608276,0.48799893260002136,0.4252028167247772,0.6312394142150879,0.8165472745895386,1.9160375595092773,-1.5518451929092407,3.085275411605835,11.814470291137695,1.2482374906539917,-0.7994348406791687,-0.6126247644424438,0.008143589831888676,24.6640625,-36.87989807128906,2.7611446380615234,-0.4361236095428467,0.3756580352783203,0.08618664741516113,3.5213990211486816,11.438812255859375,1.1620508432388306
6_20251106_152839,1762414083797,6,0.43317320942878723,0.4881962537765503,0.41807079315185547,0.6318561434745789,0.8418481349945068,1.9449670314788818,-1.5187538862228394,3.1247780323028564,11.666036605834961,1.7833185195922852,-0.8238694071769714,-0.7256348133087158,0.12115355581045151,24.555461883544922,-37.20289611816406,1.7636699676513672,-0.31729698181152344,0.1817798614501953,0.4970141649246216,3.44207501411438,11.484256744384766,1.2863043546676636
6_20251106_152839,1762414083817,6,0.43909692764282227,0.4891546666622162,0.4102939963340759,0.6321237683296204,0.8648362755775452,1.9707306623458862,-1.485834002494812,3.498257637023926,11.358394622802734,2.399799108505249,-0.7646155953407288,-0.7916081547737122,0.2030094414949417,24.484323501586914,-37.51068115234375,0.7408981323242188,0.04494619369506836,-0.10068988800048828,0.8907957077026367,3.4533114433288574,11.459084510803223,1.5090034008026123
6_20251106_152839,1762414083836,6,0.44464585185050964,0.49113884568214417,0.4015810191631317,0.6323016285896301,0.8648362755775452,1.9707306623458862,-1.485834002494812,3.498257637023926,11.358394622802734,2.399799108505249,-0.7646155953407288,-0.7916081547737122,0.2030094414949417,24.484323501586914,-37.51068115234375,0.7408981323242188,0.04494619369506836,-0.10068988800048828,0.8907957077026367,3.4533114433288574,11.459084510803223,1.5090034008026123
6_20251106_152839,1762414083854,6,0.44958260655403137,0.4935012757778168,0.3931522071361542,0.6322683691978455,0.9114009141921997,2.0173566341400146,-1.4180999994277954,4.032141208648682,11.45894718170166,2.1579949855804443,-0.7255201935768127,-0.7751147747039795,-0.035838671028614044,24.308345794677734,-37.73785400390625,-0.2709236145019531,0.3874969482421875,0.035727500915527344,0.36881327629089355,3.644644260406494,11.423219680786133,1.7891817092895508
6_20251106_152839,1762414083874,6,0.45507973432540894,0.49539536237716675,0.3853438198566437,0.6316612958908081,0.9350419640541077,2.0404651165008545,-1.383636713027954,3.758017063140869,11.552316665649414,2.0897631645202637,-0.828145444393158,-0.7793908715248108,-0.26613467931747437,24.198442459106445,-37.86127471923828,-1.2105998992919922,0.0906982421875,0.10327816009521484,0.2404651641845703,3.667318820953369,11.4490385055542,1.8492980003356934
6_20251106_152839,1762414083893,6,0.4623118042945862,0.49623173475265503,0.3779924213886261,0.630193293094635,0.9550504684448242,2.060868263244629,-1.3510462045669556,3.1834335327148438,11.284177780151367,2.3914196491241455,-0.9112231135368347,-0.8032145500183105,-0.42190515995025635,24.123674392700195,-38.01903533935547,-2.244211196899414,-0.38710832595825195,-0.13188934326171875,0.43369734287261963,3.5705418586730957,11.416067123413086,1.9577223062515259
6_20251106_152839,1762414083912,6,0.4712284207344055,0.4959382116794586,0.3709881007671356,0.6279784440994263,0.9720506072044373,2.079193115234375,-1.317358374595642,2.8386831283569336,11.030403137207031,2.951638698577881,-0.9295490384101868,-0.8270382881164551,-0.45183753967285156,24.113052368164062,-38.12205505371094,-3.328378677368164,-0.5854871273040771,-0.3085308074951172,0.795133113861084,3.4241702556610107,11.338933944702148,2.156505584716797
6_20251106_152839,1762414083931,6,0.48107704520225525,0.49513372778892517,0.36393290758132935,0.6252681612968445,0.9865418672561646,2.0954267978668213,-1.282273530960083,2.819530487060547,10.910697937011719,3.279630184173584,-0.8605213761329651,-0.8765183687210083,-0.36081868410110474,24.182804107666016,-38.082855224609375,-4.339118957519531,-0.48371171951293945,-0.3425884246826172,0.8984997272491455,3.3032422065734863,11.253286361694336,2.3811304569244385
6_20251106_152839,1762414083950,6,0.49059462547302246,0.4944595694541931,0.35680320858955383,0.6225095391273499,0.9865418672561646,2.0954267978668213,-1.282273530960083,2.819530487060547,10.910697937011719,3.279630184173584,-0.7169681191444397,-0.9980804324150085,-0.2392566055059433,24.218324661254883,-37.996490478515625,-5.282692909240723,-0.48371171951293945,-0.3425884246826172,0.8984997272491455,3.3032422065734863,11.253286361694336,2.3811304569244385
6_20251106_152839,1762414083969,6,0.4991874098777771,0.49513572454452515,0.34918826818466187,0.6194514632225037,0.9994379281997681,2.109997510910034,-1.2460180521011353,2.9859204292297363,10.943017959594727,3.4472174644470215,-0.5691388249397278,-1.086655855178833,-0.19527436792850494,24.28092384338379,-37.87005615234375,-6.3055925369262695,-0.2538576126098633,-0.2482147216796875,0.8528695106506348,3.2397780418395996,11.191232681274414,2.5943479537963867
6_20251106_152839,1762414083988,6,0.50669264793396,0.4974251091480255,0.34157735109329224,0.6157562136650085,1.0230587720870972,2.134443759918213,-1.1723098754882812,3.2528624534606934,10.890348434448242,3.4328527450561523,-0.5385956168174744,-1.1135339736938477,-0.21482203900814056,24.34414291381836,-37.719581604003906,-7.2198333740234375,0.020631790161132812,-0.18337249755859375,0.529365062713623,3.2322306632995605,11.073720932006836,2.9034876823425293
6_20251106_152839,1762414084007,6,0.5137924551963806,0.5004292130470276,0.3341987729072571,0.6114729046821594,1.0340197086334229,2.144656181335449,-1.1347723007202148,3.2301182746887207,10.783811569213867,3.829076051712036,-0.5666953921318054,-1.1569052934646606,-0.23192624747753143,24.508670806884766,-37.49956512451172,-8.169380187988281,-0.001689910888671875,-0.23192787170410156,0.7404706478118896,3.2318081855773926,11.015739440917969,3.0886054039001465
6_20251106_152839,1762414084026,6,0.5211198329925537,0.5034502148628235,0.32659098505973816,0.6068857312202454,1.044004201889038,2.153481960296631,-1.0960488319396973,3.0756988525390625,10.696426391601562,4.204949378967285,-0.5221022367477417,-1.1666791439056396,-0.2740759253501892,24.597362518310547,-37.33441162109375,-9.136441230773926,-0.12488746643066406,-0.2554502487182617,0.8930752277374268,3.2005863189697266,10.951876640319824,3.3118741512298584
6_20251106_152839,1762414084045,6,0.5286985635757446,0.5065228939056396,0.3188142478466034,0.6018885970115662,1.051954746246338,2.1602492332458496,-1.0569984912872314,2.641170024871826,10.362449645996094,4.136717796325684,-0.4335268437862396,-1.1550726890563965,-0.29240185022354126,24.69039535522461,-37.08216094970703,-10.020557403564453,-0.44753313064575195,-0.4715414047241211,0.6598749160766602,3.088703155517578,10.833991050720215,3.4768428802490234
6_20251106_152839,1762414084065,6,0.5360080599784851,0.5095900297164917,0.3117947280406952,0.5964875817298889,1.057227373123169,2.164480447769165,-1.016844630241394,2.2078380584716797,9.999743461608887,3.8398494720458984,-0.3974858522415161,-1.18561589717865,-0.17022891342639923,24.8093204498291,-36.791465759277344,-10.821803092956543,-0.7046921253204346,-0.6673984527587891,0.2904052734375,2.9125301837921143,10.667141914367676,3.5494441986083984
6_20251106_152839,1762414084084,6,0.5426645874977112,0.5130065679550171,0.3049205541610718,0.5910692811012268,1.0599639415740967,2.1665074825286865,-0.9795462489128113,2.1755177974700928,10.014108657836914,3.9356131553649902,-0.3987075686454773,-1.2998476028442383,0.03441077470779419,24.862382888793945,-36.59263610839844,-11.627348899841309,-0.5896098613739014,-0.5224266052246094,0.30893516540527344,2.765127658843994,10.536535263061523,3.626677989959717
6_20251106_152839,1762414084103,6,0.5483790040016174,0.5172699689865112,0.2969324290752411,0.5861257314682007,1.0599639415740967,2.1665074825286865,-0.9795462489128113,2.1755177974700928,10.014108657836914,3.9356131553649902,-0.3357884883880615,-1.396975040435791,0.18162916600704193,24.903343200683594,-36.40608215332031,-12.541779518127441,-0.5896098613739014,-0.5224266052246094,0.30893516540527344,2.765127658843994,10.536535263061523,3.626677989959717
6_20251106_152839,1762414084122,6,0.5533357262611389,0.5228689312934875,0.28733980655670166,0.5812602639198303,1.0619885921478271,2.1693778038024902,-0.9021615982055664,2.472386360168457,10.734731674194336,5.0177459716796875,-0.17940716445446014,-1.370097041130066,0.19445733726024628,24.90494155883789,-36.260528564453125,-13.363859176635742,-0.16379642486572266,0.1973276138305664,0.9657459259033203,2.6361827850341797,10.53740406036377,4.052000045776367
6_20251106_152839,1762414084142,6,0.5572136044502258,0.5292983055114746,0.2777903974056244,0.5763582587242126,1.0623103380203247,2.172125816345215,-0.8594678640365601,2.5118885040283203,10.869998931884766,5.176953315734863,-0.010808487422764301,-1.187448501586914,0.08877772837877274,24.93657875061035,-36.118927001953125,-13.90854263305664,-0.09943556785583496,0.26607608795166016,0.8999624252319336,2.6113240718841553,10.603922843933105,4.27699089050293
6_20251106_152839,1762414084160,6,0.5604042410850525,0.5358766913414001,0.2697613537311554,0.5709746479988098,1.0619338750839233,2.174753189086914,-0.8223963975906372,2.346695899963379,10.716775894165039,4.507802963256836,0.12846866250038147,-0.8997312188148499,-0.019956188276410103,24.803041458129883,-35.98358917236328,-14.5873384475708,-0.21170258522033691,0.09028244018554688,0.18464946746826172,2.558398485183716,10.626493453979492,4.323153495788574
6_20251106_152839,1762414084180,6,0.5624160170555115,0.5412308573722839,0.2649030089378357,0.5662011504173279,1.0607882738113403,2.176903247833252,-0.787096381187439,2.2784640789031982,10.449833869934082,3.639942169189453,0.24147863686084747,-0.7848886251449585,-0.038892991840839386,24.702749252319336,-35.89677429199219,-15.198137283325195,-0.22394752502441406,-0.1413278579711914,-0.5465688705444336,2.5024116039276123,10.591161727905273,4.186511039733887
6_20251106_152839,1762414084198,6,0.5635628700256348,0.5458807349205017,0.26231658458709717,0.5617838501930237,1.059348225593567,2.1788995265960693,-0.7563122510910034,2.374228000640869,10.57432746887207,3.183866500854492,0.2591937184333801,-0.8203188180923462,-0.0028519751504063606,24.650806427001953,-35.80731964111328,-15.752908706665039,-0.10254693031311035,-0.013467788696289062,-0.8021156787872314,2.4767749309539795,10.58779525756836,3.9859821796417236
6_20251106_152839,1762414084218,6,0.5641924738883972,0.5510106086730957,0.2600206732749939,0.5571924448013306,1.0579458475112915,2.1816482543945312,-0.7278719544410706,2.489144802093506,10.835284233093262,3.21498966217041,0.2097136676311493,-0.87285315990448,-0.03706040233373642,24.512248992919922,-35.74840545654297,-16.325157165527344,0.009896039962768555,0.19799041748046875,-0.6167941093444824,2.4792487621307373,10.637293815612793,3.8317837715148926
6_20251106_152839,1762414084237,6,0.5649923086166382,0.5564422011375427,0.2572072148323059,0.5522682666778564,1.0572360754013062,2.1853551864624023,-0.7035125494003296,2.6818699836730957,11.084270477294922,3.355044364929199,0.1529032438993454,-0.853916347026825,-0.13907481729984283,24.38559341430664,-35.677490234375,-16.761489868164062,0.16209697723388672,0.35758113861083984,-0.3813915252685547,2.519773006439209,10.726689338684082,3.736435890197754
6_20251106_152839,1762414084256,6,0.5665004849433899,0.5614687204360962,0.25438961386680603,0.5469149947166443,1.057525396347046,2.1904852390289307,-0.6805307269096375,2.8710036277770996,11.312907218933105,3.6782479286193848,0.08143208920955658,-0.8019928932189941,-0.26246950030326843,24.233652114868164,-35.632598876953125,-17.266910552978516,0.28098464012145996,0.46897411346435547,-0.04655051231384277,2.5900189876556396,10.84393310546875,3.7247984409332275
6_20251106_152839,1762414084275,6,0.5688247084617615,0.5656338334083557,0.25203633308410645,0.5412711501121521,1.0584924221038818,2.1971445083618164,-0.6582772731781006,2.8422741889953613,11.494857788085938,3.878154754638672,0.08143208920955658,-0.8019928932189941,-0.26246950030326843,24.233652114868164,-35.632598876953125,-17.266910552978516,0.20180416107177734,0.5207395553588867,0.12268495559692383,2.640470027923584,10.97411823272705,3.755469799041748
6_20251106_152839,1762414084294,6,0.5719884634017944,0.5687297582626343,0.25032520294189453,0.5354558825492859,1.0593440532684326,2.204791307449341,-0.6355748772621155,2.616032123565674,11.455354690551758,4.324654579162598,0.0954819768667221,-0.7433497905731201,-0.5373585820198059,24.14063835144043,-35.609657287597656,-17.689311981201172,-0.019550323486328125,0.38498878479003906,0.45534777641296387,2.635582447052002,11.070365905761719,3.869306802749634
6_20251106_152839,1762414084314,6,0.5758857131004333,0.5714311003684998,0.24931898713111877,0.5288310050964355,1.0590846538543701,2.2129576206207275,-0.6123543381690979,2.2461438179016113,11.399093627929688,4.471891403198242,0.21337886154651642,-0.6737112402915955,-0.6931291222572327,24.05093765258789,-35.53581237792969,-18.178237915039062,-0.3115508556365967,0.2629823684692383,0.4820678234100342,2.557694673538208,11.13611125946045,3.989823579788208
6_20251106_152839,1762414084332,6,0.5797548294067383,0.5738362073898315,0.24996259808540344,0.5216464996337891,1.0590846538543701,2.2129576206207275,-0.6123543381690979,2.2461438179016113,11.399093627929688,4.471891403198242,0.36609506607055664,-0.5851358771324158,-0.8171346783638,24.44890022277832,-35.393714904785156,-18.075626373291016,-0.3115508556365967,0.2629823684692383,0.4820678234100342,2.557694673538208,11.13611125946045,3.989823579788208
6_20251106_152839,1762414084351,6,0.58353590965271,0.576176106929779,0.25244441628456116,0.5135939121246338,1.0514947175979614,2.2264442443847656,-0.5680452585220337,1.3052629232406616,10.67727279663086,3.801543712615967,0.49437659978866577,-0.4959496259689331,-0.8568409085273743,24.593664169311523,-35.24280548095703,-18.472816467285156,-0.8768266439437866,-0.3505401611328125,-0.2034306526184082,2.1820895671844482,11.027812957763672,4.004974365234375
6_20251106_152839,1762414084370,6,0.5865781307220459,0.5785248279571533,0.2567134201526642,0.5053051710128784,1.0514947175979614,2.2264442443847656,-0.5680452585220337,1.3052629232406616,10.67727279663086,3.801543712615967,0.5487436056137085,-0.44769132137298584,-0.8201889395713806,24.774988174438477,-35.089515686035156,-18.868534088134766,-0.8768266439437866,-0.3505401611328125,-0.2034306526184082,2.1820895671844482,11.027812957763672,4.004974365234375
6_20251106_152839,1762414084389,6,0.5889396071434021,0.5810003876686096,0.2618156373500824,0.4970324635505676,1.0314950942993164,2.2320468425750732,-0.5356600284576416,0.7522261142730713,10.260700225830078,2.8666481971740723,0.5383588671684265,-0.4550216794013977,-0.7157310843467712,25.04766082763672,-34.81805419921875,-19.2178955078125,-0.9331161975860596,-0.5035934448242188,-0.7819652557373047,1.6853423118591309,10.764293670654297,3.648613452911377
6_20251106_152839,1762414084409,6,0.5907906889915466,0.5837240815162659,0.26662492752075195,0.4890231788158417,1.0176650285720825,2.2322323322296143,-0.5228791832923889,0.874325156211853,10.218803405761719,3.120422840118408,0.4858245253562927,-0.4818997383117676,-0.5856168866157532,25.342802047729492,-34.57079315185547,-19.499221801757812,-0.6488137245178223,-0.43639183044433594,-0.42255234718322754,1.5231388807296753,10.655195236206055,3.5429751873016357
6_20251106_152839,1762414084427,6,0.5923425555229187,0.5867124199867249,0.27038174867630005,0.48144835233688354,1.0046169757843018,2.231858730316162,-0.5118837356567383,1.0263503789901733,10.43906021118164,3.5705132484436035,0.4558921754360199,-0.41042858362197876,-0.5349151492118835,25.696277618408203,-34.346290588378906,-19.61642837524414,-0.39743077754974365,-0.17290878295898438,0.022030353546142578,1.423781156539917,10.611968994140625,3.548482894897461
6_20251106_152839,1762414084446,6,0.5935564637184143,0.5895696878433228,0.2733071744441986,0.47476470470428467,0.9903404712677002,2.2308783531188965,-0.49979233741760254,0.9892418384552002,10.391179084777832,3.9368104934692383,0.4913223087787628,-0.19906938076019287,-0.6198253035545349,26.104135513305664,-34.018157958984375,-19.729562759399414,-0.34763145446777344,-0.17663192749023438,0.31066203117370605,1.3368732929229736,10.567811012268066,3.6261484622955322
6_20251106_152839,1762414084466,6,0.5944816470146179,0.5916692614555359,0.27714601159095764,0.46873146295547485,0.9745850563049316,2.2299394607543945,-0.4873424172401428,0.8503841161727905,10.581509590148926,3.7440855503082275,0.4980418086051941,0.11491510272026062,-0.7212288975715637,26.507789611816406,-33.74214172363281,-19.654523849487305,-0.3891913890838623,0.010958671569824219,0.09434962272644043,1.2395755052566528,10.570550918579102,3.649735927581787
6_20251106_152839,1762414084485,6,0.5948954820632935,0.5922595858573914,0.283348023891449,0.4637260437011719,0.9745850563049316,2.2299394607543945,-0.4873424172401428,0.8503841161727905,10.581509590148926,3.7440855503082275,0.40580126643180847,0.343378484249115,-0.7261158227920532,26.875282287597656,-33.46796417236328,-19.63502311706543,-0.3891913890838623,0.010958671569824219,0.09434962272644043,1.2395755052566528,10.570550918579102,3.649735927581787
6_20251106_152839,1762414084504,6,0.5950175523757935,0.591076135635376,0.29134073853492737,0.4601127505302429,0.9432902336120605,2.229287624359131,-0.4655987620353699,0.8372166156768799,10.709593772888184,3.8206968307495117,0.28301745653152466,0.426456093788147,-0.6289883255958557,27.27462387084961,-33.25581359863281,-19.453174591064453,-0.24295353889465332,0.09071063995361328,0.15595626831054688,1.0801701545715332,10.61888313293457,3.664740562438965
6_20251106_152839,1762414084524,6,0.5951845645904541,0.5887069702148438,0.2992313802242279,0.45786458253860474,0.9272534847259521,2.2287609577178955,-0.45365408062934875,0.953330397605896,10.497716903686523,4.024194717407227,0.346547394990921,0.45822107791900635,-0.5373585820198059,27.72513198852539,-32.99079132080078,-19.214242935180664,-0.10147178173065186,-0.09693336486816406,0.2875633239746094,1.0548021793365479,10.594650268554688,3.736631393432617
6_20251106_152839,1762414084542,6,0.5949406027793884,0.586021363735199,0.3065956234931946,0.4567534923553467,0.9131360054016113,2.2268693447113037,-0.4434053301811218,0.889886736869812,10.009320259094238,3.751267910003662,0.6128843426704407,0.45333415269851685,-0.5165892243385315,28.15469741821289,-32.877655029296875,-18.938419342041016,-0.13193237781524658,-0.4682645797729492,0.011709213256835938,1.0218191146850586,10.477584838867188,3.739558696746826
6_20251106_152839,1762414084561,6,0.5933457016944885,0.5844258666038513,0.314422070980072,0.45555031299591064,0.8979834318161011,2.2222328186035156,-0.43550005555152893,0.6588562726974487,9.479026794433594,2.875027656555176,0.6128843426704407,0.45333415269851685,-0.5165892243385315,28.61148452758789,-32.689476013183594,-18.470806121826172,-0.29037028551101685,-0.7988462448120117,-0.6916248798370361,0.9492265582084656,10.277873039245605,3.566652536392212
6_20251106_152839,1762414084580,6,0.590168297290802,0.5843614935874939,0.32338806986808777,0.45347899198532104,0.8824995756149292,2.2154130935668945,-0.431871235370636,0.5523188710212708,9.397627830505371,2.152009963989258,0.912208080291748,0.46799489855766296,-0.5135348439216614,29.1306209564209,-32.460594177246094,-17.905332565307617,-0.3175261616706848,-0.7041959762573242,-1.131714105606079,0.8698450326919556,10.101823806762695,3.283724069595337
6_20251106_152839,1762414084599,6,0.5860676765441895,0.585282564163208,0.33289387822151184,0.450722336769104,0.8668891787528992,2.2068841457366943,-0.43213969469070435,0.5415453910827637,9.354534149169922,1.9293584823608398,0.8315739631652832,0.5345791578292847,-0.5196434855461121,29.513893127441406,-32.27771759033203,-17.3865966796875,-0.26263976097106934,-0.5978317260742188,-1.0834925174713135,0.804185152053833,9.95236587524414,3.0128509998321533
6_20251106_152839,1762414084618,6,0.5818533897399902,0.5859184861183167,0.3424985408782959,0.4481528103351593,0.8512172102928162,2.197032928466797,-0.43542981147766113,0.49725455045700073,9.315031051635742,1.9066145420074463,0.7710983157157898,0.639647901058197,-0.5526302456855774,29.991750717163086,-32.127235412597656,-16.7565975189209,-0.24554449319839478,-0.5098676681518555,-0.8849892616271973,0.7427990436553955,9.824898719787598,2.7916038036346436
6_20251106_152839,1762414084637,6,0.5778145790100098,0.5856547355651855,0.3522878587245941,0.4461301863193512,0.8349326252937317,2.1857829093933105,-0.44159433245658875,0.233903706073761,9.135473251342773,1.6839635372161865,0.753383219242096,0.7929749488830566,-0.5862277746200562,30.52057647705078,-31.924156188964844,-16.042482376098633,-0.4071162939071655,-0.5515403747558594,-0.8861122131347656,0.6410199999809265,9.687013626098633,2.570075750350952
6_20251106_152839,1762414084657,6,0.5737189054489136,0.5845193862915039,0.36270469427108765,0.44455477595329285,0.8160348534584045,2.1711857318878174,-0.4524650275707245,-0.21858097612857819,8.586029052734375,1.0219950675964355,0.753383219242096,0.7929749488830566,-0.5862277746200562,31.038318634033203,-31.708770751953125,-15.382659912109375,-0.6876807808876038,-0.8807878494262695,-1.238464593887329,0.46909981966018677,9.466816902160645,2.2604596614837646
6_20251106_152839,1762414084677,6,0.5690780878067017,0.5824770927429199,0.3739416301250458,0.443889856338501,0.7947905659675598,2.153228998184204,-0.46836936473846436,-0.6136072874069214,8.121572494506836,0.425864577293396,0.700238049030304,0.9658496379852295,-0.4249595105648041,31.451845169067383,-31.6016845703125,-14.580193519592285,-0.8661656975746155,-1.0761957168579102,-1.467676043510437,0.2525584101676941,9.197768211364746,1.893540620803833
6_20251106_152839,1762414084695,6,0.5638023018836975,0.5802001357078552,0.3851078748703003,0.4440571069717407,0.7743906378746033,2.135202407836914,-0.48590579628944397,-0.6555039882659912,8.1119966506958,0.2941891551017761,0.6122735142707825,0.9585192799568176,-0.2606368958950043,31.451845169067383,-31.6016845703125,-14.580193519592285,-0.7264499664306641,-0.868617057800293,-1.2794811725616455,0.07094594836235046,8.980613708496094,1.5736702680587769
6_20251106_152839,1762414084714,6,0.5582315921783447,0.578188419342041,0.3950293958187103,0.4450026750564575,0.7524270415306091,2.1145718097686768,-0.50616055727005,-0.47834065556526184,8.049749374389648,0.6006338000297546,0.5860063433647156,0.9108718633651733,-0.12807925045490265,31.844833374023438,-31.42138671875,-13.723058700561523,-0.43942928314208984,-0.7446918487548828,-0.7784292101860046,-0.0389113612473011,8.794441223144531,1.3790630102157593
6_20251106_152839,1762414084734,6,0.5524277091026306,0.5764672756195068,0.4036613702774048,0.44672879576683044,0.7298262715339661,2.092212200164795,-0.5277664661407471,-0.24850720167160034,8.225716590881348,0.9346106052398682,0.5860063433647156,0.9108718633651733,-0.12807925045490265,32.22260665893555,-31.303993225097656,-12.93531608581543,-0.1676766723394394,-0.45497989654541016,-0.35556185245513916,-0.08083052933216095,8.680696487426758,1.2901724576950073
6_20251106_152839,1762414084753,6,0.5461265444755554,0.5753160119056702,0.41147249937057495,0.4488292336463928,0.7095109224319458,2.0706005096435547,-0.5481427907943726,-0.05099406838417053,8.158681869506836,0.9705220460891724,0.6269342303276062,0.9035414457321167,-0.032173484563827515,32.53915023803711,-31.19097137451172,-12.109477043151855,0.023869171738624573,-0.41761207580566406,-0.2557203769683838,-0.0748632401227951,8.5762939453125,1.2262424230575562
6_20251106_152839,1762414084771,6,0.5390393733978271,0.5746316909790039,0.4190782606601715,0.45122990012168884,0.6910972595214844,2.0490105152130127,-0.5685407519340515,-0.12760519981384277,7.707393646240234,0.389953076839447,0.8279088139533997,0.879106879234314,0.10466021299362183,32.925315856933594,-31.112747192382812,-11.092259407043457,-0.042193569242954254,-0.6951198577880859,-0.6690314412117004,-0.08541163057088852,8.40251350402832,1.0589845180511475
6_20251106_152839,1762414084791,6,0.5309731364250183,0.574709951877594,0.4267139136791229,0.45353198051452637,0.6712994575500488,2.022444725036621,-0.5933358073234558,-0.2042163759469986,7.160341739654541,-0.01464959979057312,0.7808721661567688,0.8797177076339722,0.15352939069271088,33.22686767578125,-31.039138793945312,-10.173088073730469,-0.09504379332065582,-0.9937376976013184,-0.8589073419570923,-0.10917258262634277,8.15407943725586,0.8442577123641968
6_20251106_152839,1762414084809,6,0.5223576426506042,0.5753865242004395,0.4340613782405853,0.45570120215415955,0.6537256240844727,1.9959163665771484,-0.6160610318183899,-0.37180325388908386,6.604910850524902,0.2247602939605713,0.543856680393219,1.0495381355285645,0.12298615276813507,33.35087585449219,-31.090469360351562,-9.182061195373535,-0.2101045399904251,-1.2393345832824707,-0.4955978989601135,-0.16169871389865875,7.844245433807373,0.7203581929206848
6_20251106_152839,1762414084829,6,0.5142406821250916,0.5751366019248962,0.4408603608608246,0.4587118327617645,0.6336925029754639,1.9624762535095215,-0.6420429944992065,-0.6495187282562256,6.055465221405029,0.06435564905405045,0.3129498362541199,1.403228759765625,0.0954972431063652,33.41587829589844,-31.108367919921875,-8.165661811828613,-0.39025601744651794,-1.4310240745544434,-0.524802029132843,-0.25926271080970764,7.486489295959473,0.5891577005386353
6_20251106_152839,1762414084848,6,0.506503164768219,0.5720593929290771,0.44818511605262756,0.46403953433036804,0.615959882736206,1.9295388460159302,-0.6673832535743713,-0.5046757459640503,5.7214884757995605,-0.6802090406417847,0.18650080263614655,1.6225292682647705,0.2445482462644577,33.42548370361328,-31.029922485351562,-7.136087417602539,-0.19633042812347412,-1.4120006561279297,-1.015493392944336,-0.30834531784057617,7.13348913192749,0.33528435230255127
6_20251106_152839,1762414084867,6,0.4980732798576355,0.5666501522064209,0.45598742365837097,0.47212931513786316,0.615959882736206,1.9295388460159302,-0.6673832535743713,-0.5046757459640503,5.7214884757995605,-0.6802090406417847,0.1993289738893509,1.4698131084442139,0.5505914688110352,33.393402099609375,-31.042022705078125,-6.082798957824707,-0.19633042812347412,-1.4120006561279297,-1.015493392944336,-0.30834531784057617,7.13348913192749,0.33528435230255127
6_20251106_152839,1762414084886,6,0.48859748244285583,0.5618510842323303,0.462284654378891,0.4815482795238495,0.5855488181114197,1.8541699647903442,-0.7310991287231445,0.8252460360527039,6.39901876449585,-1.406818151473999,0.276908814907074,1.1112353801727295,0.8273131847381592,33.281070709228516,-31.17298126220703,-4.926698684692383,0.8365846872329712,-0.3777446746826172,-1.1511445045471191,-0.011338621377944946,6.776763439178467,-0.25567370653152466
6_20251106_152839,1762414084906,6,0.4783729910850525,0.5601549744606018,0.46570777893066406,0.4904100000858307,0.5768932104110718,1.819248080253601,-0.7658485770225525,1.3878593444824219,7.257303237915039,-1.0788264274597168,0.2445329874753952,0.906595766544342,0.9158886075019836,33.09169006347656,-31.383644104003906,-3.815673828125,1.1193584203720093,0.3844318389892578,-0.6585221886634827,0.268500953912735,6.872871398925781,-0.42030423879623413
6_20251106_152839,1762414084925,6,0.46828514337539673,0.5609628558158875,0.46668189764022827,0.4982345998287201,0.5732364058494568,1.7913002967834473,-0.7969362735748291,1.7888708114624023,7.648738384246826,-0.9794714450836182,0.18772254884243011,0.9566866755485535,0.8767932057380676,32.76685333251953,-31.628158569335938,-2.7105712890625,1.2162959575653076,0.6206936836242676,-0.44733381271362305,0.5725749135017395,7.028044700622559,-0.5321376323699951
6_20251106_152839,1762414084946,6,0.4587039351463318,0.5616706609725952,0.4669237732887268,0.5060622096061707,0.5755736231803894,1.7617627382278442,-0.8369060158729553,2.362257480621338,7.819916248321533,-1.5851783752441406,0.18772254884243011,0.9566866755485535,0.8767932057380676,32.33102798461914,-31.904800415039062,-1.6239280700683594,1.431746006011963,0.6334967613220215,-0.8424326181411743,0.9305114150047302,7.186419486999512,-0.7427457571029663
6_20251106_152839,1762414084964,6,0.4488598108291626,0.5616225004196167,0.4676000773906708,0.5142521262168884,0.5823277235031128,1.7410005331039429,-0.8714921474456787,2.9356441497802734,8.078479766845703,-2.1717324256896973,0.23170480132102966,0.803970456123352,0.8865670561790466,31.828636169433594,-32.28587341308594,-0.5418472290039062,1.6041061878204346,0.7136483192443848,-1.1431893110275269,1.3315379619598389,7.364831447601318,-1.0285431146621704
6_20251106_152839,1762414084982,6,0.43911588191986084,0.5623106956481934,0.4678502678871155,0.5216320753097534,0.5936667919158936,1.7241450548171997,-0.90776526927948,3.3306703567504883,8.529767990112305,-2.4159305095672607,0.12846866250038147,0.6347609758377075,0.8602998852729797,31.26681137084961,-32.65727996826172,0.4299144744873047,1.5993058681488037,0.9319491386413574,-1.109910011291504,1.7313644886016846,7.597818851470947,-1.3060204982757568
6_20251106_152839,1762414085001,6,0.4301169514656067,0.5638183951377869,0.46704840660095215,0.528179943561554,0.6087690591812134,1.711971640586853,-0.943439781665802,3.4898781776428223,9.157020568847656,-1.799450159072876,-0.13298143446445465,0.6231545209884644,0.7405703663825989,30.676271438598633,-33.11737060546875,1.3177509307861328,1.406810998916626,1.247361183166504,-0.39474380016326904,2.0830671787261963,7.909659385681152,-1.404706358909607
6_20251106_152839,1762414085020,6,0.4230651259422302,0.5649903416633606,0.4649575352668762,0.5344308614730835,0.6295256018638611,1.704063892364502,-0.9803020358085632,3.667041301727295,9.53528881072998,-1.1434671878814697,-0.34434062242507935,0.805192232131958,0.5402067303657532,30.038372039794922,-33.57875061035156,2.0143966674804688,1.2671794891357422,1.3005037307739258,0.20899128913879395,2.3998618125915527,8.234785079956055,-1.3524584770202637
6_20251106_152839,1762414085040,6,0.41781085729599,0.5637324452400208,0.4627971947193146,0.5417181849479675,0.6535477638244629,1.701269268989563,-1.0141290426254272,3.8154754638671875,9.78666877746582,-0.9603186249732971,-0.49278074502944946,1.007999300956726,0.3264040946960449,29.404083251953125,-33.98882293701172,2.6039676666259766,1.132491111755371,1.241506576538086,0.31371182203292847,2.6829843521118164,8.545162200927734,-1.2740304470062256
6_20251106_152839,1762414085059,6,0.41349053382873535,0.5594533085823059,0.46185019612312317,0.5502108335494995,0.6767221093177795,1.7019399404525757,-1.041689157485962,3.7532289028167725,9.78786563873291,-0.7209087610244751,-0.5813561081886292,1.088633418083191,0.18101830780506134,28.73302459716797,-34.41316223144531,3.1242237091064453,0.8561956882476807,0.9941625595092773,0.4424973726272583,2.897033214569092,8.793703079223633,-1.1634061336517334
6_20251106_152839,1762414085078,6,0.4102368950843811,0.552985429763794,0.4616910517215729,0.5592443346977234,0.7003301978111267,1.7049778699874878,-1.065720558166504,3.543745517730713,9.768712997436523,-0.28997093439102173,-0.589297354221344,0.9591301679611206,0.17124445736408234,28.200820922851562,-34.76422119140625,3.4754810333251953,0.5173697471618652,0.7800083160400391,0.6987481713294983,3.0263757705688477,8.988704681396484,-0.98871910572052
6_20251106_152839,1762414085097,6,0.4075808525085449,0.5459153652191162,0.46168601512908936,0.5680671334266663,0.7264478206634521,1.7109307050704956,-1.0867211818695068,3.4204492568969727,9.892009735107422,0.4474114775657654,-0.5098849534988403,0.7563230991363525,0.26837193965911865,27.731861114501953,-35.07337188720703,3.802949905395508,0.3152587413787842,0.7226438522338867,1.1489044427871704,3.1051905155181885,9.169365882873535,-0.701492965221405
6_20251106_152839,1762414085118,6,0.40535107254981995,0.5401917695999146,0.4607382118701935,0.5758503675460815,0.7264478206634521,1.7109307050704956,-1.0867211818695068,3.4204492568969727,9.892009735107422,0.4474114775657654,-0.3425080180168152,0.6549195051193237,0.3795493245124817,27.731861114501953,-35.07337188720703,3.802949905395508,0.3152587413787842,0.7226438522338867,1.1489044427871704,3.1051905155181885,9.169365882873535,-0.701492965221405
6_20251106_152839,1762414085135,6,0.4024916887283325,0.5361244678497314,0.45930686593055725,0.5827591419219971,0.7795056700706482,1.7293542623519897,-1.114845871925354,4.001018047332764,10.101492881774902,0.21997207403182983,-0.1763528436422348,0.5394660830497742,0.4204772710800171,27.290264129638672,-35.353660583496094,3.915668487548828,0.6168065071105957,0.5979013442993164,0.5288317799568176,3.384211540222168,9.503591537475586,-0.3088597059249878
6_20251106_152839,1762414085155,6,0.3986192047595978,0.5334905982017517,0.4580918848514557,0.588763415813446,0.8061028122901917,1.7409815788269043,-1.1253793239593506,4.026156425476074,10.36723804473877,0.13498157262802124,-0.12626191973686218,0.4252343773841858,0.3948209583759308,26.857948303222656,-35.671905517578125,4.1362152099609375,0.5135560035705566,0.6909170150756836,0.3550730347633362,3.5126004219055176,9.676321029663086,-0.22009144723415375
6_20251106_152839,1762414085175,6,0.3947002589702606,0.5321642756462097,0.4568836987018585,0.5935235619544983,0.8061028122901917,1.7409815788269043,-1.1253793239593506,4.026156425476074,10.36723804473877,0.13498157262802124,-0.12198586761951447,0.4392842650413513,0.3129650950431824,26.490270614624023,-35.93473815917969,4.238622665405273,0.5135560035705566,0.6909170150756836,0.3550730347633362,3.5126004219055176,9.676321029663086,-0.22009144723415375
6_20251106_152839,1762414085192,6,0.39129287004470825,0.5309654474258423,0.45584002137184143,0.5976415872573853,0.8583568334579468,1.7683415412902832,-1.1403818130493164,3.7987167835235596,10.294218063354492,0.10984352976083755,-0.034021344035863876,0.4820447862148285,0.272037148475647,26.123706817626953,-36.17285919189453,4.382108688354492,0.16779208183288574,0.3699817657470703,0.15561529994010925,3.630924701690674,9.924236297607422,-0.045771773904561996
6_20251106_152839,1762414085212,6,0.38787731528282166,0.5291877388954163,0.4555806815624237,0.6016292572021484,0.8843441605567932,1.7826240062713623,-1.148756504058838,3.744849681854248,10.047624588012695,-0.4934692978858948,0.0857081413269043,0.372089147567749,0.3123542070388794,25.81987762451172,-36.38135528564453,4.474508285522461,0.0911397933959961,0.09871101379394531,-0.35815802216529846,3.653709888458252,9.94891357421875,-0.1353112757205963
6_20251106_152839,1762414085231,6,0.38403674960136414,0.5280062556266785,0.45591220259666443,0.6048712730407715,0.8843441605567932,1.7826240062713623,-1.148756504058838,3.744849681854248,10.047624588012695,-0.4934692978858948,0.1425185352563858,0.1729472577571869,0.41253602504730225,25.578289031982422,-36.56089782714844,4.583404541015625,0.0911397933959961,0.09871101379394531,-0.35815802216529846,3.653709888458252,9.94891357421875,-0.1353112757205963
6_20251106_152839,1762414085249,6,0.3800082504749298,0.5285621285438538,0.45577511191368103,0.6070294976234436,0.9303244948387146,1.807669997215271,-1.1668643951416016,3.9244070053100586,10.032064437866211,-0.5186073780059814,0.1425185352563858,0.1729472577571869,0.41253602504730225,25.27677345275879,-36.73145294189453,4.649564743041992,0.193739652633667,0.05685615539550781,-0.21868711709976196,3.7306673526763916,9.975208282470703,-0.2999202609062195
6_20251106_152839,1762414085270,6,0.3760848343372345,0.5308250784873962,0.45468670129776,0.6083132028579712,0.9542884230613708,1.820564866065979,-1.1763349771499634,3.96510648727417,10.07755184173584,-0.32468539476394653,0.12541434168815613,0.0055703227408230305,0.466292142868042,24.948671340942383,-36.94140625,4.727468490600586,0.18755125999450684,0.08187484741210938,-0.01981210708618164,3.777555227279663,9.99567699432373,-0.3048732876777649
6_20251106_152839,1762414085288,6,0.3724890947341919,0.5336071848869324,0.4530951976776123,0.6092782616615295,0.9769559502601624,1.8324335813522339,-1.1842337846755981,4.156634330749512,10.07994556427002,-0.0685168206691742,0.08387553691864014,0.021452805027365685,0.42108815908432007,24.623291015625,-37.10126495361328,4.819944381713867,0.30326318740844727,0.06741523742675781,0.1890851855278015,3.8533711433410645,10.012530326843262,-0.2576020061969757
6_20251106_152839,1762414085308,6,0.3692265748977661,0.5360531210899353,0.4513673484325409,0.6103984713554382,1.0009456872940063,1.8441689014434814,-1.1915212869644165,4.2883100509643555,9.968620300292969,-0.05654633790254593,0.06127354875206947,0.06299160420894623,0.3166302740573883,24.309600830078125,-37.26100158691406,4.980491638183594,0.34795117378234863,-0.03512763977050781,0.16084453463554382,3.940358877182007,10.003747940063477,-0.21739087998867035
6_20251106_152839,1762414085327,6,0.3664308190345764,0.5378354787826538,0.44991329312324524,0.6115877032279968,1.0232882499694824,1.854680061340332,-1.197840929031372,4.1925458908081055,9.974605560302734,-0.12358109652996063,0.010571776889264584,0.12041289359331131,0.19079212844371796,24.018972396850586,-37.444129943847656,5.1279754638671875,0.20174956321716309,-0.023313522338867188,0.0750478208065033,3.9907963275909424,9.997919082641602,-0.19862891733646393
6_20251106_152839,1762414085346,6,0.3641907572746277,0.5386171936988831,0.4491916298866272,0.6127670407295227,1.044791340827942,1.8647626638412476,-1.2043415307998657,4.091993808746338,10.0332612991333,-0.3797496557235718,0.010571776889264584,0.12041289359331131,0.19079212844371796,23.7298526763916,-37.60200500488281,5.262470245361328,0.08095788955688477,0.028273582458496094,-0.14489659667015076,4.011035919189453,10.004987716674805,-0.23485305905342102
6_20251106_152839,1762414085365,6,0.3626096844673157,0.5382490754127502,0.44878947734832764,0.6143208742141724,1.044791340827942,1.8647626638412476,-1.2043415307998657,4.091993808746338,10.0332612991333,-0.3797496557235718,-0.11893154680728912,0.1210237517952919,0.12420789152383804,23.490467071533203,-37.75535583496094,5.263765335083008,0.08095788955688477,0.028273582458496094,-0.14489659667015076,4.011035919189453,10.004987716674805,-0.23485305905342102
6_20251106_152839,1762414085384,6,0.3616374433040619,0.5375562310218811,0.44816941022872925,0.6159511208534241,1.0856587886810303,1.8845666646957397,-1.2148810625076294,4.206910610198975,10.240350723266602,0.2846127450466156,-0.12931624054908752,0.027561454102396965,0.1474207490682602,23.240402221679688,-37.884254455566406,5.251581192016602,0.14125680923461914,0.17208290100097656,0.40811166167259216,4.0656538009643555,10.068267822265625,-0.12349891662597656
6_20251106_152839,1762414085403,6,0.3611597418785095,0.5374960899353027,0.4468502402305603,0.6172409653663635,1.1053146123886108,1.8948101997375488,-1.2171260118484497,4.259580612182617,10.361251831054688,0.5862691402435303,-0.07250582426786423,-0.006036106962710619,0.10343848913908005,23.040603637695312,-37.973114013671875,5.323247909545898,0.15514135360717773,0.23438739776611328,0.5678144693374634,4.1044392585754395,10.126864433288574,0.01845468580722809
6_20251106_152839,1762414085421,6,0.3608667850494385,0.5377702116966248,0.44546523690223694,0.6181740164756775,1.1234753131866455,1.9046242237091064,-1.2178986072540283,4.295492172241211,10.36843490600586,0.5252196788787842,0.015458698384463787,-0.021307725459337234,0.010587048716843128,22.77574348449707,-38.141151428222656,5.377363204956055,0.15284252166748047,0.19325637817382812,0.4054119884967804,4.1426496505737305,10.175178527832031,0.11980768293142319
6_20251106_152839,1762414085442,6,0.3605838418006897,0.5379810333251953,0.4449240565299988,0.6185452938079834,1.143196940422058,1.9156957864761353,-1.2175766229629517,4.021368026733398,10.233168601989746,0.4713524580001831,0.05516490712761879,-0.037801072001457214,-0.10181207209825516,22.690256118774414,-38.13536834716797,5.495840072631836,-0.09702539443969727,0.04639148712158203,0.28123581409454346,4.118393421173096,10.186777114868164,0.19011662900447845
6_20251106_152839,1762414085460,6,0.3606840968132019,0.5381256341934204,0.4452541172504425,0.6181234121322632,1.1579794883728027,1.92424476146698,-1.2163478136062622,3.600006580352783,9.99734878540039,0.5826780200004578,0.012404373846948147,0.012900697998702526,-0.17572669684886932,22.652177810668945,-38.17461395263672,5.412479400634766,-0.41470956802368164,-0.15154266357421875,0.3140491247177124,4.014716148376465,10.14889144897461,0.26862889528274536
6_20251106_152839,1762414085478,6,0.3613068461418152,0.537736713886261,0.44613686203956604,0.6174613237380981,1.1699877977371216,1.9310705661773682,-1.2142951488494873,3.1882214546203613,9.622673034667969,0.6281659007072449,-0.008365028537809849,0.10514126718044281,-0.2178763598203659,22.63958168029785,-38.18756103515625,5.371175765991211,-0.6611957550048828,-0.4209747314453125,0.2876296043395996,3.849417209625244,10.043647766113281,0.34053629636764526
6_20251106_152839,1762414085498,6,0.36215317249298096,0.53642338514328,0.44737929105758667,0.6172088980674744,1.1699877977371216,1.9310705661773682,-1.2142951488494873,3.1882214546203613,9.622673034667969,0.6281659007072449,0.024010803550481796,0.20654481649398804,-0.2227632850408554,22.662940979003906,-38.210548400878906,5.317564010620117,-0.6611957550048828,-0.4209747314453125,0.2876296043395996,3.849417209625244,10.043647766113281,0.34053629636764526
6_20251106_152839,1762414085518,6,0.362753301858902,0.534420907497406,0.4491434395313263,0.6173123121261597,1.1863715648651123,1.9372602701187134,-1.2112401723861694,2.860229969024658,8.954719543457031,-0.08766961842775345,0.040504150092601776,0.24747276306152344,-0.17450496554374695,22.60363006591797,-38.177520751953125,5.383485794067383,-0.6388256549835205,-0.7321557998657227,-0.3420441746711731,3.4990556240081787,9.686875343322754,0.25437456369400024
6_20251106_152839,1762414085537,6,0.36273887753486633,0.5321318507194519,0.45132580399513245,0.6177064180374146,1.1914585828781128,1.9370087385177612,-1.2124204635620117,2.9954967498779297,9.070833206176758,-0.40847882628440857,0.040504150092601776,0.24747276306152344,-0.17450496554374695,22.60363006591797,-38.177520751953125,5.383485794067383,-0.4028472900390625,-0.49283409118652344,-0.530282735824585,3.398344039916992,9.563667297363281,0.1218039020895958
6_20251106_152839,1762414085556,6,0.36245396733283997,0.5304293632507324,0.45289573073387146,0.618188738822937,1.1951874494552612,1.9361755847930908,-1.2136741876602173,3.146324634552002,9.312637329101562,0.022458933293819427,0.0026305364444851875,-0.09155716001987457,0.04357374459505081,22.654403686523438,-38.12519073486328,5.494632720947266,-0.201615571975708,-0.20082378387451172,-0.07947597652673721,3.34794020652771,9.513461112976074,0.10193490982055664
6_20251106_152839,1762414085575,6,0.3624052405357361,0.5303959846496582,0.45308348536491394,0.618108332157135,1.1951874494552612,1.9361755847930908,-1.2136741876602173,3.146324634552002,9.312637329101562,0.022458933293819427,0.01912388578057289,-0.1728021800518036,0.08999945968389511,22.67959213256836,-38.09929656982422,5.577238082885742,-0.201615571975708,-0.20082378387451172,-0.07947597652673721,3.34794020652771,9.513461112976074,0.10193490982055664
6_20251106_152839,1762414085595,6,0.3625488877296448,0.5317158699035645,0.45227938890457153,0.6174786686897278,1.2018344402313232,1.9360015392303467,-1.2125612497329712,3.238497734069824,9.757940292358398,0.5551458597183228,0.08265381306409836,-0.1159917563199997,0.08450167626142502,22.783424377441406,-37.97992706298828,5.583536148071289,-0.0667872428894043,0.1710224151611328,0.2935025095939636,3.3052849769592285,9.586917877197266,0.26164335012435913
6_20251106_152839,1762414085613,6,0.362375408411026,0.5330661535263062,0.45165765285491943,0.6168710589408875,1.2018344402313232,1.9360015392303467,-1.2125612497329712,3.238497734069824,9.757940292358398,0.5551458597183228,0.13457731902599335,-0.06345738470554352,0.07961475849151611,22.806386947631836,-38.003448486328125,5.583990097045898,-0.0667872428894043,0.1710224151611328,0.2935025095939636,3.3052849769592285,9.586917877197266,0.26164335012435913
6_20251106_152839,1762414085633,6,0.36163267493247986,0.5341572165489197,0.45170074701309204,0.6163313388824463,1.2076449394226074,1.9377070665359497,-1.2121641635894775,3.415660858154297,9.699284553527832,-0.08527553081512451,0.11991655826568604,-0.0848376601934433,0.06800833344459534,22.81061553955078,-37.92810821533203,5.585573196411133,0.08079147338867188,0.05716705322265625,-0.2538217306137085,3.334869384765625,9.642117500305176,0.16854619979858398
6_20251106_152839,1762414085651,6,0.3607528507709503,0.5352449417114258,0.4519384801387787,0.6157286763191223,1.2105659246444702,1.9384433031082153,-1.2128714323043823,3.3474292755126953,9.5819730758667,-0.008664354681968689,0.09303851425647736,-0.1153808981180191,0.033189043402671814,22.825620651245117,-37.87708282470703,5.587120056152344,0.01004791259765625,-0.04811573028564453,-0.1417684406042099,3.337381362915039,9.630088806152344,0.1331040859222412
6_20251106_152839,1762414085671,6,0.3603714406490326,0.5364975929260254,0.45191654562950134,0.6148774027824402,1.2131515741348267,1.9387775659561157,-1.2142081260681152,3.2684240341186523,9.49698257446289,-0.10921650379896164,0.07165825366973877,-0.0640682578086853,-0.025453967973589897,22.837820053100586,-37.86467742919922,5.682489395141602,-0.055166006088256836,-0.10648536682128906,-0.19385647773742676,3.323590040206909,9.60346794128418,0.08463997393846512
6_20251106_152839,1762414085690,6,0.36036553978919983,0.5374507904052734,0.4520374834537506,0.6139588356018066,1.215476393699646,1.9388127326965332,-1.2167980670928955,3.275606155395508,9.500574111938477,-0.3965083658695221,0.07165825366973877,-0.0640682578086853,-0.025453967973589897,22.90932846069336,-37.885292053222656,5.711936950683594,-0.038387298583984375,-0.08231544494628906,-0.3849186897277832,3.313993453979492,9.582889556884766,-0.011589691042900085
6_20251106_152839,1762414085709,6,0.36050641536712646,0.537498414516449,0.45259514451026917,0.6134234070777893,1.217382550239563,1.9388469457626343,-1.2203572988510132,3.2037832736968994,9.583169937133789,-0.41206997632980347,-0.09694041311740875,0.05077431723475456,-0.16045506298542023,22.87286949157715,-37.887542724609375,5.696949005126953,-0.08816814422607422,0.00022411346435546875,-0.3203842341899872,3.2919514179229736,9.582945823669434,-0.09168574959039688
6_20251106_152839,1762414085727,6,0.3612413704395294,0.5366731882095337,0.45320409536361694,0.6132639050483704,1.217382550239563,1.9388469457626343,-1.2203572988510132,3.2037832736968994,9.583169937133789,-0.41206997632980347,-0.21483731269836426,0.06910025328397751,-0.21543289721012115,22.884140014648438,-37.91118621826172,5.629329681396484,-0.08816814422607422,0.00022411346435546875,-0.3203842341899872,3.2919514179229736,9.582945823669434,-0.09168574959039688
6_20251106_152839,1762414085747,6,0.3629244267940521,0.5350378751754761,0.45348769426345825,0.6134893894195557,1.2181744575500488,1.939857006072998,-1.2243318557739258,2.814742088317871,9.701678276062012,0.5467665791511536,-0.21483731269836426,0.06910025328397751,-0.21543289721012115,22.92312240600586,-37.85911560058594,5.685922622680664,-0.3329942226409912,0.07464790344238281,0.4779425859451294,3.1477363109588623,9.627030372619629,0.06882397830486298
6_20251106_152839,1762414085766,6,0.36509764194488525,0.5327721238136292,0.4536421298980713,0.6140573024749756,1.216614842414856,1.940727949142456,-1.2238918542861938,2.6998252868652344,9.708860397338867,0.5742987394332886,-0.12198586761951447,0.0898696556687355,-0.18488965928554535,22.95866584777832,-37.881309509277344,5.632801055908203,-0.35832881927490234,0.06546401977539062,0.40437981486320496,3.0581541061401367,9.643396377563477,0.16991892457008362
6_20251106_152839,1762414085785,6,0.3667515516281128,0.5304970145225525,0.4542078971862793,0.614622950553894,1.214194655418396,1.941723108291626,-1.2225462198257446,2.689052104949951,9.719633102416992,0.515643298625946,-0.03829739987850189,0.03305923566222191,-0.11097503453493118,23.107816696166992,-37.82141876220703,5.626226425170898,-0.29528164863586426,0.0609893798828125,0.27657949924468994,2.9843337535858154,9.65864372253418,0.2390637993812561
6_20251106_152839,1762414085804,6,0.3677484393119812,0.5290578007698059,0.45482587814331055,0.6148108243942261,1.211233139038086,1.9431709051132202,-1.2205944061279297,2.742919445037842,9.841733932495117,0.48451998829841614,0.005073996260762215,-0.028638100251555443,-0.013847541064023972,23.133302688598633,-37.79512023925781,5.668283462524414,-0.1931314468383789,0.14647197723388672,0.19636496901512146,2.9360508918762207,9.69526195526123,0.2881550192832947
6_20251106_152839,1762414085824,6,0.368243545293808,0.528559684753418,0.45517653226852417,0.6146833896636963,1.211233139038086,1.9431709051132202,-1.2205944061279297,2.742919445037842,9.841733932495117,0.48451998829841614,0.06921479105949402,-0.10194186866283417,0.07045178860425949,23.210041046142578,-37.72743225097656,5.659029006958008,-0.1931314468383789,0.14647197723388672,0.19636496901512146,2.9360508918762207,9.69526195526123,0.2881550192832947
6_20251106_152839,1762414085841,6,0.3681524693965912,0.5290543437004089,0.45510250329971313,0.6143671274185181,1.2061409950256348,1.9474409818649292,-1.2150362730026245,3.1678719520568848,9.994955062866211,0.5731016397476196,0.09792543202638626,-0.12271127104759216,0.1009950265288353,23.223129272460938,-37.71381378173828,5.63275146484375,0.19088459014892578,0.2080831527709961,0.1842811107635498,2.976987361907959,9.786871910095215,0.3888205289840698
6_20251106_152839,1762414085861,6,0.367635577917099,0.5303155779838562,0.4548685848712921,0.6137621998786926,1.2049096822738647,1.9504821300506592,-1.2111412286758423,3.301941394805908,9.972211837768555,0.656895101070404,0.09792543202638626,-0.12271127104759216,0.1009950265288353,23.320507049560547,-37.719207763671875,5.5553131103515625,0.2599632740020752,0.1482715606689453,0.21445965766906738,3.041978120803833,9.82394027709961,0.44243544340133667
6_20251106_152839,1762414085880,6,0.36718592047691345,0.5315795540809631,0.45465171337127686,0.6130983233451843,1.20444917678833,1.9534529447555542,-1.2076352834701538,3.2791972160339355,9.906373977661133,0.4390321373939514,0.09914715588092804,-0.0903354361653328,0.044184610247612,23.32129669189453,-37.71813201904297,5.447183609008789,0.1897752285003662,0.06594657897949219,-0.002722620964050293,3.0894219875335693,9.84042739868164,0.4417547583580017
6_20251106_152839,1762414085900,6,0.3668400049209595,0.5320582985877991,0.45517081022262573,0.6125046014785767,1.2041350603103638,1.9562788009643555,-1.2048966884613037,3.134354591369629,9.841732025146484,0.22595733404159546,0.1113644540309906,0.027561452239751816,-0.1152510866522789,23.406389236450195,-37.724456787109375,5.382772445678711,0.03594613075256348,0.0010433197021484375,-0.172637939453125,3.0984084606170654,9.840688705444336,0.39859527349472046
6_20251106_152839,1762414085918,6,0.36671850085258484,0.5318518877029419,0.45631009340286255,0.6119086742401123,1.2034229040145874,1.958601713180542,-1.203037977218628,2.9476146697998047,9.708860397338867,0.12779927253723145,0.12052743136882782,0.01656588725745678,-0.14457258582115173,23.43197250366211,-37.698020935058594,5.411314010620117,-0.1206350326538086,-0.10546302795410156,-0.2166368067264557,3.0682497024536133,9.814323425292969,0.34443607926368713
6_20251106_152839,1762414085937,6,0.36686864495277405,0.5315570831298828,0.4576885402202606,0.611044704914093,1.2018011808395386,1.9601020812988281,-1.2023953199386597,2.723766565322876,9.556835174560547,-0.0649256780743599,0.12052743136882782,0.01656588725745678,-0.14457258582115173,23.395217895507812,-37.70067596435547,5.43687629699707,-0.2755866050720215,-0.20599079132080078,-0.3274894058704376,2.9993531703948975,9.762825965881348,0.2625637352466583
6_20251106_152839,1762414085958,6,0.3671872019767761,0.5310388207435608,0.4593898057937622,0.610026478767395,1.1989632844924927,1.9607869386672974,-1.20303213596344,2.599273204803467,9.494588851928711,-0.15829552710056305,0.10892099142074585,-0.028027236461639404,-0.09631427377462387,23.395217895507812,-37.70067596435547,5.43687629699707,-0.32006382942199707,-0.21459007263183594,-0.3366873860359192,2.919337034225464,9.709178924560547,0.17839187383651733
6_20251106_152839,1762414085977,6,0.3675726652145386,0.5307416319847107,0.46100810170173645,0.608830988407135,1.1956257820129395,1.960665225982666,-1.2039952278137207,2.6363818645477295,9.43952465057373,0.036823518574237823,0.10036888718605042,-0.0640682578086853,-0.04255818575620651,23.47075653076172,-37.64622497558594,5.494939804077148,-0.2263641357421875,-0.21572303771972656,-0.11325468868017197,2.862746000289917,9.655247688293457,0.1500782072544098
6_20251106_152839,1762414085995,6,0.3680751323699951,0.5311669707298279,0.4621626138687134,0.6072791814804077,1.1956257820129395,1.960665225982666,-1.2039952278137207,2.6363818645477295,9.43952465057373,0.036823518574237823,0.08204294741153717,-0.011533889919519424,-0.029119158163666725,23.533802032470703,-37.604583740234375,5.4981842041015625,-0.2263641357421875,-0.21572303771972656,-0.11325468868017197,2.862746000289917,9.655247688293457,0.1500782072544098
6_20251106_152839,1762414086015,6,0.36829811334609985,0.5314241647720337,0.463174968957901,0.6061466932296753,1.1918911933898926,1.9600260257720947,-1.2053062915802002,2.7321457862854004,9.48501205444336,0.035626478493213654,0.04233674705028534,0.026950588449835777,-0.029119158163666725,23.573884963989258,-37.53941345214844,5.500974655151367,-0.10448026657104492,-0.13618850708007812,-0.09156138449907303,2.8366260528564453,9.621200561523438,0.12718786299228668
6_20251106_152839,1762414086034,6,0.3683265149593353,0.5310949087142944,0.4640713930130005,0.605732262134552,1.1856598854064941,1.9585952758789062,-1.208532452583313,2.961979389190674,9.698087692260742,0.23074550926685333,-0.0028672460466623306,0.015344157814979553,-0.02362137846648693,23.55616569519043,-37.41596984863281,5.556697845458984,0.09784674644470215,0.0752553939819336,0.11607414484024048,2.8641326427459717,9.622832298278809,0.11467136442661285
6_20251106_152839,1762414086052,6,0.3684823513031006,0.5309157967567444,0.46457239985466003,0.6054103374481201,1.1856598854064941,1.9585952758789062,-1.208532452583313,2.961979389190674,9.698087692260742,0.23074550926685333,0.0026305364444851875,0.04222220554947853,-0.049277693033218384,23.60845947265625,-37.3267822265625,5.749734878540039,0.09784674644470215,0.0752553939819336,0.11607414484024048,2.8641326427459717,9.622832298278809,0.11467136442661285
6_20251106_152839,1762414086072,6,0.3687173128128052,0.5305464863777161,0.46486911177635193,0.6053632497787476,1.1814250946044922,1.9578521251678467,-1.2081074714660645,2.975146770477295,9.561622619628906,0.3731943964958191,0.07104738056659698,0.0849827378988266,-0.09081649780273438,23.648048400878906,-37.26228332519531,5.820106506347656,0.06415390968322754,-0.06311607360839844,0.13461875915527344,2.9109928607940674,9.624738693237305,0.23857563734054565
6_20251106_152839,1762414086092,6,0.36855998635292053,0.529287576675415,0.4657280743122101,0.6059006452560425,1.1795233488082886,1.9568710327148438,-1.2083327770233154,2.850653648376465,9.398824691772461,-0.01464959979057312,0.11258618533611298,0.07154370844364166,-0.09570341557264328,23.699724197387695,-37.19712829589844,5.904485702514648,-0.04827117919921875,-0.18073081970214844,-0.20258018374443054,2.8989248275756836,9.57955551147461,0.18793058395385742
6_20251106_152839,1762414086110,6,0.3681063950061798,0.5279422998428345,0.46706724166870117,0.606319010257721,1.1771259307861328,1.955013632774353,-1.2094100713729858,2.720175266265869,9.261163711547852,-0.12238404154777527,0.10159061849117279,0.028172316029667854,-0.05721893906593323,23.680397033691406,-37.09906768798828,5.986713409423828,-0.14299964904785156,-0.2547130584716797,-0.24825170636177063,2.8631749153137207,9.515876770019531,0.12586766481399536
6_20251106_152839,1762414086128,6,0.3677379786968231,0.5275070667266846,0.468328595161438,0.6059483289718628,1.1743837594985962,1.952750563621521,-1.2109767198562622,2.693840503692627,9.334183692932129,-0.07210797071456909,0.07349084317684174,0.0012942695757374167,-0.008960623294115067,23.691173553466797,-37.123390197753906,5.986675262451172,-0.135467529296875,-0.1453542709350586,-0.15838050842285156,2.829308032989502,9.479537963867188,0.08627253770828247
6_20251106_152839,1762414086148,6,0.36750537157058716,0.5276915431022644,0.4691540598869324,0.6052899360656738,1.1714445352554321,1.9502421617507935,-1.2129119634628296,2.7644662857055664,9.398824691772461,-0.03499944508075714,0.07349084317684174,0.0012942695757374167,-0.008960623294115067,23.680397033691406,-37.09906768798828,5.986713409423828,-0.05187344551086426,-0.06457042694091797,-0.09701758623123169,2.8163397312164307,9.463395118713379,0.06201814115047455
6_20251106_152839,1762414086168,6,0.3672657012939453,0.528009295463562,0.46965810656547546,0.6047671437263489,1.1690272092819214,1.948375940322876,-1.214698076248169,2.9021267890930176,9.608308792114258,0.047596972435712814,0.06127354875206947,0.009846375323832035,0.02463693730533123,23.709308624267578,-37.01011657714844,6.043607711791992,0.06862974166870117,0.11593055725097656,-0.011536937206983566,2.8334970474243164,9.492378234863281,0.05913390964269638
6_20251106_152839,1762414086187,6,0.3669206500053406,0.5281808376312256,0.46998900175094604,0.6045697927474976,1.167106032371521,1.9475061893463135,-1.2158715724945068,2.9966936111450195,9.820186614990234,0.2606717646121979,-0.005921569652855396,0.07581976056098938,-0.0028519751504063606,23.720294952392578,-37.022552490234375,6.111415863037109,0.13055706024169922,0.26224708557128906,0.16123028099536896,2.8661365509033203,9.557939529418945,0.09944148361682892
6_20251106_152839,1762414086205,6,0.3666110634803772,0.5279678106307983,0.4702318608760834,0.6047548055648804,1.167106032371521,1.9475061893463135,-1.2158715724945068,2.9966936111450195,9.820186614990234,0.2606717646121979,0.006906589493155479,0.11186078190803528,-0.058440662920475006,23.819503784179688,-36.97906494140625,6.170196533203125,0.13055706024169922,0.26224708557128906,0.16123028099536896,2.8661365509033203,9.557939529418945,0.09944148361682892
6_20251106_152839,1762414086225,6,0.3663766086101532,0.5269877910614014,0.4707092046737671,0.6053799986839294,1.1643396615982056,1.947693109512329,-1.2169559001922607,2.863821029663086,9.762727737426758,0.10984352976083755,0.06432787328958511,0.06787852197885513,-0.07554487884044647,23.81830406188965,-36.99229431152344,6.237514495849609,-0.022550106048583984,0.1253185272216797,-0.023412562906742096,2.88637113571167,9.637409210205078,0.13325609266757965
6_20251106_152839,1762414086245,6,0.3660520315170288,0.5256727337837219,0.47165393829345703,0.6059840321540833,1.1625380516052246,1.9484329223632812,-1.2177894115447998,2.7501015663146973,9.778289794921875,0.04639991372823715,0.10525580495595932,-0.005425242241472006,-0.03339520841836929,23.918922424316406,-36.92369079589844,6.296823501586914,-0.10901570320129395,0.11270427703857422,-0.06948494166135788,2.859117269515991,9.6655855178833,0.11588485538959503
6_20251106_152839,1762414086262,6,0.36580774188041687,0.5252361297607422,0.47256946563720703,0.6057968139648438,1.1608017683029175,1.9490938186645508,-1.2188228368759155,2.7309489250183105,9.694496154785156,-0.04816697537899017,0.1480163335800171,-0.0335250161588192,0.005700130946934223,23.992544174194336,-36.906639099121094,6.327062606811523,-0.10253477096557617,0.023128509521484375,-0.13124147057533264,2.8334836959838867,9.671367645263672,0.08307449519634247
6_20251106_152839,1762414086283,6,0.3654371201992035,0.525490939617157,0.4734506905078888,0.6051111221313477,1.1588515043258667,1.9498409032821655,-1.2208025455474854,2.8303041458129883,9.674145698547363,-0.1882217675447464,0.14312942326068878,-0.017031671479344368,0.019750019535422325,24.019847869873047,-36.84307098388672,6.41046142578125,-0.0025436878204345703,0.0022220611572265625,-0.21703700721263885,2.832847833633423,9.671923637390137,0.028815243393182755
6_20251106_152839,1762414086300,6,0.3648902475833893,0.5259968638420105,0.47437146306037903,0.6042798161506653,1.1588515043258667,1.9498409032821655,-1.2208025455474854,2.8303041458129883,9.674145698547363,-0.1882217675447464,0.11502964794635773,-0.006646971683949232,0.01791742444038391,24.04524803161621,-36.8052978515625,6.5609130859375,-0.0025436878204345703,0.0022220611572265625,-0.21703700721263885,2.832847833633423,9.671923637390137,0.028815243393182755
6_20251106_152839,1762414086319,6,0.3643278479576111,0.5265380144119263,0.4751318395137787,0.6035500764846802,1.1563693284988403,1.9511842727661133,-1.2268853187561035,2.9990878105163574,9.832157135009766,-0.40129658579826355,0.08692986518144608,-0.04513144865632057,0.02830212563276291,24.0330753326416,-36.79447937011719,6.655300140380859,0.11711931228637695,0.1374073028564453,-0.28906160593032837,2.8819684982299805,9.69474983215332,-0.11223499476909637
6_20251106_152839,1762414086338,6,0.36382225155830383,0.5273160338401794,0.4756004810333252,0.6028062105178833,1.1559287309646606,1.9529849290847778,-1.2302088737487793,3.081684112548828,10.038049697875977,-0.10203420370817184,0.056997496634721756,-0.07567468285560608,0.02158261463046074,24.045978546142578,-36.76951599121094,6.750932693481445,0.15977239608764648,0.2746400833129883,0.008160635828971863,2.9219117164611816,9.763409614562988,-0.11019483953714371
6_20251106_152839,1762414086358,6,0.3636230528354645,0.5285384058952332,0.4756334125995636,0.6018291115760803,1.1562212705612183,1.9558570384979248,-1.2329107522964478,3.163083553314209,10.11585807800293,0.09428189694881439,0.06066269055008888,-0.031692422926425934,-0.027897430583834648,24.022113800048828,-36.758819580078125,6.777248382568359,0.19293737411499023,0.28195953369140625,0.16358140110969543,2.9701461791992188,9.833898544311523,-0.06929949671030045
6_20251106_152839,1762414086377,6,0.36362358927726746,0.529334545135498,0.47570785880088806,0.6010697484016418,1.156807780265808,1.958739995956421,-1.235205888748169,3.0876693725585938,9.939891815185547,-0.01704370230436325,0.10342320799827576,0.003737728577107191,-0.10303380340337753,24.03582191467285,-36.721160888671875,6.859628677368164,0.09401845932006836,0.08479499816894531,0.041804637759923935,2.9936509132385254,9.855096817016602,-0.058848340064287186
6_20251106_152839,1762414086397,6,0.3634864091873169,0.5290904641151428,0.4764266014099121,0.6007983088493347,1.156982421875,1.961281180381775,-1.237688660621643,2.8542447090148926,9.78307819366455,-0.16906897723674774,0.12052743136882782,7.254013326019049e-05,-0.13846394419670105,23.949617385864258,-36.73954772949219,6.882963180541992,-0.11152505874633789,-0.05761528015136719,-0.08817651122808456,2.9657697677612305,9.840693473815918,-0.08089246600866318
6_20251106_152839,1762414086416,6,0.36344191431999207,0.5286497473716736,0.47761741280555725,0.6002674698829651,1.156053900718689,1.9631267786026,-1.2408106327056885,2.6028642654418945,9.611899375915527,-0.2911680340766907,0.13335557281970978,-0.006036106962710619,-0.12441406399011612,23.949617385864258,-36.73954772949219,6.882963180541992,-0.29032444953918457,-0.18303489685058594,-0.16822046041488647,2.893188714981079,9.794934272766113,-0.1229475811123848
6_20251106_152839,1762414086436,6,0.36354053020477295,0.5283997654914856,0.47898411750793457,0.5993381142616272,1.1541036367416382,1.964174509048462,-1.2449065446853638,2.5418148040771484,9.562820434570312,-0.4946663975715637,0.1370207667350769,-0.020085996016860008,-0.06088412553071976,23.95002555847168,-36.727394104003906,6.923776626586914,-0.2810993194580078,-0.18569087982177734,-0.29737505316734314,2.8229141235351562,9.74851131439209,-0.19729134440422058
6_20251106_152839,1762414086454,6,0.36355388164520264,0.5283852815628052,0.48037189245224,0.5982310771942139,1.1521861553192139,1.964674949645996,-1.2490317821502686,2.721372365951538,9.587959289550781,-0.4503755569458008,0.10220148414373398,-0.060403063893318176,0.004478401504456997,23.94106674194336,-36.665809631347656,6.965154647827148,-0.08123326301574707,-0.12844181060791016,-0.20246736705303192,2.802605628967285,9.716401100158691,-0.24790818989276886
6_20251106_152839,1762414086474,6,0.36353692412376404,0.5289791226387024,0.48131510615348816,0.5969570875167847,1.1504542827606201,1.964798092842102,-1.252938985824585,2.8722004890441895,9.57838249206543,-0.16428078711032867,0.10220148414373398,-0.060403063893318176,0.004478401504456997,23.99435043334961,-36.57527160644531,7.023029327392578,0.05567598342895508,-0.11041450500488281,0.06690192222595215,2.8165245056152344,9.688796997070312,-0.23118270933628082
6_20251106_152839,1762414086492,6,0.363596111536026,0.5300057530403137,0.48167940974235535,0.5957152843475342,1.1490767002105713,1.964415192604065,-1.2563852071762085,2.914097309112549,9.506559371948242,-0.13435454666614532,0.10220148414373398,-0.028638100251555443,-0.0382821261882782,24.065364837646484,-36.59656524658203,7.120058059692383,0.07805824279785156,-0.14579010009765625,0.07746252417564392,2.8360390663146973,9.652349472045898,-0.21181707084178925
6_20251106_152839,1762414086511,6,0.3634394705295563,0.5305789113044739,0.4820902645587921,0.5949678421020508,1.147771954536438,1.9633557796478271,-1.2600213289260864,2.8374862670898438,9.398824691772461,-0.3438381552696228,0.10708840191364288,-0.004814377520233393,-0.07554487884044647,24.129409790039062,-36.541961669921875,7.083017349243164,0.0011577606201171875,-0.20281982421875,-0.10561686754226685,2.8363285064697266,9.601644515991211,-0.23822128772735596
6_20251106_152839,1762414086530,6,0.36310386657714844,0.5305183529853821,0.4828973114490509,0.594572126865387,1.1461808681488037,1.961822509765625,-1.2637948989868164,2.708204746246338,9.409598350524902,-0.3546116352081299,0.06921479105949402,-0.026805507019162178,-0.08043179661035538,24.10977554321289,-36.45591735839844,7.1109161376953125,-0.10249900817871094,-0.15363693237304688,-0.0931122899055481,2.810703754425049,9.56323528289795,-0.2614993453025818
6_20251106_152839,1762414086550,6,0.36308568716049194,0.5306006073951721,0.4835880994796753,0.5939480662345886,1.1438779830932617,1.9598840475082397,-1.2670546770095825,2.5765295028686523,9.429948806762695,-0.09245779365301132,0.06921479105949402,-0.026805507019162178,-0.08043179661035538,24.15036392211914,-36.37846374511719,7.14100456237793,-0.18733930587768555,-0.1066293716430664,0.13523322343826294,2.763868808746338,9.536578178405762,-0.22769102454185486
6_20251106_152839,1762414086568,6,0.36342763900756836,0.5307921767234802,0.4840678572654724,0.5931764841079712,1.1413003206253052,1.957931637763977,-1.2695293426513672,2.516676902770996,9.416780471801758,-0.10083716362714767,0.04478020593523979,0.003126863855868578,-0.048055969178676605,24.238597869873047,-36.31092834472656,7.22685432434082,-0.1977534294128418,-0.09583759307861328,0.10148308426141739,2.714430332183838,9.512618064880371,-0.20232024788856506
6_20251106_152839,1762414086588,6,0.3637080788612366,0.5304613709449768,0.48462778329849243,0.5928431749343872,1.1382911205291748,1.9558323621749878,-1.272143006324768,2.5597705841064453,9.461071014404297,-0.25046831369400024,0.0649387389421463,0.010457240045070648,-0.0071280281990766525,24.263687133789062,-36.28517150878906,7.322977066040039,-0.12372779846191406,-0.041237831115722656,-0.03851845860481262,2.6834983825683594,9.50230884552002,-0.21194985508918762
6_20251106_152839,1762414086607,6,0.3636274039745331,0.5298973321914673,0.48529258370399475,0.592853307723999,1.1382911205291748,1.9558323621749878,-1.272143006324768,2.5597705841064453,9.461071014404297,-0.25046831369400024,0.08265381306409836,-0.018864264711737633,0.02830212563276291,24.277395248413086,-36.24751281738281,7.405357360839844,-0.12372779846191406,-0.041237831115722656,-0.03851845860481262,2.6834983825683594,9.50230884552002,-0.21194985508918762
6_20251106_152839,1762414086626,6,0.36326438188552856,0.5297731757164001,0.4858238399028778,0.592751681804657,1.1330206394195557,1.952016830444336,-1.2793526649475098,2.8123483657836914,9.58077621459961,-0.5006515979766846,0.0753234326839447,-0.043909717351198196,0.023415207862854004,24.325942993164062,-36.244606018066406,7.434350967407227,0.09893512725830078,0.06305122375488281,-0.18745049834251404,2.7134132385253906,9.517724990844727,-0.31320109963417053
6_20251106_152839,1762414086646,6,0.3628653287887573,0.5303758978843689,0.48614197969436646,0.5921960473060608,1.1311113834381104,1.950701355934143,-1.2832205295562744,2.8207273483276367,9.625066757202148,-0.4240404963493347,0.03195204213261604,-0.024362049996852875,-0.010793216526508331,24.41688346862793,-36.138587951660156,7.4398956298828125,0.08585119247436523,0.08587360382080078,-0.08867150545120239,2.7348761558532715,9.539193153381348,-0.3353689908981323
6_20251106_152839,1762414086665,6,0.36271587014198303,0.5310423970222473,0.48628056049346924,0.5915762186050415,1.1293129920959473,1.9496511220932007,-1.2868820428848267,2.740525245666504,9.611899375915527,-0.33067065477371216,0.02278907224535942,-0.010923025198280811,-0.03461693972349167,24.467853546142578,-36.08599090576172,7.524011611938477,0.004519224166870117,0.05816459655761719,0.003758668899536133,2.736006021499634,9.55373477935791,-0.3344293236732483
6_20251106_152839,1762414086683,6,0.3627801239490509,0.5313175916671753,0.48637980222702026,0.5912079811096191,1.1275874376296997,1.9485994577407837,-1.2908657789230347,2.7297515869140625,9.53409194946289,-0.5186073780059814,0.0392824187874794,0.006181187462061644,-0.038892991840839386,24.55205535888672,-36.093528747558594,7.581245422363281,-0.005003452301025391,-0.01571369171142578,-0.14734244346618652,2.734755039215088,9.549805641174316,-0.3712649345397949
6_20251106_152839,1762414086702,6,0.36282289028167725,0.5312448740005493,0.4867258369922638,0.5909622311592102,1.1258325576782227,1.9478135108947754,-1.2954388856887817,2.692643165588379,9.627461433410645,-0.6586621999740601,0.0392824187874794,0.006181187462061644,-0.038892991840839386,24.55044937133789,-36.11891174316406,7.607749938964844,-0.03368949890136719,0.062125205993652344,-0.22991782426834106,2.726332664489746,9.565336227416992,-0.428744375705719
6_20251106_152839,1762414086720,6,0.3628111481666565,0.531269907951355,0.4871043562889099,0.5906350016593933,1.1243205070495605,1.9475008249282837,-1.2996550798416138,2.753692865371704,9.72562026977539,-0.46952831745147705,0.004463129676878452,-0.05246182531118393,-0.0028519751504063606,24.565046310424805,-36.080039978027344,7.568483352661133,0.021888017654418945,0.12822723388671875,-0.0326271653175354,2.731804847717285,9.597393035888672,-0.43690115213394165
6_20251106_152839,1762414086741,6,0.3629940450191498,0.5318962335586548,0.48715144395828247,0.5899196267127991,1.1227461099624634,1.9477044343948364,-1.3036991357803345,2.7620720863342285,9.761530876159668,-0.24927127361297607,0.004463129676878452,-0.05246182531118393,-0.0028519751504063606,24.61520004272461,-36.05175018310547,7.570972442626953,0.024213790893554688,0.13131046295166016,0.15010389685630798,2.737858295440674,9.630220413208008,-0.39937517046928406
6_20251106_152839,1762414086758,6,0.3633648753166199,0.5323898196220398,0.4870190918445587,0.5893551111221313,1.1214386224746704,1.9480574131011963,-1.3066741228103638,2.6938400268554688,9.719634056091309,-0.33785292506217957,0.011182642541825771,0.0055703227408230305,-0.03339521586894989,24.690528869628906,-36.009178161621094,7.561189651489258,-0.03521466255187988,0.07153129577636719,0.049217790365219116,2.7290546894073486,9.648102760314941,-0.3870707154273987
6_20251106_152839,1762414086778,6,0.3635485768318176,0.5322418212890625,0.48709335923194885,0.5893141627311707,1.1198557615280151,1.9485710859298706,-1.3101515769958496,2.689052104949951,9.687313079833984,-0.43720802664756775,0.012404370121657848,0.017787616699934006,-0.04011472314596176,24.704124450683594,-35.98326873779297,7.56220817565918,-0.03200197219848633,0.031368255615234375,-0.040109843015670776,2.7210540771484375,9.65594482421875,-0.397098183631897
6_20251106_152839,1762414086798,6,0.3636426627635956,0.531792402267456,0.487431138753891,0.589382529258728,1.1181092262268066,1.9490233659744263,-1.3138025999069214,2.641170024871826,9.644220352172852,-0.5114250779151917,0.017291288822889328,0.008013781160116196,-0.04988855868577957,24.668779373168945,-35.96080780029297,7.588296890258789,-0.06390738487243652,-0.009379386901855469,-0.09146153926849365,2.7050774097442627,9.653599739074707,-0.419963538646698
6_20251106_152839,1762414086817,6,0.3637649714946747,0.5314176678657532,0.48785778880119324,0.5892919898033142,1.1181092262268066,1.9490233659744263,-1.3138025999069214,2.641170024871826,9.644220352172852,-0.5114250779151917,0.017291288822889328,0.008013781160116196,-0.04988855868577957,24.69365882873535,-35.946929931640625,7.616575241088867,-0.06390738487243652,-0.009379386901855469,-0.09146153926849365,2.7050774097442627,9.653599739074707,-0.419963538646698
6_20251106_152839,1762414086836,6,0.36398616433143616,0.531309962272644,0.4882798492908478,0.5889028906822205,1.1137619018554688,1.9497402906417847,-1.3211482763290405,2.566953182220459,9.613096237182617,-0.6143712997436523,-0.010197622701525688,0.02939404733479023,-0.0022411104291677475,24.69365882873535,-35.946929931640625,7.616575241088867,-0.08246207237243652,-0.03262519836425781,-0.1416584551334381,2.6494152545928955,9.645721435546875,-0.47271284461021423
6_20251106_152839,1762414086856,6,0.36417800188064575,0.5310920476913452,0.4885549545288086,0.5887526273727417,1.1117510795593262,1.949934482574463,-1.324573040008545,2.6974313259124756,9.615490913391113,-0.4000994861125946,-0.016917135566473007,-0.04207712039351463,0.04479547590017319,24.672008514404297,-35.89842224121094,7.630167007446289,0.03841280937194824,-0.024184226989746094,0.0580906867980957,2.6590185165405273,9.63967514038086,-0.4581901729106903
6_20251106_152839,1762414086874,6,0.364220529794693,0.5311536192893982,0.4886055290699005,0.5886288285255432,1.1103764772415161,1.9505255222320557,-1.3269151449203491,2.8542447090148926,9.787866592407227,-0.12597520649433136,0.0032414011657238007,-0.061013929545879364,0.03807596117258072,24.714500427246094,-35.79518127441406,7.59320068359375,0.15618085861206055,0.11855316162109375,0.2657719850540161,2.698063850402832,9.669313430786133,-0.3917471766471863
6_20251106_152839,1762414086894,6,0.36423519253730774,0.5317712426185608,0.48824846744537354,0.5883583426475525,1.1094169616699219,1.951185703277588,-1.328502893447876,2.8243188858032227,9.705269813537598,-0.1594925820827484,0.03683896362781525,-0.01336648315191269,-0.027897430583834648,24.73918342590332,-35.78157043457031,7.648509979248047,0.10100412368774414,0.02876567840576172,0.18580368161201477,2.7233147621154785,9.676504135131836,-0.3452962636947632
6_20251106_152839,1762414086912,6,0.3642292022705078,0.5318713188171387,0.48809903860092163,0.5883955359458923,1.108526349067688,1.9516782760620117,-1.3305754661560059,2.7309489250183105,9.627461433410645,-0.5509277582168579,0.05821922793984413,0.009235510602593422,-0.051721155643463135,24.752891540527344,-35.74391174316406,7.730890274047852,0.006107330322265625,-0.039234161376953125,-0.16450518369674683,2.724841594696045,9.666695594787598,-0.3864225745201111
6_20251106_152839,1762414086932,6,0.36402854323387146,0.5313500165939331,0.4885423481464386,0.5886227488517761,1.1073960065841675,1.9519096612930298,-1.3335374593734741,2.645958423614502,9.58077621459961,-0.6790120601654053,0.05821922793984413,0.009235510602593422,-0.051721155643463135,24.727108001708984,-35.77061462402344,7.729381561279297,-0.06310653686523438,-0.06873512268066406,-0.23407161235809326,2.7090649604797363,9.649511337280273,-0.444940447807312
6_20251106_152839,1762414086951,6,0.3639093041419983,0.5312821865081787,0.48900076746940613,0.5883769989013672,1.1061267852783203,1.9520295858383179,-1.3364959955215454,2.5861058235168457,9.617884635925293,-0.6179624795913696,0.009960914961993694,-0.02252945490181446,-0.019956188276410103,24.68863296508789,-35.810394287109375,7.70008659362793,-0.09836745262145996,-0.02530193328857422,-0.13841763138771057,2.6844732761383057,9.643186569213867,-0.47954484820365906
6_20251106_152839,1762414086970,6,0.36412882804870605,0.5318633317947388,0.4891662895679474,0.5875780582427979,1.104844570159912,1.9523485898971558,-1.3400287628173828,2.703416585922241,9.706466674804688,-0.6143712997436523,-0.04929296299815178,0.03611356019973755,-0.016290998086333275,24.69970703125,-35.834312438964844,7.6595001220703125,0.015154600143432617,0.05062389373779297,-0.10786116123199463,2.6882619857788086,9.655842781066895,-0.5065101385116577
6_20251106_152839,1762414086989,6,0.36437055468559265,0.5319275856018066,0.48923709988594055,0.5873109698295593,1.103981852531433,1.9525816440582275,-1.3430696725845337,2.7955894470214844,9.635841369628906,-0.4527696669101715,-0.04929296299815178,0.03611356019973755,-0.016290998086333275,24.677448272705078,-35.79823303222656,7.659311294555664,0.0858619213104248,-0.016000747680664062,0.04299238324165344,2.7097275257110596,9.65184211730957,-0.49576205015182495
6_20251106_152839,1762414087008,6,0.36475038528442383,0.531546413898468,0.48919299244880676,0.5874570608139038,1.1032861471176147,1.9526770114898682,-1.3456631898880005,2.754889965057373,9.605915069580078,-0.38812899589538574,-0.07617101073265076,0.05260690674185753,-0.04011472314596176,24.69073486328125,-35.784339904785156,7.606000900268555,0.03612995147705078,-0.03674125671386719,0.08610641956329346,2.7187600135803223,9.642656326293945,-0.4742354154586792
6_20251106_152839,1762414087026,6,0.3651086688041687,0.531008780002594,0.4891863763332367,0.5877261757850647,1.1032861471176147,1.9526770114898682,-1.3456631898880005,2.754889965057373,9.605915069580078,-0.38812899589538574,-0.03218875080347061,-0.006036106962710619,-0.03156261891126633,24.700510025024414,-35.821624755859375,7.646247863769531,0.03612995147705078,-0.03674125671386719,0.08610641956329346,2.7187600135803223,9.642656326293945,-0.4742354154586792
