session_id,timestamp,label,quaternion_w,quaternion_x,quaternion_y,quaternion_z,position_x,position_y,position_z,accelerometer_x,accelerometer_y,accelerometer_z,gyroscope_x,gyroscope_y,gyroscope_z,magnetometer_x,magnetometer_y,magnetometer_z,linear_acceleration_x,linear_acceleration_y,linear_acceleration_z,gravity_x,gravity_y,gravity_z
3_20251106_182818,1762424861248,3,0.10978789627552032,0.16248875856399536,0.709674060344696,0.6766880750656128,0.5452108383178711,1.7639530897140503,-1.3160741329193115,0.0746961385011673,11.767786026000977,-2.678084373474121,-0.9169919490814209,0.4199122190475464,0.1960913985967636,5.837100505828857,-23.42772674560547,36.343414306640625,-0.23395220935344696,1.7896499633789062,-0.5105977058410645,0.30864834785461426,9.97813606262207,-2.1674866676330566
3_20251106_182818,1762424861266,3,0.10625556111335754,0.1591595858335495,0.7044496536254883,0.6834681034088135,0.5451483130455017,1.8135813474655151,-1.3345626592636108,1.235834002494812,11.809682846069336,0.9872807264328003,-0.9169919490814209,0.4199122190475464,0.1960913985967636,5.535050868988037,-23.63379669189453,36.19252014160156,0.6248093843460083,1.118753433227539,2.2213046550750732,0.6110246181488037,10.690929412841797,-1.234023928642273
3_20251106_182818,1762424861286,3,0.10456730425357819,0.15386608242988586,0.6992441415786743,0.6902524828910828,0.546727180480957,1.8416270017623901,-1.331160068511963,0.7893345952033997,11.36677360534668,1.5881993770599365,-0.5901793241500854,0.24092885851860046,-0.2516724169254303,5.2592902183532715,-23.800880432128906,36.0704345703125,0.14264798164367676,0.540675163269043,2.2577786445617676,0.6466866135597229,10.826098442077637,-0.669579267501831
3_20251106_182818,1762424861305,3,0.10496474802494049,0.14958687126636505,0.6958317756652832,0.6945676803588867,0.546727180480957,1.8416270017623901,-1.331160068511963,0.7893345952033997,11.36677360534668,1.5881993770599365,-0.19372810423374176,0.03567831963300705,-0.20707933604717255,5.067013740539551,-23.999671936035156,35.910438537597656,0.14264798164367676,0.540675163269043,2.2577786445617676,0.6466866135597229,10.826098442077637,-0.669579267501831
3_20251106_182818,1762424861323,3,0.10586457699537277,0.14720521867275238,0.694695234298706,0.6960760354995728,0.5468983054161072,1.8905563354492188,-1.3133468627929688,0.3081207573413849,10.781416893005371,0.23673078417778015,0.029848378151655197,-0.06572522968053818,-0.0708564892411232,4.935766220092773,-24.194351196289062,35.7393798828125,-0.21400079131126404,-0.063262939453125,0.40919557213783264,0.5221215486526489,10.844679832458496,-0.1724647879600525
3_20251106_182818,1762424861343,3,0.10580551624298096,0.14607803523540497,0.6949138641357422,0.6961042284965515,0.5468983054161072,1.8905563354492188,-1.3133468627929688,0.3081207573413849,10.781416893005371,0.23673078417778015,0.10009782016277313,-0.14452676475048065,0.01405370607972145,4.935766220092773,-24.194351196289062,35.7393798828125,-0.21400079131126404,-0.063262939453125,0.40919557213783264,0.5221215486526489,10.844679832458496,-0.1724647879600525
3_20251106_182818,1762424861363,3,0.10564668476581573,0.14622260630130768,0.695563793182373,0.6954485774040222,0.5490303039550781,1.9354549646377563,-1.2943696975708008,1.0730352401733398,10.398361206054688,-0.21934504806995392,0.1581299602985382,-0.17201568186283112,-0.05802833288908005,4.746078014373779,-24.590965270996094,35.34587860107422,0.4058295488357544,-0.3159055709838867,-0.04666629433631897,0.6672056913375854,10.714266777038574,-0.17267875373363495
3_20251106_182818,1762424861381,3,0.10604359954595566,0.14627662301063538,0.6966968178749084,0.6942416429519653,0.5513502359390259,1.9518122673034668,-1.288062334060669,0.9784684181213379,9.992561340332031,-0.781958281993866,0.20883174240589142,-0.19950458407402039,-0.21074451506137848,4.746078014373779,-24.590965270996094,35.34587860107422,0.24901020526885986,-0.5773649215698242,-0.4874236285686493,0.729458212852478,10.569926261901855,-0.2945346534252167
3_20251106_182818,1762424861401,3,0.10755088180303574,0.14566200971603394,0.6983325481414795,0.6924933195114136,0.5530428290367126,1.9655569791793823,-1.2838826179504395,0.4984515905380249,9.601126670837402,-1.076432466506958,0.19783617556095123,-0.2636454105377197,-0.29076775908470154,4.640810012817383,-24.75867462158203,35.1492919921875,-0.18480533361434937,-0.7750396728515625,-0.625518262386322,0.6832569241523743,10.376166343688965,-0.450914204120636
3_20251106_182818,1762424861419,3,0.11001931875944138,0.14493195712566376,0.7000213861465454,0.6905509233474731,0.5530862808227539,1.9758344888687134,-1.2822290658950806,0.11300171166658401,9.362913131713867,-1.29549241065979,0.1226998120546341,-0.2538715600967407,-0.2522833049297333,4.586710453033447,-24.873519897460938,35.009796142578125,-0.4562041759490967,-0.8106021881103516,-0.6756625771522522,0.5692058801651001,10.173515319824219,-0.6198298335075378
3_20251106_182818,1762424861439,3,0.11232451349496841,0.1442343294620514,0.7012242674827576,0.689103901386261,0.5515936613082886,1.983378529548645,-1.283335566520691,0.0639226883649826,9.274332046508789,-1.5277200937271118,0.1226998120546341,-0.2538715600967407,-0.2522833049297333,4.70240592956543,-24.77698516845703,34.86737823486328,-0.40422654151916504,-0.7193460464477539,-0.7263122200965881,0.46814924478530884,9.993678092956543,-0.8014078736305237
3_20251106_182818,1762424861458,3,0.1143505647778511,0.1444428712129593,0.7016571164131165,0.6882859468460083,0.5515936613082886,1.983378529548645,-1.283335566520691,0.0639226883649826,9.274332046508789,-1.5277200937271118,-0.07705295085906982,-0.3516099154949188,-0.036648064851760864,4.828680038452148,-24.705039978027344,34.751953125,-0.40422654151916504,-0.7193460464477539,-0.7263122200965881,0.46814924478530884,9.993678092956543,-0.8014078736305237
3_20251106_182818,1762424861478,3,0.11622726172208786,0.1455671191215515,0.7012187242507935,0.688181459903717,0.5473504066467285,1.9941681623458862,-1.2861132621765137,0.33325880765914917,10.107478141784668,-0.9675009250640869,-0.0006948588415980339,-0.3894835114479065,-0.017100393772125244,4.968167781829834,-24.596115112304688,34.78649139404297,-0.06411263346672058,0.16744709014892578,-0.1166420578956604,0.39737144112586975,9.940031051635742,-0.8508588671684265
3_20251106_182818,1762424861495,3,0.11896802484989166,0.1480206400156021,0.7009139657020569,0.6874998807907104,0.5434458255767822,2.0010764598846436,-1.2911475896835327,-0.25449246168136597,10.494125366210938,-2.1370182037353516,0.16240601241588593,-0.5654125809669495,-0.08796069771051407,5.096655368804932,-24.486366271972656,34.658348083496094,-0.5214911699295044,0.44327545166015625,-1.0289274454116821,0.26699867844581604,10.050849914550781,-1.1080907583236694
3_20251106_182818,1762424861514,3,0.12218589335680008,0.15043194591999054,0.7017611265182495,0.6855451464653015,0.5434458255767822,2.0010764598846436,-1.2911475896835327,-0.25449246168136597,10.494125366210938,-2.1370182037353516,-0.06911170482635498,-0.48416754603385925,-0.10323231667280197,5.287384033203125,-24.34766387939453,34.54669952392578,-0.5214911699295044,0.44327545166015625,-1.0289274454116821,0.26699867844581604,10.050849914550781,-1.1080907583236694
3_20251106_182818,1762424861534,3,0.12538354098796844,0.15190443396568298,0.7014070153236389,0.6850053071975708,0.5364547371864319,2.009948253631592,-1.3004720211029053,-0.5956515073776245,10.533628463745117,-2.3129842281341553,-0.54925137758255,-0.06328175961971283,-0.11239529401063919,5.521823883056641,-24.2938232421875,34.44867706298828,-0.6901201605796814,0.38622283935546875,-0.9639147520065308,0.09446866065263748,10.147405624389648,-1.3490694761276245
3_20251106_182818,1762424861553,3,0.12654578685760498,0.14992624521255493,0.6984734535217285,0.6882173418998718,0.5284220576286316,2.0281429290771484,-1.3101199865341187,1.1304936408996582,10.393572807312012,0.4653671979904175,-0.6329398155212402,0.28307855129241943,-0.29504385590553284,5.803585529327393,-24.273536682128906,34.25721740722656,0.8005730509757996,0.09185218811035156,1.4138648509979248,0.32992058992385864,10.30172061920166,-0.9484975934028625
3_20251106_182818,1762424861572,3,0.12666615843772888,0.144557923078537,0.695400595664978,0.6924425959587097,0.5273218750953674,2.0351240634918213,-1.3086878061294556,0.8455958962440491,9.641825675964355,0.40671175718307495,-0.6329398155212402,0.28307855129241943,-0.29504385590553284,6.010524272918701,-24.283531188964844,34.10282897949219,0.4125402569770813,-0.5279159545898438,1.08416748046875,0.4330556392669678,10.1697416305542,-0.677455723285675
3_20251106_182818,1762424861591,3,0.12731081247329712,0.138136088848114,0.6953601241111755,0.6936747431755066,0.5237236618995667,2.038511276245117,-1.3075876235961914,-0.4974935054779053,8.987039566040039,-0.7723818421363831,0.41163885593414307,0.05278252810239792,-0.5198420286178589,6.1792120933532715,-24.309814453125,34.081871032714844,-0.7444393634796143,-0.946162223815918,-0.07594090700149536,0.2469458281993866,9.933201789855957,-0.6964409351348877
3_20251106_182818,1762424861610,3,0.12940248847007751,0.13460521399974823,0.6987724900245667,0.6905457973480225,0.5152841210365295,2.0384206771850586,-1.310163140296936,-1.5832172632217407,8.727279663085938,-2.016116142272949,0.7274558544158936,-0.18728730082511902,-0.26327887177467346,6.337913990020752,-24.310699462890625,33.95281982421875,-1.4641305208206177,-0.9647378921508789,-1.0557401180267334,-0.11908678710460663,9.692017555236816,-0.960375964641571
3_20251106_182818,1762424861631,3,0.13108345866203308,0.13446101546287537,0.7038499712944031,0.685078501701355,0.5014838576316833,2.036001205444336,-1.3189029693603516,-1.8824795484542847,8.925990104675293,-2.9881200790405273,0.7604426145553589,-0.28319305181503296,0.06658806651830673,6.5478835105896,-24.258583068847656,33.867340087890625,-1.4107141494750977,-0.6128215789794922,-1.6221952438354492,-0.47176533937454224,9.538811683654785,-1.3659248352050781
3_20251106_182818,1762424861650,3,0.13129428029060364,0.13697472214698792,0.7087960243225098,0.6794173717498779,0.5014838576316833,2.036001205444336,-1.3189029693603516,-1.8824795484542847,8.925990104675293,-2.9881200790405273,0.5551920533180237,-0.31923407316207886,0.34392067790031433,6.6877665519714355,-24.14911651611328,33.847808837890625,-1.4107141494750977,-0.6128215789794922,-1.6221952438354492,-0.47176533937454224,9.538811683654785,-1.3659248352050781
3_20251106_182818,1762424861668,3,0.13026969134807587,0.14132004976272583,0.712116539478302,0.6752395629882812,0.46965306997299194,2.0315768718719482,-1.349920630455017,-0.867381751537323,10.100296020507812,-3.0778989791870117,0.19600358605384827,-0.29357779026031494,0.5033563375473022,6.790894031524658,-24.04230499267578,33.853843688964844,-0.13329803943634033,0.48326778411865234,-1.0336084365844727,-0.7340837121009827,9.61702823638916,-2.044290542602539
3_20251106_182818,1762424861686,3,0.12851642072200775,0.14621271193027496,0.712966799736023,0.6736347079277039,0.45704421401023865,2.0345399379730225,-1.3653182983398438,-0.1264081597328186,11.303330421447754,-2.1513826847076416,-0.17723476886749268,-0.07122301310300827,0.4752565920352936,6.8242316246032715,-23.87774658203125,33.885292053222656,0.4861404299736023,1.3490419387817383,-0.08567357063293457,-0.6125485897064209,9.954288482666016,-2.065709114074707
3_20251106_182818,1762424861705,3,0.12552393972873688,0.14877410233020782,0.711692750453949,0.6749840378761292,0.44680148363113403,2.04411244392395,-1.377817988395691,0.2626328766345978,12.36032485961914,-0.9938360452651978,-0.4289110004901886,0.30873483419418335,0.2773364186286926,6.76975679397583,-23.7569580078125,33.966575622558594,0.7001451849937439,1.9248294830322266,0.8574984073638916,-0.4375123083591461,10.435495376586914,-1.8513344526290894
3_20251106_182818,1762424861725,3,0.12151379138231277,0.147340327501297,0.7093364000320435,0.6785035729408264,0.44680148363113403,2.04411244392395,-1.377817988395691,0.2626328766345978,12.36032485961914,-0.9938360452651978,-0.42035889625549316,0.6337148547172546,0.07941623032093048,6.687991619110107,-23.68811798095703,34.05934143066406,0.7001451849937439,1.9248294830322266,0.8574984073638916,-0.4375123083591461,10.435495376586914,-1.8513344526290894
3_20251106_182818,1762424861744,3,0.1169205754995346,0.1428840458393097,0.7073786854743958,0.6822969317436218,0.43253830075263977,2.0850820541381836,-1.3830496072769165,-0.019870758056640625,13.462807655334473,0.8496201038360596,-0.026962045580148697,0.7510008811950684,0.0525381863117218,6.508738040924072,-23.625633239746094,34.14817810058594,0.21672724187374115,1.989192008972168,1.8192036151885986,-0.23659799993038177,11.473615646362305,-0.9695835113525391
3_20251106_182818,1762424861763,3,0.11113578081130981,0.13779786229133606,0.7079090476036072,0.6837583184242249,0.42643865942955017,2.1109061241149902,-1.3782925605773926,-0.38736492395401,13.58969497680664,0.6904125213623047,0.5173184275627136,0.6294388175010681,0.28222334384918213,6.231403827667236,-23.5703125,34.31419372558594,-0.12061354517936707,1.6928634643554688,1.327996850013733,-0.26675137877464294,11.896831512451172,-0.6375843286514282
3_20251106_182818,1762424861783,3,0.10395704209804535,0.1354479193687439,0.7114328145980835,0.6816965341567993,0.4208065867424011,2.146080255508423,-1.3694278001785278,0.06990793347358704,13.851848602294922,0.43424391746520996,1.055490255355835,0.38081687688827515,0.7391501069068909,5.910457134246826,-23.43000030517578,34.45306396484375,0.26932746171951294,1.5640134811401367,0.8574625849723816,-0.1994195282459259,12.287835121154785,-0.42321866750717163
3_20251106_182818,1762424861802,3,0.09481672942638397,0.13815653324127197,0.7175660133361816,0.6760336756706238,0.42055344581604004,2.180250406265259,-1.3620699644088745,1.5602344274520874,14.532970428466797,-0.36658215522766113,1.5881643295288086,0.06499982625246048,1.213792085647583,5.587197780609131,-23.32762908935547,34.61817169189453,1.4077231884002686,1.7961082458496094,0.045309215784072876,0.15251122415065765,12.736862182617188,-0.411891371011734
3_20251106_182818,1762424861820,3,0.08410228788852692,0.1466699093580246,0.7260149121284485,0.6665711402893066,0.4287630319595337,2.2206289768218994,-1.3562653064727783,3.2373006343841553,14.965105056762695,-0.985456645488739,1.9736199378967285,-0.2654779851436615,1.4392011165618896,5.587197780609131,-23.32762908935547,34.61817169189453,2.467831611633301,1.7825937271118164,-0.45885223150253296,0.7694690823554993,13.182511329650879,-0.526604413986206
3_20251106_182818,1762424861839,3,0.0736420527100563,0.15942567586898804,0.735992968082428,0.653815507888794,0.4476417601108551,2.263859748840332,-1.353395700454712,4.807829856872559,14.957921981811523,-1.4906115531921387,2.154435873031616,-0.3827640414237976,1.3793363571166992,5.12891149520874,-23.010780334472656,34.984893798828125,3.2306885719299316,1.420328140258789,-0.771205723285675,1.5771411657333374,13.537593841552734,-0.7194058299064636
3_20251106_182818,1762424861860,3,0.06390474736690521,0.1727733165025711,0.7466295957565308,0.639225959777832,0.48246490955352783,2.313241958618164,-1.3555551767349243,6.052761077880859,14.72808837890625,-2.2627081871032715,2.192309617996216,-0.35038819909095764,1.0787909030914307,4.629436492919922,-22.559249877929688,35.37958526611328,3.580496072769165,0.9523954391479492,-1.2346419095993042,2.4722650051116943,13.7756929397583,-1.0280662775039673
3_20251106_182818,1762424861879,3,0.055550456047058105,0.18399596214294434,0.7574943900108337,0.623908519744873,0.523398756980896,2.355465888977051,-1.3610416650772095,6.482501029968262,13.695034980773926,-2.351289749145508,2.1391642093658447,-0.3064059317111969,0.6682897806167603,4.164511680603027,-21.918312072753906,35.833282470703125,3.208189010620117,-0.06452655792236328,-1.0585788488388062,3.2743120193481445,13.759561538696289,-1.2927109003067017
3_20251106_182818,1762424861897,3,0.0493008978664875,0.19214850664138794,0.768359363079071,0.608500063419342,0.5669511556625366,2.3902547359466553,-1.3694498538970947,6.000090599060059,12.4548921585083,-2.7020254135131836,2.1391642093658447,-0.3064059317111969,0.6682897806167603,3.7120766639709473,-21.051620483398438,36.318763732910156,2.1806230545043945,-1.0437355041503906,-1.1274516582489014,3.819467544555664,13.498627662658691,-1.5745737552642822
3_20251106_182818,1762424861916,3,0.044614002108573914,0.19762012362480164,0.7790685296058655,0.5933027267456055,0.6142032146453857,2.4184112548828125,-1.3830370903015137,5.123850345611572,11.045965194702148,-3.45377254486084,1.96690034866333,-0.1323094666004181,0.16738073527812958,3.3800997734069824,-19.9775390625,36.880462646484375,1.043506145477295,-1.9621305465698242,-1.503359079360962,4.080344200134277,13.008095741271973,-1.950413465499878
3_20251106_182818,1762424861935,3,0.039918363094329834,0.20044687390327454,0.7894355058670044,0.5788084268569946,0.6608455777168274,2.4364988803863525,-1.399297833442688,4.719247817993164,9.851309776306152,-3.1724658012390137,1.7585954666137695,-0.14391590654850006,0.1710459142923355,3.153872013092041,-18.746688842773438,37.476287841796875,0.5111231803894043,-2.5254287719726562,-0.9776420593261719,4.20812463760376,12.376738548278809,-2.194823741912842
3_20251106_182818,1762424861954,3,0.03577308729290962,0.20308135449886322,0.7985471487045288,0.5655092597007751,0.7066172957420349,2.444122791290283,-1.4158152341842651,4.740795135498047,8.892473220825195,-2.584714412689209,1.7133915424346924,-0.2752518057823181,0.20953039824962616,2.870436191558838,-17.456756591796875,38.0439453125,0.42613649368286133,-2.787412643432617,-0.31191253662109375,4.3146586418151855,11.679885864257812,-2.2728018760681152
3_20251106_182818,1762424861973,3,0.032533999532461166,0.20654860138893127,0.8070738911628723,0.5521873831748962,0.7503401041030884,2.4413137435913086,-1.4325135946273804,4.402029991149902,8.01623249053955,-2.6397788524627686,1.8227362632751465,-0.5079913139343262,0.20342175662517548,2.603329658508301,-16.079208374023438,38.722076416015625,0.06989717483520508,-2.9309234619140625,-0.2935817241668701,4.332132816314697,10.947155952453613,-2.3461971282958984
3_20251106_182818,1762424861992,3,0.03083382360637188,0.21108125150203705,0.8158315420150757,0.5375062227249146,0.7503401041030884,2.4413137435913086,-1.4325135946273804,4.402029991149902,8.01623249053955,-2.6397788524627686,1.838007926940918,-0.642992377281189,0.20403261482715607,2.531569004058838,-14.711639404296875,39.16423034667969,0.06989717483520508,-2.9309234619140625,-0.2935817241668701,4.332132816314697,10.947155952453613,-2.3461971282958984
3_20251106_182818,1762424862012,3,0.030134571716189384,0.21611705422401428,0.8244112730026245,0.5222368836402893,0.8272331953048706,2.4034981727600098,-1.47761070728302,3.0445756912231445,6.156017303466797,-4.799256324768066,1.6962873935699463,-0.7627218961715698,0.3139882981777191,2.5785398483276367,-13.39837646484375,39.55590057373047,-0.9376125335693359,-3.2411937713623047,-1.7549738883972168,3.9821882247924805,9.397211074829102,-3.0442824363708496
3_20251106_182818,1762424862031,3,0.030216166749596596,0.22243861854076385,0.8319059014320374,0.5074846148490906,0.8563950061798096,2.3701376914978027,-1.5054091215133667,2.578923225402832,5.450955390930176,-4.690324783325195,1.6962873935699463,-0.7627218961715698,0.3139882981777191,2.735283851623535,-12.077827453613281,39.9384765625,-1.1226119995117188,-3.1570043563842773,-1.3168339729309082,3.701535224914551,8.607959747314453,-3.373490810394287
3_20251106_182818,1762424862050,3,0.03160009905695915,0.2321075052022934,0.8371761441230774,0.49423032999038696,0.8819252252578735,2.330535650253296,-1.532333493232727,2.909309148788452,5.725079536437988,-3.561506748199463,1.2473018169403076,-1.3534280061721802,0.9511201977729797,3.014072895050049,-10.76068115234375,40.20404052734375,-0.6337807178497314,-2.3063039779663086,-0.15041279792785645,3.5430898666381836,8.031383514404297,-3.4110939502716064
3_20251106_182818,1762424862070,3,0.03450151905417442,0.2459704577922821,0.8406220078468323,0.48131367564201355,0.9067004919052124,2.2843592166900635,-1.5584814548492432,3.2947592735290527,5.868725776672363,-3.1557071208953857,1.2839536666870117,-1.5635656118392944,1.0946733951568604,3.465968608856201,-9.618759155273438,40.351356506347656,-0.19866442680358887,-1.7301263809204102,0.20430946350097656,3.4934237003326416,7.598852157592773,-3.3600165843963623
3_20251106_182818,1762424862089,3,0.038521334528923035,0.2622024416923523,0.8432069420814514,0.4677264094352722,0.9067004919052124,2.2843592166900635,-1.5584814548492432,3.2947592735290527,5.868725776672363,-3.1557071208953857,1.221645474433899,-1.545850396156311,1.0592432022094727,4.01332426071167,-8.519638061523438,40.393409729003906,-0.19866442680358887,-1.7301263809204102,0.20430946350097656,3.4934237003326416,7.598852157592773,-3.3600165843963623
3_20251106_182818,1762424862107,3,0.042669396847486496,0.2779797613620758,0.8451282978057861,0.454603910446167,0.9301134347915649,2.234973669052124,-1.5842366218566895,3.4527697563171387,5.783735275268555,-3.6608617305755615,1.221645474433899,-1.545850396156311,1.0592432022094727,4.749608993530273,-7.520416259765625,40.40038299560547,-0.032523155212402344,-1.4520936012268066,-0.2406761646270752,3.485292911529541,7.235828876495361,-3.4201855659484863
3_20251106_182818,1762424862127,3,0.04677527770400047,0.29170969128608704,0.8464924693107605,0.44290855526924133,0.9679849743843079,2.1387100219726562,-1.6345248222351074,3.0948519706726074,4.974530220031738,-4.93093204498291,0.7915966510772705,-1.3656452894210815,0.8167299032211304,5.5793375968933105,-6.601524353027344,40.28778839111328,-0.29987120628356934,-1.5039234161376953,-1.071643590927124,3.3947231769561768,6.478453636169434,-3.859288454055786
3_20251106_182818,1762424862145,3,0.05142412707209587,0.30407029390335083,0.8469172120094299,0.43316060304641724,0.9845671653747559,2.0842154026031494,-1.6647337675094604,2.8769888877868652,4.596261978149414,-5.312790393829346,0.4776121973991394,-1.316776156425476,0.7886301279067993,6.603330135345459,-5.90704345703125,40.110939025878906,-0.4141874313354492,-1.505753517150879,-1.162801742553711,3.2911763191223145,6.102015495300293,-4.149988651275635
3_20251106_182818,1762424862163,3,0.05674256384372711,0.31578969955444336,0.8460091948509216,0.4258233904838562,0.9982678890228271,2.0308759212493896,-1.6947585344314575,2.7943925857543945,4.358049392700195,-5.3020172119140625,0.1532430499792099,-1.3063914775848389,0.7935171127319336,9.228608131408691,-2.274871826171875,38.924774169921875,-0.3974268436431885,-1.3951725959777832,-0.9216232299804688,3.191819429397583,5.7532219886779785,-4.380393981933594
3_20251106_182818,1762424862184,3,0.06303422152996063,0.32746100425720215,0.8435741662979126,0.42092588543891907,1.0121127367019653,1.9653446674346924,-1.7294037342071533,2.7919983863830566,3.8397274017333984,-4.788482666015625,-0.11309397220611572,-1.3540388345718384,0.7867975234985352,10.281694412231445,-1.9402847290039062,38.634098052978516,-0.3198568820953369,-1.5307955741882324,-0.32647085189819336,3.1118552684783936,5.370522975921631,-4.462011814117432
3_20251106_182818,1762424862203,3,0.07053173333406448,0.33900368213653564,0.8399121165275574,0.41791075468063354,1.022944688796997,1.90449059009552,-1.758563756942749,2.722569465637207,3.720022439956665,-4.236642837524414,-0.16196314990520477,-1.7089513540267944,0.8179516792297363,11.388365745544434,-1.7277069091796875,38.38378143310547,-0.3114287853240967,-1.3204004764556885,0.18029499053955078,3.0339982509613037,5.0404229164123535,-4.416937828063965
3_20251106_182818,1762424862223,3,0.08090057224035263,0.35219287872314453,0.835440456867218,0.4140706956386566,1.0312215089797974,1.839313268661499,-1.7847957611083984,2.1934735774993896,3.6182732582092285,-3.45377254486084,-0.028183769434690475,-2.1072351932525635,0.8961423635482788,12.60428237915039,-1.7563018798828125,37.93034744262695,-0.6724197864532471,-1.1377201080322266,0.7705321311950684,2.8658933639526367,4.755993366241455,-4.224304676055908
3_20251106_182818,1762424862241,3,0.09360858052968979,0.3674180209636688,0.8306137323379517,0.40782633423805237,1.0312215089797974,1.839313268661499,-1.7847957611083984,2.1934735774993896,3.6182732582092285,-3.45377254486084,0.05489383637905121,-2.220245122909546,0.9596722722053528,12.60428237915039,-1.7563018798828125,37.93034744262695,-0.6724197864532471,-1.1377201080322266,0.7705321311950684,2.8658933639526367,4.755993366241455,-4.224304676055908
3_20251106_182818,1762424862261,3,0.10685060918331146,0.38360795378685,0.8252657055854797,0.40045520663261414,1.0356501340866089,1.7738487720489502,-1.8077995777130127,1.7362006902694702,3.5895440578460693,-3.59382700920105,0.05489383637905121,-2.220245122909546,0.9596722722053528,13.89643669128418,-1.9424514770507812,37.46339797973633,-0.9037543535232544,-0.933159589767456,0.5043823719024658,2.6399550437927246,4.522703647613525,-4.098209381103516
3_20251106_182818,1762424862279,3,0.12056780606508255,0.3997783362865448,0.8190365433692932,0.39347153902053833,1.0323222875595093,1.654981017112732,-1.8450286388397217,0.6768119931221008,2.9910192489624023,-3.9768829345703125,-0.24076469242572784,-2.2251322269439697,1.0079305171966553,15.230570793151855,-2.2621994018554688,36.86034393310547,-1.3493025302886963,-1.011305809020996,0.0655827522277832,2.0261144638061523,4.002325057983398,-4.042465686798096
3_20251106_182818,1762424862299,3,0.13478246331214905,0.4155888557434082,0.8116027116775513,0.3878409266471863,1.0323222875595093,1.654981017112732,-1.8450286388397217,0.6768119931221008,2.9910192489624023,-3.9768829345703125,-0.5730750560760498,-2.1127331256866455,1.0415282249450684,16.644960403442383,-2.6760330200195312,36.17751693725586,-1.3493025302886963,-1.011305809020996,0.0655827522277832,2.0261144638061523,4.002325057983398,-4.042465686798096
3_20251106_182818,1762424862318,3,0.1493203490972519,0.4305284321308136,0.8025811314582825,0.38498345017433167,1.0135453939437866,1.5268138647079468,-1.8793338537216187,0.8096843957901001,3.091571569442749,-3.5854477882385254,-0.5730750560760498,-2.1127331256866455,1.0415282249450684,18.104141235351562,-3.3978042602539062,35.28779602050781,-0.7365707159042358,-0.5440020561218262,0.3432464599609375,1.546255111694336,3.635573625564575,-3.928694248199463
3_20251106_182818,1762424862336,3,0.1651444137096405,0.44574427604675293,0.791762113571167,0.3836040794849396,1.0026917457580566,1.4699970483779907,-1.8905197381973267,0.8719310164451599,3.110724449157715,-2.755892753601074,-0.8216969966888428,-2.1573262214660645,1.0867321491241455,19.580829620361328,-4.2548980712890625,34.274505615234375,-0.5394592881202698,-0.4198794364929199,0.9382412433624268,1.4113903045654297,3.5306038856506348,-3.694133996963501
3_20251106_182818,1762424862355,3,0.1818813532590866,0.4610135853290558,0.7800023555755615,0.38207587599754333,1.0026917457580566,1.4699970483779907,-1.8905197381973267,0.8719310164451599,3.110724449157715,-2.755892753601074,-0.880950927734375,-2.2697250843048096,1.0940625667572021,21.059520721435547,-5.0860748291015625,33.18064880371094,-0.5394592881202698,-0.4198794364929199,0.9382412433624268,1.4113903045654297,3.5306038856506348,-3.694133996963501
3_20251106_182818,1762424862375,3,0.19849489629268646,0.47579410672187805,0.7680019736289978,0.3799903392791748,0.9726666212081909,1.3583821058273315,-1.8978228569030762,-0.3059656023979187,3.7942395210266113,-1.2308518886566162,-0.6359941959381104,-2.2416255474090576,1.0219805240631104,22.56659507751465,-6.076759338378906,31.949668884277344,-1.2289637327194214,0.2340378761291504,1.701951265335083,0.9229981303215027,3.560201644897461,-2.932803153991699
3_20251106_182818,1762424862393,3,0.21389064192771912,0.4897409677505493,0.7567199468612671,0.3765362501144409,0.9726666212081909,1.3583821058273315,-1.8978228569030762,-0.3059656023979187,3.7942395210266113,-1.2308518886566162,-0.42096978425979614,-1.947799563407898,0.9217987060546875,23.9483585357666,-7.161262512207031,30.509193420410156,-1.2289637327194214,0.2340378761291504,1.701951265335083,0.9229981303215027,3.560201644897461,-2.932803153991699
3_20251106_182818,1762424862413,3,0.22661079466342926,0.5018752813339233,0.7469450235366821,0.37261494994163513,0.9223465919494629,1.264164686203003,-1.8850239515304565,-1.7795332670211792,5.105008125305176,-1.6522133350372314,-0.45151299238204956,-1.649086594581604,0.8539927005767822,25.22578239440918,-8.377426147460938,29.03512191772461,-1.8228942155838013,1.1152758598327637,0.7060015201568604,0.04336094856262207,3.989732265472412,-2.358214855194092
3_20251106_182818,1762424862432,3,0.23787148296833038,0.5123610496520996,0.7375831604003906,0.36996540427207947,0.9223465919494629,1.264164686203003,-1.8850239515304565,-1.7795332670211792,5.105008125305176,-1.6522133350372314,-0.8253622055053711,-1.5140854120254517,0.8820924758911133,26.345380783081055,-9.603103637695312,27.473575592041016,-1.8228942155838013,1.1152758598327637,0.7060015201568604,0.04336094856262207,3.989732265472412,-2.358214855194092
3_20251106_182818,1762424862451,3,0.24994783103466034,0.5215395092964172,0.7268451452255249,0.37043049931526184,0.8862701654434204,1.223040223121643,-1.876507043838501,-2.2128653526306152,5.091840744018555,-2.1178653240203857,-1.333601713180542,-1.365645408630371,1.0299217700958252,27.38784408569336,-10.897010803222656,25.97534942626953,-1.8049811124801636,0.8816866874694824,0.19227957725524902,-0.40788426995277405,4.210154056549072,-2.3101449012756348
3_20251106_182818,1762424862470,3,0.2629619538784027,0.5298797488212585,0.71365886926651,0.37519267201423645,0.8189210891723633,1.172013759613037,-1.8620948791503906,-1.774745225906372,7.687044143676758,-1.9766135215759277,-1.6946227550506592,-1.2789026498794556,1.023813009262085,28.221399307250977,-12.264778137207031,24.22417449951172,-0.8525738716125488,2.5492749214172363,0.26210832595825195,-0.9221713542938232,5.1377692222595215,-2.2387218475341797
3_20251106_182818,1762424862489,3,0.2770487368106842,0.5367223620414734,0.6990771293640137,0.38270652294158936,0.7816606163978577,1.1606611013412476,-1.8506182432174683,-2.0380959510803223,8.608772277832031,-0.7687907814979553,-1.7392158508300781,-1.133516788482666,0.7745802402496338,29.35564613342285,-13.925323486328125,22.418685913085938,-0.8927396535873413,2.7768020629882812,1.1759448051452637,-1.145356297492981,5.83197021484375,-1.9447356462478638
3_20251106_182818,1762424862509,3,0.2912944257259369,0.5409056544303894,0.6855456829071045,0.39063501358032227,0.7403143048286438,1.1573169231414795,-1.8343985080718994,-2.4893836975097656,8.466323852539062,-0.38453781604766846,-1.4563854932785034,-0.8738992214202881,0.5174062252044678,30.004297256469727,-15.342674255371094,20.659358978271484,-1.0752220153808594,2.10748291015625,1.2481582164764404,-1.4141616821289062,6.3588409423828125,-1.6326960325241089
3_20251106_182818,1762424862528,3,0.3033430576324463,0.5427117347717285,0.6748862266540527,0.39746129512786865,0.7018321752548218,1.1609439849853516,-1.8207231760025024,-2.685699701309204,8.993024826049805,-1.71086847782135,-1.2627413272857666,-0.7346221208572388,0.4929716885089874,30.52696418762207,-16.618614196777344,18.95186996459961,-1.0172303915023804,2.107347011566162,-0.06253790855407715,-1.6684693098068237,6.885677814483643,-1.648330569267273
3_20251106_182818,1762424862546,3,0.3137827217578888,0.544533371925354,0.6650604605674744,0.40338361263275146,0.6611288189888,1.1717849969863892,-1.809733271598816,-2.4391074180603027,9.511346817016602,-2.6409759521484375,-1.3103888034820557,-0.8115910291671753,0.5833796262741089,30.84821891784668,-17.795852661132812,17.31951904296875,-0.6165105104446411,2.1005349159240723,-0.7941163778305054,-1.8225969076156616,7.410811901092529,-1.8468595743179321
3_20251106_182818,1762424862566,3,0.3244549632072449,0.5470771789550781,0.6542630195617676,0.40911543369293213,0.6184530258178711,1.1899614334106445,-1.800771713256836,-2.4714279174804688,9.823777198791504,-2.5140886306762695,-1.3580362796783447,-0.9313205480575562,0.6078141927719116,31.11075782775879,-18.939254760742188,15.671989440917969,-0.5190647840499878,1.9303722381591797,-0.5337831974029541,-1.952363133430481,7.893404960632324,-1.9803054332733154
3_20251106_182818,1762424862585,3,0.33597424626350403,0.5503214597702026,0.6424171328544617,0.41420748829841614,0.5775090456008911,1.2123186588287354,-1.7919775247573853,-2.8377249240875244,10.063186645507812,-1.722839117050171,-1.3409321308135986,-0.8250300884246826,0.4831978380680084,31.290616989135742,-20.03826141357422,14.049116134643555,-0.708289384841919,1.735825538635254,0.20597302913665771,-2.1294355392456055,8.327361106872559,-1.9288121461868286
3_20251106_182818,1762424862604,3,0.34717151522636414,0.5522624850273132,0.6314581036567688,0.4192120134830475,0.5355260968208313,1.2379558086395264,-1.782883882522583,-3.254298210144043,9.930315017700195,-1.659395456314087,-1.215093970298767,-0.46828508377075195,0.2626756727695465,31.451927185058594,-21.04974365234375,12.305463790893555,-0.8998901844024658,1.282362937927246,0.21553325653076172,-2.354408025741577,8.64795207977295,-1.8749287128448486
3_20251106_182818,1762424862624,3,0.35647472739219666,0.5515767931938171,0.6232352256774902,0.4245782196521759,0.49119293689727783,1.2648310661315918,-1.7767999172210693,-3.976119041442871,9.566411972045898,-2.806168556213379,-1.215093970298767,-0.46828508377075195,0.2626756727695465,31.45819091796875,-21.7496337890625,10.940261840820312,-1.2973687648773193,0.7347679138183594,-0.7449917793273926,-2.6787502765655518,8.831644058227539,-2.0611767768859863
3_20251106_182818,1762424862643,3,0.3641616404056549,0.549639880657196,0.6169507503509521,0.4297139346599579,0.49119293689727783,1.2648310661315918,-1.7767999172210693,-3.976119041442871,9.566411972045898,-2.806168556213379,-1.1814963817596436,-0.10482057183980942,0.19914568960666656,31.436159133911133,-22.301490783691406,9.603788375854492,-1.2973687648773193,0.7347679138183594,-0.7449917793273926,-2.6787502765655518,8.831644058227539,-2.0611767768859863
3_20251106_182818,1762424862661,3,0.3714290261268616,0.5473049283027649,0.6103397607803345,0.43587052822113037,0.3951747715473175,1.3273751735687256,-1.7705506086349487,-4.495638847351074,10.986112594604492,-2.304605007171631,-1.4026293754577637,0.1462448388338089,0.2926080524921417,31.43115997314453,-22.753173828125,8.378047943115234,-1.1714274883270264,1.4935855865478516,-0.0630946159362793,-3.324211359024048,9.49252700805664,-2.2415103912353516
3_20251106_182818,1762424862681,3,0.37802597880363464,0.5435302257537842,0.6031873226165771,0.44478797912597656,0.3951747715473175,1.3273751735687256,-1.7705506086349487,-4.495638847351074,10.986112594604492,-2.304605007171631,-1.4026293754577637,0.1462448388338089,0.2926080524921417,31.43115997314453,-22.753173828125,8.378047943115234,-1.1714274883270264,1.4935855865478516,-0.0630946159362793,-3.324211359024048,9.49252700805664,-2.2415103912353516
3_20251106_182818,1762424862701,3,0.3825138211250305,0.5386132597923279,0.596878170967102,0.4553189277648926,0.29279401898384094,1.4058743715286255,-1.7601872682571411,-4.0144243240356445,11.32487678527832,-2.047239303588867,-1.221813440322876,0.5860674381256104,0.44654592871665955,31.425765991210938,-23.205398559570312,7.20637321472168,-0.4064950942993164,1.2140741348266602,0.045232534408569336,-3.607929229736328,10.11080265045166,-2.0924718379974365
3_20251106_182818,1762424862719,3,0.38489294052124023,0.5340065956115723,0.5911319851875305,0.4661087691783905,0.24967548251152039,1.4459664821624756,-1.7531018257141113,-3.5727131366729736,12.336383819580078,-0.993835985660553,-1.232809066772461,0.6379909515380859,0.46670448780059814,31.40238380432129,-23.51136016845703,6.32072639465332,0.028172969818115234,1.7804651260375977,0.8789086937904358,-3.600886106491089,10.55591869354248,-1.8727446794509888
3_20251106_182818,1762424862739,3,0.386821448802948,0.5292541980743408,0.5853576064109802,0.4770908057689667,0.20517143607139587,1.497061014175415,-1.7396211624145508,-3.268662929534912,13.44245719909668,0.10146418958902359,-1.333601713180542,1.1083568334579468,0.31154483556747437,31.3358097076416,-23.70855712890625,5.543622970581055,0.2657785415649414,2.3092308044433594,1.5793670415878296,-3.5344414710998535,11.13322639465332,-1.477902889251709
3_20251106_182818,1762424862757,3,0.3872349262237549,0.5207676887512207,0.5815074443817139,0.49061107635498047,0.16769534349441528,1.547261357307434,-1.7228060960769653,-3.30098295211792,13.778829574584961,0.6700626611709595,-1.333601713180542,1.1083568334579468,0.31154483556747437,31.30188751220703,-23.95508575439453,4.915615081787109,0.1867668628692627,2.116482734680176,1.7183724641799927,-3.4877498149871826,11.662346839904785,-1.0483098030090332
3_20251106_182818,1762424862777,3,0.38493263721466064,0.5072120428085327,0.5808546543121338,0.5071199536323547,0.16769534349441528,1.547261357307434,-1.7228060960769653,-3.30098295211792,13.778829574584961,0.6700626611709595,-1.4576072692871094,1.96662175655365,0.13256146013736725,31.2371826171875,-24.068565368652344,4.559364318847656,0.1867668628692627,2.116482734680176,1.7183724641799927,-3.4877498149871826,11.662346839904785,-1.0483098030090332
3_20251106_182818,1762424862795,3,0.3817615807056427,0.4925377666950226,0.5799398422241211,0.52472323179245,0.1268775761127472,1.6100096702575684,-1.696692943572998,-3.2734508514404297,13.78361701965332,1.1823997497558594,-1.3213844299316406,2.0613057613372803,0.40561801195144653,31.14652442932129,-24.185791015625,4.418392181396484,0.17143917083740234,1.6970157623291016,1.7845675945281982,-3.444890022277832,12.086601257324219,-0.6021679043769836
3_20251106_182818,1762424862814,3,0.3754037320613861,0.47857195138931274,0.5788979530334473,0.5430636405944824,0.06647469103336334,1.7183656692504883,-1.6371182203292847,-2.232017993927002,13.307191848754883,2.2070741653442383,-0.9292092323303223,2.1175053119659424,0.8313906788825989,31.01954460144043,-24.270294189453125,4.533550262451172,0.9068601131439209,0.7729425430297852,1.8373697996139526,-3.138878107070923,12.534249305725098,0.36970439553260803
3_20251106_182818,1762424862833,3,0.3644656538963318,0.46766796708106995,0.5778455138206482,0.5608440041542053,0.06647469103336334,1.7183656692504883,-1.6371182203292847,-2.232017993927002,13.307191848754883,2.2070741653442383,-0.6720352172851562,2.270221471786499,1.1588141918182373,30.852001190185547,-24.409019470214844,4.808376312255859,0.9068601131439209,0.7729425430297852,1.8373697996139526,-3.138878107070923,12.534249305725098,0.36970439553260803
3_20251106_182818,1762424862853,3,0.3494334816932678,0.45839935541152954,0.5768752098083496,0.5787756443023682,0.04337545111775398,1.782299518585205,-1.5950804948806763,-0.784785270690918,13.776433944702148,2.3734641075134277,-0.6720352172851562,2.270221471786499,1.1588141918182373,30.5810604095459,-24.631736755371094,5.307472229003906,1.8832743167877197,0.9937477111816406,1.6030077934265137,-2.6680595874786377,12.782686233520508,0.7704563140869141
3_20251106_182818,1762424862872,3,0.3317197263240814,0.44769108295440674,0.5766291618347168,0.5975227952003479,0.03417271003127098,1.8409343957901,-1.554776668548584,1.2142871618270874,14.124775886535645,2.290867328643799,-0.5229841470718384,2.7864019870758057,1.097727656364441,30.0753231048584,-24.873992919921875,6.2432861328125,3.10587739944458,1.0736713409423828,1.2163288593292236,-1.8915903568267822,13.051104545593262,1.0745384693145752
3_20251106_182818,1762424862891,3,0.3127022981643677,0.4355291426181793,0.5772305727005005,0.6159030199050903,0.040489014238119125,1.9031970500946045,-1.510953426361084,3.2133593559265137,14.24448013305664,2.2322120666503906,-0.3501094579696655,2.7772390842437744,0.9584505558013916,29.51742935180664,-25.17046356201172,7.257181167602539,4.083959579467773,0.9547004699707031,0.9261388778686523,-0.8706004619598389,13.289779663085938,1.3060731887817383
3_20251106_182818,1762424862910,3,0.29324769973754883,0.42304202914237976,0.5788207054138184,0.6324617266654968,0.09485073387622833,2.010815143585205,-1.4300782680511475,6.591433048248291,13.624408721923828,2.2812910079956055,-0.04040106385946274,2.625744581222534,0.7690824866294861,28.822200775146484,-25.503341674804688,8.521961212158203,5.023155689239502,0.16666412353515625,0.5881321430206299,1.568277359008789,13.457744598388672,1.6931588649749756
3_20251106_182818,1762424862929,3,0.2745417058467865,0.41163983941078186,0.5816972851753235,0.645606517791748,0.14570099115371704,2.062701940536499,-1.3914700746536255,7.551466941833496,13.138406753540039,1.047133207321167,0.24731622636318207,2.474250078201294,0.5418407917022705,28.0367488861084,-25.918067932128906,9.876338958740234,4.7865519523620605,-0.25547027587890625,-0.5168205499649048,2.7649149894714355,13.393877029418945,1.5639537572860718
3_20251106_182818,1762424862949,3,0.2566324770450592,0.4007249176502228,0.5863342881202698,0.6555695533752441,0.2120448648929596,2.1127967834472656,-1.3584468364715576,7.861502647399902,12.80443000793457,-0.2732122540473938,0.2870224416255951,2.3050405979156494,0.3604140281677246,27.03146743774414,-26.336151123046875,11.384347915649414,4.0772705078125,-0.4715576171875,-1.4697327613830566,3.7842323780059814,13.27598762512207,1.1965205669403076
3_20251106_182818,1762424862967,3,0.2405082732439041,0.3901955187320709,0.5911714434623718,0.663641095161438,0.2120448648929596,2.1127967834472656,-1.3584468364715576,7.861502647399902,12.80443000793457,-0.2732122540473938,0.12636500597000122,2.0900161266326904,0.20953039824962616,25.97834587097168,-26.744583129882812,12.863626480102539,4.0772705078125,-0.4715576171875,-1.4697327613830566,3.7842323780059814,13.27598762512207,1.1965205669403076
3_20251106_182818,1762424862985,3,0.22691230475902557,0.37980321049690247,0.5950067043304443,0.6709898114204407,0.348087340593338,2.1923301219940186,-1.3103948831558228,6.982868194580078,12.438133239746094,0.9513692855834961,0.07871755957603455,1.9507392644882202,0.02016235515475273,24.83036994934082,-27.097801208496094,14.46194839477539,1.9496393203735352,-0.5865993499755859,0.019500374794006348,5.033228874206543,13.02473258972168,0.9318689107894897
3_20251106_182818,1762424863005,3,0.2154611349105835,0.3689248859882355,0.5987575054168701,0.677466094493866,0.4212043881416321,2.2268197536468506,-1.2860422134399414,6.420254707336426,11.80728816986084,1.26499605178833,0.22776855528354645,1.9397436380386353,-0.06963475793600082,23.7285099029541,-27.28485107421875,16.0111083984375,1.1096205711364746,-0.9739561080932617,0.2665017247200012,5.310634136199951,12.781244277954102,0.9984943270683289
3_20251106_182818,1762424863024,3,0.2039826363325119,0.3574138581752777,0.6035987734794617,0.6828725934028625,0.4212043881416321,2.2268197536468506,-1.2860422134399414,6.420254707336426,11.80728816986084,1.26499605178833,0.3798738718032837,1.916530728340149,0.041542619466781616,22.64353370666504,-27.418319702148438,17.305004119873047,1.1096205711364746,-0.9739561080932617,0.2665017247200012,5.310634136199951,12.781244277954102,0.9984943270683289
3_20251106_182818,1762424863043,3,0.19137153029441833,0.34674862027168274,0.608833909034729,0.6873598694801331,0.5669447779655457,2.278254747390747,-1.2429922819137573,6.024031639099121,10.542007446289062,0.10146418958902359,0.4458472728729248,1.733882188796997,0.30787965655326843,21.55071258544922,-27.465492248535156,18.681354522705078,0.43627214431762695,-1.540750503540039,-0.685185432434082,5.587759494781494,12.082757949829102,0.7866496443748474
3_20251106_182818,1762424863064,3,0.1777041107416153,0.3387601375579834,0.6132460236549377,0.6910803914070129,0.6435139179229736,2.2953341007232666,-1.224355936050415,6.557915687561035,10.409133911132812,0.3420711159706116,0.4220235347747803,1.4058479070663452,0.610257625579834,21.55071258544922,-27.465492248535156,18.681354522705078,0.7761249542236328,-1.3388996124267578,-0.35566282272338867,5.781790733337402,11.74803352355957,0.6977339386940002
3_20251106_182818,1762424863082,3,0.1640188992023468,0.33465030789375305,0.6159033179283142,0.694096565246582,0.7061731219291687,2.305128574371338,-1.210355281829834,7.499993324279785,10.22718334197998,0.5467665195465088,0.5722962617874146,1.0790352821350098,0.7623629570007324,19.505220413208008,-27.26025390625,21.161190032958984,1.3745622634887695,-1.2166805267333984,-0.12077397108078003,6.125431060791016,11.443863868713379,0.6675404906272888
3_20251106_182818,1762424863101,3,0.15068507194519043,0.33379366993904114,0.6183487772941589,0.6953564286231995,0.7829263210296631,2.3125076293945312,-1.1963119506835938,8.33673095703125,10.27027702331543,0.1397697776556015,0.8050357103347778,0.7986483573913574,0.6982221603393555,19.505220413208008,-27.26025390625,21.161190032958984,1.7690401077270508,-0.9388694763183594,-0.42221659421920776,6.567690849304199,11.209146499633789,0.5619863867759705
3_20251106_182818,1762424863119,3,0.13852083683013916,0.33476585149765015,0.6219188570976257,0.6942339539527893,0.8535401225090027,2.315800428390503,-1.1869274377822876,8.594096183776855,9.984182357788086,-0.5030457377433777,0.8618460893630981,0.5646871328353882,0.49236080050468445,18.55082893371582,-27.04497528076172,22.209819793701172,1.621124267578125,-0.9799718856811523,-0.8520256876945496,6.9729719161987305,10.964154243469238,0.3489799499511719
3_20251106_182818,1762424863140,3,0.12878930568695068,0.3362188935279846,0.6261007785797119,0.6916415095329285,0.9365510940551758,2.3159687519073486,-1.180413007736206,8.38940143585205,9.925527572631836,-0.8106874823570251,0.778157651424408,0.3765408396720886,0.2956623435020447,17.544662475585938,-26.894981384277344,23.187583923339844,1.133143424987793,-0.8309011459350586,-0.9277339577674866,7.256258010864258,10.756428718566895,0.11704646050930023
3_20251106_182818,1762424863160,3,0.12171556800603867,0.33771419525146484,0.6300985813140869,0.6885566115379333,0.9365510940551758,2.3159687519073486,-1.180413007736206,8.38940143585205,9.925527572631836,-0.8106874823570251,0.6767541170120239,0.20733129978179932,0.12339849025011063,16.676856994628906,-26.672386169433594,24.063934326171875,1.133143424987793,-0.8309011459350586,-0.9277339577674866,7.256258010864258,10.756428718566895,0.11704646050930023
3_20251106_182818,1762424863178,3,0.11716924607753754,0.33915072679519653,0.6337754726409912,0.6852567791938782,1.081715703010559,2.3082101345062256,-1.1759032011032104,7.54667854309082,9.550849914550781,-0.631130039691925,0.6058938503265381,0.019795836880803108,-0.021987315267324448,15.805824279785156,-26.512176513671875,24.898414611816406,0.09776639938354492,-0.8081521987915039,-0.4614039361476898,7.448912143707275,10.359002113342285,-0.16972610354423523
3_20251106_182818,1762424863196,3,0.11486293375492096,0.34068042039871216,0.6372686624526978,0.6816392540931702,1.081715703010559,2.3082101345062256,-1.1759032011032104,7.54667854309082,9.550849914550781,-0.631130039691925,0.6065046787261963,-0.19583940505981445,-0.06841302663087845,15.155834197998047,-26.323760986328125,25.606822967529297,0.09776639938354492,-0.8081521987915039,-0.4614039361476898,7.448912143707275,10.359002113342285,-0.16972610354423523
3_20251106_182818,1762424863216,3,0.1142510250210762,0.3432380259037018,0.6406553387641907,0.6772702932357788,1.2065322399139404,2.291191339492798,-1.1755093336105347,6.232317924499512,9.422765731811523,-0.3653850555419922,0.6101698875427246,-0.3986465036869049,-0.02198731154203415,14.631511688232422,-26.075828552246094,26.186031341552734,-0.8751506805419922,-0.5882740020751953,-0.10300448536872864,7.107468605041504,10.011039733886719,-0.26238057017326355
3_20251106_182818,1762424863235,3,0.11456362158060074,0.34716448187828064,0.6437298655509949,0.6722825765609741,1.2591036558151245,2.2804501056671143,-1.1747040748596191,5.772651195526123,9.319819450378418,0.02724713459610939,0.6669802665710449,-0.5495300889015198,0.03665570169687271,14.193381309509277,-25.821121215820312,26.64702606201172,-1.0678539276123047,-0.5529766082763672,0.23170216381549835,6.840505123138428,9.872796058654785,-0.20445503294467926
3_20251106_182818,1762424863254,3,0.11525911837816238,0.35226914286613464,0.6468185782432556,0.6665189266204834,1.3050066232681274,2.2679502964019775,-1.1746104955673218,5.368048667907715,9.03611946105957,-0.4491785168647766,0.7549448013305664,-0.6203904151916504,0.07758364081382751,13.92856216430664,-25.516815185546875,27.03458023071289,-1.1779651641845703,-0.6693410873413086,-0.19577878713607788,6.546013832092285,9.705460548400879,-0.25339972972869873
3_20251106_182818,1762424863273,3,0.11581071466207504,0.35794201493263245,0.6502079963684082,0.6600719094276428,1.3445417881011963,2.2534050941467285,-1.176191806793213,5.061603546142578,8.73206901550293,-0.8621605634689331,0.7549448013305664,-0.6203904151916504,0.07758364081382751,13.907958984375,-25.195953369140625,27.364360809326172,-1.187528133392334,-0.7787132263183594,-0.487008661031723,6.249131679534912,9.510782241821289,-0.3751519024372101
3_20251106_182818,1762424863291,3,0.11668355017900467,0.36464089155197144,0.653216540813446,0.6532458662986755,1.3769340515136719,2.237816095352173,-1.1791296005249023,4.953869819641113,8.496249198913574,-0.9902448058128357,0.7500578761100769,-0.7193504571914673,0.14172442257404327,14.046676635742188,-24.85193634033203,27.673748016357422,-1.0362091064453125,-0.8116264343261719,-0.4920743405818939,5.990078926086426,9.307875633239746,-0.4981704652309418
3_20251106_182818,1762424863312,3,0.11797809600830078,0.37285420298576355,0.6553342342376709,0.6462182402610779,1.4093303680419922,2.217625617980957,-1.184159278869629,4.944293022155762,8.438791275024414,-1.0273534059524536,0.6724780797958374,-1.0150090456008911,0.3298707902431488,14.246607780456543,-24.515151977539062,27.850162506103516,-0.8366289138793945,-0.6952676773071289,-0.4233463406562805,5.780921936035156,9.134058952331543,-0.6040070652961731
3_20251106_182818,1762424863330,3,0.11971676349639893,0.3822709918022156,0.6568173170089722,0.6388488411903381,1.4093303680419922,2.217625617980957,-1.184159278869629,4.944293022155762,8.438791275024414,-1.0273534059524536,0.6339936256408691,-1.076095461845398,0.3255947530269623,14.506553649902344,-24.198837280273438,27.960918426513672,-0.8366289138793945,-0.6952676773071289,-0.4233463406562805,5.780921936035156,9.134058952331543,-0.6040070652961731
3_20251106_182818,1762424863350,3,0.12201303988695145,0.39193785190582275,0.6578831076622009,0.6314169764518738,1.4572598934173584,2.1780786514282227,-1.1977061033248901,4.938307762145996,8.303524017333984,-1.454699993133545,0.603450357913971,-1.1585623025894165,0.28527766466140747,14.885836601257324,-23.924407958984375,28.034976959228516,-0.5383152961730957,-0.5520353317260742,-0.5869626998901367,5.476623058319092,8.855559349060059,-0.8677372932434082
3_20251106_182818,1762424863369,3,0.1251293271780014,0.40170374512672424,0.6587396264076233,0.6237298250198364,1.476632833480835,2.157334327697754,-1.206616759300232,4.7898736000061035,8.29155445098877,-1.4774439334869385,0.5851243734359741,-1.2477484941482544,0.21441732347011566,15.276081085205078,-23.685638427734375,27.98708724975586,-0.5493998527526855,-0.4512033462524414,-0.4877653121948242,5.339273452758789,8.742757797241211,-0.9896786212921143
3_20251106_182818,1762424863388,3,0.1292979121208191,0.4115162193775177,0.6595252752304077,0.6155995726585388,1.4931423664093018,2.1358537673950195,-1.2175040245056152,4.648621559143066,8.096435546875,-1.8724703788757324,0.5600789785385132,-1.297228455543518,0.11851156502962112,15.713251113891602,-23.48095703125,27.899818420410156,-0.5525217056274414,-0.5170574188232422,-0.7062333822250366,5.201143264770508,8.613492965698242,-1.1662369966506958
3_20251106_182818,1762424863406,3,0.13445736467838287,0.42090141773223877,0.6603392958641052,0.6072192192077637,1.4931423664093018,2.1358537673950195,-1.2175040245056152,4.648621559143066,8.096435546875,-1.8724703788757324,0.5081554651260376,-1.4096275568008423,0.06719893217086792,16.137529373168945,-23.289627075195312,27.81179428100586,-0.5525217056274414,-0.5170574188232422,-0.7062333822250366,5.201143264770508,8.613492965698242,-1.1662369966506958
3_20251106_182818,1762424863425,3,0.14079786837100983,0.4304848313331604,0.6608193516731262,0.5984784960746765,1.516028642654419,2.091684341430664,-1.2447315454483032,3.874130964279175,7.938424110412598,-2.2447524070739746,0.4415712356567383,-1.5635656118392944,0.07147499173879623,16.703489303588867,-23.187744140625,27.57886505126953,-0.9337518215179443,-0.41787147521972656,-0.6988687515258789,4.807882785797119,8.356295585632324,-1.5458836555480957
3_20251106_182818,1762424863444,3,0.14832977950572968,0.44079041481018066,0.6605827808380127,0.5893492102622986,1.521601676940918,2.0692639350891113,-1.260277509689331,3.431222677230835,8.066509246826172,-2.0939242839813232,0.3371133804321289,-1.5837241411209106,0.09041179716587067,17.332975387573242,-23.055160522460938,27.186721801757812,-1.1013281345367432,-0.2318286895751953,-0.4384324550628662,4.532550811767578,8.298337936401367,-1.655491828918457
3_20251106_182818,1762424863464,3,0.1564035564661026,0.45104044675827026,0.6594968438148499,0.5806585550308228,1.5232771635055542,2.0456838607788086,-1.2765012979507446,3.2504682540893555,7.916877746582031,-1.8784555196762085,0.2540357708930969,-1.5085877180099487,0.0885792002081871,17.983915328979492,-22.971351623535156,26.80801773071289,-1.0256662368774414,-0.30516815185546875,-0.17837095260620117,4.276134490966797,8.2220458984375,-1.7000845670700073
3_20251106_182818,1762424863482,3,0.16441458463668823,0.4605547785758972,0.6579251289367676,0.5727055072784424,1.5232771635055542,2.0456838607788086,-1.2765012979507446,3.2504682540893555,7.916877746582031,-1.8784555196762085,0.2564792037010193,-1.454831600189209,0.06231202185153961,18.697887420654297,-22.857513427734375,26.33768081665039,-1.0256662368774414,-0.30516815185546875,-0.17837095260620117,4.276134490966797,8.2220458984375,-1.7000845670700073
3_20251106_182818,1762424863503,3,0.17217068374156952,0.46944475173950195,0.6564316153526306,0.5648685097694397,1.5211395025253296,2.0213871002197266,-1.292525291442871,3.049363851547241,7.598462104797363,-1.901199460029602,0.2564792037010193,-1.454831600189209,0.06231202185153961,18.697887420654297,-22.857513427734375,26.33768081665039,-0.9814164638519287,-0.4988670349121094,-0.16089189052581787,4.03078031539917,8.097329139709473,-1.7403075695037842
3_20251106_182818,1762424863522,3,0.1799841821193695,0.4786009192466736,0.6548377871513367,0.5565378069877625,1.5057340860366821,1.9715466499328613,-1.3245739936828613,2.2413554191589355,7.1208391189575195,-2.551197052001953,0.2607552707195282,-1.5941087007522583,0.11912243813276291,19.43440055847168,-22.79096221923828,25.732105255126953,-1.2067124843597412,-0.6375946998596191,-0.5923244953155518,3.4480679035186768,7.758433818817139,-1.9588725566864014
3_20251106_182818,1762424863541,3,0.18833276629447937,0.4884878993034363,0.6525565385818481,0.547795832157135,1.5057340860366821,1.9715466499328613,-1.3245739936828613,2.2413554191589355,7.1208391189575195,-2.551197052001953,0.15141044557094574,-1.7333859205245972,0.1612720936536789,20.14501953125,-22.762863159179688,25.043659210205078,-1.2067124843597412,-0.6375946998596191,-0.5923244953155518,3.4480679035186768,7.758433818817139,-1.9588725566864014
3_20251106_182818,1762424863560,3,0.19788657128810883,0.4991331696510315,0.6490804553031921,0.5388891696929932,1.4742628335952759,1.9162529706954956,-1.3611812591552734,1.494396686553955,6.391836166381836,-2.518876791000366,0.15141044557094574,-1.7333859205245972,0.1612720936536789,20.84304428100586,-22.747711181640625,24.31391143798828,-1.2909536361694336,-0.9424233436584473,-0.31722426414489746,2.7853503227233887,7.334259510040283,-2.2016525268554688
3_20251106_182818,1762424863579,3,0.20759063959121704,0.5105980634689331,0.6447235345840454,0.5296483039855957,1.4538111686706543,1.8868352174758911,-1.3787455558776855,1.401026725769043,6.4804182052612305,-2.254328727722168,0.12575413286685944,-1.8262373208999634,0.25656700134277344,21.583370208740234,-22.842529296875,23.597267150878906,-1.1074588298797607,-0.6830730438232422,-0.042140960693359375,2.5084855556488037,7.163491249084473,-2.2121877670288086
3_20251106_182818,1762424863598,3,0.21656624972820282,0.5218268036842346,0.6396191716194153,0.5212323665618896,1.4313502311706543,1.8563278913497925,-1.3954946994781494,1.4034209251403809,6.230234622955322,-2.2351760864257812,0.06466767191886902,-1.7407163381576538,0.34208807349205017,22.299001693725586,-22.962570190429688,22.73043441772461,-0.8840517997741699,-0.746605396270752,-0.018390655517578125,2.287472724914551,6.976840019226074,-2.216785430908203
3_20251106_182818,1762424863616,3,0.22525858879089355,0.5320969820022583,0.6337449550628662,0.5142943859100342,1.4086991548538208,1.8253852128982544,-1.4117666482925415,1.2980806827545166,5.561083793640137,-2.7032222747802734,-0.09232456982135773,-1.732775092124939,0.5094649791717529,22.951885223388672,-23.12384796142578,21.819808959960938,-0.7915136814117432,-1.1326045989990234,-0.38914966583251953,2.0895943641662598,6.69368839263916,-2.314072608947754
3_20251106_182818,1762424863636,3,0.23374693095684052,0.5432984232902527,0.6269185543060303,0.5071117281913757,1.3820122480392456,1.7901828289031982,-1.4303622245788574,1.1759815216064453,5.85795259475708,-2.7810306549072266,-0.14791326224803925,-1.9587950706481934,0.7098286151885986,23.55510902404785,-23.312744140625,20.839111328125,-0.7308902740478516,-0.6685886383056641,-0.3735663890838623,1.9068717956542969,6.526541233062744,-2.4074642658233643
3_20251106_182818,1762424863655,3,0.24310219287872314,0.5569844841957092,0.6177282333374023,0.4990805685520172,1.3820122480392456,1.7901828289031982,-1.4303622245788574,1.1759815216064453,5.85795259475708,-2.7810306549072266,-0.2994076609611511,-1.9099258184432983,0.7428152561187744,24.081876754760742,-23.580535888671875,19.732242584228516,-0.7308902740478516,-0.6685886383056641,-0.3735663890838623,1.9068717956542969,6.526541233062744,-2.4074642658233643
3_20251106_182818,1762424863675,3,0.25272393226623535,0.5699847340583801,0.6075437664985657,0.4920758008956909,1.3266218900680542,1.723552942276001,-1.464685320854187,0.9808624982833862,6.275722503662109,-2.396777629852295,-0.2994076609611511,-1.9099258184432983,0.7428152561187744,24.541357040405273,-23.9769287109375,18.525665283203125,-0.6029884815216064,-0.13466787338256836,0.02848196029663086,1.5838509798049927,6.410390377044678,-2.425259590148926
3_20251106_182818,1762424863693,3,0.26202648878097534,0.5806843042373657,0.5977769494056702,0.48663192987442017,1.3266218900680542,1.723552942276001,-1.464685320854187,0.9808624982833862,6.275722503662109,-2.396777629852295,-0.5248168110847473,-1.4157363176345825,0.5290126800537109,24.98804473876953,-24.38653564453125,17.30481719970703,-0.6029884815216064,-0.13466787338256836,0.02848196029663086,1.5838509798049927,6.410390377044678,-2.425259590148926
3_20251106_182818,1762424863713,3,0.2710774838924408,0.5892692804336548,0.5883797407150269,0.4827919006347656,1.270082950592041,1.6656960248947144,-1.4937599897384644,0.7701818346977234,6.766512870788574,-2.144200325012207,-0.5248168110847473,-1.4157363176345825,0.5290126800537109,25.43311309814453,-24.83313751220703,16.01559829711914,-0.5278348326683044,0.28192901611328125,0.21875810623168945,1.2980166673660278,6.484583854675293,-2.3629584312438965
3_20251106_182818,1762424863731,3,0.2807476818561554,0.5966362357139587,0.5788195133209229,0.479764461517334,1.242918848991394,1.6419813632965088,-1.5049747228622437,0.6732208728790283,6.974799156188965,-1.8808495998382568,-0.6720352172851562,-1.3234957456588745,0.4019528329372406,25.723583221435547,-25.22687530517578,14.680774688720703,-0.49983668327331543,0.39217185974121094,0.38568711280822754,1.1730575561523438,6.582627296447754,-2.2665367126464844
3_20251106_182818,1762424863751,3,0.29065969586372375,0.6033668518066406,0.5693973898887634,0.4767095148563385,1.242918848991394,1.6419813632965088,-1.5049747228622437,0.6732208728790283,6.974799156188965,-1.8808495998382568,-0.6610396504402161,-1.210485816001892,0.2987166941165924,25.876667022705078,-25.703475952148438,13.217325210571289,-0.49983668327331543,0.39217185974121094,0.38568711280822754,1.1730575561523438,6.582627296447754,-2.2665367126464844
3_20251106_182818,1762424863769,3,0.300279438495636,0.6087936758995056,0.5608885288238525,0.4739268124103546,1.185623288154602,1.6022642850875854,-1.5217102766036987,0.5642893314361572,7.61522102355957,-1.4104092121124268,-0.6805872917175293,-0.9551442861557007,0.11912243813276291,25.981218338012695,-26.171371459960938,11.819759368896484,-0.4083814024925232,0.6945691108703613,0.5866101980209351,0.9726707339286804,6.920651912689209,-1.9970194101333618
3_20251106_182818,1762424863789,3,0.30960822105407715,0.6120822429656982,0.5537521839141846,0.4720768928527832,1.1544634103775024,1.586003065109253,-1.52874755859375,0.11300171166658401,7.523047924041748,-1.971825361251831,-0.6805872917175293,-0.9551442861557007,0.11912243813276291,26.041860580444336,-26.55467987060547,10.435596466064453,-0.6877352595329285,0.4819169044494629,0.02015531063079834,0.8007369637489319,7.041131019592285,-1.9919806718826294
3_20251106_182818,1762424863809,3,0.31823083758354187,0.613472580909729,0.5484362840652466,0.4707421064376831,1.121500849723816,1.5713467597961426,-1.536219596862793,-0.30476856231689453,7.301593780517578,-2.2507376670837402,-0.6390485167503357,-0.661318302154541,-0.07879773527383804,26.06525230407715,-26.941314697265625,9.144575119018555,-0.8844044208526611,0.20837020874023438,-0.20700550079345703,0.5796358585357666,7.093223571777344,-2.043732166290283
3_20251106_182818,1762424863827,3,0.32661983370780945,0.6143748164176941,0.5434946417808533,0.4695494472980499,1.121500849723816,1.5713467597961426,-1.536219596862793,-0.30476856231689453,7.301593780517578,-2.2507376670837402,-0.7526693344116211,-0.5941232442855835,0.038488294929265976,26.06346321105957,-27.129287719726562,7.842790603637695,-0.8844044208526611,0.20837020874023438,-0.20700550079345703,0.5796358585357666,7.093223571777344,-2.043732166290283
3_20251106_182818,1762424863846,3,0.3348245322704315,0.6152461767196655,0.5375264883041382,0.4694996774196625,1.0553996562957764,1.5518308877944946,-1.5448131561279297,-0.7704207897186279,8.159878730773926,-0.8789193034172058,-0.8137558102607727,-0.42674627900123596,0.24068452417850494,26.012645721435547,-27.309226989746094,6.674470901489258,-0.8680583238601685,0.7519922256469727,0.8860617280006409,0.09763756394386292,7.407886505126953,-1.7649810314178467
3_20251106_182818,1762424863865,3,0.3417990803718567,0.6161049604415894,0.5305215120315552,0.471312016248703,1.0553996562957764,1.5518308877944946,-1.5448131561279297,-0.7704207897186279,8.159878730773926,-0.8789193034172058,-0.6537092328071594,-0.16407443583011627,0.3671335279941559,25.8992919921875,-27.518524169921875,5.530202865600586,-0.8680583238601685,0.7519922256469727,0.8860617280006409,0.09763756394386292,7.407886505126953,-1.7649810314178467
3_20251106_182818,1762424863883,3,0.3459574580192566,0.6166750192642212,0.5243595838546753,0.47441795468330383,1.0193320512771606,1.5463290214538574,-1.5434309244155884,-0.40651771426200867,8.384923934936523,-0.39531129598617554,-0.40020036697387695,-0.0803859755396843,0.4166135787963867,25.851306915283203,-27.636619567871094,4.457817077636719,-0.4033242464065552,0.7816300392150879,1.095735788345337,-0.003193482756614685,7.6032938957214355,-1.4910470247268677
3_20251106_182818,1762424863903,3,0.3479839861392975,0.6178808808326721,0.5192319750785828,0.4769994914531708,0.9562292098999023,1.5388247966766357,-1.5378450155258179,-0.1898517608642578,7.886951446533203,-1.3493597507476807,-0.40020036697387695,-0.0803859755396843,0.4166135787963867,25.697309494018555,-27.664108276367188,3.653453826904297,-0.12233421951532364,0.1851797103881836,0.016175508499145508,-0.06751754134893417,7.7017717361450195,-1.3655352592468262
3_20251106_182818,1762424863923,3,0.3495602309703827,0.6201298832893372,0.5134246945381165,0.47920945286750793,0.9258907437324524,1.538488745689392,-1.5339999198913574,0.4002935290336609,8.721294403076172,-1.028550386428833,-0.5553600192070007,-0.10909662395715714,0.6664571762084961,25.697309494018555,-27.664108276367188,3.653453826904297,0.3742488622665405,0.8156180381774902,0.2695878744125366,0.02604466676712036,7.905676364898682,-1.2981382608413696
3_20251106_182818,1762424863942,3,0.3513879179954529,0.6223278045654297,0.505962610244751,0.48294562101364136,0.9022728204727173,1.5423706769943237,-1.5277178287506104,1.3974357843399048,9.431144714355469,-0.2732122838497162,-0.7031892538070679,0.13463841378688812,0.6792854070663452,25.297386169433594,-27.826446533203125,2.174345016479492,1.0971128940582275,1.2203750610351562,0.8199408054351807,0.30032286047935486,8.210769653320312,-1.0931531190872192
3_20251106_182818,1762424863960,3,0.35279351472854614,0.6228042840957642,0.4985257387161255,0.48900270462036133,0.8853482604026794,1.5501134395599365,-1.521430253982544,2.059403896331787,9.936300277709961,-0.8358254432678223,-0.7716060876846313,0.44740113615989685,0.4483785331249237,25.297386169433594,-27.826446533203125,2.174345016479492,1.4072648286819458,1.3804244995117188,0.2058621644973755,0.6521390676498413,8.555875778198242,-1.0416876077651978
3_20251106_182818,1762424863980,3,0.35413414239883423,0.6203540563583374,0.4930274784564972,0.49666258692741394,0.870728075504303,1.5612491369247437,-1.5148735046386719,1.7194418907165527,9.530499458312988,-1.0680530071258545,-0.8155883550643921,0.378984272480011,0.26572999358177185,25.069692611694336,-27.84789276123047,1.5430145263671875,0.8538422584533691,0.779698371887207,-0.02109229564666748,0.8655996322631836,8.750801086425781,-1.046960711479187
3_20251106_182818,1762424863999,3,0.35675477981567383,0.6172555088996887,0.48814406991004944,0.5034253001213074,0.870728075504303,1.5612491369247437,-1.5148735046386719,1.7194418907165527,9.530499458312988,-1.0680530071258545,-0.8155883550643921,0.378984272480011,0.26572999358177185,24.715330123901367,-27.941818237304688,1.0811710357666016,0.8538422584533691,0.779698371887207,-0.02109229564666748,0.8655996322631836,8.750801086425781,-1.046960711479187
3_20251106_182818,1762424864018,3,0.35981285572052,0.6149128675460815,0.4823974072933197,0.5096170902252197,0.8526328802108765,1.586898684501648,-1.504235029220581,2.1204535961151123,9.610702514648438,-1.3098570108413696,-0.8937790393829346,0.2794133424758911,0.28161248564720154,24.376678466796875,-27.97216796875,0.6211376190185547,0.8615226745605469,0.5664253234863281,-0.20196259021759033,1.2589309215545654,9.04427719116211,-1.1078944206237793
3_20251106_182818,1762424864037,3,0.36331307888031006,0.6121274828910828,0.47661638259887695,0.515887975692749,0.8526328802108765,1.586898684501648,-1.504235029220581,2.1204535961151123,9.610702514648438,-1.3098570108413696,-0.8937790393829346,0.2794133424758911,0.28161248564720154,24.06241226196289,-27.98931121826172,0.25696372985839844,0.8615226745605469,0.5664253234863281,-0.20196259021759033,1.2589309215545654,9.04427719116211,-1.1078944206237793
3_20251106_182818,1762424864056,3,0.3673762083053589,0.6069468259811401,0.4720682203769684,0.5232608318328857,0.8462893962860107,1.616390347480774,-1.4991872310638428,2.079753875732422,9.756742477416992,-1.4163944721221924,-1.0593234300613403,0.3673778772354126,0.11667897552251816,23.725465774536133,-27.994140625,-0.24309062957763672,0.49276697635650635,0.48394107818603516,-0.14553606510162354,1.5869868993759155,9.272801399230957,-1.2708584070205688
3_20251106_182818,1762424864075,3,0.3742799162864685,0.6008342504501343,0.4663964509963989,0.5304593443870544,0.8462893962860107,1.616390347480774,-1.4991872310638428,2.079753875732422,9.756742477416992,-1.4163944721221924,-1.3042802810668945,0.36554527282714844,-0.050087086856365204,23.452157974243164,-27.956520080566406,-0.8209981918334961,0.49276697635650635,0.48394107818603516,-0.14553606510162354,1.5869868993759155,9.272801399230957,-1.2708584070205688
3_20251106_182818,1762424864094,3,0.3824961185455322,0.5941651463508606,0.4600692093372345,0.5375879406929016,0.8434261679649353,1.646836280822754,-1.4866162538528442,1.5973429679870605,9.458677291870117,0.5300078392028809,-1.3690319061279297,0.3050696551799774,-0.07329994440078735,23.2790584564209,-27.862449645996094,-1.3804101943969727,-0.03263533115386963,0.09061431884765625,1.3224396705627441,1.6299782991409302,9.368062973022461,-0.7924318313598633
3_20251106_182818,1762424864113,3,0.3902284801006317,0.5876780152320862,0.453802227973938,0.5444445013999939,0.8408928513526917,1.6597870588302612,-1.4755089282989502,1.2094988822937012,8.897260665893555,0.3301006257534027,-1.1595052480697632,0.3637126684188843,-0.0036613717675209045,23.126306533813477,-27.6173095703125,-1.895615577697754,-0.3363834619522095,-0.37664222717285156,0.8980259895324707,1.5458823442459106,9.273902893066406,-0.5679253339767456
3_20251106_182818,1762424864132,3,0.3960929214954376,0.5816072225570679,0.4484941363334656,0.5510866045951843,0.8371363282203674,1.6697334051132202,-1.4641286134719849,1.0538824796676636,8.414850234985352,-0.2660299837589264,-1.009843349456787,0.29896098375320435,0.15699604153633118,22.99549102783203,-27.43187713623047,-2.5598392486572266,-0.39359986782073975,-0.6872415542602539,0.24151626229286194,1.4474823474884033,9.102091789245605,-0.5075462460517883
3_20251106_182818,1762424864151,3,0.4005299508571625,0.5771014094352722,0.44284728169441223,0.5571498870849609,0.8327833414077759,1.6768009662628174,-1.4526941776275635,1.1616170406341553,8.234095573425293,-0.2803945541381836,-1.0342780351638794,0.2794133424758911,0.3359794318675995,22.950794219970703,-27.216583251953125,-3.1390037536621094,-0.22869229316711426,-0.69439697265625,0.18172135949134827,1.3903093338012695,8.928492546081543,-0.46211591362953186
3_20251106_182818,1762424864171,3,0.4042755365371704,0.5735069513320923,0.43590980768203735,0.5635900497436523,0.8282701969146729,1.682408094406128,-1.4397695064544678,1.25259268283844,8.524978637695312,0.28940093517303467,-1.1882158517837524,0.3105674386024475,0.45021113753318787,22.95626449584961,-26.961380004882812,-3.6208009719848633,-0.11017334461212158,-0.3228111267089844,0.6012134552001953,1.3627660274505615,8.847789764404297,-0.31181254982948303
3_20251106_182818,1762424864190,3,0.4080132246017456,0.5695407390594482,0.42764002084732056,0.5712027549743652,0.8238741755485535,1.6893254518508911,-1.4218546152114868,1.323218584060669,9.427553176879883,1.7426189184188843,-1.3256604671478271,0.25253528356552124,0.5998729467391968,22.86565589904785,-26.687423706054688,-4.105993270874023,-0.03163790702819824,0.46381092071533203,1.643545150756836,1.3548564910888672,8.96374225616455,0.09907372295856476
3_20251106_182818,1762424864209,3,0.41178634762763977,0.5656852126121521,0.4176224172115326,0.579675555229187,0.8202662467956543,1.699465036392212,-1.3956645727157593,1.6141016483306885,10.023683547973633,2.821160316467285,-1.1992113590240479,0.26719605922698975,0.6169771552085876,22.781496047973633,-26.513259887695312,-4.579291343688965,0.20739614963531494,0.8479528427124023,2.1776692867279053,1.4067054986953735,9.17573070526123,0.6434910297393799
3_20251106_182818,1762424864228,3,0.4146498441696167,0.5618391633033752,0.40830227732658386,0.5879553556442261,0.8191260099411011,1.713073968887329,-1.366355538368225,2.1779117584228516,10.800569534301758,2.711031913757324,-0.9878522157669067,0.42235568165779114,0.41600272059440613,22.623626708984375,-26.34467315673828,-4.974433898925781,0.6169650554656982,1.2998714447021484,1.6540327072143555,1.5609467029571533,9.50069808959961,1.0569992065429688
3_20251106_182818,1762424864247,3,0.41689926385879517,0.5569232702255249,0.40175220370292664,0.59550541639328,0.8191260099411011,1.713073968887329,-1.366355538368225,2.1779117584228516,10.800569534301758,2.711031913757324,-0.9212679862976074,0.5787370204925537,0.12767453491687775,22.47713851928711,-26.18798065185547,-5.355834007263184,0.6169650554656982,1.2998714447021484,1.6540327072143555,1.5609467029571533,9.50069808959961,1.0569992065429688
3_20251106_182818,1762424864266,3,0.41978931427001953,0.5503373146057129,0.39763301610946655,0.6023236513137817,0.8193336725234985,1.7321337461471558,-1.3340634107589722,2.0043396949768066,11.293754577636719,2.038290023803711,-0.9872413873672485,0.6453213095664978,-0.03542633354663849,22.3374080657959,-26.11907196044922,-5.6710100173950195,0.35471439361572266,1.4344453811645508,0.7850327491760254,1.649625301361084,9.859309196472168,1.2532572746276855
3_20251106_182818,1762424864285,3,0.423678994178772,0.5425611138343811,0.3943191468715668,0.6087988018989563,0.8178638815879822,1.7800573110580444,-1.271030068397522,1.338780164718628,12.417783737182617,2.634420871734619,-1.0385539531707764,0.7027425765991211,-0.10873010009527206,22.16044044494629,-26.0418701171875,-5.798165321350098,-0.21273088455200195,1.7437219619750977,0.9605560302734375,1.5515110492706299,10.67406177520752,1.6738648414611816
3_20251106_182818,1762424864304,3,0.42802920937538147,0.5338133573532104,0.3914385437965393,0.6153131127357483,0.8151296973228455,1.8102800846099854,-1.2356092929840088,0.9353746175765991,12.36032485961914,3.1024670600891113,-1.0574908256530762,0.8090330362319946,-0.2254052609205246,22.072608947753906,-25.884307861328125,-5.866238594055176,-0.49290919303894043,1.3490104675292969,1.1428818702697754,1.4282838106155396,11.011314392089844,1.959585189819336
3_20251106_182818,1762424864324,3,0.4326299726963043,0.5237217545509338,0.38955166935920715,0.6219295263290405,0.8094753623008728,1.8413628339767456,-1.1991031169891357,0.3141059875488281,11.875519752502441,3.000717878341675,-1.0800929069519043,0.9495319128036499,-0.3286413848400116,21.956077575683594,-25.803810119628906,-5.923360824584961,-0.891342282295227,0.6913642883300781,0.8329060077667236,1.2054482698440552,11.184155464172363,2.167811870574951
3_20251106_182818,1762424864343,3,0.43729880452156067,0.5120905041694641,0.38868001103401184,0.6288568377494812,0.7995138168334961,1.87297523021698,-1.158576488494873,-0.2113986611366272,11.358394622802734,3.4903111457824707,-1.1344597339630127,1.0197813510894775,-0.27427443861961365,21.96281623840332,-25.69025421142578,-5.97504997253418,-1.1334775686264038,0.1393909454345703,1.057999610900879,0.9220789074897766,11.219003677368164,2.432311534881592
3_20251106_182818,1762424864363,3,0.4415174424648285,0.49987050890922546,0.3875710368156433,0.6363807916641235,0.7864335775375366,1.9033361673355103,-1.1151714324951172,-0.267659991979599,11.327271461486816,4.045742034912109,-1.1136903762817383,1.1663888692855835,-0.1172822043299675,21.96281623840332,-25.69025421142578,-5.97504997253418,-0.9517911672592163,0.08661365509033203,1.2907443046569824,0.6841311454772949,11.240657806396484,2.754997730255127
3_20251106_182818,1762424864381,3,0.4440411627292633,0.48718899488449097,0.38643285632133484,0.6450921893119812,0.7731420993804932,1.9298057556152344,-1.074289321899414,-0.17189602553844452,11.448173522949219,4.286348342895508,-1.1136903762817383,1.1663888692855835,-0.1172822043299675,22.164493560791016,-25.293121337890625,-5.554021835327148,-0.6848217844963074,0.16601276397705078,1.2250804901123047,0.5129257440567017,11.282160758972168,3.061267852783203
3_20251106_182818,1762424864400,3,0.4444260001182556,0.4736103117465973,0.38624700903892517,0.6549748778343201,0.7575603723526001,1.9568766355514526,-1.0316041707992554,-0.30835968255996704,11.474509239196777,3.6770505905151367,-0.9347070455551147,1.5267990827560425,0.17287851870059967,22.164493560791016,-25.293121337890625,-5.554021835327148,-0.657028317451477,0.15387821197509766,0.4926261901855469,0.3486686646938324,11.32063102722168,3.18442440032959
3_20251106_182818,1762424864419,3,0.4425707161426544,0.46014341711997986,0.38631492853164673,0.6657026410102844,0.7420060634613037,1.9865466356277466,-0.987599790096283,0.0746961385011673,12.761337280273438,4.443161964416504,-0.9347070455551147,1.5267990827560425,0.17287851870059967,22.32919692993164,-25.13507843017578,-5.2471208572387695,-0.2191780060529709,1.1525650024414062,1.0069901943206787,0.2938741445541382,11.608772277832031,3.436171770095825
3_20251106_182818,1762424864439,3,0.43896573781967163,0.44691306352615356,0.3854580521583557,0.6774953007698059,0.7277432680130005,2.022209644317627,-0.937688410282135,0.7187087535858154,13.580118179321289,5.379254341125488,-0.9664720296859741,1.6068223714828491,0.40561801195144653,22.45745277404785,-24.967666625976562,-4.860329627990723,0.3398677110671997,1.5770769119262695,1.5544662475585938,0.3788410425186157,12.00304126739502,3.8247880935668945
3_20251106_182818,1762424864458,3,0.4340771436691284,0.4323945939540863,0.3856036067008972,0.6898708343505859,0.716424286365509,2.0586533546447754,-0.8870155811309814,0.944951057434082,13.554981231689453,5.876029968261719,-0.7477824091911316,1.9580695629119873,0.3506401777267456,22.640703201293945,-24.89714813232422,-4.432648658752441,0.45288801193237305,1.2415523529052734,1.640993595123291,0.492063045501709,12.31342887878418,4.235036373138428
3_20251106_182818,1762424864476,3,0.4280508756637573,0.4171578586101532,0.3876149654388428,0.7017880082130432,0.7083250880241394,2.094259262084961,-0.8364024758338928,1.3399773836135864,13.453230857849121,6.268662452697754,-0.5309253931045532,2.13094425201416,0.3610248863697052,22.695058822631836,-24.948524475097656,-3.9176340103149414,0.6783314943313599,0.9118413925170898,1.6269006729125977,0.6616458892822266,12.541389465332031,4.641761779785156
3_20251106_182818,1762424864496,3,0.4199812412261963,0.4013947546482086,0.39165017008781433,0.7135181427001953,0.7031699419021606,2.1344733238220215,-0.7801896929740906,1.77809739112854,13.406546592712402,5.558812141418457,-0.3366704285144806,2.3111493587493896,0.34392067790031433,22.810245513916016,-24.996063232421875,-3.386651039123535,0.8931611776351929,0.6921262741088867,0.733640193939209,0.8849362134933472,12.714420318603516,4.825171947479248
3_20251106_182818,1762424864515,3,0.4105341136455536,0.3850984275341034,0.39739540219306946,0.7247329354286194,0.7016477584838867,2.1724421977996826,-0.728196918964386,2.0258865356445312,13.325146675109863,5.2846879959106445,-0.2578688859939575,2.3215339183807373,0.26511910557746887,22.85073471069336,-25.05052947998047,-2.642350196838379,0.9127602577209473,0.48858070373535156,0.3676128387451172,1.113126277923584,12.836565971374512,4.917075157165527
3_20251106_182818,1762424864533,3,0.40116798877716064,0.36888909339904785,0.40375638008117676,0.7348237037658691,0.7025017738342285,2.207831859588623,-0.6795903444290161,2.016310214996338,13.331131935119629,5.653378963470459,-0.2578688859939575,2.3215339183807373,0.26511910557746887,22.835838317871094,-25.221588134765625,-1.8618383407592773,0.722547173500061,0.39565277099609375,0.589043140411377,1.2937630414962769,12.935479164123535,5.064335823059082
3_20251106_182818,1762424864553,3,0.392397403717041,0.35242748260498047,0.41026297211647034,0.7439781427383423,0.7025017738342285,2.207831859588623,-0.6795903444290161,2.016310214996338,13.331131935119629,5.653378963470459,-0.20044763386249542,2.261669158935547,0.08980093151330948,22.76648712158203,-25.473190307617188,-0.8821277618408203,0.722547173500061,0.39565277099609375,0.589043140411377,1.2937630414962769,12.935479164123535,5.064335823059082
3_20251106_182818,1762424864572,3,0.3837401866912842,0.3359422981739044,0.4170280396938324,0.7523123621940613,0.7090568542480469,2.284271240234375,-0.5686669945716858,1.8223881721496582,13.702217102050781,6.976118564605713,-0.08071813732385635,2.331307888031006,0.01405370607972145,22.63580894470215,-25.72930145263672,0.14919662475585938,0.3216571807861328,0.5163764953613281,1.2867450714111328,1.5007309913635254,13.185840606689453,5.68937349319458
3_20251106_182818,1762424864592,3,0.37454497814178467,0.3187357187271118,0.4249463975429535,0.7599632740020752,0.7125408053398132,2.323077440261841,-0.5076845288276672,1.4357413053512573,13.734537124633789,7.705121994018555,-0.041011929512023926,2.373457670211792,-0.0024396423250436783,22.518924713134766,-25.95923614501953,1.1545066833496094,-0.05199170112609863,0.43895721435546875,1.6125988960266113,1.487733006477356,13.29557991027832,6.092523097991943
3_20251106_182818,1762424864610,3,0.3649981617927551,0.3011641204357147,0.4330769181251526,0.7671511769294739,0.7125408053398132,2.323077440261841,-0.5076845288276672,1.4357413053512573,13.734537124633789,7.705121994018555,0.04267653822898865,2.3056514263153076,0.19303706288337708,22.36651039123535,-26.155364990234375,2.3078155517578125,-0.05199170112609863,0.43895721435546875,1.6125988960266113,1.487733006477356,13.29557991027832,6.092523097991943
3_20251106_182818,1762424864630,3,0.35392820835113525,0.284955769777298,0.4407207667827606,0.7741448283195496,0.7191342711448669,2.3980844020843506,-0.37559449672698975,2.1635472774505615,14.456357955932617,9.864599227905273,0.3291721045970917,2.1602656841278076,0.5229039788246155,22.13897705078125,-26.382186889648438,3.5387516021728516,0.5782738924026489,0.8116559982299805,2.5409202575683594,1.5852733850479126,13.644701957702637,7.323678970336914
3_20251106_182818,1762424864650,3,0.339877724647522,0.27175626158714294,0.4487922787666321,0.7805236577987671,0.7291215062141418,2.436950445175171,-0.3047395944595337,3.7640023231506348,14.682600021362305,9.355852127075195,0.6553738117218018,2.085740327835083,0.6853940486907959,21.80258560180664,-26.59185028076172,4.846899032592773,1.742983102798462,0.8303184509277344,1.6257381439208984,2.021019220352173,13.85228157043457,7.730113983154297
3_20251106_182818,1762424864669,3,0.3237166702747345,0.26077619194984436,0.45824626088142395,0.7856294512748718,0.7484394907951355,2.4782168865203857,-0.23283983767032623,5.090332984924316,14.641901016235352,8.073812484741211,0.7659403681755066,2.1046769618988037,0.42150047421455383,21.377565383911133,-26.869583129882812,6.123260498046875,2.455451011657715,0.6316957473754883,0.27495908737182617,2.6348819732666016,14.010205268859863,7.798853397369385
3_20251106_182818,1762424864687,3,0.3090561032295227,0.2492358684539795,0.46883904933929443,0.7890220284461975,0.7701365351676941,2.5106606483459473,-0.1762828528881073,5.411142349243164,13.610044479370117,7.114976406097412,0.6963018178939819,2.0949032306671143,-0.08796071261167526,20.907930374145508,-27.075286865234375,7.412761688232422,2.22100830078125,-0.3201284408569336,-0.5471014976501465,3.190134048461914,13.93017292022705,7.662077903747559
3_20251106_182818,1762424864706,3,0.2982407510280609,0.2356743961572647,0.4798617362976074,0.7907229065895081,0.7701365351676941,2.5106606483459473,-0.1762828528881073,5.411142349243164,13.610044479370117,7.114976406097412,0.6089481115341187,1.9971648454666138,-0.5235072374343872,20.34846305847168,-27.14935302734375,8.714757919311523,2.22100830078125,-0.3201284408569336,-0.5471014976501465,3.190134048461914,13.93017292022705,7.662077903747559
3_20251106_182818,1762424864725,3,0.29123398661613464,0.22074832022190094,0.49069175124168396,0.7909958958625793,0.82939213514328,2.5658257007598877,-0.06785282492637634,4.148255348205566,11.41824722290039,5.580358982086182,0.612613320350647,1.810240387916565,-0.7134861946105957,19.776203155517578,-27.23663330078125,10.002483367919922,0.47299909591674805,-1.780965805053711,-1.4613900184631348,3.6752562522888184,13.199213027954102,7.041749000549316
3_20251106_182818,1762424864745,3,0.28644949197769165,0.206306591629982,0.5012562274932861,0.790016770362854,0.8539395332336426,2.5796358585357666,-0.029080934822559357,3.0912606716156006,10.41990852355957,4.981834411621094,0.5435855984687805,1.652637243270874,-0.6035305261611938,19.167905807495117,-27.302398681640625,11.410913467407227,-0.4671964645385742,-2.2234439849853516,-1.6479320526123047,3.558457136154175,12.643352508544922,6.629766464233398
3_20251106_182818,1762424864762,3,0.2816530168056488,0.19321495294570923,0.5105854868888855,0.7890766859054565,0.8753225207328796,2.5861165523529053,0.005293808877468109,2.3802132606506348,9.957846641540527,4.987819671630859,0.36032623052597046,1.5823878049850464,-0.24495293200016022,18.649423599243164,-27.29846954345703,12.688932418823242,-0.9425950050354004,-2.148405075073242,-1.3135576248168945,3.322808265686035,12.10625171661377,6.301377296447754
3_20251106_182818,1762424864783,3,0.2744990587234497,0.18146461248397827,0.5177165269851685,0.7897407412528992,0.8943827152252197,2.585219144821167,0.03993361070752144,2.310784339904785,9.808216094970703,5.867650985717773,0.2717508375644684,1.6227048635482788,0.13683749735355377,18.649423599243164,-27.29846954345703,12.688932418823242,-0.8096191883087158,-1.8384284973144531,-0.3469810485839844,3.120403528213501,11.646644592285156,6.214632034301758
3_20251106_182818,1762424864803,3,0.2644379436969757,0.1708833873271942,0.5234887003898621,0.7917265892028809,0.9092654585838318,2.5786144733428955,0.06759245693683624,2.861426830291748,9.261163711547852,5.9921441078186035,0.5026576519012451,1.6587458848953247,0.433106929063797,17.508296966552734,-27.220672607421875,15.066429138183594,-0.20718145370483398,-1.9083852767944336,-0.17799043655395508,3.068608283996582,11.169548988342285,6.170134544372559
3_20251106_182818,1762424864821,3,0.25134482979774475,0.1618349552154541,0.5303294062614441,0.7933384776115417,0.9270963072776794,2.564993381500244,0.09492947906255722,3.7663965225219727,8.98225212097168,5.558812141418457,0.8600135445594788,1.5829986333847046,0.6701223850250244,17.508296966552734,-27.220672607421875,15.066429138183594,0.5582306385040283,-1.749837875366211,-0.4890580177307129,3.2081658840179443,10.73208999633789,6.04787015914917
3_20251106_182818,1762424864840,3,0.2362104058265686,0.155464768409729,0.5390239357948303,0.793403148651123,0.9451959729194641,2.5497164726257324,0.114253930747509,4.367315292358398,9.257574081420898,4.403659820556641,1.0524358749389648,1.4064587354660034,0.7348740696907043,16.91092872619629,-27.13238525390625,16.140117645263672,0.9273195266723633,-1.1796131134033203,-1.31536865234375,3.439995765686035,10.437187194824219,5.719028472900391
3_20251106_182818,1762424864860,3,0.22138424217700958,0.15156610310077667,0.548401951789856,0.7920050621032715,0.9687094688415527,2.529432773590088,0.13152003288269043,4.470261573791504,9.437129974365234,4.4802703857421875,0.9791321754455566,1.2897835969924927,0.49602600932121277,16.310443878173828,-27.0947265625,17.253299713134766,0.8242125511169434,-0.8000450134277344,-0.9910068511962891,3.6460490226745605,10.237174987792969,5.471277236938477
3_20251106_182818,1762424864879,3,0.20902115106582642,0.1473451554775238,0.5572965145111084,0.7899494767189026,0.9892237782478333,2.507087469100952,0.14225251972675323,3.7568202018737793,8.44717025756836,3.973918914794922,0.9791321754455566,1.2745119333267212,0.05620336905121803,15.618294715881348,-26.97431182861328,18.242759704589844,0.08861684799194336,-1.4320039749145508,-1.1978864669799805,3.668203353881836,9.87917423248291,5.171805381774902
3_20251106_182818,1762424864897,3,0.19962380826473236,0.14061550796031952,0.5666637420654297,0.7869369983673096,0.9892237782478333,2.507087469100952,0.14225251972675323,3.7568202018737793,8.44717025756836,3.973918914794922,0.9907386302947998,1.2244211435317993,-0.1991380900144577,14.914170265197754,-26.842803955078125,19.299575805664062,0.08861684799194336,-1.4320039749145508,-1.1978864669799805,3.668203353881836,9.87917423248291,5.171805381774902
3_20251106_182818,1762424864916,3,0.1930014044046402,0.1331522911787033,0.5761725902557373,0.7829725742340088,1.0059833526611328,2.4776053428649902,0.1461305171251297,2.673490285873413,6.8706560134887695,2.86904239654541,0.9907386302947998,1.2244211435317993,-0.1991380900144577,14.197748184204102,-26.723838806152344,20.274539947509766,-0.7957704067230225,-2.4068145751953125,-1.8422107696533203,3.4692606925964355,9.277470588684082,4.7112531661987305
3_20251106_182818,1762424864935,3,0.18579989671707153,0.12712715566158295,0.585513174533844,0.7787755727767944,1.017202615737915,2.4389050006866455,0.14198186993598938,1.7553534507751465,5.380329608917236,1.8563385009765625,1.0408294200897217,0.8059787154197693,0.3451423943042755,13.386446952819824,-26.57288360595703,21.178791046142578,-1.3711256980895996,-3.1177124977111816,-2.2839317321777344,3.126479148864746,8.498042106628418,4.140270233154297
3_20251106_182818,1762424864954,3,0.1768610030412674,0.12497923523187637,0.5941309928894043,0.7746668457984924,1.0240892171859741,2.392512083053589,0.13010607659816742,1.7517623901367188,4.988894462585449,1.2482374906539917,1.038996934890747,0.5970630049705505,0.6444661021232605,12.570008277893066,-26.297149658203125,22.085189819335938,-1.0997734069824219,-2.8073182106018066,-2.313626289367676,2.8515357971191406,7.796212673187256,3.561863660812378
3_20251106_182818,1762424864973,3,0.16691099107265472,0.12608586251735687,0.6019887924194336,0.7706182599067688,1.0289390087127686,2.338458299636841,0.10954109579324722,2.1815032958984375,5.276185989379883,0.7035800218582153,0.9412585496902466,0.39120155572891235,0.6945569515228271,11.777730941772461,-26.031715393066406,22.924724578857422,-0.5360260009765625,-2.016021728515625,-2.2866268157958984,2.717529296875,7.292207717895508,2.9902069568634033
3_20251106_182818,1762424864993,3,0.15773460268974304,0.12885160744190216,0.6087319254875183,0.7667871117591858,1.0361826419830322,2.237372636795044,0.05774771049618721,2.6555347442626953,6.506752967834473,0.8376495838165283,0.7983161807060242,0.26780688762664795,0.5155736207962036,11.082756996154785,-25.748580932617188,23.890094757080078,-0.01707625389099121,-0.39581871032714844,-1.3324360847473145,2.6726109981536865,6.902571678161621,2.1700856685638428
3_20251106_182818,1762424865012,3,0.1510360985994339,0.13157522678375244,0.614353597164154,0.7631813287734985,1.0390512943267822,2.1909849643707275,0.02890884131193161,2.5226621627807617,6.810803413391113,0.770614743232727,0.7983161807060242,0.26780688762664795,0.5155736207962036,10.42017936706543,-25.348556518554688,24.629043579101562,-0.11995911598205566,-0.07341480255126953,-1.1195768117904663,2.6426212787628174,6.884218215942383,1.8901915550231934
3_20251106_182818,1762424865030,3,0.1467219591140747,0.13186407089233398,0.619277834892273,0.7599865198135376,1.0390512943267822,2.1909849643707275,0.02890884131193161,2.5226621627807617,6.810803413391113,0.770614743232727,0.6498761177062988,0.25620049238204956,0.1716568022966385,9.923568725585938,-25.02490234375,25.332462310791016,-0.11995911598205566,-0.07341480255126953,-1.1195768117904663,2.6426212787628174,6.884218215942383,1.8901915550231934
3_20251106_182818,1762424865050,3,0.14497187733650208,0.13010817766189575,0.623152494430542,0.7574536204338074,1.0378011465072632,2.0950984954833984,-0.03939659520983696,1.2083019018173218,6.379865646362305,0.6521068811416626,0.2503705620765686,0.20000094175338745,-0.24434207379817963,9.449499130249023,-24.74854278564453,25.90064239501953,-1.0476289987564087,-0.3643474578857422,-0.7824147939682007,2.2559309005737305,6.744213104248047,1.4345216751098633
3_20251106_182818,1762424865070,3,0.144527867436409,0.1276140958070755,0.6256533861160278,0.7558996081352234,1.031182885169983,2.0503664016723633,-0.07303164899349213,0.6983588337898254,6.395427703857422,0.8651816844940186,0.2503705620765686,0.20000094175338745,-0.24434207379817963,8.990013122558594,-24.444923400878906,26.334678649902344,-1.2460577487945557,-0.27902841567993164,-0.4554719924926758,1.9444165229797363,6.6744561195373535,1.3206536769866943
3_20251106_182818,1762424865089,3,0.1441572904586792,0.1260439157485962,0.6269940733909607,0.7551225423812866,1.031182885169983,2.0503664016723633,-0.07303164899349213,0.6983588337898254,6.395427703857422,0.8651816844940186,0.012744166888296604,0.056447722017765045,0.012221111916005611,8.626803398132324,-24.15979766845703,26.745079040527344,-1.2460577487945557,-0.27902841567993164,-0.4554719924926758,1.9444165229797363,6.6744561195373535,1.3206536769866943
3_20251106_182818,1762424865107,3,0.14301399886608124,0.1253643035888672,0.6272822618484497,0.7552136778831482,1.0189273357391357,2.0024728775024414,-0.10976819694042206,0.5918214917182922,7.031060695648193,1.391883373260498,-0.013523017056286335,0.05705858767032623,0.15210913121700287,8.378787994384766,-24.003372192382812,27.008800506591797,-1.082076072692871,0.28528356552124023,0.05698370933532715,1.673897624015808,6.745777130126953,1.334899663925171
3_20251106_182818,1762424865126,3,0.14094288647174835,0.12546104192733765,0.627139687538147,0.7557052969932556,0.9936538934707642,1.938204288482666,-0.16161303222179413,0.5726686716079712,8.025809288024902,1.7318453788757324,-0.01046869345009327,0.011854593642055988,0.30726879835128784,8.156949996948242,-23.8197021484375,27.219966888427734,-0.696359395980835,0.8971724510192871,0.265536904335022,1.2690280675888062,7.128636837005615,1.4663084745407104
3_20251106_182818,1762424865145,3,0.1379891186952591,0.12674486637115479,0.6267517805099487,0.756357729434967,0.9936538934707642,1.938204288482666,-0.16161303222179413,0.5726686716079712,8.025809288024902,1.7318453788757324,-0.060559600591659546,-0.023575561121106148,0.3909572660923004,7.993814945220947,-23.681488037109375,27.351428985595703,-0.696359395980835,0.8971724510192871,0.265536904335022,1.2690280675888062,7.128636837005615,1.4663084745407104
3_20251106_182818,1762424865165,3,0.13469241559505463,0.12870903313159943,0.625856876373291,0.7573606371879578,0.9777990579605103,1.9102399349212646,-0.1870652139186859,0.8252460956573486,8.642289161682129,1.9796346426010132,-0.060559600591659546,-0.023575561121106148,0.3909572660923004,7.847905158996582,-23.667388916015625,27.4947509765625,-0.3550255298614502,1.2109222412109375,0.41066086292266846,1.1802716255187988,7.431366920471191,1.5689737796783447
3_20251106_182818,1762424865184,3,0.13170059025287628,0.13036182522773743,0.6246358752250671,0.7586110830307007,0.9482108950614929,1.8758831024169922,-0.22828738391399384,0.9724831581115723,9.640628814697266,2.0107579231262207,-0.14363719522953033,-0.0492318794131279,0.2742820978164673,7.698655605316162,-23.7274169921875,27.514842987060547,-0.13260149955749512,1.4719600677490234,0.27412307262420654,1.1050846576690674,8.168668746948242,1.7366348505020142
3_20251106_182818,1762424865203,3,0.12949420511722565,0.13178174197673798,0.6232179999351501,0.7599106431007385,0.93405681848526,1.8673657178878784,-0.24620595574378967,1.0036064386367798,9.960241317749023,1.976043462753296,-0.14363719522953033,-0.0492318794131279,0.2742820978164673,7.6117329597473145,-23.769973754882812,27.443035125732422,-0.08118259906768799,1.433258056640625,0.1915268898010254,1.0847890377044678,8.526983261108398,1.7845165729522705
3_20251106_182818,1762424865222,3,0.12840567529201508,0.13285335898399353,0.6215115785598755,0.761305034160614,0.9199771881103516,1.8637484312057495,-0.26170799136161804,0.8539752960205078,10.157753944396973,2.338749647140503,-0.22854740917682648,-0.14269417524337769,0.05620337277650833,7.6117329597473145,-23.769973754882812,27.443035125732422,-0.18465101718902588,1.304616928100586,0.4433865547180176,1.0386263132095337,8.853137016296387,1.8953630924224854
3_20251106_182818,1762424865243,3,0.12853708863258362,0.13363441824913025,0.6196724772453308,0.7626441717147827,0.9053264260292053,1.863349437713623,-0.2756158411502838,0.5738657116889954,9.960241317749023,2.193906545639038,-0.14180460572242737,-0.1622418463230133,-0.029928553849458694,7.47949743270874,-23.96600341796875,27.40713882446289,-0.3718085289001465,0.8856840133666992,0.23883473873138428,0.9456742405891418,9.074557304382324,1.9550718069076538
3_20251106_182818,1762424865260,3,0.12929098308086395,0.13408055901527405,0.6185080409049988,0.7633832693099976,0.9053264260292053,1.863349437713623,-0.2756158411502838,0.5738657116889954,9.960241317749023,2.193906545639038,-0.14180460572242737,-0.1622418463230133,-0.029928553849458694,7.47949743270874,-23.96600341796875,27.40713882446289,-0.3718085289001465,0.8856840133666992,0.23883473873138428,0.9456742405891418,9.074557304382324,1.9550718069076538
3_20251106_182818,1762424865280,3,0.13045364618301392,0.1347721815109253,0.6174930930137634,0.7638852000236511,0.8718988299369812,1.868478536605835,-0.3031933009624481,0.15130729973316193,9.859689712524414,1.8730971813201904,-0.17723476886749268,-0.22638264298439026,-0.05069795250892639,7.462377548217773,-24.05469512939453,27.404800415039062,-0.5323358774185181,0.5139760971069336,-0.03829073905944824,0.6836431622505188,9.34571361541748,1.9113879203796387
3_20251106_182818,1762424865300,3,0.13180020451545715,0.13540105521678925,0.6161407828330994,0.7646344304084778,0.8542324304580688,1.8733233213424683,-0.31499382853507996,0.0675138458609581,9.948270797729492,2.163980484008789,-0.1912846565246582,-0.18117865920066833,-0.0812411904335022,7.515244483947754,-24.20086669921875,27.350021362304688,-0.4929034411907196,0.48204612731933594,0.2020740509033203,0.5604172945022583,9.466224670410156,1.9619064331054688
3_20251106_182818,1762424865318,3,0.1331719160079956,0.13549776375293732,0.6147722005844116,0.7654807567596436,0.8542324304580688,1.8733233213424683,-0.31499382853507996,0.0675138458609581,9.948270797729492,2.163980484008789,-0.12897644937038422,-0.16102011501789093,-0.06658043712377548,7.555813789367676,-24.359580993652344,27.213390350341797,-0.4929034411907196,0.48204612731933594,0.2020740509033203,0.5604172945022583,9.466224670410156,1.9619064331054688
3_20251106_182818,1762424865336,3,0.13420499861240387,0.13554884493350983,0.6138290762901306,0.7660478949546814,0.817692756652832,1.88447105884552,-0.3351040482521057,-0.07852619886398315,9.718437194824219,2.070610523223877,-0.09232456982135773,-0.13475292921066284,-0.03542633354663849,7.612699508666992,-24.442298889160156,27.092350006103516,-0.41256287693977356,0.14571094512939453,0.056163787841796875,0.3340366780757904,9.572726249694824,2.01444673538208
3_20251106_182818,1762424865356,3,0.13539421558380127,0.1360718458890915,0.6130492687225342,0.7663702964782715,0.7980374693870544,1.8908658027648926,-0.34507033228874207,0.08906073123216629,9.767515182495117,2.003575563430786,-0.09232456982135773,-0.13475292921066284,-0.03542633354663849,7.706946849822998,-24.50994110107422,26.95952606201172,-0.1959807574748993,0.15583133697509766,-0.008696794509887695,0.285041481256485,9.61168384552002,2.012272357940674
3_20251106_182818,1762424865375,3,0.13575145602226257,0.1356559842824936,0.612465500831604,0.7668474316596985,0.7797937393188477,1.8967952728271484,-0.3545025885105133,0.10103122144937515,9.669358253479004,1.8527474403381348,-0.0935463011264801,-0.08282943814992905,-0.04703276604413986,7.78751277923584,-24.592010498046875,26.934078216552734,-0.14720821380615234,0.04613971710205078,-0.12761986255645752,0.2482394278049469,9.623218536376953,1.9803673028945923
3_20251106_182818,1762424865394,3,0.1363118588924408,0.13491860032081604,0.6120507717132568,0.7672091722488403,0.7615755200386047,1.9021016359329224,-0.3637312650680542,-0.07493501901626587,9.504165649414062,1.8826736211776733,-0.08988110721111298,-0.0596165806055069,-0.09773453325033188,7.869685649871826,-24.648696899414062,26.882125854492188,-0.2585395574569702,-0.09524250030517578,-0.07815492153167725,0.18360453844070435,9.599408149719238,1.9608285427093506
3_20251106_182818,1762424865412,3,0.13692615926265717,0.13414591550827026,0.6116093993186951,0.7675871253013611,0.7615755200386047,1.9021016359329224,-0.3637312650680542,-0.07493501901626587,9.504165649414062,1.8826736211776733,-0.09843321144580841,-0.03334939479827881,-0.05741745978593826,7.950746059417725,-24.73009490966797,26.78909683227539,-0.2585395574569702,-0.09524250030517578,-0.07815492153167725,0.18360453844070435,9.599408149719238,1.9608285427093506
3_20251106_182818,1762424865432,3,0.13711299002170563,0.13336211442947388,0.611085832118988,0.7681072354316711,0.7265047430992126,1.911580204963684,-0.38026949763298035,0.13574564456939697,9.620279312133789,1.864717960357666,-0.06483565270900726,-0.007082212716341019,-0.01832212135195732,8.03492259979248,-24.76085662841797,26.656574249267578,-0.0022835731506347656,0.02963733673095703,-0.10230612754821777,0.13802921772003174,9.590641975402832,1.9670240879058838
3_20251106_182818,1762424865451,3,0.13681946694850922,0.132659450173378,0.6107488870620728,0.7685490846633911,0.7107842564582825,1.9164037704467773,-0.38847270607948303,0.3176971673965454,9.733999252319336,1.825215220451355,-0.12164607644081116,-0.00341702438890934,0.0030581410974264145,8.10481071472168,-24.81847381591797,26.61764907836914,0.14373436570167542,0.1146860122680664,-0.11344707012176514,0.17396280169487,9.61931324005127,1.9386622905731201
3_20251106_182818,1762424865470,3,0.13646724820137024,0.13209232687950134,0.6100056171417236,0.769299328327179,0.696743369102478,1.9222040176391602,-0.3946261703968048,0.49964869022369385,10.063186645507812,2.5362627506256104,-0.12164607644081116,-0.00341702438890934,0.0030581410974264145,8.191411018371582,-24.799545288085938,26.54024887084961,0.2605487108230591,0.3550987243652344,0.47808027267456055,0.23909997940063477,9.708087921142578,2.05818247795105
3_20251106_182818,1762424865490,3,0.136236771941185,0.13138681650161743,0.6089023947715759,0.7703342437744141,0.696743369102478,1.9222040176391602,-0.3946261703968048,0.49964869022369385,10.063186645507812,2.5362627506256104,-0.09660062193870544,0.03262399137020111,-0.05069795250892639,8.28808307647705,-24.81749725341797,26.462547302246094,0.2605487108230591,0.3550987243652344,0.47808027267456055,0.23909997940063477,9.708087921142578,2.05818247795105
3_20251106_182818,1762424865509,3,0.13605283200740814,0.13036952912807465,0.6083346605300903,0.7709879279136658,0.6823800802230835,1.930916428565979,-0.39984336495399475,0.5331660509109497,10.342100143432617,2.480001449584961,-0.03612501174211502,-0.01441259030252695,-0.04092411696910858,8.30852222442627,-24.890846252441406,26.42139434814453,0.23525285720825195,0.5072097778320312,0.33745527267456055,0.29791319370269775,9.834890365600586,2.1425461769104004
3_20251106_182818,1762424865528,3,0.1360054910182953,0.12986060976982117,0.6081573963165283,0.771221935749054,0.662278950214386,1.947481632232666,-0.40772709250450134,0.5475306510925293,10.293020248413086,2.1436305046081543,-0.025129446759819984,-0.04556669294834137,-0.028706826269626617,8.309820175170898,-24.877479553222656,26.340560913085938,0.15994670987129211,0.28592491149902344,-0.0002636909484863281,0.3875839412212372,10.007095336914062,2.1438941955566406
3_20251106_182818,1762424865546,3,0.13596785068511963,0.12963852286338806,0.6080759167671204,0.7713301777839661,0.6534712314605713,1.9556818008422852,-0.4113982319831848,0.4864811301231384,10.054807662963867,2.132856845855713,-0.01963166519999504,-0.04251236468553543,-0.042756713926792145,8.321795463562012,-24.888565063476562,26.273204803466797,0.0791177749633789,0.03816986083984375,-0.008829832077026367,0.4073633551597595,10.016637802124023,2.1416866779327393
3_20251106_182818,1762424865566,3,0.13601426780223846,0.12932603061199188,0.6080542802810669,0.7713915705680847,0.6534712314605713,1.9556818008422852,-0.4113982319831848,0.4864811301231384,10.054807662963867,2.132856845855713,-0.0025274520739912987,-0.030905934050679207,-0.0659695714712143,8.297719955444336,-24.889747619628906,26.231674194335938,0.0791177749633789,0.03816986083984375,-0.008829832077026367,0.4073633551597595,10.016637802124023,2.1416866779327393
3_20251106_182818,1762424865584,3,0.13616186380386353,0.12881404161453247,0.6081932187080383,0.7713416218757629,0.6359544396400452,1.9691417217254639,-0.4194619655609131,0.2614358365535736,9.570002555847168,1.9341466426849365,-0.015355611220002174,-0.02296469546854496,-0.07391081005334854,8.294801712036133,-24.940109252929688,26.244136810302734,-0.11886683106422424,-0.30959606170654297,-0.15408539772033691,0.38030266761779785,9.879598617553711,2.0882320404052734
3_20251106_182818,1762424865603,3,0.13629351556301117,0.12813200056552887,0.6082650423049927,0.7713753581047058,0.6274259686470032,1.9741591215133667,-0.42385077476501465,0.2901650071144104,9.629855155944824,1.9377379417419434,-0.018409933894872665,-0.04006890952587128,-0.036648064851760864,8.271430969238281,-24.928733825683594,26.202869415283203,-0.072110116481781,-0.19979476928710938,-0.12039518356323242,0.3622751235961914,9.829649925231934,2.058133125305176
3_20251106_182818,1762424865623,3,0.1363050490617752,0.12778858840465546,0.6082649230957031,0.7714303731918335,0.619290292263031,1.9785187244415283,-0.42856723070144653,0.3500174880027771,9.681328773498535,1.8587327003479004,-0.023907717317342758,-0.048010148108005524,-0.03420460596680641,8.247453689575195,-24.929786682128906,26.147823333740234,-0.00980609655380249,-0.11865711212158203,-0.15952038764953613,0.3598235845565796,9.799985885620117,2.0182530879974365
3_20251106_182818,1762424865643,3,0.13639122247695923,0.12763163447380066,0.6085342764854431,0.7712286114692688,0.6106507778167725,1.9825340509414673,-0.43464791774749756,0.33086472749710083,9.63224983215332,1.6815693378448486,-0.041011929512023926,-0.054118797183036804,-0.05069795250892639,8.24594497680664,-24.955032348632812,26.160812377929688,-0.023167073726654053,-0.13418865203857422,-0.2693469524383545,0.3540318012237549,9.766438484191895,1.9509162902832031
3_20251106_182818,1762424865663,3,0.13668373227119446,0.1275946944952011,0.6087636947631836,0.7710018754005432,0.6029092073440552,1.985868215560913,-0.44060805439949036,0.3787466883659363,9.668161392211914,1.800077199935913,-0.09660062193870544,-0.05228620022535324,-0.07879773527383804,8.321163177490234,-24.924209594726562,26.06966781616211,0.01977190375328064,-0.07862186431884766,-0.12067127227783203,0.35897478461265564,9.746783256530762,1.9207484722137451
3_20251106_182818,1762424865681,3,0.1372581124305725,0.12737537920475006,0.6088266372680664,0.7708864212036133,0.6029092073440552,1.985868215560913,-0.44060805439949036,0.3787466883659363,9.668161392211914,1.800077199935913,-0.13141991198062897,-0.04006890952587128,-0.1472145915031433,8.321163177490234,-24.924209594726562,26.06966781616211,0.01977190375328064,-0.07862186431884766,-0.12067127227783203,0.35897478461265564,9.746783256530762,1.9207484722137451
3_20251106_182818,1762424865702,3,0.13834111392498016,0.12675373256206512,0.6085708141326904,0.7709972858428955,0.5960850715637207,1.9888882637023926,-0.4456021785736084,0.41824930906295776,9.750757217407227,2.0610339641571045,-0.11126136779785156,-0.0596165806055069,-0.19302944839000702,8.408270835876465,-24.89299774169922,26.01956558227539,0.047419607639312744,0.0031795501708984375,0.1122283935546875,0.370829701423645,9.747577667236328,1.948805570602417
3_20251106_182818,1762424865719,3,0.1397930532693863,0.1260353922843933,0.6081872582435608,0.7711557745933533,0.5891909599304199,1.9925192594528198,-0.44958722591400146,0.451766699552536,9.884827613830566,2.324384927749634,-0.07522035390138626,-0.053507931530475616,-0.24128775298595428,8.529723167419434,-24.89720916748047,25.983657836914062,0.06474959850311279,0.10979938507080078,0.3004634380340576,0.3870171010494232,9.775028228759766,2.023921489715576
3_20251106_182818,1762424865739,3,0.1415112018585205,0.1250809282064438,0.6078335642814636,0.7712766528129578,0.5833917856216431,1.9957698583602905,-0.45219844579696655,0.3117119073867798,9.894403457641602,2.2812910079956055,-0.07766380906105042,-0.05228620022535324,-0.2357899695634842,8.662050247192383,-24.92560577392578,25.93419647216797,-0.06024414300918579,0.09549999237060547,0.20589566230773926,0.3719560503959656,9.798903465270996,2.075395345687866
3_20251106_182818,1762424865757,3,0.14317293465137482,0.12394043803215027,0.6075727343559265,0.7713596224784851,0.5701059699058533,2.001781702041626,-0.45617344975471497,-0.033038318157196045,9.807018280029297,2.3638875484466553,-0.07766380906105042,-0.05228620022535324,-0.2357899695634842,8.786110877990723,-24.89147186279297,25.831497192382812,-0.2683897316455841,0.007875442504882812,0.2206423282623291,0.23535141348838806,9.799142837524414,2.143245220184326
3_20251106_182818,1762424865776,3,0.14486709237098694,0.12322136014699936,0.6072874069213867,0.7713831663131714,0.5624364018440247,2.004530668258667,-0.45740029215812683,-0.04859994351863861,9.729209899902344,2.276503086090088,-0.09171369671821594,-0.06206003576517105,-0.1588210165500641,8.919439315795898,-24.906906127929688,25.741748809814453,-0.22716109454631805,-0.05594635009765625,0.10660624504089355,0.17856115102767944,9.78515625,2.1698968410491943
3_20251106_182818,1762424865795,3,0.14575918018817902,0.12244956195354462,0.607088565826416,0.7714945673942566,0.5543004870414734,2.006578207015991,-0.4586476981639862,-0.13119636476039886,9.57957935333252,2.1400394439697266,-0.028794635087251663,-0.0797751173377037,-0.08368464559316635,9.065361976623535,-24.909393310546875,25.69330596923828,-0.24780601263046265,-0.1644611358642578,-0.02388596534729004,0.11660964787006378,9.744040489196777,2.1639254093170166
3_20251106_182818,1762424865814,3,0.14650535583496094,0.12192312628030777,0.6070570945739746,0.7714613676071167,0.5543004870414734,2.006578207015991,-0.4586476981639862,-0.13119636476039886,9.57957935333252,2.1400394439697266,-0.05689441040158272,-0.04067976772785187,-0.07207822054624557,9.211186408996582,-24.912017822265625,25.65837860107422,-0.24780601263046265,-0.1644611358642578,-0.02388596534729004,0.11660964787006378,9.744040489196777,2.1639254093170166
3_20251106_182818,1762424865833,3,0.14702701568603516,0.12108936160802841,0.6070089936256409,0.7715312838554382,0.5365322232246399,2.0079429149627686,-0.4607997238636017,-0.25209835171699524,9.407203674316406,2.179542064666748,-0.05689441040158272,-0.04067976772785187,-0.07207822054624557,9.296996116638184,-24.89417266845703,25.689109802246094,-0.23999521136283875,-0.21959781646728516,0.008654117584228516,-0.012103136628866196,9.626801490783691,2.1708879470825195
3_20251106_182818,1762424865853,3,0.14713037014007568,0.12016351521015167,0.6068393588066101,0.7717897295951843,0.5273572206497192,2.0076844692230225,-0.4617792069911957,-0.21738390624523163,9.435933113098145,2.1711626052856445,-0.05200749263167381,-0.020521236583590508,0.019551489502191544,9.390650749206543,-24.962623596191406,25.637386322021484,-0.16422462463378906,-0.1526947021484375,0.00021958351135253906,-0.05315928906202316,9.588627815246582,2.170943021774292
3_20251106_182818,1762424865871,3,0.1468309462070465,0.11946073174476624,0.6067111492156982,0.7720566391944885,0.518387496471405,2.007371425628662,-0.46287333965301514,-0.14556093513965607,9.564018249511719,2.1113100051879883,-0.05200749263167381,-0.020521236583590508,0.019551489502191544,9.426898956298828,-24.972259521484375,25.584529876708984,-0.0739213153719902,-0.019687652587890625,-0.04770636558532715,-0.07163961976766586,9.58370590209961,2.1590163707733154
3_20251106_182818,1762424865891,3,0.14633116126060486,0.11916430294513702,0.6064591407775879,0.7723951935768127,0.5096624493598938,2.007730007171631,-0.46359574794769287,0.00885842740535736,9.804624557495117,2.2812912464141846,-0.08499418944120407,-0.022353829815983772,0.09468784928321838,9.4871244430542,-24.98084259033203,25.586719512939453,0.06439843773841858,0.17673492431640625,0.09781980514526367,-0.05554001033306122,9.627889633178711,2.183471441268921
3_20251106_182818,1762424865909,3,0.14554959535598755,0.11913025379180908,0.6061117053031921,0.772820770740509,0.5027443170547485,2.0087578296661377,-0.464096337556839,0.16447484493255615,9.920738220214844,2.231015205383301,-0.09171369671821594,0.01979583501815796,0.07697277516126633,9.508170127868652,-25.041770935058594,25.559349060058594,0.17601189017295837,0.23427867889404297,0.038034915924072266,-0.011537045240402222,9.6864595413208,2.1929802894592285
3_20251106_182818,1762424865929,3,0.14459539949893951,0.1188867837190628,0.6056208610534668,0.7734218835830688,0.49610790610313416,2.01096248626709,-0.4644399583339691,0.20756861567497253,10.054807662963867,2.2537589073181152,-0.09171369671821594,0.01979583501815796,0.07697277516126633,9.553686141967773,-25.100975036621094,25.51944351196289,0.17528453469276428,0.2946786880493164,0.048622846603393555,0.03228408470749855,9.76012897491455,2.2051360607147217
3_20251106_182818,1762424865949,3,0.14391519129276276,0.11886602640151978,0.605094313621521,0.7739639282226562,0.4903980493545532,2.0143165588378906,-0.46432748436927795,0.22791846096515656,10.17451286315918,2.3495230674743652,-0.10698531568050385,0.012465458363294601,0.048872996121644974,9.547638893127441,-25.213584899902344,25.476520538330078,0.15650750696659088,0.33150768280029297,0.1155095100402832,0.07141095399856567,9.843005180358887,2.234013557434082
3_20251106_182818,1762424865967,3,0.14362145960330963,0.11892038583755493,0.604712188243866,0.7743086814880371,0.4856303334236145,2.0179121494293213,-0.4641237258911133,0.11778992414474487,10.138601303100586,2.277700185775757,-0.08988110721111298,-0.005860483273863792,0.01405370607972145,9.531408309936523,-25.301063537597656,25.352535247802734,0.03710317611694336,0.23647689819335938,0.034949302673339844,0.08068674802780151,9.902124404907227,2.242750883102417
3_20251106_182818,1762424865986,3,0.14356938004493713,0.11857108026742935,0.6044211387634277,0.7745991349220276,0.4856303334236145,2.0179121494293213,-0.4641237258911133,0.11778992414474487,10.138601303100586,2.277700185775757,-0.08438332378864288,0.01918497122824192,-0.0452001690864563,9.543680191040039,-25.311744689941406,25.244632720947266,0.03710317611694336,0.23647689819335938,0.034949302673339844,0.08068674802780151,9.902124404907227,2.242750883102417
3_20251106_182818,1762424866006,3,0.14357879757881165,0.1179550290107727,0.6042289733886719,0.77484130859375,0.4756855070590973,2.0267350673675537,-0.4625920355319977,-0.029447153210639954,10.100295066833496,2.4045872688293457,-0.047120578587055206,0.033845722675323486,-0.03542633354663849,9.569165229797363,-25.285446166992188,25.28668975830078,-0.07776376605033875,0.11955070495605469,0.10683131217956543,0.04831660911440849,9.980744361877441,2.2977559566497803
3_20251106_182818,1762424866024,3,0.14340658485889435,0.11711733788251877,0.6042292714118958,0.7750000357627869,0.4756855070590973,2.0267350673675537,-0.4625920355319977,-0.029447153210639954,10.100295066833496,2.4045872688293457,-0.025129446759819984,0.03567831963300705,-0.023819904774427414,9.555667877197266,-25.31121826171875,25.27215576171875,-0.07776376605033875,0.11955070495605469,0.10683131217956543,0.04831660911440849,9.980744361877441,2.2977559566497803
3_20251106_182818,1762424866043,3,0.14311319589614868,0.11627623438835144,0.6043564081192017,0.7750818133354187,0.46511149406433105,2.03393292427063,-0.4616768956184387,-0.16471374034881592,9.756742477416992,2.134054183959961,-0.028183769434690475,0.010632864199578762,0.020162353292107582,9.567953109741211,-25.310287475585938,25.25912857055664,-0.1447666585445404,-0.16002464294433594,-0.11779308319091797,-0.019947083666920662,9.916767120361328,2.251847267150879
3_20251106_182818,1762424866064,3,0.1426410973072052,0.11575327068567276,0.60456782579422,0.7750821709632874,0.45964759588241577,2.0367298126220703,-0.4614039361476898,-0.14556095004081726,9.821383476257324,2.2681236267089844,-0.028183769434690475,0.010632864199578762,0.020162353292107582,9.566840171813965,-25.334999084472656,25.21805191040039,-0.10049109160900116,-0.07630729675292969,0.013021230697631836,-0.0450698547065258,9.897690773010254,2.2551023960113525
3_20251106_182818,1762424866082,3,0.141974076628685,0.11538470536470413,0.6045771837234497,0.7752523422241211,0.45433309674263,2.03981876373291,-0.46050548553466797,0.004070214927196503,9.993758201599121,2.460848569869995,-0.05017489939928055,0.024682752788066864,0.07269672304391861,9.555259704589844,-25.32337188720703,25.231342315673828,0.039312057197093964,0.07685375213623047,0.1645970344543457,-0.03524184226989746,9.91690444946289,2.2962515354156494
3_20251106_182818,1762424866101,3,0.1411024034023285,0.11495798826217651,0.6045233607292175,0.7755168080329895,0.44982197880744934,2.042649984359741,-0.4595485031604767,0.06871089339256287,9.932708740234375,2.3495230674743652,0.004192059859633446,0.03262399137020111,0.04704040288925171,9.555259704589844,-25.32337188720703,25.231342315673828,0.08316218852996826,0.012643814086914062,0.0426173210144043,-0.01445129606872797,9.920064926147461,2.306905746459961
3_20251106_182818,1762424866120,3,0.14028045535087585,0.11461872607469559,0.6046670079231262,0.7756041288375854,0.44577810168266296,2.04510235786438,-0.459248423576355,-0.007900282740592957,9.881235122680664,2.0789897441864014,0.004192059859633446,0.03262399137020111,0.04704040288925171,9.556965827941895,-25.2978515625,25.191322326660156,0.005240811035037041,-0.03106403350830078,-0.18233275413513184,-0.013141093775629997,9.912299156188965,2.261322498321533
3_20251106_182818,1762424866140,3,0.1396121233701706,0.11425939947366714,0.604966402053833,0.7755442261695862,0.4412494897842407,2.047760486602783,-0.45869243144989014,-0.027053073048591614,9.894402503967285,2.3279762268066406,0.008468114770948887,0.040565237402915955,0.02138408273458481,9.533001899719238,-25.28728485107422,25.231155395507812,-0.011129584163427353,-0.014317512512207031,0.05332303047180176,-0.01592348888516426,9.908720016479492,2.274653196334839
3_20251106_182818,1762424866159,3,0.13891056180000305,0.11372189223766327,0.6053367853164673,0.7754602432250977,0.43744146823883057,2.049877882003784,-0.4579533040523529,0.014843672513961792,9.847718238830566,2.369872808456421,-0.008025234565138817,0.06499982625246048,0.04093175381422043,9.530281066894531,-25.337379455566406,25.216583251953125,0.02461373060941696,-0.048801422119140625,0.07617568969726562,-0.009770057164132595,9.896519660949707,2.2936971187591553
3_20251106_182818,1762424866178,3,0.13801704347133636,0.1131034642457962,0.605558454990387,0.7755371332168579,0.4340982735157013,2.0514895915985107,-0.4574592411518097,0.09025777876377106,9.750757217407227,2.2178475856781006,-0.008025234565138817,0.06499982625246048,0.04093175381422043,9.50379467010498,-25.37664031982422,25.21480941772461,0.08002226799726486,-0.11660957336425781,-0.06067967414855957,0.01023550983518362,9.867366790771484,2.27852725982666
3_20251106_182818,1762424866197,3,0.13700340688228607,0.11263371258974075,0.6058244705200195,0.7755774855613708,0.4314308166503906,2.0529961585998535,-0.4570118486881256,0.19559812545776367,9.858491897583008,2.2705178260803223,0.011522435583174229,0.060112908482551575,0.051927320659160614,9.452020645141602,-25.441932678222656,25.14394760131836,0.14829009771347046,-0.007100105285644531,-0.006407499313354492,0.04730803146958351,9.865592002868652,2.2769253253936768
3_20251106_182818,1762424866216,3,0.1362854242324829,0.11270985752344131,0.6060757637023926,0.7754966020584106,0.42953017354011536,2.0545589923858643,-0.4565223157405853,0.2781945466995239,9.913556098937988,2.3004441261291504,0.0017486009746789932,0.0485064759850502,0.061701156198978424,9.450499534606934,-25.478797912597656,25.062057495117188,0.18470922112464905,0.03837108612060547,0.018815040588378906,0.09348533302545547,9.875185012817383,2.2816290855407715
3_20251106_182818,1762424866235,3,0.13529929518699646,0.11277969926595688,0.606390655040741,0.7754129767417908,0.4283626973628998,2.05615234375,-0.45652782917022705,0.3260765075683594,9.914752960205078,2.1101131439208984,0.01579849049448967,0.037510909140110016,0.058035966008901596,9.44244384765625,-25.404388427734375,25.07666778564453,0.1860729455947876,0.03165435791015625,-0.13721275329589844,0.14000356197357178,9.883098602294922,2.247325897216797
