session_id,timestamp,label,quaternion_w,quaternion_x,quaternion_y,quaternion_z,position_x,position_y,position_z,accelerometer_x,accelerometer_y,accelerometer_z,gyroscope_x,gyroscope_y,gyroscope_z,magnetometer_x,magnetometer_y,magnetometer_z,linear_acceleration_x,linear_acceleration_y,linear_acceleration_z,gravity_x,gravity_y,gravity_z
1_20251106_212443,1762435445855,1,0.20074287056922913,0.47102347016334534,0.5987226963043213,0.615930438041687,1.065468430519104,2.9315478801727295,1.429007649421692,4.781494140625,11.583440780639648,-1.767129898071289,-0.631489098072052,-0.4245891869068146,0.4214775860309601,18.06751823425293,-37.02259826660156,27.268932342529297,1.6756651401519775,2.416195869445801,0.9963974952697754,3.1058290004730225,9.167244911193848,-2.7635273933410645
1_20251106_212443,1762435445874,1,0.20356479287147522,0.47484496235847473,0.5921319723129272,0.6184362173080444,1.078054428100586,2.952331066131592,1.3807469606399536,5.575138092041016,12.020362854003906,-0.0361965149641037,-0.5129812955856323,-0.1356501430273056,-0.08187496662139893,19.097660064697266,-36.083587646484375,26.420791625976562,1.975447177886963,2.28249454498291,2.1818647384643555,3.5996909141540527,9.737868309020996,-2.2180612087249756
1_20251106_212443,1762435445892,1,0.20705606043338776,0.47411051392555237,0.5888728499412537,0.6209474802017212,1.108453392982483,3.0003843307495117,1.3219096660614014,4.384073734283447,11.286571502685547,0.8472259640693665,-0.44028836488723755,0.14901281893253326,-0.4025789201259613,19.877836227416992,-35.273338317871094,25.546947479248047,0.37502193450927734,0.9070892333984375,1.93975830078125,4.00905179977417,10.37948226928711,-1.0925322771072388
1_20251106_212443,1762435445911,1,0.21036440134048462,0.4696806073188782,0.5881314873695374,0.6238976716995239,1.1224157810211182,3.0260965824127197,1.3006176948547363,3.4874839782714844,10.703608512878418,0.49170228838920593,-0.44028836488723755,0.14901281893253326,-0.4025789201259613,20.147104263305664,-35.134071350097656,24.59996795654297,-0.4172544479370117,0.25930118560791016,1.2673876285552979,3.904738426208496,10.444307327270508,-0.7756853699684143
1_20251106_212443,1762435445931,1,0.21363434195518494,0.4657623767852783,0.5886378884315491,0.6252449154853821,1.1328352689743042,3.0510430335998535,1.2817702293395996,2.739328384399414,10.192468643188477,0.028444185853004456,-0.005963565781712532,-0.11121554672718048,-0.3249991238117218,20.353036880493164,-35.24980163574219,23.713329315185547,-0.9323279857635498,-0.20147132873535156,0.643303632736206,3.671656370162964,10.393939971923828,-0.6148594617843628
1_20251106_212443,1762435445950,1,0.2163207232952118,0.4643090069293976,0.5896380543708801,0.6244593262672424,1.1385281085968018,3.071638345718384,1.2645153999328613,2.3191637992858887,9.694496154785156,-0.7041500806808472,-0.005963565781712532,-0.11121554672718048,-0.3249991238117218,20.501779556274414,-35.507781982421875,22.916439056396484,-1.0819940567016602,-0.5595550537109375,-0.07143247127532959,3.401157855987549,10.254051208496094,-0.6327176094055176
1_20251106_212443,1762435445970,1,0.21831481158733368,0.46548202633857727,0.5904711484909058,0.6221004724502563,1.1406333446502686,3.089597463607788,1.2456278800964355,2.22100567817688,9.38685417175293,-1.169802188873291,0.23288454115390778,-0.3610592186450958,0.034189336001873016,20.698686599731445,-35.75177764892578,22.2974853515625,-0.9441215991973877,-0.6937580108642578,-0.42966771125793457,3.1651272773742676,10.080612182617188,-0.7401344776153564
1_20251106_212443,1762435445988,1,0.21947693824768066,0.468269020318985,0.590835452079773,0.6192474961280823,1.140494704246521,3.102846145629883,1.2278845310211182,2.377819299697876,9.225252151489258,-1.3876652717590332,0.20478475093841553,-0.32868340611457825,0.13070596754550934,21.0136661529541,-35.80323028564453,21.984264373779297,-0.6298463344573975,-0.6842880249023438,-0.5180246829986572,3.0076656341552734,9.909540176391602,-0.869640588760376
1_20251106_212443,1762435446007,1,0.21998758614063263,0.47139593958854675,0.5907104015350342,0.6168083548545837,1.139169454574585,3.1142377853393555,1.208680510520935,2.5753326416015625,9.219267845153809,-1.384074091911316,0.13270272314548492,-0.21933862566947937,0.13559287786483765,21.391605377197266,-35.80156707763672,21.78268051147461,-0.34586620330810547,-0.5522184371948242,-0.41154682636260986,2.921198844909668,9.771486282348633,-0.972527265548706
1_20251106_212443,1762435446025,1,0.220198854804039,0.4738594591617584,0.5903124809265137,0.6152242422103882,1.1373991966247559,3.122729539871216,1.1902774572372437,2.6866579055786133,9.056468963623047,-1.4271678924560547,0.08994220197200775,-0.10632863640785217,0.0812259241938591,21.847719192504883,-35.683876037597656,21.762126922607422,-0.18763279914855957,-0.5720138549804688,-0.3637125492095947,2.874290704727173,9.628482818603516,-1.06345534324646
1_20251106_212443,1762435446045,1,0.22025829553604126,0.4752819538116455,0.5901177525520325,0.6142917275428772,1.1373991966247559,3.122729539871216,1.1902774572372437,2.6866579055786133,9.056468963623047,-1.4271678924560547,0.08994220197200775,-0.10632863640785217,0.0812259241938591,22.253875732421875,-35.594207763671875,21.712051391601562,-0.18763279914855957,-0.5720138549804688,-0.3637125492095947,2.874290704727173,9.628482818603516,-1.06345534324646
1_20251106_212443,1762435446064,1,0.22033700346946716,0.4761345088481903,0.5901728272438049,0.6135499477386475,1.1348340511322021,3.130014181137085,1.1665763854980469,2.735736846923828,8.928384780883789,-1.697701096534729,0.07589230686426163,-0.08739183098077774,0.020750312134623528,22.63981819152832,-35.407691955566406,21.865848541259766,-0.11084294319152832,-0.5600786209106445,-0.5073965787887573,2.8465797901153564,9.488463401794434,-1.1903045177459717
1_20251106_212443,1762435446084,1,0.2207559198141098,0.47724273800849915,0.59013432264328,0.612574577331543,1.1297862529754639,3.13596773147583,1.1261357069015503,2.7141900062561035,8.700944900512695,-1.8545145988464355,0.05023598670959473,-0.12221112102270126,0.07206295430660248,22.999879837036133,-35.248016357421875,22.031654357910156,-0.07611083984375,-0.5135879516601562,-0.4275844097137451,2.7903008460998535,9.214532852172852,-1.4269301891326904
1_20251106_212443,1762435446103,1,0.22112126648426056,0.4787433445453644,0.5897040963172913,0.6116856336593628,1.127510666847229,3.136749029159546,1.1047804355621338,2.9021267890930176,8.735658645629883,-1.7743122577667236,0.015416696667671204,-0.15458694100379944,0.1227647215127945,23.324779510498047,-35.07721710205078,22.101638793945312,0.08946084976196289,-0.3830995559692383,-0.27790558338165283,2.8126659393310547,9.118758201599121,-1.4964066743850708
1_20251106_212443,1762435446121,1,0.22153405845165253,0.480663925409317,0.5887516736984253,0.6109470725059509,1.127510666847229,3.136749029159546,1.1047804355621338,2.9021267890930176,8.735658645629883,-1.7743122577667236,-0.03223074972629547,-0.1619173288345337,0.14047978818416595,23.501319885253906,-34.965232849121094,22.070068359375,0.08946084976196289,-0.3830995559692383,-0.27790558338165283,2.8126659393310547,9.118758201599121,-1.4964066743850708
1_20251106_212443,1762435446140,1,0.22208987176418304,0.48263832926750183,0.587387204170227,0.6105019450187683,1.1255829334259033,3.1363322734832764,1.0658068656921387,3.228921413421631,8.869728088378906,-1.1350878477096558,-0.05177842080593109,-0.12770891189575195,0.11482348293066025,23.614715576171875,-34.89502716064453,22.048770904541016,0.29264259338378906,-0.1607198715209961,0.2919583320617676,2.936278820037842,9.030447959899902,-1.4270461797714233
1_20251106_212443,1762435446159,1,0.2226565033197403,0.48416969180107117,0.5860820412635803,0.6103373169898987,1.1261556148529053,3.135154962539673,1.049418330192566,3.2935619354248047,8.767979621887207,-1.0189740657806396,-0.021235186606645584,-0.06662243604660034,0.05862392112612724,23.712797164916992,-34.88786315917969,21.971595764160156,0.2858264446258545,-0.2099752426147461,0.3264577388763428,3.00773549079895,8.977954864501953,-1.3454318046569824
1_20251106_212443,1762435446180,1,0.22302499413490295,0.48503416776657104,0.5853124856948853,0.6102548837661743,1.127935528755188,3.1323604583740234,1.0326064825057983,3.3593997955322266,8.513008117675781,-1.2272605895996094,0.0013668090105056763,0.005459603387862444,0.02685895934700966,23.81037139892578,-34.89299011230469,21.86712646484375,0.28133130073547363,-0.37195777893066406,0.09453701972961426,3.078068494796753,8.884965896606445,-1.3217976093292236
1_20251106_212443,1762435446199,1,0.22311028838157654,0.4853956699371338,0.5849144458770752,0.6103178858757019,1.1306445598602295,3.1280250549316406,1.0173975229263306,3.50783371925354,8.180229187011719,-1.5983459949493408,-0.01634826883673668,0.025618137791752815,0.027469824999570847,23.863330841064453,-34.826087951660156,21.775794982910156,0.3438122272491455,-0.5637893676757812,-0.2212386131286621,3.1640214920043945,8.7440185546875,-1.3771073818206787
1_20251106_212443,1762435446218,1,0.22315824031829834,0.48568326234817505,0.5844390988349915,0.6105269193649292,1.1343058347702026,3.121393918991089,1.0019150972366333,3.5605039596557617,7.828295707702637,-1.7539623975753784,-0.05238928645849228,-0.03485746681690216,0.038465388119220734,23.863330841064453,-34.826087951660156,21.775794982910156,0.3171858787536621,-0.7325782775878906,-0.30148398876190186,3.2433180809020996,8.560873985290527,-1.4524784088134766
1_20251106_212443,1762435446236,1,0.22366385161876678,0.4864628314971924,0.5835300087928772,0.6105908155441284,1.1343058347702026,3.121393918991089,1.0019150972366333,3.5605039596557617,7.828295707702637,-1.7539623975753784,-0.1030910536646843,-0.07028761506080627,0.05984565243124962,23.903993606567383,-34.77172088623047,21.602611541748047,0.3171858787536621,-0.7325782775878906,-0.30148398876190186,3.2433180809020996,8.560873985290527,-1.4524784088134766
1_20251106_212443,1762435446256,1,0.224460169672966,0.4875223934650421,0.5821391344070435,0.6107811331748962,1.1388221979141235,3.11153507232666,0.9852468371391296,3.524592399597168,7.4991068840026855,-1.8425439596176147,-0.17150790989398956,-0.09777653217315674,0.1019953191280365,23.78723907470703,-34.7147216796875,21.382766723632812,0.2250194549560547,-0.8494133949279785,-0.3120523691177368,3.2995729446411133,8.348520278930664,-1.530491590499878
1_20251106_212443,1762435446274,1,0.22544804215431213,0.48883795738220215,0.5801134705543518,0.6112928986549377,1.1485357284545898,3.0882632732391357,0.955061137676239,3.684997081756592,7.432071685791016,-1.8736673593521118,-0.23809215426445007,-0.12221112102270126,0.12398645281791687,23.66887664794922,-34.68310546875,21.18942642211914,0.26256847381591797,-0.56756591796875,-0.21924948692321777,3.422428607940674,7.999637603759766,-1.654417872428894
1_20251106_212443,1762435446294,1,0.22672387957572937,0.4902844727039337,0.5775425434112549,0.61209636926651,1.1485357284545898,3.0882632732391357,0.955061137676239,3.684997081756592,7.432071685791016,-1.8736673593521118,-0.3046764135360718,-0.11488074064254761,0.09833014011383057,23.562788009643555,-34.66217041015625,20.88818359375,0.26256847381591797,-0.56756591796875,-0.21924948692321777,3.422428607940674,7.999637603759766,-1.654417872428894
1_20251106_212443,1762435446313,1,0.22849887609481812,0.49148139357566833,0.5746405124664307,0.6132068037986755,1.1612130403518677,3.0612149238586426,0.9246964454650879,3.7089381217956543,7.715773105621338,-1.7659327983856201,-0.36393028497695923,-0.08617010712623596,0.03907625377178192,23.433820724487305,-34.62919616699219,20.478092193603516,0.17168283462524414,-0.15485906600952148,-0.0702204704284668,3.53725528717041,7.870632171630859,-1.6957123279571533
1_20251106_212443,1762435446332,1,0.23037201166152954,0.49170321226119995,0.572003960609436,0.6147911548614502,1.1677191257476807,3.048701763153076,0.9097280502319336,3.5533218383789062,8.165863990783691,-1.7264301776885986,-0.36393028497695923,-0.08617010712623596,0.03907625377178192,23.30937957763672,-34.520469665527344,20.029037475585938,0.012853384017944336,0.23618507385253906,-0.02457427978515625,3.540468454360962,7.929678916931152,-1.7018558979034424
1_20251106_212443,1762435446350,1,0.23311711847782135,0.4915580749511719,0.5688559412956238,0.6167900562286377,1.1732752323150635,3.039616346359253,0.8978127837181091,3.537760019302368,8.584831237792969,-1.3433743715286255,-0.5771220922470093,0.004848738666623831,-0.034227512776851654,23.139705657958984,-34.363746643066406,19.48446273803711,-0.002166748046875,0.5241222381591797,0.2867852449417114,3.539926767349243,8.060708999633789,-1.630159616470337
1_20251106_212443,1762435446370,1,0.2363838106393814,0.49066033959388733,0.5652291178703308,0.6195895075798035,1.1732752323150635,3.039616346359253,0.8978127837181091,3.537760019302368,8.584831237792969,-1.3433743715286255,-0.603389322757721,-0.011033744551241398,-0.053775183856487274,22.943347930908203,-34.246551513671875,18.965145111083984,-0.002166748046875,0.5241222381591797,0.2867852449417114,3.539926767349243,8.060708999633789,-1.630159616470337
1_20251106_212443,1762435446390,1,0.23997633159160614,0.4895786941051483,0.5614962577819824,0.622451663017273,1.1834075450897217,3.0276873111724854,0.8792463541030884,3.2624387741088867,8.988237380981445,-0.8465989828109741,-0.603389322757721,-0.011033744551241398,-0.053775183856487274,22.68695068359375,-34.132118225097656,18.321731567382812,-0.2047891616821289,0.6219644546508789,0.5185247659683228,3.4672279357910156,8.366272926330566,-1.3651237487792969
1_20251106_212443,1762435446410,1,0.24346497654914856,0.4887716770172119,0.5577902793884277,0.6250576376914978,1.1834075450897217,3.0276873111724854,0.8792463541030884,3.2624387741088867,8.988237380981445,-0.8465989828109741,-0.5722351670265198,-0.053183406591415405,-0.0317840538918972,22.478986740112305,-34.026527404785156,17.62594985961914,-0.2047891616821289,0.6219644546508789,0.5185247659683228,3.4672279357910156,8.366272926330566,-1.3651237487792969
1_20251106_212443,1762435446428,1,0.24686653912067413,0.4885922372341156,0.5536856055259705,0.6275084018707275,1.1904730796813965,3.0256855487823486,0.8711712956428528,3.476710319519043,9.281513214111328,-0.39172014594078064,-0.5520766377449036,-0.15519782900810242,0.07878246903419495,22.249752044677734,-33.883506774902344,16.794815063476562,0.033840179443359375,0.612950325012207,0.6631991863250732,3.4428701400756836,8.668562889099121,-1.0549193620681763
1_20251106_212443,1762435446446,1,0.25019168853759766,0.48895230889320374,0.5493119955062866,0.6297507882118225,1.1904730796813965,3.0256855487823486,0.8711712956428528,3.476710319519043,9.281513214111328,-0.39172014594078064,-0.5600178837776184,-0.14175879955291748,0.07145208865404129,22.097370147705078,-33.661048889160156,16.035789489746094,0.033840179443359375,0.612950325012207,0.6631991863250732,3.4428701400756836,8.668562889099121,-1.0549193620681763
1_20251106_212443,1762435446465,1,0.2535582184791565,0.48917970061302185,0.5448766946792603,0.632076621055603,1.1977020502090454,3.0337188243865967,0.8724945783615112,3.572474479675293,9.911161422729492,-0.008664343506097794,-0.5600178837776184,-0.14175879955291748,0.07145208865404129,21.907119750976562,-33.46595764160156,15.261249542236328,0.08275508880615234,0.8301210403442383,0.7090579867362976,3.4897193908691406,9.081040382385254,-0.7177223563194275
1_20251106_212443,1762435446485,1,0.2571931779384613,0.48882365226745605,0.5405921936035156,0.6345574259757996,1.1977020502090454,3.0337188243865967,0.8724945783615112,3.572474479675293,9.911161422729492,-0.008664343506097794,-0.6082761883735657,-0.07639627158641815,-0.03239491954445839,21.743566513061523,-33.21971893310547,14.556324005126953,0.08275508880615234,0.8301210403442383,0.7090579867362976,3.4897193908691406,9.081040382385254,-0.7177223563194275
1_20251106_212443,1762435446504,1,0.2611195147037506,0.48793452978134155,0.5364453196525574,0.6371521949768066,1.2052245140075684,3.050563335418701,0.8861280679702759,3.5461392402648926,9.832157135009766,0.6868212819099426,-0.5722351670265198,-0.05196167901158333,-0.06660334020853043,21.587970733642578,-33.04802703857422,13.85030746459961,0.03859853744506836,0.46807384490966797,0.9345321655273438,3.507540702819824,9.364083290100098,-0.24771086871623993
1_20251106_212443,1762435446523,1,0.26489630341529846,0.48667043447494507,0.5327453017234802,0.6396595239639282,1.2087783813476562,3.060540199279785,0.8963850736618042,3.5449423789978027,9.947072982788086,0.6748508810997009,-0.5722351670265198,-0.05196167901158333,-0.06660334020853043,21.445772171020508,-32.85070037841797,13.172340393066406,0.029921293258666992,0.46639156341552734,0.7380493879318237,3.5150210857391357,9.480681419372559,-0.063198521733284
1_20251106_212443,1762435446542,1,0.26840558648109436,0.4855421781539917,0.5294001698493958,0.6418276429176331,1.2121578454971313,3.0710744857788086,0.9079078435897827,3.5162131786346436,9.865673065185547,0.5850721597671509,-0.4372340440750122,-0.07273107767105103,-0.06171642616391182,21.398651123046875,-32.685089111328125,12.538055419921875,0.00095367431640625,0.30799293518066406,0.5186165571212769,3.5152595043182373,9.557680130004883,0.06645560264587402
1_20251106_212443,1762435446561,1,0.27157580852508545,0.4847067594528198,0.5264496803283691,0.6435500383377075,1.2155613899230957,3.0819664001464844,0.9193084836006165,3.585642099380493,9.880038261413574,0.2319425642490387,-0.4372340440750122,-0.07273107767105103,-0.06171642616391182,21.353656768798828,-32.47019958496094,11.999439239501953,0.05630612373352051,0.2578859329223633,0.13238957524299622,3.5293359756469727,9.622152328491211,0.09955298900604248
1_20251106_212443,1762435446580,1,0.27460452914237976,0.4842057228088379,0.5236639976501465,0.6449133157730103,1.218991994857788,3.0931100845336914,0.9298060536384583,3.601203680038452,9.912359237670898,-0.021831899881362915,-0.38897573947906494,-0.08617009967565536,-0.0525534562766552,21.31783103942871,-32.305015563964844,11.487289428710938,0.05749392509460449,0.23216533660888672,-0.0971079096198082,3.5437097549438477,9.680193901062012,0.07527600973844528
1_20251106_212443,1762435446599,1,0.27783840894699097,0.48379769921302795,0.5209728479385376,0.646013081073761,1.221952199935913,3.10445499420166,0.9394893050193787,3.4348137378692627,9.956649780273438,-0.030211247503757477,-0.41890811920166016,-0.11610247194766998,-0.119137704372406,21.280609130859375,-32.15332794189453,11.06949234008789,-0.08711695671081543,0.22116470336914062,-0.08438980579376221,3.521930694580078,9.735485076904297,0.05417855829000473
1_20251106_212443,1762435446619,1,0.2815690338611603,0.4832115173339844,0.5182408690452576,0.647033154964447,1.221952199935913,3.10445499420166,0.9394893050193787,3.4348137378692627,9.956649780273438,-0.030211247503757477,-0.4482296109199524,-0.09044615924358368,-0.13868537545204163,21.341693878173828,-31.970977783203125,10.73724365234375,-0.08711695671081543,0.22116470336914062,-0.08438980579376221,3.521930694580078,9.735485076904297,0.05417855829000473
1_20251106_212443,1762435446639,1,0.2853701710700989,0.4822119474411011,0.5155602693557739,0.648253858089447,1.2250348329544067,3.1275792121887207,0.9580853581428528,3.129566192626953,9.847718238830566,0.2139868289232254,-0.46533381938934326,-0.08250491321086884,-0.10264436900615692,21.341693878173828,-31.970977783203125,10.73724365234375,-0.26835083961486816,0.05439949035644531,0.13483703136444092,3.3979170322418213,9.793318748474121,0.07914979010820389
1_20251106_212443,1762435446656,1,0.2890222370624542,0.48127633333206177,0.5126339197158813,0.6496504545211792,1.2254592180252075,3.137669324874878,0.9669674634933472,3.212162494659424,9.851309776306152,0.37798258662223816,-0.43967753648757935,-0.10327431559562683,-0.030562326312065125,21.350494384765625,-31.8662109375,10.306835174560547,-0.1486036777496338,0.04639244079589844,0.2390662431716919,3.3607661724090576,9.804917335510254,0.13891634345054626
1_20251106_212443,1762435446676,1,0.2922714948654175,0.4808925688266754,0.5094250440597534,0.6510037183761597,1.2256665229797363,3.1487886905670166,0.9775865077972412,3.2815914154052734,9.959043502807617,0.5479636192321777,-0.39386266469955444,-0.15031090378761292,0.01647425815463066,21.446008682250977,-31.73076629638672,9.880386352539062,-0.0633397102355957,0.12330055236816406,0.3272378146648407,3.344931125640869,9.835742950439453,0.22072580456733704
1_20251106_212443,1762435446695,1,0.29530301690101624,0.48119285702705383,0.506075918674469,0.6520251035690308,1.225564956665039,3.159313201904297,0.9884850978851318,3.239694833755493,10.014108657836914,0.699988842010498,-0.3407174348831177,-0.18024326860904694,0.018306853249669075,21.55360984802246,-31.59466552734375,9.467945098876953,-0.08418917655944824,0.14269256591796875,0.38341042399406433,3.3238840103149414,9.871416091918945,0.3165784180164337
1_20251106_212443,1762435446713,1,0.29813480377197266,0.48174601793289185,0.5030056834220886,0.6527034044265747,1.2249183654785156,3.1689863204956055,0.9992585778236389,3.098443031311035,9.953059196472168,0.7083682417869568,-0.3126176595687866,-0.1515326201915741,0.006089558359235525,21.57500648498535,-31.476951599121094,9.078838348388672,-0.18035268783569336,0.06531429290771484,0.31343185901641846,3.2787957191467285,9.887744903564453,0.39493638277053833
1_20251106_212443,1762435446733,1,0.3007928133010864,0.4821139872074127,0.5002342462539673,0.6533417701721191,1.2233710289001465,3.178663969039917,1.0112886428833008,2.9942996501922607,9.712451934814453,0.6114072203636169,-0.3126176595687866,-0.1515326201915741,0.006089558359235525,21.631031036376953,-31.405868530273438,8.568500518798828,-0.22759699821472168,-0.14023399353027344,0.17317667603492737,3.2218966484069824,9.852685928344727,0.4382305443286896
1_20251106_212443,1762435446751,1,0.30311205983161926,0.4821842610836029,0.49761760234832764,0.6542156934738159,1.221682071685791,3.1862599849700928,1.0214377641677856,3.073305130004883,9.577184677124023,0.3827708065509796,-0.2973460257053375,-0.06601156294345856,0.0708412230014801,21.74819564819336,-31.318931579589844,8.128461837768555,-0.11887311935424805,-0.22040081024169922,-0.04436779022216797,3.192178249359131,9.797585487365723,0.4271385967731476
1_20251106_212443,1762435446771,1,0.30438557267189026,0.4819725453853607,0.4952951669692993,0.6555414199829102,1.2199091911315918,3.193364143371582,1.0321687459945679,3.195404052734375,9.49698257446289,0.4330468773841858,-0.2973460257053375,-0.06601156294345856,0.0708412230014801,21.85128402709961,-31.246963500976562,7.849863052368164,0.0025806427001953125,-0.24048233032226562,0.004726618528366089,3.1928234100341797,9.737464904785156,0.4283202588558197
1_20251106_212443,1762435446791,1,0.30621838569641113,0.48275020718574524,0.4919835329055786,0.656608521938324,1.218651294708252,3.199371099472046,1.043531060218811,3.333064556121826,9.493391990661621,0.8125115036964417,-0.3590433597564697,-0.13198494911193848,0.15575140714645386,21.90522003173828,-31.190322875976562,7.52849006652832,0.11219286918640137,-0.19525814056396484,0.3073529601097107,3.220871686935425,9.688650131225586,0.505158543586731
1_20251106_212443,1762435446811,1,0.3079010248184204,0.48352041840553284,0.488392174243927,0.6579346656799316,1.2183831930160522,3.2047860622406006,1.0560165643692017,3.525789499282837,9.592747688293457,1.0614978075027466,-0.35659992694854736,-0.12709803879261017,0.1533079445362091,21.908607482910156,-31.162513732910156,7.258691787719727,0.24393439292907715,-0.0767221450805664,0.44507139921188354,3.2818551063537598,9.669469833374023,0.616426408290863
1_20251106_212443,1762435446829,1,0.309597373008728,0.4842367172241211,0.4847598075866699,0.6592967510223389,1.219014048576355,3.209477663040161,1.0677168369293213,3.631129741668701,9.694496154785156,1.0327686071395874,-0.29612430930137634,-0.13687187433242798,0.10321705043315887,21.84935760498047,-31.16419219970703,7.026462554931641,0.2794196605682373,0.020020484924316406,0.3330737352371216,3.351710081100464,9.67447566986084,0.6996948719024658
1_20251106_212443,1762435446848,1,0.3113587498664856,0.48493698239326477,0.48166966438293457,0.6602168083190918,1.2202391624450684,3.214650869369507,1.0802714824676514,3.567686080932617,9.845324516296387,0.9992511868476868,-0.2790200710296631,-0.10755036771297455,0.03235673904418945,21.803813934326172,-31.128211975097656,6.876613616943359,0.17278075218200684,0.13667869567871094,0.2396450638771057,3.3949053287506104,9.708645820617676,0.759606122970581
1_20251106_212443,1762435446868,1,0.3133765161037445,0.4852156341075897,0.4790722131729126,0.6609469056129456,1.2216405868530273,3.219792604446411,1.092970848083496,3.4814987182617188,9.791458129882812,1.0411479473114014,-0.29062652587890625,-0.05501599982380867,-0.023842811584472656,21.817384719848633,-31.125534057617188,6.687875747680664,0.0692746639251709,0.06624984741210938,0.22523343563079834,3.412224054336548,9.725208282470703,0.815914511680603
1_20251106_212443,1762435446886,1,0.3154297471046448,0.48476019501686096,0.47694501280784607,0.6618421673774719,1.2229846715927124,3.224625825881958,1.1057648658752441,3.416858196258545,9.706466674804688,1.0818476676940918,-0.2619158625602722,-0.06540070474147797,-0.026897136121988297,21.844364166259766,-31.085601806640625,6.622066497802734,0.003707408905029297,-0.014993667602539062,0.21274656057357788,3.4131507873535156,9.721460342407227,0.8691011071205139
1_20251106_212443,1762435446904,1,0.3175032436847687,0.484171986579895,0.4749355614185333,0.6627257466316223,1.2242860794067383,3.2289388179779053,1.1175823211669922,3.450375556945801,9.706466674804688,0.992068886756897,-0.23992475867271423,-0.09105701744556427,-0.0030734119936823845,21.822093963623047,-31.061134338378906,6.527000427246094,0.029779672622680664,-0.011995315551757812,0.09837424755096436,3.42059588432312,9.718461990356445,0.8936946392059326
1_20251106_212443,1762435446924,1,0.31941407918930054,0.48384615778923035,0.4729405641555786,0.6634717583656311,1.2259140014648438,3.2336697578430176,1.1305335760116577,3.5042428970336914,9.777091979980469,1.0507243871688843,-0.26008328795433044,-0.10021999478340149,-0.0036842767149209976,21.78741455078125,-31.060958862304688,6.268720626831055,0.06691765785217285,0.04690361022949219,0.12562376260757446,3.4373252391815186,9.730188369750977,0.9251006245613098
1_20251106_212443,1762435446944,1,0.32153284549713135,0.4837797284126282,0.4707537293434143,0.6640517711639404,1.2259140014648438,3.2336697578430176,1.1305335760116577,3.5042428970336914,9.777091979980469,1.0507243871688843,-0.2625267505645752,-0.10205258429050446,-0.028118867427110672,21.75042152404785,-31.098724365234375,6.036680221557617,0.06691765785217285,0.04690361022949219,0.12562376260757446,3.4373252391815186,9.730188369750977,0.9251006245613098
1_20251106_212443,1762435446963,1,0.3237352669239044,0.48358026146888733,0.4686674177646637,0.664602518081665,1.2279506921768188,3.2387144565582275,1.1440340280532837,3.5605039596557617,9.827367782592773,1.0986063480377197,-0.22343140840530396,-0.12831977009773254,-0.0678250640630722,21.76308822631836,-31.108871459960938,5.874711990356445,0.09854292869567871,0.0777435302734375,0.13880455493927002,3.461961030960083,9.749624252319336,0.9598017930984497
1_20251106_212443,1762435446981,1,0.32613280415534973,0.4835573136806488,0.46684494614601135,0.664729654788971,1.2306803464889526,3.246128559112549,1.1670606136322021,3.2612414360046387,9.53768253326416,1.4158244132995605,-0.18922299146652222,-0.12221111357212067,-0.08309668302536011,21.789661407470703,-31.081085205078125,5.768091201782227,-0.15948820114135742,-0.17030906677246094,0.32077527046203613,3.420729637145996,9.707991600036621,1.0950491428375244
1_20251106_212443,1762435447000,1,0.32840579748153687,0.48327046632766724,0.4653930962085724,0.6648372411727905,1.23136568069458,3.248569965362549,1.1804085969924927,3.256453514099121,9.313834190368652,1.3188633918762207,-0.18922299146652222,-0.12221111357212067,-0.08309668302536011,21.852062225341797,-31.086708068847656,5.472921371459961,-0.13142085075378418,-0.3153257369995117,0.17905139923095703,3.3878743648529053,9.629159927368164,1.1398119926452637
1_20251106_212443,1762435447020,1,0.3302251398563385,0.4827047884464264,0.46415433287620544,0.6652129292488098,1.2318028211593628,3.2499053478240967,1.1936990022659302,3.317502975463867,9.305455207824707,1.3404102325439453,-0.15623629093170166,-0.10021999478340149,-0.0525534562766552,21.87932586669922,-31.0579833984375,5.271686553955078,-0.05629706382751465,-0.25896358489990234,0.1604785919189453,3.373800039291382,9.56441879272461,1.179931640625
1_20251106_212443,1762435447039,1,0.33187416195869446,0.48271501064300537,0.4625718593597412,0.6654870510101318,1.2318028211593628,3.2499053478240967,1.1936990022659302,3.317502975463867,9.305455207824707,1.3404102325439453,-0.1537928283214569,-0.11426987498998642,-0.008571195416152477,21.92955207824707,-31.052780151367188,5.070903778076172,-0.05629706382751465,-0.25896358489990234,0.1604785919189453,3.373800039291382,9.56441879272461,1.179931640625
1_20251106_212443,1762435447060,1,0.3333417475223541,0.4831245243549347,0.46094754338264465,0.6655834317207336,1.233021855354309,3.248974084854126,1.2185983657836914,3.4060845375061035,9.076818466186523,1.1285326480865479,-0.06582830846309662,-0.17474548518657684,-0.0024625472724437714,21.945039749145508,-31.0126953125,4.909990310668945,0.016831398010253906,-0.33179187774658203,-0.05204808712005615,3.3892531394958496,9.408610343933105,1.180580735206604
1_20251106_212443,1762435447078,1,0.3346620798110962,0.4841349720954895,0.45954063534736633,0.6651594042778015,1.233021855354309,3.248974084854126,1.2185983657836914,3.4060845375061035,9.076818466186523,1.1285326480865479,-0.06582830846309662,-0.17474548518657684,-0.0024625472724437714,21.945039749145508,-31.0126953125,4.909990310668945,0.016831398010253906,-0.33179187774658203,-0.05204808712005615,3.3892531394958496,9.408610343933105,1.180580735206604
1_20251106_212443,1762435447097,1,0.3359939754009247,0.48542043566703796,0.45843663811683655,0.6643123626708984,1.2333389520645142,3.2425951957702637,1.2377671003341675,3.2205419540405273,8.613560676574707,0.8998961448669434,-0.017569996416568756,-0.19612574577331543,-0.013458113186061382,21.99869155883789,-30.944847106933594,4.7240447998046875,-0.12272286415100098,-0.5490522384643555,-0.19783341884613037,3.3432648181915283,9.162612915039062,1.0977295637130737
1_20251106_212443,1762435447115,1,0.3373033404350281,0.4869250953197479,0.45737341046333313,0.6632797122001648,1.2329652309417725,3.2374582290649414,1.2452439069747925,3.209768295288086,8.581239700317383,0.7586442828178406,-0.09514981508255005,-0.17596721649169922,0.017695989459753036,22.038959503173828,-30.891021728515625,4.604925155639648,-0.1067972183227539,-0.46509838104248047,-0.27126818895339966,3.31656551361084,9.046338081359863,1.0299124717712402
1_20251106_212443,1762435447135,1,0.33870378136634827,0.48829057812690735,0.4557829797267914,0.6626567244529724,1.2326608896255493,3.2309021949768066,1.251932978630066,3.3462321758270264,8.673412322998047,0.6341511607170105,-0.200829416513443,-0.13992619514465332,0.040297981351614,22.142480850219727,-30.783668518066406,4.556894302368164,0.02373337745666504,-0.2983407974243164,-0.3166090250015259,3.3224987983703613,8.971753120422363,0.9507601857185364
1_20251106_212443,1762435447153,1,0.34026965498924255,0.4893414080142975,0.4536453187465668,0.6625462174415588,1.2326035499572754,3.2245030403137207,1.256831169128418,3.4048876762390137,8.6494722366333,0.6173924803733826,-0.27107885479927063,-0.14970003068447113,0.01708512380719185,22.218997955322266,-30.739479064941406,4.384918212890625,0.06591105461120605,-0.2578248977661133,-0.2666941285133362,3.3389766216278076,8.907297134399414,0.8840866088867188
1_20251106_212443,1762435447173,1,0.342440664768219,0.4905214011669159,0.45100462436676025,0.6623578667640686,1.2323176860809326,3.2173068523406982,1.2616820335388184,3.2648327350616455,8.761995315551758,0.7789942026138306,-0.3596542477607727,-0.135039284825325,-0.0030734119936823845,22.281831741333008,-30.709716796875,4.320316314697266,-0.05931520462036133,-0.116241455078125,-0.08407396078109741,3.324147939682007,8.878236770629883,0.863068163394928
1_20251106_212443,1762435447191,1,0.3447026014328003,0.49111276865005493,0.448163777589798,0.6626745462417603,1.231821060180664,3.2106497287750244,1.266014575958252,3.2217390537261963,8.673412322998047,0.9382016658782959,-0.42990368604660034,-0.09533306956291199,0.005478693637996912,22.333789825439453,-30.655776977539062,4.269268035888672,-0.08192706108093262,-0.16385936737060547,0.06010681390762329,3.303666114807129,8.837271690368652,0.8780948519706726
1_20251106_212443,1762435447212,1,0.3474474549293518,0.4911009669303894,0.44493725895881653,0.6634236574172974,1.2311204671859741,3.2023370265960693,1.2716035842895508,3.25884747505188,8.558496475219727,1.1129708290100098,-0.42990368604660034,-0.09533306956291199,0.005478693637996912,22.372041702270508,-30.639488220214844,4.135841369628906,-0.03585481643676758,-0.2230205535888672,0.18790078163146973,3.2947022914886475,8.781517028808594,0.92507004737854
1_20251106_212443,1762435447232,1,0.3499941825866699,0.4908469617366791,0.4414082467556,0.6646292805671692,1.2306286096572876,3.1947457790374756,1.2775845527648926,3.3414440155029297,8.758403778076172,1.2290847301483154,-0.47632938623428345,-0.0843375101685524,0.09771926701068878,22.408376693725586,-30.660598754882812,3.974590301513672,0.03739333152770996,-0.01849079132080078,0.2432117462158203,3.3040506839752197,8.776894569396973,0.9858729839324951
1_20251106_212443,1762435447250,1,0.3522127866744995,0.49065354466438293,0.4374028146266937,0.666246235370636,1.2306286096572876,3.1947457790374756,1.2775845527648926,3.3414440155029297,8.758403778076172,1.2290847301483154,-0.4793837070465088,-0.08128318190574646,0.11421261727809906,22.44430160522461,-30.693862915039062,3.7725257873535156,0.03739333152770996,-0.01849079132080078,0.2432117462158203,3.3040506839752197,8.776894569396973,0.9858729839324951
1_20251106_212443,1762435447269,1,0.3543422520160675,0.490448534488678,0.4333163797855377,0.6679361462593079,1.23050856590271,3.183037757873535,1.2915772199630737,3.4228432178497314,9.018162727355957,1.6241109371185303,-0.4928227663040161,-0.023251039907336235,0.11176915466785431,22.481624603271484,-30.71363067626953,3.4761104583740234,0.08043217658996582,0.1687755584716797,0.43720149993896484,3.3424110412597656,8.849387168884277,1.1869094371795654
1_20251106_212443,1762435447288,1,0.35630476474761963,0.48960915207862854,0.429354190826416,0.6700632572174072,1.2307792901992798,3.1780967712402344,1.2995643615722656,3.4240403175354004,8.876911163330078,1.6001698970794678,-0.4977096617221832,0.02073122002184391,0.10443878173828125,22.432025909423828,-30.775955200195312,3.107889175415039,0.06530332565307617,0.022019386291503906,0.3306083679199219,3.358736991882324,8.854891777038574,1.269561529159546
1_20251106_212443,1762435447306,1,0.3582104742527008,0.4883233904838562,0.42550718784332275,0.6724352240562439,1.231354832649231,3.173002004623413,1.3087992668151855,3.4695281982421875,8.803892135620117,1.7162837982177734,-0.4977096617221832,0.02073122002184391,0.10443878173828125,22.455554962158203,-30.8218994140625,2.8374881744384766,0.08863306045532227,-0.04079914093017578,0.35737788677215576,3.3808951377868652,8.844691276550293,1.3589059114456177
1_20251106_212443,1762435447326,1,0.359958291053772,0.48748862743377686,0.42143476009368896,0.674668550491333,1.2325636148452759,3.1676814556121826,1.3197975158691406,3.589233160018921,8.770374298095703,1.9389349222183228,-0.48671406507492065,-0.06601156294345856,0.19790107011795044,22.468505859375,-30.84325408935547,2.5400924682617188,0.1666703224182129,-0.05945396423339844,0.464023232460022,3.422562837600708,8.829828262329102,1.4749116897583008
1_20251106_212443,1762435447345,1,0.36147940158843994,0.4872259199619293,0.4168982207775116,0.676859974861145,1.234614372253418,3.163074493408203,1.331390619277954,3.7723817825317383,8.90085220336914,2.082581043243408,-0.44456443190574646,-0.09594394266605377,0.23882901668548584,22.465126037597656,-30.952224731445312,2.1322288513183594,0.27985525131225586,0.05681896209716797,0.48613548278808594,3.4925265312194824,8.844033241271973,1.5964455604553223
1_20251106_212443,1762435447363,1,0.36251401901245117,0.48727571964263916,0.41224005818367004,0.6791200637817383,1.2376266717910767,3.159501314163208,1.3428800106048584,3.966303825378418,9.076818466186523,2.02512264251709,-0.3956952691078186,-0.10877209156751633,0.2314986288547516,22.377967834472656,-31.029891967773438,1.8028221130371094,0.37902164459228516,0.18622779846191406,0.34294164180755615,3.587282180786133,8.89059066772461,1.6821810007095337
1_20251106_212443,1762435447383,1,0.36358487606048584,0.487698495388031,0.4079388380050659,0.6808392405509949,1.2425007820129395,3.1565215587615967,1.3563523292541504,4.1446638107299805,9.15103530883789,2.1244776248931885,-0.3498803973197937,-0.15397608280181885,0.1740773618221283,22.304813385009766,-31.069503784179688,1.5152454376220703,0.4459052085876465,0.20835590362548828,0.353837251663208,3.698758602142334,8.942679405212402,1.7706403732299805
1_20251106_212443,1762435447401,1,0.36491507291793823,0.4883405268192291,0.40408238768577576,0.681966245174408,1.2425007820129395,3.1565215587615967,1.3563523292541504,4.1446638107299805,9.15103530883789,2.1244776248931885,-0.2887939214706421,-0.1814649999141693,0.08855630457401276,22.207075119018555,-31.122581481933594,1.158843994140625,0.4459052085876465,0.20835590362548828,0.353837251663208,3.698758602142334,8.942679405212402,1.7706403732299805
1_20251106_212443,1762435447421,1,0.36658307909965515,0.4890299439430237,0.40091773867607117,0.6824452877044678,1.2547606229782104,3.151301860809326,1.3857488632202148,4.0824174880981445,8.744038581848145,2.761307954788208,-0.22343140840530396,-0.1723020225763321,-0.003073412925004959,22.08437156677246,-31.178054809570312,0.8825588226318359,0.21930241584777832,-0.1778850555419922,0.6935923099517822,3.863115072250366,8.921923637390137,2.067715644836426
1_20251106_212443,1762435447440,1,0.3685608208179474,0.48954063653945923,0.39854878187179565,0.6824014782905579,1.2609889507293701,3.1483733654022217,1.4014109373092651,3.931589126586914,8.843393325805664,2.3950109481811523,-0.21243584156036377,-0.06540070474147797,-0.06415988504886627,22.034982681274414,-31.228492736816406,0.582183837890625,0.0547792911529541,-0.06282424926757812,0.26183629035949707,3.87680983543396,8.906217575073242,2.1331746578216553
1_20251106_212443,1762435447460,1,0.37043508887290955,0.4890470504760742,0.39691978693008423,0.682689905166626,1.2609889507293701,3.1483733654022217,1.4014109373092651,3.931589126586914,8.843393325805664,2.3950109481811523,-0.21243584156036377,-0.06540070474147797,-0.06415988504886627,21.9366512298584,-31.282379150390625,0.30687904357910156,0.0547792911529541,-0.06282424926757812,0.26183629035949707,3.87680983543396,8.906217575073242,2.1331746578216553
1_20251106_212443,1762435447481,1,0.3728432059288025,0.48814329504966736,0.3953023850917816,0.6829642057418823,1.2719156742095947,3.143575429916382,1.4311506748199463,3.6131739616394043,8.84698486328125,2.1843299865722656,-0.3046764135360718,-0.11426987498998642,-0.1344093382358551,21.948192596435547,-31.32884979248047,0.008955001831054688,-0.20262742042541504,-0.07391643524169922,0.047295570373535156,3.8158013820648193,8.92090129852295,2.1370344161987305
1_20251106_212443,1762435447501,1,0.3758448362350464,0.48748672008514404,0.39331576228141785,0.6829348802566528,1.2756288051605225,3.139904499053955,1.4477790594100952,3.385734796524048,8.642290115356445,2.4189517498016357,-0.3303327262401581,-0.16924771666526794,-0.10020089894533157,21.948165893554688,-31.352073669433594,-0.1808013916015625,-0.3440532684326172,-0.22288894653320312,0.22553396224975586,3.729788064956665,8.865179061889648,2.19341778755188
1_20251106_212443,1762435447517,1,0.3789777457714081,0.48719388246536255,0.39079612493515015,0.682858943939209,1.2772523164749146,3.136915922164917,1.460209608078003,3.2456798553466797,8.632713317871094,2.6775145530700684,-0.3504912555217743,-0.1515326201915741,-0.04583394154906273,21.948165893554688,-31.352073669433594,-0.1808013916015625,-0.3872866630554199,-0.1859731674194336,0.38727736473083496,3.6329665184020996,8.818686485290527,2.2902371883392334
1_20251106_212443,1762435447536,1,0.3817303478717804,0.48680394887924194,0.38800379633903503,0.6831960678100586,1.2772523164749146,3.136915922164917,1.460209608078003,3.2456798553466797,8.632713317871094,2.6775145530700684,-0.3614868223667145,-0.11426988244056702,0.009143882431089878,22.014598846435547,-31.282623291015625,-0.4473552703857422,-0.3872866630554199,-0.1859731674194336,0.38727736473083496,3.6329665184020996,8.818686485290527,2.2902371883392334
1_20251106_212443,1762435447555,1,0.3840809166431427,0.4862838387489319,0.38500040769577026,0.6839478015899658,1.2781715393066406,3.1296956539154053,1.4892467260360718,3.3115177154541016,8.715310096740723,2.585341691970825,-0.3950843811035156,-0.11793506145477295,0.06351084262132645,22.150917053222656,-31.270782470703125,-0.7528343200683594,-0.19940686225891113,-0.06501102447509766,0.18427038192749023,3.5109245777130127,8.78032112121582,2.401071310043335
1_20251106_212443,1762435447574,1,0.38627803325653076,0.48589906096458435,0.38149553537368774,0.68494713306427,1.2779698371887207,3.1256725788116455,1.5045795440673828,3.4036903381347656,8.677003860473633,2.5805535316467285,-0.3950843811035156,-0.11793506145477295,0.06351084262132645,22.286149978637695,-31.26042938232422,-0.9096355438232422,-0.08578729629516602,-0.08265399932861328,0.1435856819152832,3.4894776344299316,8.759657859802246,2.4369678497314453
1_20251106_212443,1762435447593,1,0.3882092237472534,0.48555535078048706,0.3775375187397003,0.6862907409667969,1.2779698371887207,3.1256725788116455,1.5045795440673828,3.4036903381347656,8.677003860473633,2.5805535316467285,-0.4738859236240387,-0.09594393521547318,0.18201859295368195,22.398406982421875,-31.2381591796875,-1.1617660522460938,-0.08578729629516602,-0.08265399932861328,0.1435856819152832,3.4894776344299316,8.759657859802246,2.4369678497314453
1_20251106_212443,1762435447613,1,0.3895760178565979,0.4850083887577057,0.37326177954673767,0.6882390975952148,1.2790333032608032,3.1181528568267822,1.533887505531311,3.8310370445251465,8.881699562072754,2.6236472129821777,-0.5245876908302307,-0.12282197922468185,0.2314986288547516,22.456985473632812,-31.306968688964844,-1.4177074432373047,0.25824451446533203,0.11545467376708984,0.11621880531311035,3.5727925300598145,8.766244888305664,2.5074284076690674
1_20251106_212443,1762435447632,1,0.3911903202533722,0.4847777187824249,0.3681058883666992,0.6902599334716797,1.2816189527511597,3.116030693054199,1.5485820770263672,4.179378509521484,9.155824661254883,2.9767768383026123,-0.6186608672142029,-0.1570304036140442,0.2302769124507904,22.495113372802734,-31.314041137695312,-1.7273750305175781,0.48526859283447266,0.3116636276245117,0.37547874450683594,3.6941099166870117,8.844161033630371,2.6012980937957764
1_20251106_212443,1762435447651,1,0.39331862330436707,0.4844296872615814,0.36221519112586975,0.6924077868461609,1.2859420776367188,3.115250587463379,1.56509268283844,4.374497413635254,9.294681549072266,3.531010627746582,-0.6186608672142029,-0.1570304036140442,0.2302769124507904,22.483678817749023,-31.348594665527344,-2.1206283569335938,0.5443100929260254,0.3604164123535156,0.7437701225280762,3.8301873207092285,8.93426513671875,2.787240505218506
1_20251106_212443,1762435447669,1,0.3961469829082489,0.48381507396698,0.35646387934684753,0.694207489490509,1.2859420776367188,3.115250587463379,1.56509268283844,4.374497413635254,9.294681549072266,3.531010627746582,-0.5667373538017273,-0.1307632327079773,-0.000629953108727932,22.49782943725586,-31.356719970703125,-2.485342025756836,0.5443100929260254,0.3604164123535156,0.7437701225280762,3.8301873207092285,8.93426513671875,2.787240505218506
1_20251106_212443,1762435447689,1,0.3994770348072052,0.48261335492134094,0.3519383668899536,0.6954436302185059,1.291825294494629,3.1159920692443848,1.5841155052185059,4.343374252319336,9.434736251831055,3.6136069297790527,-0.5508549213409424,-0.04768562689423561,-0.11363992094993591,22.496070861816406,-31.428695678710938,-2.8248329162597656,0.4105496406555176,0.4003772735595703,0.6610932350158691,3.9328246116638184,9.034358978271484,2.9525136947631836
1_20251106_212443,1762435447710,1,0.40311896800994873,0.4804810583591461,0.3484232723712921,0.6965876221656799,1.3033037185668945,3.1207149028778076,1.6206822395324707,3.9411654472351074,9.487405776977539,3.3047683238983154,-0.5887284874916077,-0.0012599086621776223,-0.14601576328277588,22.411420822143555,-31.468154907226562,-3.2075138092041016,-0.0272216796875,0.2909069061279297,0.2141425609588623,3.9683871269226074,9.19649887084961,3.090625762939453
1_20251106_212443,1762435447727,1,0.40701091289520264,0.4778151214122772,0.34502455592155457,0.6978487372398376,1.3033037185668945,3.1207149028778076,1.6206822395324707,3.9411654472351074,9.487405776977539,3.3047683238983154,-0.6229369044303894,-0.019585849717259407,-0.09653571248054504,22.417192459106445,-31.425498962402344,-3.7068233489990234,-0.0272216796875,0.2909069061279297,0.2141425609588623,3.9683871269226074,9.19649887084961,3.090625762939453
1_20251106_212443,1762435447747,1,0.4108469784259796,0.47531530261039734,0.3410993814468384,0.699236273765564,1.3130266666412354,3.1276283264160156,1.6568886041641235,3.995032787322998,9.546062469482422,3.7416915893554688,-0.6485932469367981,-0.059902921319007874,-0.02628627046942711,22.457111358642578,-31.418533325195312,-4.164905548095703,0.03218388557434082,0.24574661254882812,0.4593930244445801,3.9628489017486572,9.300315856933594,3.2822985649108887
1_20251106_212443,1762435447766,1,0.41450661420822144,0.47320252656936646,0.3364746570587158,0.7007485032081604,1.3182387351989746,3.1323459148406982,1.677384376525879,4.162619590759277,9.680131912231445,4.222905158996582,-0.6430954933166504,-0.0843375101685524,0.006089558359235525,22.55010223388672,-31.332916259765625,-4.632957458496094,0.15981626510620117,0.30385303497314453,0.7524852752685547,4.002803325653076,9.3762788772583,3.4704198837280273
1_20251106_212443,1762435447784,1,0.4179840087890625,0.4713388979434967,0.3316279947757721,0.7022477388381958,1.3238552808761597,3.1378583908081055,1.6998196840286255,4.245216369628906,9.751955032348633,4.550896644592285,-0.5868959426879883,-0.03852265328168869,-0.03483837842941284,22.60492706298828,-31.275062561035156,-5.075977325439453,0.19393062591552734,0.3005409240722656,0.8643813133239746,4.051285743713379,9.451414108276367,3.6865153312683105
1_20251106_212443,1762435447804,1,0.42128539085388184,0.4691832959651947,0.32750171422958374,0.7036535143852234,1.3295949697494507,3.143965721130371,1.7227723598480225,4.198531150817871,9.768712997436523,4.283954620361328,-0.5154247879981995,0.004848738666623831,-0.09714657068252563,22.636493682861328,-31.194091796875,-5.478900909423828,0.11779642105102539,0.25383949279785156,0.4779515266418457,4.080734729766846,9.514873504638672,3.8060030937194824
1_20251106_212443,1762435447822,1,0.4244909882545471,0.46676531434059143,0.32430869340896606,0.7048130631446838,1.3347824811935425,3.150054931640625,1.7442972660064697,4.089599609375,9.755544662475586,4.15826416015625,-0.45006221532821655,-0.011033744551241398,-0.1337984800338745,22.682546615600586,-31.08599090576172,-6.002452850341797,0.007091999053955078,0.1925373077392578,0.28180885314941406,4.082507610321045,9.563007354736328,3.876455307006836
1_20251106_212443,1762435447842,1,0.4277534484863281,0.4646848738193512,0.32164040207862854,0.7054377198219299,1.3400020599365234,3.1571524143218994,1.7688056230545044,3.9244070053100586,9.666964530944824,4.070879936218262,-0.4005821645259857,-0.039744384586811066,-0.13807451725006104,22.775733947753906,-31.000099182128906,-6.497537612915039,-0.1264805793762207,0.08316612243652344,0.15553951263427734,4.050887584686279,9.5837984085083,3.9153404235839844
1_20251106_212443,1762435447860,1,0.4309946596622467,0.46303772926330566,0.3191768527030945,0.7056668996810913,1.3400020599365234,3.1571524143218994,1.7688056230545044,3.9244070053100586,9.666964530944824,4.070879936218262,-0.38897573947906494,-0.033635739237070084,-0.12402462959289551,22.916370391845703,-30.924400329589844,-6.90982723236084,-0.1264805793762207,0.08316612243652344,0.15553951263427734,4.050887584686279,9.5837984085083,3.9153404235839844
1_20251106_212443,1762435447879,1,0.4340537190437317,0.46142786741256714,0.31679171323776245,0.7059211730957031,1.3463212251663208,3.1697824001312256,1.8090863227844238,3.6778149604797363,9.733999252319336,3.9942688941955566,-0.38836488127708435,-0.026916226372122765,-0.11180733144283295,22.959613800048828,-30.85491943359375,-7.339556694030762,-0.254854679107666,0.09746932983398438,0.061048030853271484,3.9326696395874023,9.636529922485352,3.933220863342285
1_20251106_212443,1762435447900,1,0.43699827790260315,0.4598176181316376,0.31443458795547485,0.7062090039253235,1.3463212251663208,3.1697824001312256,1.8090863227844238,3.6778149604797363,9.733999252319336,3.9942688941955566,-0.3963060975074768,-0.03730092570185661,-0.08431841433048248,23.052309036254883,-30.769699096679688,-7.767060279846191,-0.254854679107666,0.09746932983398438,0.061048030853271484,3.9326696395874023,9.636529922485352,3.933220863342285
1_20251106_212443,1762435447919,1,0.43990227580070496,0.45833948254585266,0.3118245601654053,0.706524133682251,1.348270058631897,3.1778736114501953,1.8339173793792725,3.638312339782715,9.795047760009766,4.318669319152832,-0.34255000948905945,-0.031192278489470482,-0.0629381537437439,23.118431091308594,-30.712265014648438,-8.087943077087402,-0.23548603057861328,0.1268138885498047,0.30835866928100586,3.873798370361328,9.668233871459961,4.010310649871826
1_20251106_212443,1762435447939,1,0.4424291253089905,0.45705685019493103,0.30948981642723083,0.7068037390708923,1.3497215509414673,3.190321922302246,1.8753451108932495,3.7185144424438477,9.69329833984375,4.631098747253418,-0.27596575021743774,-0.01530979759991169,-0.03606010600924492,23.236215591430664,-30.601287841796875,-8.419323921203613,-0.0878903865814209,0.009146690368652344,0.3992195129394531,3.8064048290252686,9.684151649475098,4.231879234313965
1_20251106_212443,1762435447955,1,0.4442928731441498,0.4559156894683838,0.3076190650463104,0.7071882486343384,1.3501622676849365,3.1952617168426514,1.893246054649353,3.796322822570801,9.657386779785156,4.634690284729004,-0.27596575021743774,-0.01530979759991169,-0.03606010600924492,23.236215591430664,-30.601287841796875,-8.419323921203613,-0.008065462112426758,-0.021411895751953125,0.3222489356994629,3.8043882846832275,9.67879867553711,4.312441349029541
1_20251106_212443,1762435447976,1,0.4458959996700287,0.4552040994167328,0.30601853132247925,0.7073320746421814,1.3506793975830078,3.201047897338867,1.9152319431304932,3.8023080825805664,9.652599334716797,4.552093505859375,-0.13974294066429138,-0.08128318190574646,-0.040947023779153824,23.31552505493164,-30.53009796142578,-8.780000686645508,-0.0016641616821289062,-0.020959854125976562,0.19172191619873047,3.8039722442626953,9.673559188842773,4.3603715896606445
1_20251106_212443,1762435447995,1,0.44748327136039734,0.4551449120044708,0.30470746755599976,0.7069336771965027,1.3506793975830078,3.201047897338867,1.9152319431304932,3.8023080825805664,9.652599334716797,4.552093505859375,-0.08354338258504868,-0.09655480086803436,-0.0678250715136528,23.441179275512695,-30.482192993164062,-9.004080772399902,-0.0016641616821289062,-0.020959854125976562,0.19172191619873047,3.8039722442626953,9.673559188842773,4.3603715896606445
1_20251106_212443,1762435448014,1,0.44900277256965637,0.4553475081920624,0.3038603961467743,0.7062039375305176,1.351011037826538,3.2066519260406494,1.9388816356658936,3.747243642807007,9.553244590759277,4.54371452331543,-0.041393719613552094,-0.07089848816394806,-0.10569868236780167,23.53108024597168,-30.423980712890625,-9.242884635925293,-0.04538273811340332,-0.0962514877319336,0.14667463302612305,3.79262638092041,9.649496078491211,4.397039890289307
1_20251106_212443,1762435448032,1,0.45052698254585266,0.45544394850730896,0.3035624623298645,0.7052985429763794,1.3502833843231201,3.212932586669922,1.9739270210266113,3.5521247386932373,9.277923583984375,4.3533830642700195,-0.031009020283818245,-0.031192278489470482,-0.11791597306728363,23.54857063293457,-30.35797119140625,-9.484367370605469,-0.16637039184570312,-0.2531280517578125,-0.04498624801635742,3.7184951305389404,9.531051635742188,4.398369312286377
1_20251106_212443,1762435448052,1,0.45159271359443665,0.4551147222518921,0.30380603671073914,0.7047244310379028,1.3502833843231201,3.212932586669922,1.9739270210266113,3.5521247386932373,9.277923583984375,4.3533830642700195,-0.037117667496204376,-0.029359685257077217,-0.10264436155557632,23.61330795288086,-30.30242156982422,-9.616022109985352,-0.16637039184570312,-0.2531280517578125,-0.04498624801635742,3.7184951305389404,9.531051635742188,4.398369312286377
1_20251106_212443,1762435448072,1,0.4529397189617157,0.45495617389678955,0.30372193455696106,0.7039982080459595,1.3474117517471313,3.2149157524108887,2.010044813156128,3.5150160789489746,9.020557403564453,4.477876663208008,-0.010239620693027973,-0.039744384586811066,-0.09042706340551376,23.70333480834961,-30.220848083496094,-9.678586959838867,-0.1338655948638916,-0.3435707092285156,0.06754779815673828,3.648881673812866,9.364128112792969,4.4103288650512695
1_20251106_212443,1762435448090,1,0.45409977436065674,0.4550059735774994,0.30371010303497314,0.7032234072685242,1.3474117517471313,3.2149157524108887,2.010044813156128,3.5150160789489746,9.020557403564453,4.477876663208008,0.030688317492604256,-0.04524216428399086,-0.09531398117542267,23.781654357910156,-30.15100860595703,-9.904101371765137,-0.1338655948638916,-0.3435707092285156,0.06754779815673828,3.648881673812866,9.364128112792969,4.4103288650512695
1_20251106_212443,1762435448110,1,0.4551229476928711,0.45522916316986084,0.3039548993110657,0.7023111581802368,1.3436199426651,3.2115859985351562,2.04058575630188,3.5174102783203125,8.794315338134766,4.273180961608887,0.030688317492604256,-0.04524216428399086,-0.09531398117542267,23.809736251831055,-30.097976684570312,-10.023711204528809,-0.08778095245361328,-0.37923622131347656,-0.10309648513793945,3.605191230773926,9.173551559448242,4.376277446746826
1_20251106_212443,1762435448128,1,0.45619288086891174,0.45570188760757446,0.3042905032634735,0.7011641263961792,1.3414430618286133,3.208338499069214,2.053447723388672,3.4527695178985596,8.69136905670166,4.2276930809021,0.06856193393468857,-0.06478983163833618,-0.11180733144283295,23.887378692626953,-30.01746368408203,-10.059733390808105,-0.12193751335144043,-0.3857460021972656,-0.11886739730834961,3.57470703125,9.077115058898926,4.346560478210449
1_20251106_212443,1762435448148,1,0.4572124183177948,0.45620793104171753,0.30474919080734253,0.6999707221984863,1.338589072227478,3.203584909439087,2.0665829181671143,3.3917200565338135,8.641092300415039,4.201357841491699,0.06611847132444382,-0.03485746681690216,-0.10753127932548523,23.9278564453125,-29.951759338378906,-10.111007690429688,-0.14638972282409668,-0.3488178253173828,-0.11616230010986328,3.53810977935791,8.989910125732422,4.3175201416015625
1_20251106_212443,1762435448166,1,0.45814502239227295,0.4565201997756958,0.3052882254123688,0.6989216804504395,1.3358856439590454,3.1983344554901123,2.077282667160034,3.431222438812256,8.508220672607422,4.10200309753418,0.077114038169384,-0.03546833246946335,-0.08492928743362427,24.003494262695312,-29.897171020507812,-10.066460609436035,-0.0855100154876709,-0.38535213470458984,-0.17241382598876953,3.5167324542999268,8.893572807312012,4.274416923522949
1_20251106_212443,1762435448185,1,0.45885011553764343,0.45693057775497437,0.3058212101459503,0.6979573369026184,1.3329434394836426,3.191861152648926,2.087644338607788,3.432419776916504,8.453155517578125,4.140308380126953,0.077114038169384,-0.03546833246946335,-0.08492928743362427,24.129077911376953,-29.826171875,-10.087268829345703,-0.06745004653930664,-0.35233402252197266,-0.10728693008422852,3.4998698234558105,8.805489540100098,4.247595310211182
1_20251106_212443,1762435448205,1,0.45938822627067566,0.4577474296092987,0.3062494099140167,0.696879506111145,1.3329434394836426,3.191861152648926,2.087644338607788,3.432419776916504,8.453155517578125,4.140308380126953,0.09666170924901962,-0.07761799544095993,-0.06660334020853043,24.227876663208008,-29.794837951660156,-10.06930160522461,-0.06745004653930664,-0.35233402252197266,-0.10728693008422852,3.4998698234558105,8.805489540100098,4.247595310211182
1_20251106_212443,1762435448224,1,0.4600250720977783,0.4583744704723358,0.3067028522491455,0.6958470344543457,1.3261553049087524,3.1771342754364014,2.1050121784210205,3.2995471954345703,8.3897123336792,4.013421535491943,0.05878809839487076,-0.006757691968232393,-0.08431841433048248,24.254364013671875,-29.755577087402344,-10.06752872467041,-0.13452720642089844,-0.28046226501464844,-0.14757251739501953,3.4340744018554688,8.670174598693848,4.160994052886963
1_20251106_212443,1762435448243,1,0.46067285537719727,0.4585185647010803,0.307256281375885,0.6950790286064148,1.3261553049087524,3.1771342754364014,2.1050121784210205,3.2995471954345703,8.3897123336792,4.013421535491943,0.04168388247489929,0.034781113266944885,-0.08431841433048248,24.345317840576172,-29.63794708251953,-9.967105865478516,-0.13452720642089844,-0.28046226501464844,-0.14757251739501953,3.4340744018554688,8.670174598693848,4.160994052886963
1_20251106_212443,1762435448261,1,0.4612877070903778,0.45830968022346497,0.3078608214855194,0.6945412755012512,1.3221367597579956,3.1682424545288086,2.1132657527923584,3.3414440155029297,8.411258697509766,4.06010627746582,0.05206858366727829,0.05005272850394249,-0.08431841433048248,24.42911148071289,-29.657638549804688,-9.950684547424316,-0.07410430908203125,-0.20713233947753906,-0.08070993423461914,3.415548324584961,8.618391036987305,4.1408162117004395
1_20251106_212443,1762435448280,1,0.4618247151374817,0.4580529034137726,0.30857789516448975,0.6940354108810425,1.3184630870819092,3.1599953174591064,2.1197409629821777,3.335458755493164,8.398092269897461,3.9152636528015137,0.05512291193008423,0.032337650656700134,-0.08065322786569595,24.514116287231445,-29.652481079101562,-9.906702995300293,-0.0640716552734375,-0.176239013671875,-0.18044233322143555,3.3995304107666016,8.574331283569336,4.095705986022949
1_20251106_212443,1762435448299,1,0.46235132217407227,0.4579554498195648,0.30924034118652344,0.6934540271759033,1.3109192848205566,3.143836736679077,2.1294102668762207,3.1989951133728027,8.34781551361084,3.945189952850342,0.011140646412968636,0.04394408315420151,-0.06904679536819458,24.576160430908203,-29.623802185058594,-9.863174438476562,-0.13811016082763672,-0.1409473419189453,-0.07277250289916992,3.3371052742004395,8.488762855529785,4.017962455749512
1_20251106_212443,1762435448321,1,0.46297213435173035,0.4576377868652344,0.3096139430999756,0.6930827498435974,1.3060213327407837,3.1337356567382812,2.1346652507781982,3.2325124740600586,8.29394817352295,3.9978601932525635,-0.005352702923119068,0.06715694069862366,-0.04461221396923065,24.651180267333984,-29.593246459960938,-9.927285194396973,-0.08367419242858887,-0.1558513641357422,-0.016081571578979492,3.3161866664886475,8.449799537658691,4.013941764831543
1_20251106_212443,1762435448339,1,0.46341243386268616,0.4571203887462616,0.309893399477005,0.6930050253868103,1.3060213327407837,3.1337356567382812,2.1346652507781982,3.2325124740600586,8.29394817352295,3.9978601932525635,0.020303616300225258,0.06349175423383713,-0.02567540854215622,24.66297149658203,-29.592994689941406,-9.872729301452637,-0.08367419242858887,-0.1558513641357422,-0.016081571578979492,3.3161866664886475,8.449799537658691,4.013941764831543
1_20251106_212443,1762435448359,1,0.46366220712661743,0.456810861825943,0.3102007806301117,0.692904531955719,1.2980496883392334,3.1170756816864014,2.142177104949951,3.288773536682129,8.377741813659668,3.8877313137054443,0.0074754562228918076,0.09220239520072937,-0.02872973307967186,24.66297149658203,-29.592994689941406,-9.872729301452637,-0.01352238655090332,-0.03443336486816406,-0.08786129951477051,3.3022959232330322,8.412175178527832,3.975592613220215
1_20251106_212443,1762435448377,1,0.4638439416885376,0.45624080300331116,0.3105986416339874,0.6929802298545837,1.2944722175598145,3.109046220779419,2.145564556121826,3.384537696838379,8.38612174987793,3.9631457328796387,-0.05483274161815643,0.1416824460029602,-0.050109993666410446,24.664085388183594,-29.568283081054688,-9.831652641296387,0.06579327583312988,-0.020842552185058594,-0.009957313537597656,3.318744421005249,8.406964302062988,3.9731030464172363
1_20251106_212443,1762435448395,1,0.4642617404460907,0.4550107419490814,0.3109190762042999,0.6933653950691223,1.2914233207702637,3.1019127368927,2.1489925384521484,3.3881287574768066,8.44477653503418,4.127140998840332,-0.10064759850502014,0.15573233366012573,-0.07026852667331696,24.71373176574707,-29.552276611328125,-9.856459617614746,0.05550742149353027,0.030249595642089844,0.1232304573059082,3.3326213359832764,8.41452693939209,4.003910541534424
1_20251106_212443,1762435448415,1,0.4650506377220154,0.45347291231155396,0.31100520491600037,0.693805456161499,1.2882137298583984,3.094529628753662,2.153451442718506,3.335458755493164,8.462732315063477,4.2803635597229,-0.08109992742538452,0.1520671397447586,-0.08615101128816605,24.708599090576172,-29.64044952392578,-9.83127498626709,0.002269744873046875,0.03856468200683594,0.2211623191833496,3.333189010620117,8.42416763305664,4.059201240539551
1_20251106_212443,1762435448434,1,0.4657762050628662,0.4519350230693817,0.31132686138153076,0.6941778063774109,1.2852706909179688,3.087857246398926,2.1578195095062256,3.3163058757781982,8.420835494995117,4.184599876403809,-0.08109992742538452,0.1520671397447586,-0.08615101128816605,24.774673461914062,-29.536697387695312,-9.759129524230957,-0.013506650924682617,-0.0026655197143554688,0.10031890869140625,3.329812526702881,8.423501014709473,4.084280967712402
1_20251106_212443,1762435448452,1,0.4661705493927002,0.4502272605895996,0.31193849444389343,0.694748044013977,1.2852706909179688,3.087857246398926,2.1578195095062256,3.3163058757781982,8.420835494995117,4.184599876403809,-0.013904809020459652,0.15634319186210632,-0.05866210535168648,24.788284301757812,-29.499176025390625,-9.663232803344727,-0.013506650924682617,-0.0026655197143554688,0.10031890869140625,3.329812526702881,8.423501014709473,4.084280967712402
1_20251106_212443,1762435448471,1,0.4660728871822357,0.44867560267448425,0.31269896030426025,0.6954751014709473,1.279961109161377,3.0760715007781982,2.1643872261047363,3.3103206157684326,8.455550193786621,3.802741050720215,-0.04505890607833862,0.12396736443042755,-0.02262108400464058,24.77660369873047,-29.487686157226562,-9.63642692565918,-0.017262935638427734,0.019170761108398438,-0.20278596878051758,3.3275835514068604,8.436379432678223,4.005527019500732
1_20251106_212443,1762435448491,1,0.46625879406929016,0.4478191137313843,0.31285950541496277,0.695830225944519,1.2773447036743164,3.0705177783966064,2.1670114994049072,3.348626136779785,8.534555435180664,3.9032928943634033,-0.0823216587305069,0.07387645542621613,0.024415500462055206,24.801891326904297,-29.461654663085938,-9.567337036132812,0.016834020614624023,0.07854080200195312,-0.0817873477935791,3.331792116165161,8.456014633178711,3.9850802421569824
1_20251106_212443,1762435448511,1,0.4665377736091614,0.4474724531173706,0.3123971223831177,0.6960739493370056,1.2752268314361572,3.065819025039673,2.1695690155029297,3.4527697563171387,8.645881652832031,4.00623893737793,-0.0823216587305069,0.07387645542621613,0.024415500462055206,24.902114868164062,-29.393592834472656,-9.453963279724121,0.09678220748901367,0.15189361572265625,0.01692676544189453,3.355987548828125,8.493988037109375,3.989312171936035
1_20251106_212443,1762435448530,1,0.46675464510917664,0.4472877085208893,0.3116353154182434,0.6963887214660645,1.2737846374511719,3.062224864959717,2.1720614433288574,3.526986598968506,8.729674339294434,4.056515693664551,-0.07987819612026215,0.042111486196517944,0.03296760469675064,24.99003791809082,-29.33807373046875,-9.422441482543945,0.13679933547973633,0.18854904174804688,0.05376291275024414,3.3901872634887695,8.541125297546387,4.002752780914307
1_20251106_212443,1762435448549,1,0.46693843603134155,0.44709405303001404,0.31097742915153503,0.6966838836669922,1.272760272026062,3.059511661529541,2.1747310161590576,3.5162129402160645,8.796709060668945,4.112776756286621,-0.07987819612026215,0.042111486196517944,0.03296760469675064,24.99075698852539,-29.31390380859375,-9.327299118041992,0.10082054138183594,0.2044668197631836,0.08801937103271484,3.4153923988342285,8.592242240905762,4.024757385253906
1_20251106_212443,1762435448568,1,0.46737444400787354,0.44642528891563416,0.31051477789878845,0.6970266699790955,1.2719422578811646,3.057675838470459,2.177551507949829,3.4719223976135254,8.862546920776367,4.128337860107422,-0.11653007566928864,0.11969131231307983,-0.059272971004247665,24.997297286987305,-29.20062255859375,-9.351956367492676,0.04522418975830078,0.21624374389648438,0.08286428451538086,3.4266982078552246,8.646303176879883,4.045473575592041
1_20251106_212443,1762435448587,1,0.46812036633491516,0.4453281760215759,0.31031396985054016,0.6973173022270203,1.2711316347122192,3.0563344955444336,2.180530548095703,3.414463996887207,8.793118476867676,4.1546735763549805,-0.0975932702422142,0.09464585781097412,-0.06965766847133636,24.947540283203125,-29.228378295898438,-9.4085111618042,-0.009787321090698242,0.11745166778564453,0.08735990524291992,3.4242513179779053,8.675666809082031,4.0673136711120605
1_20251106_212443,1762435448606,1,0.4690450429916382,0.44447770714759827,0.31019267439842224,0.6972925066947937,1.2699865102767944,3.0550639629364014,2.183551073074341,3.287576675415039,8.677003860473633,4.136717796325684,-0.05788706988096237,0.038446299731731415,-0.04461221396923065,25.01117706298828,-29.185928344726562,-9.486364364624023,-0.10933971405029297,0.0010700225830078125,0.05552339553833008,3.396916389465332,8.675933837890625,4.0811944007873535
1_20251106_212443,1762435448625,1,0.4697713255882263,0.4441460967063904,0.31000545620918274,0.6970981359481812,1.2699865102767944,3.0550639629364014,2.183551073074341,3.287576675415039,8.677003860473633,4.136717796325684,-0.05788706988096237,0.038446299731731415,-0.04461221396923065,25.08489990234375,-29.168739318847656,-9.46964168548584,-0.10933971405029297,0.0010700225830078125,0.05552339553833008,3.396916389465332,8.675933837890625,4.0811944007873535
1_20251106_212443,1762435448645,1,0.4701565206050873,0.4441523849964142,0.30952247977256775,0.6970490217208862,1.2667967081069946,3.0529186725616455,2.190749406814575,3.3713700771331787,8.760797500610352,4.346200942993164,-0.04322631657123566,-0.011033744551241398,0.09527581185102463,25.062332153320312,-29.144676208496094,-9.52415943145752,0.006633758544921875,0.06599617004394531,0.1893315315246582,3.364736318588257,8.694801330566406,4.156869411468506
1_20251106_212443,1762435448662,1,0.4700545072555542,0.4442932605743408,0.3088040351867676,0.6973466277122498,1.2657787799835205,3.0524396896362305,2.19439959526062,3.4814987182617188,8.824241638183594,4.367747783660889,-0.010239620693027973,-0.020807579159736633,0.09955186396837234,25.075210571289062,-29.14293670654297,-9.61828327178955,0.09340977668762207,0.10355186462402344,0.1687026023864746,3.3880889415740967,8.72068977355957,4.199045181274414
1_20251106_212443,1762435448682,1,0.4698012173175812,0.444673627614975,0.30807122588157654,0.697598934173584,1.264823079109192,3.052037000656128,2.1987154483795166,3.447981357574463,8.764388084411621,4.276772499084473,0.008697185665369034,-0.012866337783634663,0.06717602908611298,25.049528121948242,-29.16950225830078,-9.633308410644531,0.04791402816772461,0.034958839416503906,0.062181949615478516,3.4000673294067383,8.729429244995117,4.214590549468994
1_20251106_212443,1762435448701,1,0.4695794880390167,0.44506019353866577,0.30758824944496155,0.6977148056030273,1.2640427350997925,3.051457643508911,2.2026495933532715,3.430025577545166,8.65066909790039,4.228890419006348,0.008697185665369034,-0.012866337783634663,0.06717602908611298,25.051530838012695,-29.143577575683594,-9.713878631591797,0.023966550827026367,-0.06300830841064453,0.011439800262451172,3.4060590267181396,8.713677406311035,4.2174506187438965
1_20251106_212443,1762435448720,1,0.46936938166618347,0.4451712667942047,0.30732861161231995,0.6978997588157654,1.2640427350997925,3.051457643508911,2.2026495933532715,3.430025577545166,8.65066909790039,4.228890419006348,-0.02306777983903885,0.03050505556166172,0.057402193546295166,25.049415588378906,-29.181251525878906,-9.714670181274414,0.023966550827026367,-0.06300830841064453,0.011439800262451172,3.4060590267181396,8.713677406311035,4.2174506187438965
1_20251106_212443,1762435448739,1,0.46927759051322937,0.4452028274536133,0.3068646788597107,0.6981454491615295,1.2632403373718262,3.0491108894348145,2.2100818157196045,3.480301856994629,8.518993377685547,4.303107261657715,-0.028565561398863792,0.00668133283033967,0.06289997696876526,25.110458374023438,-29.16552734375,-9.63085651397705,0.04502558708190918,-0.13110923767089844,0.07090902328491211,3.4352762699127197,8.650102615356445,4.232198238372803
1_20251106_212443,1762435448761,1,0.4691510498523712,0.44544118642807007,0.30616042017936707,0.698387622833252,1.2631821632385254,3.0473358631134033,2.214919090270996,3.5126218795776367,8.577648162841797,4.428797721862793,-0.04566977173089981,-0.004314232151955366,0.07817159593105316,24.99927520751953,-29.197921752929688,-9.622282028198242,0.06187629699707031,-0.05796337127685547,0.15727949142456055,3.4507455825805664,8.635611534118652,4.271518230438232
1_20251106_212443,1762435448779,1,0.4689377546310425,0.44552087783813477,0.3052661418914795,0.6988713145256042,1.2635133266448975,3.0459725856781006,2.2193610668182373,3.603597640991211,8.642290115356445,4.548501968383789,-0.029787292703986168,-3.817921970039606e-05,0.08000419288873672,24.938528060913086,-29.213241577148438,-9.746644973754883,0.12228155136108398,0.0053424835205078125,0.2215871810913086,3.481316089630127,8.636947631835938,4.3269147872924805
1_20251106_212443,1762435448797,1,0.46865931153297424,0.44554221630096436,0.30445045232772827,0.6994000673294067,1.264078974723816,3.044731855392456,2.223926067352295,3.5832479000091553,8.659048080444336,4.467103004455566,-0.0035201087594032288,0.012789979577064514,0.06167824938893318,24.938528060913086,-29.213241577148438,-9.746644973754883,0.08154535293579102,0.01768016815185547,0.11215066909790039,3.5017025470733643,8.64136791229248,4.354952335357666
1_20251106_212443,1762435448816,1,0.4683850109577179,0.445522665977478,0.3038195073604584,0.6998705267906189,1.2647713422775269,3.043224334716797,2.228483200073242,3.5473363399505615,8.545329093933105,4.347397804260254,0.010529778897762299,0.015233438462018967,0.0555696003139019,24.88888168334961,-29.229248046875,-9.721837997436523,0.03650712966918945,-0.07683086395263672,-0.006043434143066406,3.510829210281372,8.622159957885742,4.35344123840332
1_20251106_212443,1762435448836,1,0.4680579900741577,0.4455927014350891,0.303436815738678,0.7002106308937073,1.2647713422775269,3.043224334716797,2.228483200073242,3.5473363399505615,8.545329093933105,4.347397804260254,0.0129732396453619,0.0036270092241466045,0.05862392112612724,24.77729034423828,-29.27379608154297,-9.75407600402832,0.03650712966918945,-0.07683086395263672,-0.006043434143066406,3.510829210281372,8.622159957885742,4.35344123840332
1_20251106_212443,1762435448855,1,0.4677543640136719,0.44584882259368896,0.30302634835243225,0.7004282474517822,1.2666184902191162,3.0389420986175537,2.2362263202667236,3.600006580352783,8.38372802734375,4.1510820388793945,0.027633992955088615,-0.01897498592734337,0.04274144023656845,24.730154037475586,-29.2515869140625,-9.78254222869873,0.06243634223937988,-0.1669607162475586,-0.14827966690063477,3.5375702381134033,8.550688743591309,4.299361705780029
1_20251106_212443,1762435448873,1,0.4675283133983612,0.44635745882987976,0.30266574025154114,0.7004111409187317,1.2666184902191162,3.0389420986175537,2.2362263202667236,3.600006580352783,8.38372802734375,4.1510820388793945,0.027633992955088615,-0.01897498592734337,0.04274144023656845,24.727235794067383,-29.30194854736328,-9.770081520080566,0.06243634223937988,-0.1669607162475586,-0.14827966690063477,3.5375702381134033,8.550688743591309,4.299361705780029
1_20251106_212443,1762435448893,1,0.46756812930107117,0.4468902349472046,0.3022077977657318,0.7002425193786621,1.2683964967727661,3.0333478450775146,2.2408370971679688,3.4850897789001465,8.374151229858398,4.124747276306152,-0.04200458526611328,-0.011033744551241398,0.004256964195519686,24.715557098388672,-29.290451049804688,-9.74327564239502,-0.044504642486572266,-0.11470699310302734,-0.10026168823242188,3.5295944213867188,8.488858222961426,4.225008964538574
1_20251106_212443,1762435448913,1,0.467697411775589,0.4470732808113098,0.30176055431365967,0.700232207775116,1.2690409421920776,3.030076503753662,2.242992877960205,3.4826955795288086,8.374150276184082,4.2540283203125,-0.04200458526611328,-0.011033744551241398,0.004256964195519686,24.615150451660156,-29.34716796875,-9.73473834991455,-0.037519216537475586,-0.091766357421875,0.023215293884277344,3.520214796066284,8.465916633605957,4.230813026428223
1_20251106_212443,1762435448931,1,0.4681543707847595,0.44716179370880127,0.30110296607017517,0.7001534104347229,1.2696115970611572,3.027035713195801,2.2451083660125732,3.5281834602355957,8.366968154907227,4.341412544250488,-0.030398156493902206,-0.022640176117420197,-0.009182059206068516,24.651201248168945,-29.357070922851562,-9.760563850402832,0.006374835968017578,-0.07915878295898438,0.08847951889038086,3.521808624267578,8.446126937866211,4.252933025360107
1_20251106_212443,1762435448950,1,0.4684702754020691,0.4471443295478821,0.3006944954395294,0.7001288533210754,1.2702999114990234,3.023756265640259,2.247015953063965,3.5640950202941895,8.362180709838867,4.175023078918457,-0.005352702923119068,-0.01592066138982773,-0.047055672854185104,24.62603759765625,-29.35973358154297,-9.653414726257324,0.0338292121887207,-0.06715679168701172,-0.06232786178588867,3.5302658081054688,8.429337501525879,4.237350940704346
1_20251106_212443,1762435448969,1,0.46897706389427185,0.4470674693584442,0.300489604473114,0.6999265551567078,1.2708265781402588,3.0203745365142822,2.248755693435669,3.4838929176330566,8.332254409790039,4.210934638977051,-0.005352702923119068,-0.01592066138982773,-0.047055672854185104,24.60125732421875,-29.37347412109375,-9.695208549499512,-0.03709840774536133,-0.0776662826538086,-0.021132946014404297,3.520991325378418,8.409920692443848,4.232067584991455
1_20251106_212443,1762435448989,1,0.46981281042099,0.4469110667705536,0.3003213703632355,0.6995380520820618,1.2707527875900269,3.016887664794922,2.250777006149292,3.323488235473633,8.375347137451172,4.324654579162598,-0.09209549427032471,0.025618137791752815,-0.12035943567752838,24.568323135375977,-29.31293487548828,-9.708876609802246,-0.15800261497497559,-0.027658462524414062,0.07406949996948242,3.4814908504486084,8.403005599975586,4.250585079193115
1_20251106_212443,1762435449007,1,0.4710914194583893,0.4461388885974884,0.3000772297382355,0.69927579164505,1.2700796127319336,3.013737916946411,2.253185749053955,3.2337095737457275,8.334648132324219,4.526955604553223,-0.09209549427032471,0.025618137791752815,-0.12035943567752838,24.531652450561523,-29.327064514160156,-9.791709899902344,-0.1982250213623047,-0.05468559265136719,0.22109651565551758,3.4319345951080322,8.389333724975586,4.305859088897705
1_20251106_212443,1762435449027,1,0.4725077450275421,0.44486942887306213,0.2999112606048584,0.6992001533508301,1.2684242725372314,3.009981393814087,2.256258487701416,3.1211867332458496,8.247262954711914,4.4802703857421875,-0.11714094132184982,0.045165810734033585,-0.12219204008579254,24.544036865234375,-29.326004028320312,-9.818252563476562,-0.24859833717346191,-0.11365699768066406,0.13952922821044922,3.3697850704193115,8.360919952392578,4.340741157531738
1_20251106_212443,1762435449046,1,0.4735904633998871,0.4435793459415436,0.29992201924324036,0.6992826461791992,1.2684242725372314,3.009981393814087,2.256258487701416,3.1211867332458496,8.247262954711914,4.4802703857421875,-0.0719369500875473,0.03966802731156349,-0.10020089894533157,24.5703125,-29.298629760742188,-9.88432502746582,-0.24859833717346191,-0.11365699768066406,0.13952922821044922,3.3697850704193115,8.360919952392578,4.340741157531738
1_20251106_212443,1762435449064,1,0.474224716424942,0.4425477981567383,0.3000258207321167,0.6994618773460388,1.2636849880218506,3.003399610519409,2.26127028465271,3.1223840713500977,8.320283889770508,4.177417278289795,-0.0255112387239933,0.0390571653842926,-0.018345031887292862,24.610790252685547,-29.232925415039062,-9.935599327087402,-0.15508079528808594,-0.03117847442626953,-0.13363933563232422,3.2774648666381836,8.351462364196777,4.311056613922119
1_20251106_212443,1762435449083,1,0.4746919572353363,0.4418821930885315,0.3001663088798523,0.6995054483413696,1.2607612609863281,3.0002732276916504,2.2628748416900635,3.1223838329315186,8.368165969848633,4.107988357543945,-0.047502368688583374,0.04333321750164032,0.003035235218703747,24.626909255981445,-29.157196044921875,-9.892976760864258,-0.12406468391418457,0.013362884521484375,-0.16245460510253906,3.246448516845703,8.354803085327148,4.270442962646484
1_20251106_212443,1762435449102,1,0.47501298785209656,0.44138863682746887,0.30015939474105835,0.6996020674705505,1.2607612609863281,3.0002732276916504,2.2628748416900635,3.1223838329315186,8.368165969848633,4.107988357543945,-0.047502368688583374,0.04333321750164032,0.003035235218703747,24.692054748535156,-29.089492797851562,-9.983819007873535,-0.12406468391418457,0.013362884521484375,-0.16245460510253906,3.246448516845703,8.354803085327148,4.270442962646484
1_20251106_212443,1762435449121,1,0.4753325879573822,0.44093289971351624,0.29983657598495483,0.699810802936554,1.2549238204956055,2.995168685913086,2.2656190395355225,3.260044574737549,8.546525955200195,4.307895660400391,-0.10125845670700073,0.04883100092411041,0.05679133161902428,24.792957305908203,-29.0321044921875,-10.059937477111816,0.024789810180664062,0.1464519500732422,0.040058135986328125,3.2352547645568848,8.400074005126953,4.2678375244140625
1_20251106_212443,1762435449140,1,0.4756154716014862,0.44042128324508667,0.2992142140865326,0.7002070546150208,1.2524007558822632,2.9936649799346924,2.2674381732940674,3.2839856147766113,8.623136520385742,4.444359302520752,-0.10736710578203201,0.03478110954165459,0.057402193546295166,24.850868225097656,-29.078628540039062,-10.031508445739746,0.03898453712463379,0.1784496307373047,0.14121723175048828,3.2450010776519775,8.444686889648438,4.303142070770264
1_20251106_212443,1762435449160,1,0.47598934173583984,0.4400312006473541,0.29841378331184387,0.7005397081375122,1.2499743700027466,2.9929802417755127,2.2704436779022217,3.2768032550811768,8.714113235473633,4.693345069885254,-0.1134757548570633,0.03294851630926132,0.0451848991215229,24.91481590270996,-29.02416229248047,-10.055032730102539,0.025441646575927734,0.21554088592529297,0.3121623992919922,3.251361608505249,8.49857234954834,4.381182670593262
1_20251106_212443,1762435449179,1,0.47629985213279724,0.43940943479537964,0.2977105379104614,0.7010179758071899,1.2478379011154175,2.9929702281951904,2.274357318878174,3.2708182334899902,8.720097541809082,4.819035530090332,-0.09209549427032471,0.057993970811367035,0.03724365681409836,24.879865646362305,-29.00115966796875,-10.083008766174316,0.01556539535522461,0.17722034454345703,0.3502821922302246,3.2552528381347656,8.542877197265625,4.468753337860107
1_20251106_212443,1762435449200,1,0.47659891843795776,0.4384605288505554,0.297221839427948,0.7016159892082214,1.2456789016723633,2.993525505065918,2.2791433334350586,3.2803945541381836,8.711719512939453,4.6706013679504395,-0.05544360727071762,0.0799851045012474,0.027469824999570847,24.879865646362305,-29.00115966796875,-10.083008766174316,0.020113468170166016,0.13507366180419922,0.16147851943969727,3.2602810859680176,8.576645851135254,4.509122848510742
1_20251106_212443,1762435449219,1,0.4766773283481598,0.4373479187488556,0.29712218046188354,0.7022990584373474,1.243934988975525,2.994065523147583,2.2831344604492188,3.2660298347473145,8.612363815307617,4.547305107116699,-0.034063346683979034,0.06654608249664307,0.01708512380719185,24.902814865112305,-29.036300659179688,-10.177433967590332,0.004599094390869141,0.028573989868164062,0.030545711517333984,3.2614307403564453,8.583789825439453,4.516759395599365
1_20251106_212443,1762435449236,1,0.476773738861084,0.43662017583847046,0.29718881845474243,0.7026581168174744,1.2420685291290283,2.9944279193878174,2.2871456146240234,3.176251173019409,8.522584915161133,4.605960845947266,-0.04322631657123566,0.070211261510849,0.009754747152328491,24.902814865112305,-29.036300659179688,-10.177433967590332,-0.06814360618591309,-0.04896354675292969,0.07136106491088867,3.2443947792053223,8.571548461914062,4.534599781036377
1_20251106_212443,1762435449256,1,0.47698912024497986,0.43597060441970825,0.2972049117088318,0.7029083967208862,1.239957332611084,2.9944205284118652,2.291212797164917,3.1570982933044434,8.436397552490234,4.550896644592285,-0.05422188341617584,0.09403499215841293,0.03663279488682747,24.88961410522461,-29.061668395996094,-10.23251724243164,-0.06983733177185059,-0.10812091827392578,0.013037681579589844,3.226935625076294,8.54451847076416,4.537858963012695
1_20251106_212443,1762435449274,1,0.47696948051452637,0.43500232696533203,0.297195702791214,0.7035252451896667,1.239957332611084,2.9944205284118652,2.291212797164917,3.1570982933044434,8.436397552490234,4.550896644592285,-0.03467421233654022,0.07082213461399078,0.06534343957901001,24.814990997314453,-29.09168243408203,-10.222471237182617,-0.06983733177185059,-0.10812091827392578,0.013037681579589844,3.226935625076294,8.54451847076416,4.537858963012695
1_20251106_212443,1762435449294,1,0.4767395555973053,0.43440717458724976,0.2970847487449646,0.7040954828262329,1.2354315519332886,2.9926931858062744,2.298487901687622,3.1834335327148438,8.365772247314453,4.487453460693359,-0.03895026445388794,0.04883100092411041,0.10016272962093353,24.727981567382812,-29.122756958007812,-10.185883522033691,-0.02343606948852539,-0.10654449462890625,-0.030344009399414062,3.206869602203369,8.47231674194336,4.517797470092773
1_20251106_212443,1762435449313,1,0.4763701558113098,0.43412280082702637,0.29665160179138184,0.7047032713890076,1.2335301637649536,2.9915242195129395,2.30210018157959,3.270817995071411,8.395697593688965,4.659828186035156,-0.050556689500808716,0.05066359415650368,0.1270407736301422,24.763425827026367,-29.14508056640625,-10.225488662719727,0.05115866661071777,-0.061295509338378906,0.11362457275390625,3.2196593284606934,8.456993103027344,4.54620361328125
1_20251106_212443,1762435449332,1,0.4756791889667511,0.43380117416381836,0.29617539048194885,0.7055678367614746,1.2323535680770874,2.990748167037964,2.306004524230957,3.4491782188415527,8.578845977783203,4.718482971191406,-0.07926733046770096,0.08731547743082047,0.15269708633422852,24.709550857543945,-29.236427307128906,-10.202265739440918,0.18361520767211914,0.09748268127441406,0.13782358169555664,3.2655630111694336,8.481363296508789,4.58065938949585
1_20251106_212443,1762435449351,1,0.47490930557250977,0.4331195056438446,0.29537856578826904,0.7068381309509277,1.2322486639022827,2.990511417388916,2.3104727268218994,3.634721040725708,8.663836479187012,4.857341766357422,-0.07926733046770096,0.08731547743082047,0.15269708633422852,24.69544792175293,-29.274620056152344,-10.23058032989502,0.29532647132873535,0.14597797393798828,0.2213459014892578,3.3393945693969727,8.517858505249023,4.635995864868164
1_20251106_212443,1762435449371,1,0.47406378388404846,0.43277981877326965,0.2946154773235321,0.707931399345398,1.2334235906600952,2.990762233734131,2.3153626918792725,3.760411262512207,8.678200721740723,4.774744987487793,-0.0029092440381646156,0.07876337319612503,0.1276516318321228,24.595041275024414,-29.331336975097656,-10.22204303741455,0.33681344985961914,0.12827396392822266,0.11099910736083984,3.423597812652588,8.5499267578125,4.663745880126953
1_20251106_212443,1762435449390,1,0.47308826446533203,0.4326486587524414,0.29413706064224243,0.7088624835014343,1.2355295419692993,2.9911861419677734,2.319486141204834,3.804702043533325,8.621939659118652,4.558078765869141,0.030688313767313957,0.06349175423383713,0.09771926701068878,24.472278594970703,-29.35210418701172,-10.200179100036621,0.3048834800720215,0.057610511779785156,-0.08453369140625,3.4998185634613037,8.564329147338867,4.642612457275391
1_20251106_212443,1762435449409,1,0.4720999002456665,0.4328818619251251,0.2939116954803467,0.7094722390174866,1.238330602645874,2.991579294204712,2.322672128677368,3.791534423828125,8.560890197753906,4.376127243041992,0.033742643892765045,0.04333321750164032,0.07694986462593079,24.382844924926758,-29.43286895751953,-10.218711853027344,0.23337268829345703,-0.0027513504028320312,-0.21318817138671875,3.558161735534668,8.563641548156738,4.589315414428711
1_20251106_212443,1762435449429,1,0.4713631570339203,0.43351855874061584,0.29367345571517944,0.7096719741821289,1.2417534589767456,2.991882801055908,2.3250646591186523,3.8358254432678223,8.53814697265625,4.358171463012695,-0.0016875145956873894,0.02745073288679123,0.0714520812034607,24.356964111328125,-29.45970916748047,-10.206704139709473,0.22213077545166016,-0.02039623260498047,-0.18491506576538086,3.613694667816162,8.55854320526123,4.543086528778076
1_20251106_212443,1762435449446,1,0.47088152170181274,0.43426522612571716,0.2932063341140747,0.7097283601760864,1.2417534589767456,2.991882801055908,2.3250646591186523,3.8358254432678223,8.53814697265625,4.358171463012695,-0.027954697608947754,0.015844302251935005,0.054958734661340714,24.31850242614746,-29.487884521484375,-10.141121864318848,0.22213077545166016,-0.02039623260498047,-0.18491506576538086,3.613694667816162,8.55854320526123,4.543086528778076
1_20251106_212443,1762435449466,1,0.4706428349018097,0.4349677860736847,0.2925361692905426,0.7097330093383789,1.2496649026870728,2.9924252033233643,2.330207109451294,3.796322822570801,8.547722816467285,4.737636089324951,-0.016959132626652718,0.023174678906798363,0.01708512380719185,24.19683837890625,-29.495559692382812,-10.17305850982666,0.11151933670043945,-0.008840560913085938,0.14864397048950195,3.6848034858703613,8.556563377380371,4.588992118835449
1_20251106_212443,1762435449486,1,0.470527321100235,0.435234010219574,0.2921128273010254,0.7098207473754883,1.253543734550476,2.9921607971191406,2.3331339359283447,3.698164463043213,8.374151229858398,4.699330806732178,-0.016959132626652718,0.023174678906798363,0.01708512380719185,24.205303192138672,-29.557823181152344,-10.146855354309082,0.01068878173828125,-0.14592933654785156,0.08827066421508789,3.6874756813049316,8.52008056640625,4.61106014251709
1_20251106_212443,1762435449503,1,0.4705541729927063,0.435279905796051,0.29225340485572815,0.7097169160842896,1.253543734550476,2.9921607971191406,2.3331339359283447,3.698164463043213,8.374151229858398,4.699330806732178,0.031299181282520294,0.03966802731156349,-0.05621864274144173,24.13169288635254,-29.563262939453125,-10.082216262817383,0.01068878173828125,-0.14592933654785156,0.08827066421508789,3.6874756813049316,8.52008056640625,4.61106014251709
1_20251106_212443,1762435449523,1,0.47064730525016785,0.4350988566875458,0.29252758622169495,0.7096532583236694,1.2590700387954712,2.9896562099456787,2.3377387523651123,3.4084787368774414,8.173046112060547,4.5449113845825195,0.031299181282520294,0.03966802731156349,-0.05621864274144173,24.144176483154297,-29.56206512451172,-10.122274398803711,-0.1956038475036621,-0.23761558532714844,-0.03582334518432617,3.6040825843811035,8.410661697387695,4.580734729766846
1_20251106_212443,1762435449541,1,0.47091740369796753,0.43494555354118347,0.29252859950065613,0.7095676064491272,1.2608951330184937,2.9877023696899414,2.3404433727264404,3.428828477859497,8.271203994750977,4.791502952575684,-0.031009020283818245,0.00668133283033967,0.01158734131604433,24.179126739501953,-29.585067749023438,-10.094298362731934,-0.14020347595214844,-0.11156654357910156,0.16861486434936523,3.5690319538116455,8.382770538330078,4.622888088226318
1_20251106_212443,1762435449562,1,0.47109854221343994,0.43478959798812866,0.29214951395988464,0.7096990942955017,1.262678623199463,2.9854133129119873,2.3441333770751953,3.5293807983398438,8.311904907226562,4.87649393081665,0.02274707518517971,-0.0018707733834162354,0.02624809369444847,24.1920166015625,-29.57171630859375,-10.093544006347656,-0.031720876693725586,-0.05669212341308594,0.20288467407226562,3.5611016750335693,8.368597030639648,4.673609256744385
1_20251106_212443,1762435449580,1,0.470912367105484,0.4346805810928345,0.29202795028686523,0.7099394798278809,1.263990879058838,2.983247756958008,2.3472132682800293,3.504242420196533,8.246066093444824,4.704118728637695,0.08627700805664062,0.004848738666623831,0.010976476594805717,24.153949737548828,-29.599349975585938,-10.082027435302734,-0.045487403869628906,-0.09802436828613281,0.024407386779785156,3.549729824066162,8.344090461730957,4.67971134185791
1_20251106_212443,1762435449599,1,0.47049862146377563,0.4347679913043976,0.2923109531402588,0.7100437879562378,1.2648863792419434,2.9804720878601074,2.3497707843780518,3.39650821685791,8.123967170715332,4.486255645751953,0.08505527675151825,0.032337650656700134,-0.004295141436159611,24.129070281982422,-29.61322784423828,-10.110304832458496,-0.12257719039916992,-0.17609882354736328,-0.15476465225219727,3.51908540725708,8.300065994262695,4.64102029800415
1_20251106_212443,1762435449620,1,0.47011783719062805,0.43478819727897644,0.2928207218647003,0.7100735306739807,1.265419840812683,2.976754903793335,2.3511993885040283,3.397705316543579,8.060523986816406,4.265998840332031,0.025190534070134163,0.05310705676674843,0.012198206037282944,24.13210105895996,-29.551116943359375,-10.041403770446777,-0.09710407257080078,-0.1916332244873047,-0.3000173568725586,3.49480938911438,8.252157211303711,4.56601619720459
1_20251106_212443,1762435449639,1,0.469916433095932,0.4346058964729309,0.2930346429347992,0.7102301716804504,1.265789270401001,2.972886323928833,2.3513741493225098,3.462346076965332,8.006656646728516,4.1822052001953125,-0.0114613501355052,0.02012035623192787,0.054347869008779526,24.13210105895996,-29.551116943359375,-10.041403770446777,-0.0259706974029541,-0.19640064239501953,-0.3070487976074219,3.488316774368286,8.203057289123535,4.489253997802734
1_20251106_212443,1762435449658,1,0.46969327330589294,0.4348641335964203,0.29272380471229553,0.7103479504585266,1.265789270401001,2.972886323928833,2.3513741493225098,3.462346076965332,8.006656646728516,4.1822052001953125,-0.021235186606645584,-0.050129082053899765,0.10077358782291412,24.063819885253906,-29.468116760253906,-10.028982162475586,-0.0259706974029541,-0.19640064239501953,-0.3070487976074219,3.488316774368286,8.203057289123535,4.489253997802734
1_20251106_212443,1762435449676,1,0.4693666696548462,0.4358172118663788,0.29178953170776367,0.7103641033172607,1.2672439813613892,2.965486764907837,2.3498849868774414,3.665844440460205,8.267613410949707,4.391689300537109,-0.041393719613552094,-0.09166788309812546,0.10077358782291412,24.08648681640625,-29.492050170898438,-9.987979888916016,0.12893986701965332,0.06717205047607422,-0.030073165893554688,3.5369045734405518,8.200441360473633,4.421762466430664
1_20251106_212443,1762435449696,1,0.4691801965236664,0.4370364248752594,0.29053759574890137,0.7102513909339905,1.2672439813613892,2.965486764907837,2.3498849868774414,3.665844440460205,8.267613410949707,4.391689300537109,-0.09453894197940826,-0.05135081335902214,0.05251527577638626,24.09837532043457,-29.491661071777344,-9.946940422058105,0.12893986701965332,0.06717205047607422,-0.030073165893554688,3.5369045734405518,8.200441360473633,4.421762466430664
1_20251106_212443,1762435449714,1,0.46944671869277954,0.4374942481517792,0.2892441749572754,0.710321307182312,1.270419955253601,2.9610767364501953,2.350739002227783,3.684997081756592,8.502235412597656,4.856143951416016,-0.10919970273971558,0.009735655970871449,-0.04522307589650154,24.06352424621582,-29.468528747558594,-9.988432884216309,0.08635187149047852,0.19563865661621094,0.30749940872192383,3.5986452102661133,8.306596755981445,4.548644542694092
1_20251106_212443,1762435449733,1,0.4702893793582916,0.4370093047618866,0.2884890139102936,0.7103695273399353,1.2716542482376099,2.959519386291504,2.3523948192596436,3.462345838546753,8.36337661743164,4.823823928833008,-0.08415424823760986,0.04699840396642685,-0.11486165225505829,24.10139274597168,-29.44116973876953,-9.972917556762695,-0.1090395450592041,0.04542350769042969,0.22014331817626953,3.571385383605957,8.317953109741211,4.603680610656738
1_20251106_212443,1762435449752,1,0.47134995460510254,0.4359298348426819,0.28837940096855164,0.7103743553161621,1.2720482349395752,2.9578983783721924,2.3540399074554443,3.287576675415039,8.266416549682617,4.629901885986328,-0.06338485330343246,0.05555051192641258,-0.10447695106267929,24.13814926147461,-29.438514709472656,-9.998478889465332,-0.22704696655273438,-0.041229248046875,0.020977020263671875,3.5146236419677734,8.307645797729492,4.608924865722656
1_20251106_212443,1762435449771,1,0.47216054797172546,0.43467819690704346,0.28863778710365295,0.7104980945587158,1.2715630531311035,2.956005573272705,2.3554861545562744,3.2013893127441406,8.179031372070312,4.566458225250244,-0.06338485330343246,0.05555051192641258,-0.10447695106267929,24.175003051757812,-29.43572998046875,-10.037556648254395,-0.25058746337890625,-0.10289192199707031,-0.03397321701049805,3.451976776123047,8.281923294067383,4.600431442260742
1_20251106_212443,1762435449791,1,0.4729255735874176,0.43404102325439453,0.28855764865875244,0.7104113698005676,1.2715630531311035,2.956005573272705,2.3554861545562744,3.2013893127441406,8.179031372070312,4.566458225250244,-0.060941390693187714,0.010957385413348675,-0.04522307589650154,24.22283172607422,-29.456993103027344,-10.103704452514648,-0.25058746337890625,-0.10289192199707031,-0.03397321701049805,3.451976776123047,8.281923294067383,4.600431442260742
1_20251106_212443,1762435449810,1,0.47347232699394226,0.4338725507259369,0.2879907488822937,0.7103800773620605,1.2690186500549316,2.952038526535034,2.3592300415039062,3.2947587966918945,8.243671417236328,4.823823928833008,-0.06277398765087128,-0.0330248698592186,0.03724366053938866,24.24669647216797,-29.467689514160156,-10.130020141601562,-0.0904686450958252,-0.02294921875,0.16614627838134766,3.3852274417877197,8.266620635986328,4.65767765045166
1_20251106_212443,1762435449830,1,0.4738460183143616,0.4336557388305664,0.287385493516922,0.710508406162262,1.267565369606018,2.9499573707580566,2.3617336750030518,3.3570055961608887,8.213746070861816,4.799882888793945,-0.060330525040626526,0.010346520692110062,0.021361175924539566,24.25887107849121,-29.47850799560547,-10.224407196044922,-0.022577524185180664,-0.04229927062988281,0.11376428604125977,3.3795831203460693,8.2560453414917,4.6861186027526855
1_20251106_212443,1762435449849,1,0.47408318519592285,0.43299147486686707,0.28698939085006714,0.7109153270721436,1.267565369606018,2.9499573707580566,2.3617336750030518,3.3570055961608887,8.213746070861816,4.799882888793945,-0.0774347335100174,0.025007274001836777,-0.0024625472724437714,24.237009048461914,-29.44188690185547,-10.278661727905273,-0.022577524185180664,-0.04229927062988281,0.11376428604125977,3.3795831203460693,8.2560453414917,4.6861186027526855
1_20251106_212443,1762435449867,1,0.47448527812957764,0.4322096109390259,0.28655996918678284,0.7112959623336792,1.2661452293395996,2.947880744934082,2.364548921585083,3.366581916809082,8.223322868347168,4.829809188842773,-0.0774347335100174,0.025007274001836777,-0.0024625472724437714,24.27284812927246,-29.46367645263672,-10.372332572937012,-0.010400772094726562,-0.026178359985351562,0.11495256423950195,3.3769826889038086,8.24950122833252,4.7148566246032715
1_20251106_212443,1762435449887,1,0.4750734865665436,0.43120887875556946,0.28622519969940186,0.7116454243659973,1.2629356384277344,2.9440770149230957,2.3707306385040283,3.242088794708252,8.151498794555664,4.835794448852539,-0.06827176362276077,0.07265472412109375,-0.04277962073683739,24.260860443115234,-29.464202880859375,-10.399855613708496,-0.08920526504516602,-0.07421398162841797,0.05480003356933594,3.331294059753418,8.225712776184082,4.780994415283203
1_20251106_212443,1762435449905,1,0.4756828844547272,0.42983025312423706,0.2862313389778137,0.7120698094367981,1.2608860731124878,2.942068338394165,2.3734443187713623,3.206177234649658,8.212549209594727,4.63947868347168,-0.06399571895599365,0.06410261988639832,-0.03300578519701958,24.264385223388672,-29.401412963867188,-10.39853572845459,-0.10009336471557617,-0.010530471801757812,-0.11321258544921875,3.3062705993652344,8.223079681396484,4.752691268920898
1_20251106_212443,1762435449925,1,0.47615042328834534,0.42870765924453735,0.28625333309173584,0.7124251127243042,1.2583321332931519,2.940114974975586,2.3757519721984863,3.1403398513793945,8.241277694702148,4.619128227233887,-0.08293251693248749,0.05616137757897377,-0.01956675946712494,24.231252670288086,-29.341140747070312,-10.385170936584473,-0.13274455070495605,0.014557838439941406,-0.10685062408447266,3.2730844020843506,8.226719856262207,4.725978851318359
1_20251106_212443,1762435449943,1,0.47671496868133545,0.4278714954853058,0.28618526458740234,0.7125775814056396,1.25566828250885,2.9384658336639404,2.37744140625,3.0780930519104004,8.235292434692383,4.610748767852783,-0.09881500154733658,0.06349175423383713,0.0036460997071117163,24.196598052978516,-29.317733764648438,-10.453695297241211,-0.15599298477172852,0.006857872009277344,-0.09218406677246094,3.234086036682129,8.228434562683105,4.702932834625244
1_20251106_212443,1762435449963,1,0.47723087668418884,0.42698588967323303,0.2860318720340729,0.7128250002861023,1.25566828250885,2.9384658336639404,2.37744140625,3.0780930519104004,8.235292434692383,4.610748767852783,-0.10553450882434845,0.07326558977365494,0.038465388119220734,24.21944808959961,-29.353004455566406,-10.5346040725708,-0.15599298477172852,0.006857872009277344,-0.09218406677246094,3.234086036682129,8.228434562683105,4.702932834625244
1_20251106_212443,1762435449982,1,0.4776082932949066,0.42610177397727966,0.2857661247253418,0.7132077217102051,1.252189040184021,2.93686580657959,2.379056930541992,3.0768961906433105,8.296342849731445,4.6263108253479,-0.09698240458965302,0.06898953020572662,0.06778689473867416,24.2354679107666,-29.27740478515625,-10.47846508026123,-0.12575197219848633,0.05432605743408203,-0.06129741668701172,3.202648162841797,8.242016792297363,4.687608242034912
1_20251106_212443,1762435450001,1,0.4777360260486603,0.4253721237182617,0.2854898273944855,0.7136682868003845,1.2462867498397827,2.9349751472473145,2.3816773891448975,3.1834335327148438,8.369362831115723,4.729256629943848,-0.09026288986206055,0.06654607504606247,0.09283234924077988,24.246850967407227,-29.28929901123047,-10.464722633361816,-0.004061698913574219,0.08897113800048828,0.034699440002441406,3.187495231628418,8.280391693115234,4.694557189941406
1_20251106_212443,1762435450020,1,0.47757431864738464,0.4247478246688843,0.28513970971107483,0.7142879962921143,1.2435314655303955,2.934633255004883,2.3833024501800537,3.2803945541381836,8.438791275024414,4.7675628662109375,-0.0927063524723053,0.06532435119152069,0.10993656516075134,24.236581802368164,-29.25269317626953,-10.43738842010498,0.07431960105895996,0.12671947479248047,0.05840444564819336,3.2060749530792236,8.312071800231934,4.709158420562744
1_20251106_212443,1762435450040,1,0.4773164391517639,0.4241979122161865,0.28465843200683594,0.714978814125061,1.2414655685424805,2.9348268508911133,2.385261058807373,3.3593997955322266,8.495052337646484,4.888463973999023,-0.08781943470239639,0.07448732107877731,0.10627137124538422,24.20020866394043,-29.26641845703125,-10.560770034790039,0.12265968322753906,0.14638423919677734,0.14344453811645508,3.2367401123046875,8.348668098449707,4.745019435882568
1_20251106_212443,1762435450059,1,0.4770883321762085,0.4237208068370819,0.2841634154319763,0.7156106233596802,1.2397325038909912,2.935614585876465,2.3878557682037354,3.3462321758270264,8.544132232666016,4.954301834106445,-0.08781943470239639,0.07448732107877731,0.10627137124538422,24.21259307861328,-29.265357971191406,-10.587311744689941,0.08759355545043945,0.1563711166381836,0.16742610931396484,3.258638620376587,8.387761116027832,4.7868757247924805
1_20251106_212443,1762435450078,1,0.47696828842163086,0.423084557056427,0.2837367057800293,0.7162361145019531,1.2383102178573608,2.9367053508758545,2.3909130096435547,3.3103206157684326,8.526176452636719,5.047672271728516,-0.07621300220489502,0.09342412650585175,0.06351084262132645,24.185993194580078,-29.316368103027344,-10.670446395874023,0.04134559631347656,0.1107320785522461,0.20863723754882812,3.268975019454956,8.415444374084473,4.8390350341796875
1_20251106_212443,1762435450096,1,0.4768546521663666,0.4223034381866455,0.2835632264614105,0.7168412208557129,1.2371997833251953,2.93782114982605,2.3943052291870117,3.337852954864502,8.469915390014648,5.09914493560791,-0.05971965938806534,0.10991747677326202,0.0708412230014801,24.185993194580078,-29.316368103027344,-10.670446395874023,0.05510234832763672,0.04357719421386719,0.20808792114257812,3.2827506065368652,8.426338195800781,4.891057014465332
1_20251106_212443,1762435450115,1,0.4766089916229248,0.4213802218437195,0.28352826833724976,0.7175613641738892,1.2365100383758545,2.938974142074585,2.3981823921203613,3.4372076988220215,8.438791275024414,5.064431190490723,-0.03895026445388794,0.11480438709259033,0.07817159593105316,24.13433074951172,-29.369911193847656,-10.659947395324707,0.123565673828125,0.009962081909179688,0.13869953155517578,3.3136420249938965,8.428829193115234,4.925731658935547
1_20251106_212443,1762435450135,1,0.4761316478252411,0.4204895496368408,0.2835734784603119,0.7183824181556702,1.2364106178283691,2.9401283264160156,2.403052568435669,3.507833957672119,8.429214477539062,5.252367973327637,-0.03345248103141785,0.10380882769823074,0.07756073027849197,24.0753173828125,-29.33647918701172,-10.634574890136719,0.15535354614257812,0.00030803680419921875,0.2613091468811035,3.352480411529541,8.428906440734863,4.991058826446533
1_20251106_212443,1762435450154,1,0.4755949079990387,0.4198478162288666,0.28351229429244995,0.7191370129585266,1.2364106178283691,2.9401283264160156,2.403052568435669,3.507833957672119,8.429214477539062,5.252367973327637,-0.01879172772169113,0.11236093193292618,0.06961949169635773,23.964319229125977,-29.380218505859375,-10.74791145324707,0.15535354614257812,0.00030803680419921875,0.2613091468811035,3.352480411529541,8.428906440734863,4.991058826446533
1_20251106_212443,1762435450173,1,0.47496920824050903,0.4190462827682495,0.2834751307964325,0.7200321555137634,1.2379423379898071,2.941283941268921,2.413376569747925,3.5808539390563965,8.231701850891113,5.1446332931518555,0.022136209532618523,0.10136537253856659,0.048239223659038544,23.904489517211914,-29.37109375,-10.80416488647461,0.14711666107177734,-0.1455545425415039,0.0804758071899414,3.433737277984619,8.377256393432617,5.064157485961914
1_20251106_212443,1762435450191,1,0.47415629029273987,0.4184447228908539,0.2837167978286743,0.7208221554756165,1.2379423379898071,2.941283941268921,2.413376569747925,3.5808539390563965,8.231701850891113,5.1446332931518555,0.028855720534920692,0.09159152954816818,0.037854522466659546,23.831880569458008,-29.363571166992188,-10.779810905456543,0.14711666107177734,-0.1455545425415039,0.0804758071899414,3.433737277984619,8.377256393432617,5.064157485961914
1_20251106_212443,1762435450210,1,0.47354578971862793,0.4180864691734314,0.28387197852134705,0.7213700413703918,1.2405147552490234,2.940469741821289,2.422632932662964,3.5126218795776367,8.157485008239746,5.047671794891357,0.020303616300225258,0.10808487981557846,0.03357847034931183,23.817481994628906,-29.40216827392578,-10.767577171325684,0.044548988342285156,-0.14774036407470703,-0.011891841888427734,3.4680728912353516,8.305225372314453,5.059563636779785
1_20251106_212443,1762435450230,1,0.47298941016197205,0.4176470935344696,0.28410232067108154,0.7218987345695496,1.2419483661651611,2.9391047954559326,2.4268999099731445,3.492272138595581,8.072494506835938,4.949514389038086,0.0361860990524292,0.12213476747274399,0.028691552579402924,23.728864669799805,-29.458633422851562,-10.704484939575195,0.019359350204467773,-0.18618488311767578,-0.08803939819335938,3.4729127883911133,8.258679389953613,5.037553787231445
1_20251106_212443,1762435450249,1,0.47241219878196716,0.4171503484249115,0.2845122218132019,0.7224023342132568,1.243193507194519,2.9371912479400635,2.4300036430358887,3.4551637172698975,8.010248184204102,4.765168190002441,0.0361860990524292,0.12213476747274399,0.028691552579402924,23.665128707885742,-29.501220703125,-10.613115310668945,-0.014199256896972656,-0.1987447738647461,-0.21790838241577148,3.46936297416687,8.208992958068848,4.983076572418213
1_20251106_212443,1762435450269,1,0.4715510308742523,0.41686877608299255,0.2849907875061035,0.7229386568069458,1.244497299194336,2.934575319290161,2.43192458152771,3.488680839538574,7.977927207946777,4.593990325927734,0.03985128551721573,0.10319796204566956,0.07756073772907257,23.590911865234375,-29.519081115722656,-10.562256813049316,0.015454292297363281,-0.18485260009765625,-0.31126928329467773,3.473226547241211,8.162779808044434,4.905259609222412
1_20251106_212443,1762435450288,1,0.470612108707428,0.4168522357940674,0.2852775454521179,0.7234467267990112,1.2457916736602783,2.9319660663604736,2.4327504634857178,3.5461394786834717,8.011444091796875,4.573640823364258,0.03985128551721573,0.10319796204566956,0.07756073772907257,23.55295753479004,-29.53496551513672,-10.469378471374512,0.05833029747009277,-0.12106895446777344,-0.26529502868652344,3.487809181213379,8.132513046264648,4.838935852050781
1_20251106_212443,1762435450307,1,0.4697321057319641,0.41725772619247437,0.2851351797580719,0.7238408923149109,1.247426152229309,2.9290621280670166,2.4332523345947266,3.5760655403137207,8.083267211914062,4.717286109924316,-0.01573740318417549,0.03722456842660904,0.1123800277709961,23.57472038269043,-29.57172393798828,-10.40160846710205,0.07060503959655762,-0.03939628601074219,-0.0973200798034668,3.505460500717163,8.122663497924805,4.814606189727783
1_20251106_212443,1762435450326,1,0.46895843744277954,0.4178384840488434,0.2846190333366394,0.7242106199264526,1.249114751815796,2.926448345184326,2.4337568283081055,3.5832479000091553,8.125164031982422,4.833400249481201,-0.01573740318417549,0.03722456842660904,0.1123800277709961,23.55912208557129,-29.623558044433594,-10.322056770324707,0.06222987174987793,0.0020008087158203125,0.015035152435302734,3.5210180282592773,8.123163223266602,4.818365097045898
1_20251106_212443,1762435450345,1,0.4683515727519989,0.41830548644065857,0.2840067148208618,0.7245740294456482,1.249114751815796,2.926448345184326,2.4337568283081055,3.5832479000091553,8.125164031982422,4.833400249481201,-0.021846050396561623,0.04150062054395676,0.09344321489334106,23.531633377075195,-29.67578125,-10.283544540405273,0.06222987174987793,0.0020008087158203125,0.015035152435302734,3.5210180282592773,8.123163223266602,4.818365097045898
1_20251106_212443,1762435450363,1,0.46773824095726013,0.4184986352920532,0.28351593017578125,0.725050687789917,1.252569556236267,2.9219553470611572,2.4348864555358887,3.570080280303955,8.167060852050781,4.854947090148926,-0.0255112387239933,0.051274459809064865,0.07939332723617554,23.44413185119629,-29.707534790039062,-10.179375648498535,0.03025078773498535,0.030584335327148438,0.024944782257080078,3.5398294925689697,8.136476516723633,4.830002307891846
1_20251106_212443,1762435450383,1,0.4672696590423584,0.41856649518013,0.2831140160560608,0.7254706025123596,1.252569556236267,2.9219553470611572,2.4348864555358887,3.570080280303955,8.167060852050781,4.854947090148926,-0.040782853960990906,0.05921569839119911,0.060456518083810806,23.35479736328125,-29.788169860839844,-10.211424827575684,0.03025078773498535,0.030584335327148438,0.024944782257080078,3.5398294925689697,8.136476516723633,4.830002307891846
1_20251106_212443,1762435450401,1,0.466956228017807,0.4184357225894928,0.28276383876800537,0.7258843183517456,1.2545301914215088,2.919532060623169,2.435723066329956,3.542548179626465,8.132347106933594,4.876494407653809,-0.05544360727071762,0.061659157276153564,0.048239223659038544,23.3251953125,-29.87805938720703,-10.173704147338867,0.002174854278564453,-0.00330352783203125,0.03719377517700195,3.5403733253479004,8.135650634765625,4.839300632476807
1_20251106_212443,1762435450420,1,0.4667412340641022,0.41811415553092957,0.28240710496902466,0.7263466119766235,1.2575589418411255,2.9158315658569336,2.4378485679626465,3.5964155197143555,8.107208251953125,5.053657054901123,-0.05849793553352356,0.05310705676674843,0.04274144023656845,23.31261444091797,-29.87939453125,-10.120129585266113,0.044294118881225586,-0.020310401916503906,0.15557479858398438,3.55212140083313,8.127518653869629,4.898082256317139
1_20251106_212443,1762435450441,1,0.46654385328292847,0.41773542761802673,0.28201982378959656,0.7268416285514832,1.2575589418411255,2.9158315658569336,2.4378485679626465,3.5964155197143555,8.107208251953125,5.053657054901123,-0.05849793553352356,0.05310705676674843,0.04274144023656845,23.214111328125,-29.910324096679688,-10.178646087646484,0.044294118881225586,-0.020310401916503906,0.15557479858398438,3.55212140083313,8.127518653869629,4.898082256317139
1_20251106_212443,1762435450459,1,0.4664267599582672,0.4174240529537201,0.28174206614494324,0.7272033095359802,1.2612171173095703,2.911848545074463,2.4415483474731445,3.5353658199310303,8.11558723449707,4.980637550354004,-0.027954697608947754,0.04088975861668587,-0.016512438654899597,23.11632537841797,-29.917083740234375,-10.142021179199219,-0.02700352668762207,-0.005146980285644531,0.041918277740478516,3.5623693466186523,8.120734214782715,4.938719272613525
1_20251106_212443,1762435450479,1,0.4665393531322479,0.4171052575111389,0.28157034516334534,0.7273805141448975,1.262392282485962,2.9100449085235596,2.4437005519866943,3.3953113555908203,8.15030288696289,5.046474933624268,-0.027954697608947754,0.04088975861668587,-0.016512438654899597,23.11632537841797,-29.917083740234375,-10.142021179199219,-0.13364648818969727,0.023654937744140625,0.08620452880859375,3.5289578437805176,8.12664794921875,4.960270404815674
1_20251106_212443,1762435450499,1,0.46692025661468506,0.4164687693119049,0.28140994906425476,0.7275628447532654,1.2632043361663818,2.908381462097168,2.446385622024536,3.428828477859497,8.143119812011719,5.170968055725098,-0.08537597954273224,0.06960040330886841,-0.01101465430110693,23.032333374023438,-29.897666931152344,-10.131410598754883,-0.08010363578796387,0.013177871704101562,0.16855812072753906,3.508932113647461,8.129941940307617,5.002409934997559
1_20251106_212443,1762435450518,1,0.4672899842262268,0.4155314564704895,0.2812407612800598,0.7279267311096191,1.2639578580856323,2.906956195831299,2.4489431381225586,3.5329718589782715,8.128755569458008,5.108721733093262,-0.02917642705142498,0.03661370649933815,0.014641664922237396,22.955299377441406,-29.96575927734375,-10.081608772277832,0.019231796264648438,-0.0009489059448242188,0.08504962921142578,3.513740062713623,8.129704475402832,5.023672103881836
1_20251106_212443,1762435450536,1,0.46722277998924255,0.4150036573410034,0.2811738848686218,0.72829669713974,1.264822006225586,2.9054949283599854,2.4514684677124023,3.5533218383789062,8.117981910705566,5.009366035461426,0.00686459057033062,0.0011835502227768302,0.02319376915693283,22.955299377441406,-29.96575927734375,-10.081608772277832,0.03166556358337402,-0.009378433227539062,-0.011444568634033203,3.5216562747955322,8.127360343933105,5.020810604095459
1_20251106_212443,1762435450555,1,0.4671015441417694,0.41512706875801086,0.2810165286064148,0.7283648252487183,1.264822006225586,2.9054949283599854,2.4514684677124023,3.5533218383789062,8.117981910705566,5.009366035461426,-0.0010766498744487762,0.009124791249632835,0.008533017709851265,22.95882225036621,-29.902976989746094,-10.080288887023926,0.03166556358337402,-0.009378433227539062,-0.011444568634033203,3.5216562747955322,8.127360343933105,5.020810604095459
1_20251106_212443,1762435450574,1,0.46708112955093384,0.4152553081512451,0.2809183895587921,0.7283427119255066,1.2657496929168701,2.90358304977417,2.4537079334259033,3.542548179626465,7.979124069213867,4.926770210266113,-0.0010766498744487762,0.009124791249632835,0.008533017709851265,22.952077865600586,-29.8035888671875,-10.0516357421875,0.016713619232177734,-0.11858940124511719,-0.07523250579833984,3.525834560394287,8.097713470458984,5.002002716064453
1_20251106_212443,1762435450594,1,0.46720555424690247,0.415124773979187,0.2807195484638214,0.728413999080658,1.2673895359039307,2.8988869190216064,2.4565916061401367,3.5329718589782715,7.916877746582031,4.935149669647217,-0.03284161537885666,0.023174678906798363,-0.01101465430110693,22.902122497558594,-29.83161163330078,-10.081157684326172,0.006100177764892578,-0.11726665496826172,-0.02554798126220703,3.526871681213379,8.034144401550293,4.960697650909424
1_20251106_212443,1762435450612,1,0.4676053524017334,0.41491270065307617,0.28033360838890076,0.7284269332885742,1.2681704759597778,2.8963422775268555,2.458134174346924,3.5485334396362305,7.910891532897949,5.090765953063965,-0.06827177107334137,0.02378554455935955,-0.023842811584472656,22.97332000732422,-29.86425018310547,-10.106039047241211,0.01732921600341797,-0.098602294921875,0.10405492782592773,3.5312042236328125,8.009493827819824,4.986711025238037
1_20251106_212443,1762435450631,1,0.46803873777389526,0.41433781385421753,0.27997931838035583,0.7286120057106018,1.2681704759597778,2.8963422775268555,2.458134174346924,3.5485334396362305,7.910891532897949,5.090765953063965,-0.07621300220489502,0.04027889668941498,-0.0678250640630722,23.013290405273438,-29.810829162597656,-10.184609413146973,0.01732921600341797,-0.098602294921875,0.10405492782592773,3.5312042236328125,8.009493827819824,4.986711025238037
1_20251106_212443,1762435450651,1,0.4686768651008606,0.41360539197921753,0.2796424627304077,0.7287473082542419,1.2693804502487183,2.89021372795105,2.462669610977173,3.432419776916504,7.852236747741699,5.240396499633789,-0.07621300220489502,0.04027889668941498,-0.0678250640630722,23.059513092041016,-29.85747528076172,-10.224252700805664,-0.07567143440246582,-0.10792255401611328,0.17978763580322266,3.5080912113189697,7.9601593017578125,5.060608863830566
1_20251106_212443,1762435450670,1,0.4694802165031433,0.4128846228122711,0.2792995274066925,0.7287704348564148,1.2693804502487183,2.89021372795105,2.462669610977173,3.432419776916504,7.852236747741699,5.240396499633789,-0.08904116600751877,0.03722456842660904,-0.06660334020853043,23.101089477539062,-29.778671264648438,-10.329327583312988,-0.07567143440246582,-0.10792255401611328,0.17978763580322266,3.5080912113189697,7.9601593017578125,5.060608863830566
1_20251106_212443,1762435450690,1,0.4701405465602875,0.41184431314468384,0.27890104055404663,0.7290859818458557,1.268872618675232,2.8834738731384277,2.4692914485931396,3.270817995071411,7.817522048950195,5.3325700759887695,-0.08904116600751877,0.03172678500413895,-0.03789270296692848,23.101089477539062,-29.778671264648438,-10.329327583312988,-0.1681346893310547,-0.1000981330871582,0.18190765380859375,3.438952684402466,7.9176201820373535,5.150662422180176
1_20251106_212443,1762435450709,1,0.47070834040641785,0.41087019443511963,0.2783972918987274,0.729461669921875,1.268872618675232,2.8834738731384277,2.4692914485931396,3.270817995071411,7.817522048950195,5.3325700759887695,-0.06521744281053543,0.0341702476143837,0.01708512380719185,23.176815032958984,-29.735557556152344,-10.393174171447754,-0.1681346893310547,-0.1000981330871582,0.18190765380859375,3.438952684402466,7.9176201820373535,5.150662422180176
1_20251106_212443,1762435450727,1,0.47075149416923523,0.40994587540626526,0.2779574990272522,0.7301212549209595,1.2661844491958618,2.8759164810180664,2.4760563373565674,3.2516651153564453,7.691831588745117,5.102736473083496,-0.035895936191082,0.03539197891950607,0.10016272962093353,23.201570510864258,-29.745040893554688,-10.541135787963867,-0.10875535011291504,-0.15005922317504883,-0.05767822265625,3.3604204654693604,7.841890811920166,5.160414695739746
1_20251106_212443,1762435450746,1,0.47021692991256714,0.4093624949455261,0.2774313688278198,0.7309926152229309,1.265112042427063,2.872026205062866,2.478639602661133,3.4982573986053467,7.818719387054443,4.966272830963135,-0.037117667496204376,0.018898626789450645,0.18201859295368195,23.31123161315918,-29.74950408935547,-10.631599426269531,0.11026954650878906,-0.018537044525146484,-0.15531349182128906,3.3879878520965576,7.83725643157959,5.121586322784424
1_20251106_212443,1762435450765,1,0.4691667854785919,0.40937891602516174,0.2765038013458252,0.7320089340209961,1.265112042427063,2.872026205062866,2.478639602661133,3.4982573986053467,7.818719387054443,4.966272830963135,-0.07071522623300552,-0.005535961594432592,0.21805961430072784,23.264699935913086,-29.714874267578125,-10.646286010742188,0.11026954650878906,-0.018537044525146484,-0.15531349182128906,3.3879878520965576,7.83725643157959,5.121586322784424
1_20251106_212443,1762435450784,1,0.46804550290107727,0.4099801778793335,0.27501294016838074,0.7329512238502502,1.2654629945755005,2.8684849739074707,2.4810521602630615,3.8286428451538086,7.999473571777344,5.032110214233398,-0.1128648892045021,-0.011644609272480011,0.1838511824607849,23.216154098510742,-29.71778106689453,-10.675280570983887,0.3525240421295166,0.12977361679077148,-0.07158088684082031,3.476118803024292,7.869699954986572,5.103691101074219
1_20251106_212443,1762435450803,1,0.4672081470489502,0.4106450378894806,0.2731669247150421,0.7338031530380249,1.2707698345184326,2.865896463394165,2.4865591526031494,4.254792213439941,8.414850234985352,5.525294303894043,-0.11469748616218567,0.009124791249632835,0.0659543052315712,23.13064193725586,-29.73522186279297,-10.746559143066406,0.5180785655975342,0.3724546432495117,0.31157922744750977,3.7367136478424072,8.04239559173584,5.213715076446533
1_20251106_212443,1762435450822,1,0.46710777282714844,0.41098448634147644,0.2716607451438904,0.7342360019683838,1.2707698345184326,2.865896463394165,2.4865591526031494,4.254792213439941,8.414850234985352,5.525294303894043,-0.11469748616218567,0.009124791249632835,0.0659543052315712,23.079683303833008,-29.776206970214844,-10.735796928405762,0.5180785655975342,0.3724546432495117,0.31157922744750977,3.7367136478424072,8.04239559173584,5.213715076446533
1_20251106_212443,1762435450841,1,0.46780821681022644,0.4106695353984833,0.2708926498889923,0.7342500686645508,1.2794089317321777,2.867509126663208,2.4953579902648926,3.747243642807007,8.387317657470703,5.591132164001465,-0.09331722557544708,0.05738310515880585,-0.1857219636440277,23.10736846923828,-29.723716735839844,-10.801342010498047,-0.052634477615356445,0.21117401123046875,0.2501654624938965,3.7998781204223633,8.176143646240234,5.340966701507568
