session_id,timestamp,label,quaternion_w,quaternion_x,quaternion_y,quaternion_z,position_x,position_y,position_z,accelerometer_x,accelerometer_y,accelerometer_z,gyroscope_x,gyroscope_y,gyroscope_z,magnetometer_x,magnetometer_y,magnetometer_z,linear_acceleration_x,linear_acceleration_y,linear_acceleration_z,gravity_x,gravity_y,gravity_z
2_20251106_213718,1762436201002,2,0.22613386809825897,0.48344093561172485,0.6270933151245117,0.5673643350601196,0.9730045199394226,2.962162971496582,1.133127212524414,2.7800278663635254,8.416047096252441,-2.2471466064453125,-0.14186951518058777,-0.010071631520986557,-0.10245728492736816,16.22854995727539,-19.786972045898438,30.56583023071289,-0.7275876998901367,0.9339089393615723,0.06457138061523438,3.507615566253662,7.482138156890869,-2.311717987060547
2_20251106_213718,1762436201021,2,0.22578881680965424,0.48103997111320496,0.6280404925346375,0.5684937238693237,0.9730045199394226,2.962162971496582,1.133127212524414,2.7800278663635254,8.416047096252441,-2.2471466064453125,-0.04168769717216492,-0.13896408677101135,0.0588110014796257,16.173580169677734,-19.666854858398438,30.714698791503906,-0.7275876998901367,0.9339089393615723,0.06457138061523438,3.507615566253662,7.482138156890869,-2.311717987060547
2_20251106_213718,1762436201040,2,0.2249293327331543,0.48044392466545105,0.6284692883491516,0.5688644647598267,0.9854848980903625,2.950704574584961,1.075447916984558,3.02302885055542,8.916414260864258,-2.163353204727173,-0.0019814912229776382,-0.17622683942317963,0.11684315651655197,16.116287231445312,-19.596290588378906,30.79492950439453,-0.2823638916015625,0.9602646827697754,0.09131455421447754,3.3053927421569824,7.956149578094482,-2.2546677589416504
2_20251106_213718,1762436201060,2,0.22380028665065765,0.48045530915260315,0.6287569999694824,0.5689821839332581,0.9904953241348267,2.95036244392395,1.0478119850158691,3.1199898719787598,9.127095222473145,-2.178914785385132,-0.025805216282606125,-0.13468803465366364,0.09179770201444626,16.105510711669922,-19.57196807861328,30.794967651367188,-0.14832234382629395,0.9367570877075195,0.060602426528930664,3.2683122158050537,8.190338134765625,-2.2395172119140625
2_20251106_213718,1762436201080,2,0.22266067564487457,0.48005011677742004,0.6291015148162842,0.5693903565406799,0.9947153925895691,2.9529359340667725,1.0230499505996704,3.1582953929901123,9.240814208984375,-2.174126625061035,-0.06062450259923935,-0.08276452869176865,0.025824306532740593,16.1004638671875,-19.671615600585938,30.71175765991211,-0.0880134105682373,0.8403806686401367,0.052312374114990234,3.2463088035583496,8.400433540344238,-2.2264389991760254
2_20251106_213718,1762436201100,2,0.22179508209228516,0.47897323966026306,0.6296002268791199,0.5700834393501282,0.9984061121940613,2.9579169750213623,0.9970406293869019,3.025423049926758,9.08041000366211,-2.2291908264160156,-0.055737584829330444,-0.046723514795303345,-0.04564686119556427,16.110029220581055,-19.720779418945312,30.684158325195312,-0.17670869827270508,0.5439815521240234,-0.002201557159423828,3.202131748199463,8.536428451538086,-2.226989269256592
2_20251106_213718,1762436201118,2,0.22114118933677673,0.47735053300857544,0.630466878414154,0.5707403421401978,1.000342607498169,2.9630353450775146,0.9752047657966614,2.768057346343994,8.967887878417969,-2.493738889694214,-0.04168769717216492,-0.056497350335121155,-0.06091848760843277,16.162185668945312,-19.66656494140625,30.6060791015625,-0.347259521484375,0.3451671600341797,-0.21339964866638184,3.115316867828369,8.622720718383789,-2.280339241027832
2_20251106_213718,1762436201136,2,0.22058136761188507,0.4757310450077057,0.631464421749115,0.5712061524391174,1.0009734630584717,2.969104528427124,0.9539263844490051,2.6244113445281982,9.112730026245117,-2.4973297119140625,-0.058791909366846085,-0.1163620874285698,-0.014492763206362724,16.162185668945312,-19.66656494140625,30.6060791015625,-0.39272451400756836,0.39200782775878906,-0.17359232902526855,3.0171358585357666,8.720722198486328,-2.323737382888794
2_20251106_213718,1762436201156,2,0.22025102376937866,0.4747140109539032,0.6320618987083435,0.5715188980102539,1.0000888109207153,2.976917266845703,0.9313420653343201,2.5071005821228027,9.183356285095215,-2.364457368850708,-0.058791909366846085,-0.1163620874285698,-0.014492763206362724,16.295612335205078,-19.681861877441406,30.50281524658203,-0.40802812576293945,0.37010765075683594,-0.03257584571838379,2.915128707885742,8.813248634338379,-2.331881523132324
2_20251106_213718,1762436201174,2,0.21996045112609863,0.4741557836532593,0.6324281692504883,0.5716889500617981,0.9981921315193176,2.984532117843628,0.9119316339492798,2.4520363807678223,9.19293212890625,-2.3728368282318115,-0.04107683151960373,-0.12185987085103989,0.06797397136688232,16.329437255859375,-19.741188049316406,30.39483642578125,-0.37047386169433594,0.30374717712402344,-0.03276419639587402,2.822510242462158,8.889184951782227,-2.3400726318359375
2_20251106_213718,1762436201193,2,0.21922039985656738,0.473671555519104,0.6327286958694458,0.5720419883728027,0.9953230023384094,2.993119716644287,0.8918191194534302,2.46999192237854,9.236026763916016,-2.5763351917266846,-0.03435732051730156,-0.09498182684183121,0.1156214252114296,16.38491439819336,-19.849014282226562,30.273265838623047,-0.2820146083831787,0.27747344970703125,-0.1890099048614502,2.7520065307617188,8.958553314208984,-2.3873252868652344
2_20251106_213718,1762436201212,2,0.21807587146759033,0.473376989364624,0.6328835487365723,0.5725517868995667,0.9920600652694702,3.0021705627441406,0.8719637393951416,2.5561795234680176,9.283907890319824,-2.660128593444824,-0.03191386163234711,-0.11330775916576385,0.14860810339450836,16.405242919921875,-19.934112548828125,30.150753021240234,-0.1566617488861084,0.2602834701538086,-0.21824264526367188,2.712841272354126,9.023624420166016,-2.4418859481811523
2_20251106_213718,1762436201231,2,0.21811793744564056,0.47481563687324524,0.6318307518959045,0.5725072622299194,0.9889508485794067,3.0118837356567383,0.8525745868682861,2.709402084350586,9.429948806762695,-2.633793354034424,-0.03191386163234711,-0.11330775916576385,0.14860810339450836,16.450448989868164,-20.005332946777344,30.0565185546875,-0.0027513504028320312,0.3250598907470703,-0.15352606773376465,2.712153434753418,9.104888916015625,-2.480267286300659
2_20251106_213718,1762436201251,2,0.21683773398399353,0.4750450551509857,0.6316167116165161,0.573039174079895,0.9865137338638306,3.0233418941497803,0.8334720134735107,2.9332501888275146,9.678934097290039,-2.3860044479370117,-0.06551142036914825,-0.13346631824970245,0.16998836398124695,16.484682083129883,-20.052505493164062,29.98935317993164,0.17687726020812988,0.45923614501953125,0.07541036605834961,2.7563729286193848,9.219697952270508,-2.4614148139953613
2_20251106_213718,1762436201270,2,0.21577836573123932,0.4753107726573944,0.6312516927719116,0.5736206769943237,0.9865137338638306,3.0233418941497803,0.8334720134735107,2.9332501888275146,9.678934097290039,-2.3860044479370117,-0.06428968906402588,-0.10842084139585495,0.11134537309408188,16.530000686645508,-20.111976623535156,29.976478576660156,0.17687726020812988,0.45923614501953125,0.07541036605834961,2.7563729286193848,9.219697952270508,-2.4614148139953613
2_20251106_213718,1762436201289,2,0.21488375961780548,0.4750819802284241,0.6311580538749695,0.574248731136322,0.9834885001182556,3.0497162342071533,0.8009447455406189,2.8291068077087402,10.194862365722656,-2.3572750091552734,-0.06428968906402588,-0.10842084139585495,0.11134537309408188,16.5085391998291,-20.287757873535156,29.891197204589844,0.02567291259765625,0.6631765365600586,0.05554080009460449,2.803433895111084,9.531685829162598,-2.412815809249878
2_20251106_213718,1762436201310,2,0.213992178440094,0.47404614090919495,0.6315373182296753,0.5750201940536499,0.9834885001182556,3.0497162342071533,0.8009447455406189,2.8291068077087402,10.194862365722656,-2.3572750091552734,-0.06612228602170944,-0.03145189583301544,0.008109230548143387,16.430179595947266,-20.392440795898438,29.832077026367188,0.02567291259765625,0.6631765365600586,0.05554080009460449,2.803433895111084,9.531685829162598,-2.412815809249878
2_20251106_213718,1762436201326,2,0.21328352391719818,0.4727550148963928,0.6320440769195557,0.5757890939712524,0.9814294576644897,3.068049669265747,0.7845267653465271,2.6698994636535645,10.339706420898438,-2.178914785385132,-0.020307432860136032,-0.03511708602309227,0.05148062855005264,16.41637420654297,-20.43022918701172,29.763214111328125,-0.1068274974822998,0.6464166641235352,0.18712091445922852,2.7767269611358643,9.693289756774902,-2.3660356998443604
2_20251106_213718,1762436201346,2,0.21214476227760315,0.4717358648777008,0.6326373815536499,0.5763938426971436,0.9797734022140503,3.082409620285034,0.7741390466690063,2.656731605529785,10.563553810119629,-1.8748643398284912,0.0810961127281189,-0.05588648468255997,0.12356265634298325,16.389575958251953,-20.48150634765625,29.707111358642578,-0.09599637985229492,0.6962108612060547,0.39293718338012695,2.75272798538208,9.867342948913574,-2.267801523208618
2_20251106_213718,1762436201365,2,0.21031267940998077,0.471418172121048,0.6333913803100586,0.5764970779418945,0.9779484272003174,3.1035025119781494,0.7625600099563599,2.8243186473846436,10.818525314331055,-1.8581056594848633,0.1941060870885849,-0.1310228556394577,0.16449058055877686,16.397323608398438,-20.56793975830078,29.638172149658203,0.05727243423461914,0.7609462738037109,0.3277566432952881,2.7670462131500244,10.057579040527344,-2.1858623027801514
2_20251106_213718,1762436201384,2,0.2082323133945465,0.4720158576965332,0.6343861222267151,0.5756688714027405,0.9771839380264282,3.124091148376465,0.753588855266571,3.0601372718811035,10.953791618347168,-1.8281793594360352,0.1941060870885849,-0.1310228556394577,0.16449058055877686,16.38251495361328,-20.618690490722656,29.60959243774414,0.23447275161743164,0.7169694900512695,0.2861464023590088,2.825664520263672,10.236822128295898,-2.114325761795044
2_20251106_213718,1762436201403,2,0.20617777109146118,0.47317981719970703,0.635650098323822,0.5740562081336975,0.9776480793952942,3.144486665725708,0.746472954750061,3.2935619354248047,10.994491577148438,-1.7252330780029297,0.36148303747177124,-0.2079918086528778,0.12417352944612503,16.433683395385742,-20.565826416015625,29.666675567626953,0.37431788444519043,0.606135368347168,0.31127405166625977,2.9192440509796143,10.38835620880127,-2.0365071296691895
2_20251106_213718,1762436201423,2,0.2040318101644516,0.4743185043334961,0.6374906301498413,0.5718379616737366,0.9797307848930359,3.16776704788208,0.7398861646652222,3.443193197250366,10.96456527709961,-1.7324154376983643,0.4463931918144226,-0.17378337681293488,0.0588110014796257,16.43539047241211,-20.540306091308594,29.62665557861328,0.4191591739654541,0.4609670639038086,0.24327337741851807,3.024034023284912,10.5035982131958,-1.9756888151168823
2_20251106_213718,1762436201442,2,0.2016039341688156,0.4749947786331177,0.6401574015617371,0.569152295589447,0.9862099885940552,3.207979440689087,0.7287619113922119,3.4731192588806152,10.485746383666992,-2.1501855850219727,0.478158175945282,-0.11025343835353851,0.005665771663188934,16.463497161865234,-20.46405029296875,29.696800231933594,0.28971290588378906,-0.06198883056640625,-0.1484513282775879,3.183406352996826,10.547735214233398,-2.0017342567443848
2_20251106_213718,1762436201461,2,0.19899310171604156,0.4751417934894562,0.6433027386665344,0.5663952827453613,0.9913678765296936,3.226980447769165,0.7216241359710693,3.6275386810302734,10.03924560546875,-2.3895955085754395,0.4573887586593628,-0.06749290972948074,-0.008384117856621742,16.496028900146484,-20.312179565429688,29.741497039794922,0.35530591011047363,-0.40679168701171875,-0.3102891445159912,3.2722327709198,10.446037292480469,-2.0793063640594482
2_20251106_213718,1762436201480,2,0.19630292057991028,0.47498825192451477,0.6464558839797974,0.5638670921325684,0.9913678765296936,3.226980447769165,0.7216241359710693,3.6275386810302734,10.03924560546875,-2.3895955085754395,0.4445606470108032,-0.10780998319387436,0.006887500640004873,16.46774673461914,-20.15253448486328,29.86510467529297,0.35530591011047363,-0.40679168701171875,-0.3102891445159912,3.2722327709198,10.446037292480469,-2.0793063640594482
2_20251106_213718,1762436201498,2,0.1938050240278244,0.4751903712749481,0.6493690013885498,0.5612073540687561,0.9980612397193909,3.243194341659546,0.7135469913482666,3.8621604442596436,9.841733932495117,-2.505709171295166,0.4445606470108032,-0.10780998319387436,0.006887500640004873,16.492843627929688,-19.90221405029297,30.033069610595703,0.4719421863555908,-0.4834423065185547,-0.3411221504211426,3.3902182579040527,10.325176239013672,-2.1645870208740234
2_20251106_213718,1762436201519,2,0.19149954617023468,0.4760652184486389,0.6521892547607422,0.557977557182312,1.016797423362732,3.2683072090148926,0.6948084831237793,4.5552520751953125,9.871660232543945,-2.9378440380096436,0.5539053678512573,-0.3161148428916931,0.048426300287246704,16.503639221191406,-19.69036102294922,30.199752807617188,0.8067190647125244,-0.2902507781982422,-0.53855299949646,3.748533010482788,10.161911010742188,-2.3992910385131836
2_20251106_213718,1762436201539,2,0.18948246538639069,0.477861225605011,0.6550545692443848,0.5537585616111755,1.0305607318878174,3.2790069580078125,0.6825128793716431,4.806632041931152,9.824974060058594,-3.1293718814849854,0.6265982389450073,-0.43217915296554565,0.06980656832456589,16.558549880981445,-19.33826446533203,30.397842407226562,0.8464791774749756,-0.2695493698120117,-0.5840647220611572,3.9601528644561768,10.094523429870605,-2.545307159423828
2_20251106_213718,1762436201557,2,0.18775619566440582,0.48064255714416504,0.65789395570755,0.5485488772392273,1.044931411743164,3.2870640754699707,0.6701227426528931,5.017313003540039,9.651402473449707,-3.307732343673706,0.6748565435409546,-0.5109806656837463,0.09301942586898804,16.558549880981445,-19.33826446533203,30.397842407226562,0.8457279205322266,-0.35449695587158203,-0.6099400520324707,4.1715850830078125,10.005899429321289,-2.6977922916412354
2_20251106_213718,1762436201576,2,0.18611080944538116,0.4840220510959625,0.6607222557067871,0.5427075624465942,1.0620499849319458,3.2933990955352783,0.6557422876358032,5.158564567565918,9.370096206665039,-3.4106788635253906,0.690739095211029,-0.5641259551048279,0.10401500016450882,16.600162506103516,-19.011672973632812,30.554367065429688,0.789583683013916,-0.5086421966552734,-0.5703091621398926,4.368980884552002,9.878738403320312,-2.840369701385498
2_20251106_213718,1762436201594,2,0.18464170396327972,0.4877781569957733,0.6634315252304077,0.5365058183670044,1.079689860343933,3.2970964908599854,0.6410300731658936,5.275875568389893,9.064847946166992,-3.559112548828125,0.6840195655822754,-0.628877580165863,0.11256710439920425,16.738357543945312,-18.691551208496094,30.741580963134766,0.7255158424377441,-0.6511125564575195,-0.5749943256378174,4.550359725952148,9.715960502624512,-2.9841182231903076
2_20251106_213718,1762436201613,2,0.18360979855060577,0.4919782280921936,0.6658357977867126,0.5300071239471436,1.0998519659042358,3.2981507778167725,0.6242823004722595,5.451841831207275,8.74882698059082,-3.7111380100250244,0.6736348867416382,-0.6972944140434265,0.12295179814100266,16.884605407714844,-18.23290252685547,30.891151428222656,0.7211856842041016,-0.7737064361572266,-0.5816159248352051,4.730656147003174,9.522533416748047,-3.1295220851898193
2_20251106_213718,1762436201634,2,0.18295244872570038,0.496527761220932,0.6679913997650146,0.5232361555099487,1.124289870262146,3.295444965362549,0.6040176153182983,5.7056169509887695,8.384923934936523,-3.9290010929107666,0.6626392602920532,-0.8310738205909729,0.12356266379356384,17.099838256835938,-17.844696044921875,31.028564453125,0.7799687385559082,-0.9100875854492188,-0.6395831108093262,4.925648212432861,9.295011520385742,-3.2894179821014404
2_20251106_213718,1762436201653,2,0.18409472703933716,0.5029419660568237,0.6688740849494934,0.5155249238014221,1.1465137004852295,3.2902727127075195,0.5862480401992798,5.869612216949463,8.089252471923828,-3.8045077323913574,0.6962368488311768,-1.0815284252166748,0.07530435174703598,17.38888168334961,-17.450775146484375,31.07430648803711,0.7551712989807129,-0.9646072387695312,-0.41207194328308105,5.11444091796875,9.05385971069336,-3.3924357891082764
2_20251106_213718,1762436201671,2,0.18591907620429993,0.5091586112976074,0.6705006957054138,0.50657719373703,1.1703194379806519,3.281263828277588,0.5672821402549744,5.6685075759887695,7.660708904266357,-3.810492992401123,0.8019164800643921,-1.2843354940414429,-0.029153520241379738,17.725454330444336,-17.078521728515625,31.09444808959961,0.4432535171508789,-1.11452054977417,-0.3344457149505615,5.225254058837891,8.775229454040527,-3.4760472774505615
2_20251106_213718,1762436201692,2,0.18897844851016998,0.5157849788665771,0.6726508736610413,0.4957759976387024,1.1703194379806519,3.281263828277588,0.5672821402549744,5.6685075759887695,7.660708904266357,-3.810492992401123,0.8856049180030823,-1.3613044023513794,-0.1415526419878006,18.053268432617188,-16.64441680908203,31.128936767578125,0.4432535171508789,-1.11452054977417,-0.3344457149505615,5.225254058837891,8.775229454040527,-3.4760472774505615
2_20251106_213718,1762436201710,2,0.19263489544391632,0.5220768451690674,0.6754968762397766,0.4837680459022522,1.2141202688217163,3.249089002609253,0.5244283080101013,4.641439437866211,6.42535400390625,-4.703492164611816,0.8849940299987793,-1.3808521032333374,-0.2191324532032013,18.50493049621582,-16.18805694580078,30.992881774902344,-0.4535088539123535,-1.6153888702392578,-0.8740506172180176,5.0949482917785645,8.040742874145508,-3.829441547393799
2_20251106_213718,1762436201728,2,0.19676819443702698,0.5277986526489258,0.6786397099494934,0.4713374674320221,1.229830026626587,3.227273464202881,0.5009891986846924,4.198531150817871,5.764582633972168,-5.391795635223389,0.8507856130599976,-1.4052866697311401,-0.24662137031555176,18.99576187133789,-15.690971374511719,30.791507720947266,-0.7171335220336914,-1.8209280967712402,-1.2498831748962402,4.9156646728515625,7.585510730743408,-4.141912460327148
2_20251106_213718,1762436201749,2,0.20140649378299713,0.5333995223045349,0.681570827960968,0.45867371559143066,1.2428169250488281,3.1975057125091553,0.4697189927101135,3.732879161834717,5.368359088897705,-6.2895827293396,0.826961874961853,-1.4834774732589722,-0.2246302366256714,19.50098991394043,-15.155288696289062,30.577899932861328,-0.9462285041809082,-1.7737212181091309,-1.7181363105773926,4.679107666015625,7.142080307006836,-4.571446418762207
2_20251106_213718,1762436201767,2,0.2065529227256775,0.5393867492675781,0.6840327978134155,0.4455299973487854,1.2505589723587036,3.1664693355560303,0.43747884035110474,3.3139119148254395,4.8739776611328125,-6.806707859039307,0.7597668170928955,-1.6215327978134155,-0.17453932762145996,20.0872802734375,-14.700996398925781,30.271263122558594,-1.0921564102172852,-1.8144822120666504,-1.7882094383239746,4.406068325042725,6.688459873199463,-5.018498420715332
2_20251106_213718,1762436201786,2,0.2127237170934677,0.5461104512214661,0.6855486631393433,0.43189704418182373,1.2542259693145752,3.1287198066711426,0.3997635245323181,2.91290020942688,4.273058891296387,-6.981476783752441,0.614380955696106,-1.768140435218811,-0.10306815057992935,20.872650146484375,-14.182014465332031,29.79781723022461,-1.1945345401763916,-1.9323210716247559,-1.570383071899414,4.1074347496032715,6.205379962921143,-5.411093711853027
2_20251106_213718,1762436201805,2,0.2203088253736496,0.5535488128662109,0.6856019496917725,0.418327271938324,1.2527804374694824,3.083909749984741,0.35790377855300903,2.425701141357422,3.8828210830688477,-6.774387359619141,0.385306715965271,-1.8780959844589233,-0.037094756960868835,21.70574951171875,-13.684432983398438,29.271739959716797,-1.3453869819641113,-1.8580470085144043,-1.090634822845459,3.771088123321533,5.740868091583252,-5.683752536773682
2_20251106_213718,1762436201824,2,0.22958315908908844,0.5613494515419006,0.6838857531547546,0.4055596590042114,1.2464544773101807,3.037963628768921,0.3183515667915344,1.9408960342407227,3.734386920928955,-6.330282211303711,0.06643535196781158,-1.867100477218628,0.014217877760529518,22.57569122314453,-13.1956787109375,28.611709594726562,-1.46415376663208,-1.6051850318908691,-0.5172233581542969,3.4050498008728027,5.339571952819824,-5.813058853149414
2_20251106_213718,1762436201843,2,0.24026669561862946,0.5685003399848938,0.6805328726768494,0.39491045475006104,1.2464544773101807,3.037963628768921,0.3183515667915344,1.9408960342407227,3.734386920928955,-6.330282211303711,-0.31840944290161133,-1.7669185400009155,0.04231765866279602,23.527385711669922,-12.787376403808594,27.7640380859375,-1.46415376663208,-1.6051850318908691,-0.5172233581542969,3.4050498008728027,5.339571952819824,-5.813058853149414
2_20251106_213718,1762436201863,2,0.25230252742767334,0.5743325352668762,0.6756425499916077,0.3872888386249542,1.2193853855133057,2.941711664199829,0.24858634173870087,1.118523120880127,4.070757865905762,-4.654413223266602,-0.684928297996521,-1.6545195579528809,0.057589270174503326,24.41622543334961,-12.645004272460938,26.814247131347656,-1.527538776397705,-0.7695217132568359,0.9035658836364746,2.646061897277832,4.840279579162598,-5.557979106903076
2_20251106_213718,1762436201881,2,0.2656305432319641,0.5787540674209595,0.6693748235702515,0.3826506435871124,1.1989197731018066,2.8941216468811035,0.22339102625846863,0.6732208132743835,4.176097869873047,-3.5363686084747314,-0.9201111793518066,-1.507912039756775,0.04598284512758255,25.322669982910156,-12.637825012207031,25.727371215820312,-1.578273057937622,-0.5313453674316406,1.61728835105896,2.2514939308166504,4.7074432373046875,-5.153656959533691
2_20251106_213718,1762436201902,2,0.27970677614212036,0.5821390151977539,0.6620870232582092,0.38015666604042053,1.1705162525177002,2.842146635055542,0.20420598983764648,0.18841584026813507,4.109063148498535,-2.9845290184020996,-0.9903606176376343,-1.350308895111084,0.050869762897491455,26.23363494873047,-12.779457092285156,24.529685974121094,-1.6504623889923096,-0.47870397567749023,1.735302448272705,1.8388782739639282,4.587767124176025,-4.719831466674805
2_20251106_213718,1762436201919,2,0.29322344064712524,0.5844672918319702,0.6547845005989075,0.37904515862464905,1.1705162525177002,2.842146635055542,0.20420598983764648,0.18841584026813507,4.109063148498535,-2.9845290184020996,-1.016016960144043,-1.3246525526046753,0.1101236417889595,27.129791259765625,-12.971839904785156,23.303421020507812,-1.6504623889923096,-0.47870397567749023,1.735302448272705,1.8388782739639282,4.587767124176025,-4.719831466674805
2_20251106_213718,1762436201941,2,0.3063667118549347,0.5864823460578918,0.647255539894104,0.37846818566322327,1.1032962799072266,2.7518882751464844,0.18497243523597717,-0.7632384300231934,4.708785057067871,-2.9677703380584717,-1.016016960144043,-1.3246525526046753,0.1101236417889595,27.9139404296875,-13.445487976074219,21.932266235351562,-1.7379438877105713,0.13874053955078125,1.1255323886871338,0.9747053980827332,4.57004451751709,-4.0933027267456055
2_20251106_213718,1762436201959,2,0.32031360268592834,0.5888493657112122,0.6386266350746155,0.3779042661190033,1.0658504962921143,2.714650869369507,0.18227852880954742,-1.4156303405761719,5.026002883911133,-2.5906996726989746,-1.1950002908706665,-1.5567811727523804,0.22618791460990906,27.9139404296875,-13.445487976074219,21.932266235351562,-1.9122686386108398,0.36476659774780273,1.2020823955535889,0.49663829803466797,4.66123628616333,-3.7927820682525635
2_20251106_213718,1762436201977,2,0.3355611562728882,0.591686487197876,0.6285899877548218,0.3770682215690613,1.0658504962921143,2.714650869369507,0.18227852880954742,-1.4156303405761719,5.026002883911133,-2.5906996726989746,-1.2683041095733643,-1.5415095090866089,0.2744462490081787,28.63149642944336,-14.046791076660156,20.366790771484375,-1.9122686386108398,0.36476659774780273,1.2020823955535889,0.49663829803466797,4.66123628616333,-3.7927820682525635
2_20251106_213718,1762436201997,2,0.35103416442871094,0.594312310218811,0.6177836656570435,0.37671107053756714,1.0180801153182983,2.6775600910186768,0.18523631989955902,-2.215259552001953,5.38990592956543,-1.8844406604766846,-1.2731910943984985,-1.3472546339035034,0.40028437972068787,29.234031677246094,-14.755294799804688,18.754241943359375,-2.169518232345581,0.5829358100891113,1.5266730785369873,-0.04574123024940491,4.806970119476318,-3.411113739013672
2_20251106_213718,1762436202015,2,0.36500462889671326,0.5965805649757385,0.60673588514328,0.37780264019966125,0.9671398401260376,2.646528959274292,0.1933094710111618,-2.8987746238708496,5.697547912597656,-1.4415324926376343,-1.2121044397354126,-1.091913104057312,0.6482954621315002,29.799602508544922,-15.47833251953125,17.099407196044922,-2.2824268341064453,0.7124624252319336,1.5756651163101196,-0.6163478493690491,4.985085487365723,-3.017197608947754
2_20251106_213718,1762436202034,2,0.37631499767303467,0.5993142127990723,0.5952100157737732,0.3807026743888855,0.9152842164039612,2.6207001209259033,0.2046232372522354,-3.0567848682403564,5.837602615356445,-1.3733006715774536,-1.2121044397354126,-1.091913104057312,0.6482954621315002,30.251964569091797,-16.282920837402344,15.34395980834961,-1.9523496627807617,0.682013988494873,1.3151174783706665,-1.1044352054595947,5.155588626861572,-2.68841814994812
2_20251106_213718,1762436202053,2,0.38503342866897583,0.603453516960144,0.5823347568511963,0.38533011078834534,0.859110414981842,2.597935199737549,0.21993127465248108,-2.625847101211548,6.298466682434082,-1.2440192699432373,-1.0954293012619019,-0.7156203985214233,1.2933685779571533,30.62718963623047,-17.155731201171875,13.651832580566406,-1.2171294689178467,0.9143023490905762,1.1555192470550537,-1.4087176322937012,5.384164333343506,-2.399538516998291
2_20251106_213718,1762436202072,2,0.3911115229129791,0.6087178587913513,0.5683304071426392,0.3917841911315918,0.801216185092926,2.581090211868286,0.2377186119556427,-1.9746521711349487,7.331520080566406,-1.5839813947677612,-0.9860845804214478,-0.5726780295372009,1.514501690864563,30.870479583740234,-17.999610900878906,11.955102920532227,-0.4527477025985718,1.557884693145752,0.6524456739425659,-1.521904468536377,5.773635387420654,-2.236427068710327
2_20251106_213718,1762436202092,2,0.39469173550605774,0.6148342490196228,0.5538536906242371,0.3993035852909088,0.708988606929779,2.568786859512329,0.2713782489299774,-0.3035714626312256,8.301131248474121,-1.6306662559509277,-0.8235945701599121,-0.4291248321533203,1.6177377700805664,30.950618743896484,-18.941444396972656,10.223115921020508,0.9139941930770874,1.667586326599121,0.3938157558441162,-1.217565655708313,6.633544921875,-2.024482011795044
2_20251106_213718,1762436202110,2,0.39593780040740967,0.621399998664856,0.5397173166275024,0.4071860909461975,0.6697867512702942,2.5711402893066406,0.2878083288669586,0.3679732382297516,8.721294403076172,-2.2471466064453125,-0.7331866025924683,-0.33444079756736755,1.5884162187576294,30.706588745117188,-20.018295288085938,8.611164093017578,1.2684311866760254,1.6701993942260742,-0.1781315803527832,-0.9004579186439514,7.051095008850098,-2.0690150260925293
2_20251106_213718,1762436202131,2,0.396092027425766,0.6276894211769104,0.5261991024017334,0.41500791907310486,0.6346414089202881,2.580392837524414,0.30316299200057983,0.8946750164031982,9.074424743652344,-2.634990692138672,-0.7331866025924683,-0.33444079756736755,1.5884162187576294,30.338706970214844,-21.117393493652344,7.169755935668945,1.4361064434051514,1.6186637878417969,-0.45278048515319824,-0.5414313673973083,7.455760955810547,-2.1822102069854736
2_20251106_213718,1762436202150,2,0.3978152871131897,0.6327577829360962,0.5126274824142456,0.42257973551750183,0.6100014448165894,2.593855381011963,0.3154590129852295,1.0742323398590088,9.863279342651367,-2.266299247741699,-1.2664715051651,-0.39064034819602966,1.1125527620315552,29.83538055419922,-22.238731384277344,5.817302703857422,1.2925310134887695,1.9260149002075195,-0.06727123260498047,-0.21829864382743835,7.937264442443848,-2.1990280151367188
2_20251106_213718,1762436202168,2,0.4031468331813812,0.635032594203949,0.4989829361438751,0.4303746223449707,0.6100014448165894,2.593855381011963,0.3154590129852295,1.0742323398590088,9.863279342651367,-2.266299247741699,-1.6116100549697876,-0.3631514310836792,0.7002189755439758,29.23255157470703,-23.403961181640625,4.446619033813477,1.2925310134887695,1.9260149002075195,-0.06727123260498047,-0.21829864382743835,7.937264442443848,-2.1990280151367188
2_20251106_213718,1762436202188,2,0.41205233335494995,0.6336384415626526,0.48639941215515137,0.43832728266716003,0.5860492587089539,2.6159417629241943,0.33275729417800903,0.7833493947982788,10.07515811920166,-1.1039645671844482,-1.738669991493225,-0.1823354959487915,0.37401720881462097,28.563457489013672,-24.448654174804688,3.1026649475097656,0.8013184070587158,1.7103147506713867,0.8760507106781006,-0.0179690420627594,8.364843368530273,-1.9800152778625488
2_20251106_213718,1762436202206,2,0.42218562960624695,0.6289985179901123,0.4759695529937744,0.44673606753349304,0.5500324964523315,2.659461736679077,0.37610113620758057,-0.0019150227308273315,9.293484687805176,0.5575399994850159,-1.738669991493225,-0.1823354959487915,0.37401720881462097,27.86465835571289,-25.37042999267578,1.7869110107421875,-0.054653383791446686,0.5318927764892578,1.6797699928283691,0.052738361060619354,8.761591911315918,-1.122230052947998
2_20251106_213718,1762436202225,2,0.43194594979286194,0.6231123208999634,0.4669121503829956,0.4551338255405426,0.5310236811637878,2.683689594268799,0.40430837869644165,-0.44961151480674744,9.562820434570312,0.5084609985351562,-1.560908317565918,-0.1420184224843979,0.2347400188446045,27.25568389892578,-26.210891723632812,0.4356250762939453,-0.4018799066543579,0.6409826278686523,1.3045527935028076,-0.04773160442709923,8.92183780670166,-0.7960918545722961
2_20251106_213718,1762436202244,2,0.4413890242576599,0.6178690195083618,0.4580024778842926,0.4622200131416321,0.5103815197944641,2.7098145484924316,0.43559086322784424,-0.9894808530807495,10.054807662963867,0.8388466238975525,-1.560908317565918,-0.1420184224843979,0.2347400188446045,26.652549743652344,-26.95063018798828,-0.940582275390625,-0.7533994317054749,0.9063758850097656,1.307950735092163,-0.23608143627643585,9.148431777954102,-0.46910417079925537
2_20251106_213718,1762436202264,2,0.4509923756122589,0.6132766008377075,0.44872358441352844,0.46812906861305237,0.48592424392700195,2.7386293411254883,0.47187209129333496,-1.491044521331787,10.033260345458984,1.1752173900604248,-1.4735546112060547,-0.04794524237513542,0.2799440324306488,26.18978500366211,-27.367286682128906,-2.4269332885742188,-1.0039705038070679,0.7078628540039062,1.3154572248458862,-0.4870740473270416,9.325397491455078,-0.1402398645877838
2_20251106_213718,1762436202283,2,0.4596001207828522,0.6080916523933411,0.43989479541778564,0.47485241293907166,0.4611857533454895,2.765082359313965,0.5096470713615417,-1.458724021911621,9.488603591918945,1.6935398578643799,-1.4735546112060547,-0.04794524237513542,0.2799440324306488,25.830963134765625,-27.65282440185547,-3.82562255859375,-0.7773199677467346,0.13056468963623047,1.4670238494873047,-0.6814040541648865,9.358038902282715,0.22651606798171997
2_20251106_213718,1762436202301,2,0.4663197994232178,0.6030175685882568,0.430570513010025,0.4832439124584198,0.43872255086898804,2.7893855571746826,0.5479319095611572,-0.7620413303375244,9.559228897094727,1.9676642417907715,-1.3855901956558228,0.25626540184020996,0.8498808145523071,25.577682495117188,-27.793479919433594,-5.258033752441406,-0.0645098090171814,0.1609516143798828,1.392918586730957,-0.697531521320343,9.398277282714844,0.5747456550598145
2_20251106_213718,1762436202321,2,0.4705342650413513,0.5988469123840332,0.4199858605861664,0.4935501515865326,0.41811200976371765,2.817173480987549,0.5889591574668884,0.000479087233543396,10.643756866455078,1.535529375076294,-1.3019016981124878,0.17868556082248688,1.047800898551941,25.301563262939453,-27.887245178222656,-6.5146589279174805,0.5584084987640381,0.9963836669921875,0.7686269879341125,-0.5579293966293335,9.64737319946289,0.7669023871421814
2_20251106_213718,1762436202340,2,0.4734840393066406,0.5960822105407715,0.4081391394138336,0.5039060115814209,0.39923176169395447,2.85078501701355,0.6322065591812134,0.011252529919147491,11.563089370727539,1.4972237348556519,-1.2011090517044067,0.09682970494031906,0.9555604457855225,24.992717742919922,-27.908592224121094,-7.717105865478516,0.4553455412387848,1.5325727462768555,0.5842570662498474,-0.4440930187702179,10.030516624450684,0.9129666686058044
2_20251106_213718,1762436202359,2,0.4764331579208374,0.5937888026237488,0.3968232572078705,0.5127938985824585,0.38293585181236267,2.884608268737793,0.6751589775085449,-0.17309308052062988,11.302133560180664,2.3423407077789307,-1.1534615755081177,0.28192171454429626,0.7545859217643738,23.59022331237793,-26.186981201171875,-8.74190902709961,0.21679994463920593,1.017293930053711,1.1434992551803589,-0.3898930251598358,10.284839630126953,1.1988414525985718
2_20251106_213718,1762436202379,2,0.4795028567314148,0.59003084897995,0.3875473737716675,0.5212941765785217,0.3665020763874054,2.920468807220459,0.7240585088729858,-0.43524694442749023,10.954988479614258,3.155137062072754,-1.19377863407135,0.6325580477714539,0.6293586492538452,23.229137420654297,-26.251060485839844,-9.757882118225098,-0.036283135414123535,0.5361194610595703,1.5650365352630615,-0.3989638090133667,10.418869018554688,1.5901005268096924
2_20251106_213718,1762436202399,2,0.4820489287376404,0.5835473537445068,0.380426287651062,0.5313916802406311,0.35224103927612305,2.9543235301971436,0.771929144859314,-0.19104883074760437,10.96217155456543,2.95283579826355,-1.2597519159317017,1.063828468322754,0.755807638168335,22.91742706298828,-26.27631378173828,-10.568357467651367,0.16633197665214539,0.43464183807373047,1.0901882648468018,-0.35738080739974976,10.5275297164917,1.862647533416748
2_20251106_213718,1762436202417,2,0.48272204399108887,0.574727475643158,0.3742075562477112,0.5446434617042542,0.34214460849761963,2.9888176918029785,0.8183479309082031,0.9006602764129639,11.377547264099121,2.2058770656585693,-1.2597519159317017,1.1621776819229126,1.053298830986023,22.91742706298828,-26.27631378173828,-10.568357467651367,1.0064328908920288,0.6800146102905273,0.2745835781097412,-0.10577259957790375,10.697532653808594,1.9312934875488281
2_20251106_213718,1762436202436,2,0.4812469184398651,0.56630939245224,0.3667978346347809,0.5596020221710205,0.33717969059944153,3.0257747173309326,0.8649955987930298,1.5805842876434326,12.223861694335938,2.8606629371643066,-1.1858373880386353,0.7779438495635986,1.199906349182129,22.602428436279297,-26.329246520996094,-11.122551918029785,1.3490855693817139,1.2210636138916016,0.7434957027435303,0.23149874806404114,11.002798080444336,2.1171672344207764
2_20251106_213718,1762436202455,2,0.4797106981277466,0.5609252452850342,0.3569951057434082,0.5725338459014893,0.33717969059944153,3.0257747173309326,0.8649955987930298,1.5805842876434326,12.223861694335938,2.8606629371643066,-1.0966511964797974,0.5855215191841125,1.0264207124710083,22.187828063964844,-26.42620086669922,-11.681461334228516,1.3490855693817139,1.2210636138916016,0.7434957027435303,0.23149874806404114,11.002798080444336,2.1171672344207764
2_20251106_213718,1762436202474,2,0.4791504144668579,0.5561703443527222,0.3476540744304657,0.5832890272140503,0.33559441566467285,3.108912229537964,0.9760444760322571,0.8934779167175293,12.871464729309082,6.344076156616211,-0.9879171848297119,1.002742052078247,0.6953320503234863,21.708179473876953,-26.590721130371094,-12.163045883178711,0.3432249426841736,1.1846466064453125,2.9429078102111816,0.5502529740333557,11.68681812286377,3.4011683464050293
2_20251106_213718,1762436202493,2,0.47845548391342163,0.5479156970977783,0.3426171839237213,0.5945436954498291,0.33559441566467285,3.108912229537964,0.9760444760322571,0.8934779167175293,12.871464729309082,6.344076156616211,-0.8773506879806519,1.763879418373108,0.609200119972229,21.28040313720703,-26.6898193359375,-12.587282180786133,0.3432249426841736,1.1846466064453125,2.9429078102111816,0.5502529740333557,11.68681812286377,3.4011683464050293
2_20251106_213718,1762436202512,2,0.4741750657558441,0.5345388054847717,0.34294822812080383,0.6097645163536072,0.3361488878726959,3.1548280715942383,1.046528697013855,0.7689847946166992,12.064653396606445,5.890395164489746,-0.8773506879806519,1.763879418373108,0.609200119972229,20.985713958740234,-26.75830078125,-12.681206703186035,0.17498546838760376,0.30226802825927734,1.9913816452026367,0.5939993262290955,11.762385368347168,3.8990135192871094
2_20251106_213718,1762436202531,2,0.4666471779346466,0.5211291909217834,0.343046635389328,0.6268841624259949,0.3396376967430115,3.192981719970703,1.1080461740493774,1.6919097900390625,11.284177780151367,4.239663600921631,-0.6385025978088379,1.6246023178100586,1.2707666158676147,20.6385555267334,-26.89301300048828,-12.75137996673584,0.8783283829689026,-0.3825664520263672,0.2725200653076172,0.8135814070701599,11.666744232177734,3.9671435356140137
2_20251106_213718,1762436202551,2,0.4575299620628357,0.5122635364532471,0.3400905132293701,0.6423323154449463,0.3586614727973938,3.2632651329040527,1.2223528623580933,2.6543374061584473,12.322019577026367,5.103933334350586,-0.6385025978088379,1.6246023178100586,1.2707666158676147,20.313186645507812,-27.041259765625,-12.564026832580566,1.1920653581619263,0.5346755981445312,0.8983883857727051,1.462272047996521,11.787343978881836,4.205544948577881
2_20251106_213718,1762436202570,2,0.44872260093688965,0.5064592361450195,0.3364454209804535,0.6549439430236816,0.37232887744903564,3.2986385822296143,1.2835041284561157,2.438868522644043,12.178373336791992,6.144168853759766,-0.3300158381462097,1.4847142696380615,0.9873253703117371,19.922760009765625,-27.26868438720703,-12.39422607421875,0.7812771797180176,0.3128232955932617,1.5508995056152344,1.6575913429260254,11.86555004119873,4.593269348144531
2_20251106_213718,1762436202589,2,0.4399448037147522,0.4984451234340668,0.3359707295894623,0.6671766638755798,0.3880574405193329,3.3312888145446777,1.3448511362075806,2.657928943634033,11.51760196685791,5.779068946838379,-0.28542274236679077,2.0705337524414062,0.8865326642990112,19.566600799560547,-27.508438110351562,-12.0069580078125,0.8002700805664062,-0.27835845947265625,0.9486398696899414,1.857658863067627,11.795960426330566,4.8304290771484375
2_20251106_213718,1762436202607,2,0.42994701862335205,0.4863640367984772,0.33832448720932007,0.6812724471092224,0.4064386487007141,3.358691692352295,1.399888038635254,3.573671579360962,10.990900039672852,4.759182929992676,-0.28542274236679077,2.0705337524414062,0.8865326642990112,19.23413848876953,-27.735931396484375,-11.429216384887695,1.3728101253509521,-0.6440486907958984,-0.056996822357177734,2.2008614540100098,11.63494873046875,4.8161797523498535
2_20251106_213718,1762436202626,2,0.4168560206890106,0.4738259017467499,0.34081149101257324,0.6968268156051636,0.4318788945674896,3.385720729827881,1.4549740552902222,4.755159378051758,11.470916748046875,4.7783355712890625,-0.20601032674312592,2.2916665077209473,1.1394306421279907,18.909446716308594,-28.026634216308594,-10.730657577514648,2.04343843460083,-0.1312255859375,-0.030275344848632812,2.7117209434509277,11.602142333984375,4.808610916137695
2_20251106_213718,1762436202645,2,0.40172824263572693,0.46514075994491577,0.34081950783729553,0.7114074230194092,0.46418893337249756,3.4129035472869873,1.5098795890808105,5.679281234741211,12.150840759277344,5.746748924255371,0.08231783658266068,1.5024293661117554,1.5688685178756714,18.530595779418945,-28.39746856689453,-9.87345027923584,2.3740482330322266,0.43895816802978516,0.7505102157592773,3.3052330017089844,11.711882591247559,4.996238708496094
2_20251106_213718,1762436202666,2,0.3864103853702545,0.4604211449623108,0.3398132622241974,0.7233438491821289,0.5044329762458801,3.4421050548553467,1.5698105096817017,5.91510009765625,12.375886917114258,6.649324417114258,0.3633156418800354,1.4285147190093994,1.2988663911819458,17.8986759185791,-28.93608856201172,-8.907571792602539,2.087893486022949,0.5312042236328125,1.3224687576293945,3.827206611633301,11.844682693481445,5.326855659484863
2_20251106_213718,1762436202683,2,0.37164556980133057,0.4560678005218506,0.3415231704711914,0.7329691052436829,0.5434964895248413,3.467369318008423,1.6249091625213623,5.717586994171143,11.965298652648926,6.893522262573242,0.3633156418800354,1.4285147190093994,1.2988663911819458,17.264965057373047,-29.488746643066406,-7.793278694152832,1.5123043060302734,0.09649276733398438,1.2533330917358398,4.205282688140869,11.868805885314941,5.640189170837402
2_20251106_213718,1762436202703,2,0.3578678369522095,0.4482685327529907,0.3471372127532959,0.7419445514678955,0.5860951542854309,3.490485668182373,1.6823843717575073,5.454236030578613,11.06032943725586,6.450613975524902,0.4518910050392151,2.1187920570373535,0.6043131947517395,16.5357666015625,-30.021835327148438,-6.7634782791137695,0.9991626739501953,-0.6467809677124023,0.6483402252197266,4.455073356628418,11.707110404968262,5.802273750305176
2_20251106_213718,1762436202722,2,0.34454450011253357,0.43636858463287354,0.35479384660720825,0.7516601085662842,0.632411777973175,3.508527994155884,1.739625334739685,5.678084373474121,10.038049697875977,5.7252020835876465,0.5019818544387817,2.2672321796417236,0.7118253707885742,15.861063957214355,-30.439544677734375,-5.648242950439453,0.9784088134765625,-1.3352489471435547,-0.06165742874145508,4.699675559997559,11.373298645019531,5.786859512329102
2_20251106_213718,1762436202741,2,0.3295398950576782,0.4237896203994751,0.3626648783683777,0.7617611289024353,0.6785948276519775,3.52020525932312,1.7897071838378906,6.296958923339844,9.694496154785156,5.211668014526367,0.6473676562309265,2.092525005340576,1.0215338468551636,15.11014175415039,-30.901039123535156,-4.401579856872559,1.2778267860412598,-1.3430423736572266,-0.46015310287475586,5.019132137298584,11.037538528442383,5.671821117401123
2_20251106_213718,1762436202761,2,0.3121267855167389,0.4139951765537262,0.3695093095302582,0.771134078502655,0.7255108952522278,3.52748441696167,1.832592487335205,7.192351818084717,9.725619316101074,4.783123970031738,0.8849940299987793,1.7113450765609741,1.3110836744308472,14.308064460754395,-31.403785705566406,-3.117121696472168,1.7385754585266113,-1.0495357513427734,-0.7109575271606445,5.4537763595581055,10.775155067443848,5.494081497192383
2_20251106_213718,1762436202780,2,0.2926975190639496,0.4086619019508362,0.37562841176986694,0.7786057591438293,0.7868671417236328,3.5327084064483643,1.876396894454956,8.245755195617676,9.92672348022461,4.382112503051758,1.1531635522842407,1.360097885131836,1.4424196481704712,13.447481155395508,-31.860816955566406,-1.7799949645996094,2.2335829734802246,-0.6787452697753906,-0.8895750045776367,6.012172222137451,10.60546875,5.2716875076293945
2_20251106_213718,1762436202800,2,0.2722407579421997,0.40710413455963135,0.3820456266403198,0.7837042212486267,0.8482447862625122,3.5358126163482666,1.91087806224823,9.161498069763184,10.100296020507812,4.116367340087891,1.3138210773468018,1.0962042808532715,1.355065941810608,12.490720748901367,-32.299224853515625,-0.43274688720703125,2.519460678100586,-0.40413856506347656,-0.9242563247680664,6.642037391662598,10.504434585571289,5.040623664855957
2_20251106_213718,1762436202819,2,0.25271016359329224,0.4076746702194214,0.3890168368816376,0.7865143418312073,0.915640115737915,3.5382800102233887,1.9417792558670044,9.953944206237793,10.328932762145996,4.364156723022461,1.3229840993881226,1.0149593353271484,1.1156069040298462,11.503053665161133,-32.62794494628906,1.010019302368164,2.6495256423950195,-0.14040184020996094,-0.5411734580993652,7.304418563842773,10.469334602355957,4.905330181121826
2_20251106_213718,1762436202840,2,0.23508425056934357,0.4079616367816925,0.39656615257263184,0.788059651851654,0.9886032938957214,3.540173292160034,1.969085693359375,10.56204605102539,10.304991722106934,4.15826416015625,1.3028255701065063,1.0479459762573242,0.7472555637359619,10.492721557617188,-32.93273162841797,2.411783218383789,2.6061019897460938,-0.13147449493408203,-0.5976529121398926,7.955944061279297,10.436466217041016,4.755917072296143
2_20251106_213718,1762436202856,2,0.21989521384239197,0.40638914704322815,0.4053061306476593,0.7888097763061523,1.0654066801071167,3.541391134262085,1.991827130317688,10.685341835021973,10.224788665771484,3.5896663665771484,1.3211513757705688,0.9917464852333069,0.341030478477478,10.492721557617188,-32.93273162841797,2.411783218383789,2.183518409729004,-0.169342041015625,-0.9330005645751953,8.501823425292969,10.39413070678711,4.522666931152344
2_20251106_213718,1762436202875,2,0.2075340747833252,0.40355661511421204,0.4155852198600769,0.788264274597168,1.0654066801071167,3.541391134262085,1.991827130317688,10.685341835021973,10.224788665771484,3.5896663665771484,1.335201382637024,0.8591888546943665,-0.029764382168650627,9.582907676696777,-33.16905212402344,3.886371612548828,2.183518409729004,-0.169342041015625,-0.9330005645751953,8.501823425292969,10.39413070678711,4.522666931152344
2_20251106_213718,1762436202894,2,0.19838783144950867,0.4002770483493805,0.4270263910293579,0.7861736416816711,1.220533847808838,3.537412405014038,2.025625228881836,9.791145324707031,9.020557403564453,3.2592806816101074,1.335201382637024,0.8591888546943665,-0.029764382168650627,8.609950065612793,-33.44715118408203,5.371232986450195,0.7366800308227539,-1.0100927352905273,-0.8466811180114746,9.054465293884277,10.03065013885498,4.105961799621582
2_20251106_213718,1762436202913,2,0.19160093367099762,0.39677396416664124,0.43920549750328064,0.7829163670539856,1.2944750785827637,3.5290327072143555,2.035705327987671,9.424848556518555,8.259233474731445,2.5997064113616943,1.3657445907592773,0.7608396410942078,-0.2802189290523529,7.72844123840332,-33.60694885253906,6.888935089111328,0.2963066101074219,-1.4171333312988281,-1.2050044536590576,9.128541946411133,9.676366806030273,3.804710865020752
2_20251106_213718,1762436202933,2,0.18570083379745483,0.393841952085495,0.4516075551509857,0.778751790523529,1.368225336074829,3.514488935470581,2.0401570796966553,9.065733909606934,7.648737907409668,1.9532995223999023,1.3920117616653442,0.37538400292396545,-0.33030980825424194,6.187100410461426,-32.636322021484375,8.183256149291992,-0.050246238708496094,-1.6221036911010742,-1.4811289310455322,9.11598014831543,9.270841598510742,3.4344284534454346
2_20251106_213718,1762436202952,2,0.18102680146694183,0.3930715322494507,0.4631056487560272,0.7734708786010742,1.4342366456985474,3.496154308319092,2.0392539501190186,8.91610336303711,7.372220039367676,1.6408696174621582,1.3125993013381958,0.11149045079946518,-0.26800161600112915,5.536402702331543,-32.592247009277344,9.592098236083984,-0.15990161895751953,-1.5188970565795898,-1.434847116470337,9.076004981994629,8.891117095947266,3.075716733932495
2_20251106_213718,1762436202971,2,0.17657555639743805,0.39390692114830017,0.4736480712890625,0.767669141292572,1.4931116104125977,3.4759483337402344,2.035202741622925,8.858644485473633,7.386584281921387,1.7605745792388916,1.1488875150680542,-0.1163620874285698,-0.2704450786113739,5.050354957580566,-32.43658447265625,10.92833137512207,-0.1738882064819336,-1.2036256790161133,-1.0521137714385986,9.032532691955566,8.5902099609375,2.8126883506774902
2_20251106_213718,1762436202991,2,0.17365068197250366,0.3959965705871582,0.4825983941555023,0.7616632580757141,1.554506778717041,3.450927972793579,2.028841495513916,8.785624504089355,7.375811576843262,2.1268718242645264,1.022438645362854,-0.25136318802833557,-0.41277655959129333,4.873273849487305,-32.19720458984375,12.170015335083008,-0.1975259780883789,-0.9715185165405273,-0.5486531257629395,8.983150482177734,8.347330093383789,2.675524950027466
2_20251106_213718,1762436203010,2,0.17277441918849945,0.3980543613433838,0.4908798635005951,0.7554724812507629,1.6083723306655884,3.4247260093688965,2.021273374557495,8.420524597167969,7.027469635009766,2.0095608234405518,1.0273255109786987,-0.32955390214920044,-0.6528463959693909,4.885313510894775,-31.844505310058594,13.326553344726562,-0.4501008987426758,-1.0558881759643555,-0.5327713489532471,8.870625495910645,8.083357810974121,2.542332172393799
2_20251106_213718,1762436203029,2,0.17379415035247803,0.3993159532546997,0.49992692470550537,0.7486090064048767,1.6564935445785522,3.395728588104248,2.0114428997039795,7.758556365966797,6.586955547332764,1.579820156097412,1.0432080030441284,-0.40041419863700867,-0.8697033524513245,4.960088729858398,-31.462181091308594,14.4320068359375,-0.8896551132202148,-1.1971216201782227,-0.7700095176696777,8.648211479187012,7.784077167510986,2.34982967376709
2_20251106_213718,1762436203047,2,0.1766699105501175,0.39999455213546753,0.5096871852874756,0.7409528493881226,1.6976888179779053,3.363816022872925,1.9984182119369507,7.000823974609375,6.193126201629639,1.0064334869384766,1.0432080030441284,-0.40041419863700867,-0.8697033524513245,5.207668781280518,-31.04254150390625,15.436721801757812,-1.3179101943969727,-1.2727608680725098,-1.0747170448303223,8.318734169006348,7.465887069702148,2.081150531768799
2_20251106_213718,1762436203066,2,0.18088023364543915,0.40036922693252563,0.5191295146942139,0.7331380248069763,1.7313989400863647,3.3293864727020264,1.9814934730529785,6.341249465942383,5.966883659362793,0.4222733974456787,0.8098577260971069,-0.5543521046638489,-0.9595004916191101,5.622804641723633,-30.472564697265625,16.261489868164062,-1.5819878578186035,-1.199202537536621,-1.327101707458496,7.923237323760986,7.166086196899414,1.7493751049041748
2_20251106_213718,1762436203085,2,0.1860583871603012,0.4010610282421112,0.5273215770721436,0.7255786061286926,1.7581373453140259,3.2931418418884277,1.9615473747253418,5.996499538421631,5.877105236053467,0.33967700600624084,0.8098577260971069,-0.5543521046638489,-0.9595004916191101,6.105713844299316,-29.997879028320312,17.046539306640625,-1.5413904190063477,-1.0311846733093262,-1.127758502960205,7.5378899574279785,6.908289909362793,1.4674354791641235
2_20251106_213718,1762436203104,2,0.1918809711933136,0.4027024209499359,0.5339670181274414,0.7182559967041016,1.7581373453140259,3.2931418418884277,1.9615473747253418,5.996499538421631,5.877105236053467,0.33967700600624084,0.6589741110801697,-0.6881315112113953,-0.8758120536804199,6.713586807250977,-29.476226806640625,17.70212173461914,-1.5413904190063477,-1.0311846733093262,-1.127758502960205,7.5378899574279785,6.908289909362793,1.4674354791641235
2_20251106_213718,1762436203123,2,0.19852019846439362,0.40527674555778503,0.5389682650566101,0.711233913898468,1.780521035194397,3.252302885055542,1.937092900276184,5.839685916900635,6.078209400177002,0.41987931728363037,0.36698079109191895,-0.969740092754364,-0.7799062728881836,7.416017055511475,-29.01020050048828,18.279212951660156,-1.3585634231567383,-0.6640644073486328,-0.8380450010299683,7.198249340057373,6.742273807525635,1.2579243183135986
2_20251106_213718,1762436203142,2,0.20621877908706665,0.40853819251060486,0.5426225662231445,0.7043657302856445,1.794939637184143,3.218088150024414,1.915629267692566,5.651749610900879,6.352334022521973,0.6281659007072449,0.32055509090423584,-1.0540395975112915,-0.7976213693618774,8.245906829833984,-28.470611572265625,18.578685760498047,-1.2371997833251953,-0.3119521141052246,-0.5038066506385803,6.888949394226074,6.664286136627197,1.1319725513458252
2_20251106_213718,1762436203161,2,0.21461959183216095,0.4120161533355713,0.5458023548126221,0.6973384618759155,1.8103904724121094,3.1519670486450195,1.8712351322174072,5.007737159729004,6.628851890563965,0.43544095754623413,0.31933337450027466,-1.0717545747756958,-0.8312188982963562,9.0609769821167,-27.993392944335938,18.754703521728516,-1.2545385360717773,0.00030517578125,-0.4967266321182251,6.262275695800781,6.628546714782715,0.9321675896644592
2_20251106_213718,1762436203181,2,0.22344161570072174,0.41536059975624084,0.5489397048950195,0.6900830864906311,1.8112070560455322,3.118656873703003,1.8452666997909546,4.695306777954102,6.546256065368652,-0.029014185070991516,0.28879010677337646,-1.1157368421554565,-0.8703142404556274,9.950967788696289,-27.485755920410156,18.880123138427734,-1.2535748481750488,-0.06583261489868164,-0.7689454555511475,5.94888162612915,6.612088680267334,0.7399312853813171
2_20251106_213718,1762436203201,2,0.23294281959533691,0.41869601607322693,0.5518624186515808,0.6825534105300903,1.8078309297561646,3.0902798175811768,1.820185661315918,4.294295310974121,6.653990268707275,-0.4288286864757538,0.1892191618680954,-1.2281359434127808,-0.8672598600387573,10.87912368774414,-26.950347900390625,18.980510711669922,-1.3236689567565918,0.033521175384521484,-0.9350080490112305,5.617964267730713,6.620469093322754,0.5061793327331543
2_20251106_213718,1762436203220,2,0.24334530532360077,0.42245906591415405,0.5538684725761414,0.6749378442764282,1.8078309297561646,3.0902798175811768,1.820185661315918,4.294295310974121,6.653990268707275,-0.4288286864757538,0.1892191618680954,-1.2281359434127808,-0.8672598600387573,11.836454391479492,-26.57337188720703,18.835643768310547,-1.3236689567565918,0.033521175384521484,-0.9350080490112305,5.617964267730713,6.620469093322754,0.5061793327331543
2_20251106_213718,1762436203239,2,0.25491419434547424,0.4269140064716339,0.5545341372489929,0.6672744154930115,1.7841060161590576,3.0330166816711426,1.761766791343689,3.275606155395508,6.89699125289917,-0.1211869940161705,-0.06245709955692291,-1.4535449743270874,-0.8171690106391907,11.836454391479492,-26.57337188720703,18.835643768310547,-1.582998275756836,0.20493698120117188,-0.36646485328674316,4.858604431152344,6.692054271697998,0.24527785181999207
2_20251106_213718,1762436203259,2,0.267291396856308,0.43158045411109924,0.5540063977241516,0.6598261594772339,1.7841060161590576,3.0330166816711426,1.761766791343689,3.275606155395508,6.89699125289917,-0.1211869940161705,-0.1449238359928131,-1.4394952058792114,-0.7744084596633911,12.848549842834473,-26.103836059570312,18.545909881591797,-1.582998275756836,0.20493698120117188,-0.36646485328674316,4.858604431152344,6.692054271697998,0.24527785181999207
2_20251106_213718,1762436203277,2,0.279718279838562,0.43599772453308105,0.5526901483535767,0.652837872505188,1.7414546012878418,2.9866385459899902,1.709588885307312,2.347892999649048,7.082533836364746,0.19842518866062164,-0.22922317683696747,-1.3949021100997925,-0.7004938125610352,13.858925819396973,-25.671432495117188,18.201316833496094,-1.6758053302764893,0.27825307846069336,-0.016004174947738647,4.023698329925537,6.804280757904053,0.2144293636083603
2_20251106_213718,1762436203295,2,0.29172447323799133,0.4400376081466675,0.5506114959716797,0.6465993523597717,1.7151740789413452,2.9676811695098877,1.6864869594573975,1.9875810146331787,7.165130615234375,0.10864648967981339,-0.3306267261505127,-1.3539739847183228,-0.6400182247161865,14.858203887939453,-25.23834228515625,17.70755386352539,-1.6288938522338867,0.2886800765991211,-0.08462629467248917,3.6164748668670654,6.876450538635254,0.19327278435230255
2_20251106_213718,1762436203314,2,0.3036121129989624,0.44373419880867004,0.5476605296134949,0.6410831212997437,1.7151740789413452,2.9676811695098877,1.6864869594573975,1.9875810146331787,7.165130615234375,0.10864648967981339,-0.4332519769668579,-1.3362590074539185,-0.5764883160591125,15.879515647888184,-24.864830017089844,17.051258087158203,-1.6288938522338867,0.2886800765991211,-0.08462629467248917,3.6164748668670654,6.876450538635254,0.19327278435230255
2_20251106_213718,1762436203333,2,0.3156495690345764,0.4474254846572876,0.5436481237411499,0.6360994577407837,1.6798207759857178,2.9477379322052,1.6597923040390015,1.7589446306228638,7.195056438446045,-0.1319604367017746,-0.5267143249511719,-1.40223228931427,-0.49890851974487305,16.88924789428711,-24.479690551757812,16.408252716064453,-1.486024260520935,0.2548847198486328,-0.2601865828037262,3.244968891143799,6.940171718597412,0.1282261461019516
2_20251106_213718,1762436203353,2,0.32790061831474304,0.45155689120292664,0.5384726524353027,0.6313673853874207,1.6117104291915894,2.918342113494873,1.6152011156082153,1.3555389642715454,7.307579040527344,0.11343467980623245,-0.6006289720535278,-1.5384552478790283,-0.4457632601261139,17.83530044555664,-24.171844482421875,15.558467864990234,-1.244284749031067,0.24184417724609375,0.061015721410512924,2.5998237133026123,7.06573486328125,0.05241895839571953
2_20251106_213718,1762436203372,2,0.3410576283931732,0.4566951394081116,0.5319058299064636,0.6262471079826355,1.5699204206466675,2.9049110412597656,1.594358205795288,1.0371237993240356,7.481151580810547,0.6952006816864014,-0.6702675223350525,-1.5635007619857788,-0.42743730545043945,18.704801559448242,-23.943023681640625,14.596027374267578,-1.2501598596572876,0.3323335647583008,0.5142253637313843,2.2872836589813232,7.148818016052246,0.1809752881526947
2_20251106_213718,1762436203390,2,0.3541030287742615,0.4613175690174103,0.524878978729248,0.621529757976532,1.5302655696868896,2.894378423690796,1.5781073570251465,0.6935707330703735,7.5350189208984375,0.8184967637062073,-0.6702675223350525,-1.5635007619857788,-0.42743730545043945,19.599958419799805,-23.710861206054688,13.458854675292969,-1.2749704122543335,0.3089604377746582,0.5100171566009521,1.968541145324707,7.226058483123779,0.30847957730293274
2_20251106_213718,1762436203410,2,0.3666248619556427,0.4647738039493561,0.5177608132362366,0.6176530122756958,1.4838004112243652,2.8840579986572266,1.5612378120422363,0.4529637098312378,7.488333702087402,0.40192359685897827,-0.7533451318740845,-1.2715073823928833,-0.349246621131897,20.317562103271484,-23.615264892578125,12.298660278320312,-1.2124619483947754,0.20981979370117188,0.0747552216053009,1.6654256582260132,7.2785139083862305,0.32716837525367737
2_20251106_213718,1762436203429,2,0.3782561123371124,0.46754559874534607,0.5105219483375549,0.6145655512809753,1.4383256435394287,2.8757529258728027,1.5455514192581177,0.375155508518219,7.646344184875488,0.15892255306243896,-0.7533451318740845,-1.2715073823928833,-0.349246621131897,21.06314468383789,-23.466766357421875,11.032371520996094,-1.0322160720825195,0.2942643165588379,-0.13459664583206177,1.4073716402053833,7.35207986831665,0.29351919889450073
2_20251106_213718,1762436203449,2,0.38926243782043457,0.47048476338386536,0.5024101734161377,0.6121297478675842,1.389316201210022,2.8696415424346924,1.5298051834106445,0.24467715620994568,8.073690414428711,0.2738392949104309,-0.9298850297927856,-1.3362590074539185,-0.11711803823709488,21.77136993408203,-23.333343505859375,9.777864456176758,-0.9301555156707764,0.5772886276245117,-0.015743911266326904,1.1748327016830444,7.496401786804199,0.2895832061767578
2_20251106_213718,1762436203468,2,0.4005594551563263,0.4740806221961975,0.49268609285354614,0.6099672913551331,1.3447335958480835,2.8670759201049805,1.5183755159378052,0.08666662871837616,8.576452255249023,1.1153650283813477,-0.9298850297927856,-1.3362590074539185,-0.11711803823709488,22.23394012451172,-23.26482391357422,8.390846252441406,-0.8705328702926636,0.8640403747558594,0.6606254577636719,0.9571995139122009,7.712411880493164,0.4547395706176758
2_20251106_213718,1762436203486,2,0.41197147965431213,0.47792428731918335,0.48183467984199524,0.6080322265625,1.2975008487701416,2.8688278198242188,1.5116660594940186,0.03639055788516998,9.2886962890625,2.1867241859436035,-1.1155879497528076,-1.2458510398864746,-0.00105374027043581,22.72983169555664,-23.267913818359375,6.868553161621094,-0.7366471886634827,1.2610273361206055,1.3855876922607422,0.7730377316474915,8.027668952941895,0.8011364936828613
2_20251106_213718,1762436203506,2,0.4231114089488983,0.4805503189563751,0.47046828269958496,0.6072130799293518,1.2481633424758911,2.8761889934539795,1.5113812685012817,0.08068137615919113,9.872856140136719,2.9145302772521973,-1.2053850889205933,-0.9813465476036072,-0.006551522761583328,23.142940521240234,-23.22673797607422,5.384431838989258,-0.5538851022720337,1.476149559020996,1.6907150745391846,0.6345664858818054,8.396706581115723,1.2238152027130127
2_20251106_213718,1762436203524,2,0.43352633714675903,0.48100751638412476,0.45947328209877014,0.6079235076904297,1.2481633424758911,2.8761889934539795,1.5113812685012817,0.08068137615919113,9.872856140136719,2.9145302772521973,-1.1491855382919312,-0.7089008688926697,-0.017547087743878365,23.518577575683594,-23.212387084960938,3.830730438232422,-0.5538851022720337,1.476149559020996,1.6907150745391846,0.6345664858818054,8.396706581115723,1.2238152027130127
2_20251106_213718,1762436203544,2,0.4424467980861664,0.47983983159065247,0.44989845156669617,0.6095784902572632,1.1598750352859497,2.905050039291382,1.5242797136306763,0.6887824535369873,10.57552433013916,2.586538791656494,-0.9555413722991943,-0.5653476715087891,-0.0260991919785738,23.684246063232422,-23.250152587890625,2.3625125885009766,0.08928370475769043,1.4158945083618164,0.7779114246368408,0.5994987487792969,9.159629821777344,1.8086273670196533
2_20251106_213718,1762436203563,2,0.4499129354953766,0.47863054275512695,0.4419407546520233,0.6108842492103577,1.119829773902893,2.924518585205078,1.5320442914962769,0.8228520154953003,10.53482437133789,1.9939992427825928,-0.9555413722991943,-0.5653476715087891,-0.0260991919785738,23.94257354736328,-23.14476776123047,0.9546966552734375,0.1786826252937317,1.1001558303833008,0.14829754829406738,0.6441693902015686,9.43466854095459,1.8457016944885254
2_20251106_213718,1762436203582,2,0.4569636583328247,0.4791888892650604,0.4341849386692047,0.6107746362686157,1.0821260213851929,2.9467809200286865,1.5411444902420044,0.7677876949310303,10.80775260925293,2.4740161895751953,-0.785720944404602,-0.6820228099822998,0.003222312778234482,23.98809814453125,-23.153343200683594,-0.46356773376464844,0.09889465570449829,1.0984678268432617,0.502651572227478,0.668893039226532,9.709284782409668,1.9713646173477173
2_20251106_213718,1762436203601,2,0.4646259546279907,0.4812082052230835,0.42506080865859985,0.6098235249519348,1.0821260213851929,2.9467809200286865,1.5411444902420044,0.7677876949310303,10.80775260925293,2.4740161895751953,-0.8639116287231445,-0.8811647295951843,0.03620900958776474,23.997573852539062,-23.152015686035156,-1.856008529663086,0.09889465570449829,1.0984678268432617,0.502651572227478,0.668893039226532,9.709284782409668,1.9713646173477173
2_20251106_213718,1762436203620,2,0.47259730100631714,0.48268765211105347,0.41572052240371704,0.6089670658111572,1.0131936073303223,2.9996442794799805,1.5696474313735962,0.8515811562538147,11.290163040161133,3.689021348953247,-0.775947093963623,-0.6453709602355957,-0.08718566596508026,24.057823181152344,-23.098358154296875,-3.137300491333008,0.1287950873374939,1.0261268615722656,1.1443095207214355,0.7227860689163208,10.264036178588867,2.5447118282318115
2_20251106_213718,1762436203639,2,0.4798811674118042,0.48246312141418457,0.40846797823905945,0.608356237411499,0.9818286895751953,3.028258800506592,1.587391972541809,0.8252460956573486,11.165670394897461,3.516646385192871,-0.6843174695968628,-0.4492833614349365,-0.2087477594614029,24.036617279052734,-22.963844299316406,-4.2714996337890625,0.08196800947189331,0.7213068008422852,0.7775478363037109,0.7432780861854553,10.444363594055176,2.73909854888916
2_20251106_213718,1762436203659,2,0.4868270754814148,0.48111090064048767,0.4030020534992218,0.6075533032417297,0.950480043888092,3.0582690238952637,1.6070817708969116,0.748634934425354,10.903515815734863,3.3789854049682617,-0.6843174695968628,-0.4492833614349365,-0.2087477594614029,24.07553482055664,-22.838050842285156,-5.389993667602539,0.004285454750061035,0.3673219680786133,0.5119094848632812,0.744349479675293,10.53619384765625,2.8670759201049805
2_20251106_213718,1762436203680,2,0.4936506152153015,0.479260116815567,0.3983100950717926,0.6066035628318787,0.9191759824752808,3.088263750076294,1.6280168294906616,0.7342703342437744,10.553977966308594,3.253295421600342,-0.5706965923309326,-0.3729252815246582,-0.25822776556015015,24.270488739013672,-22.659637451171875,-6.419695854187012,-0.008063316345214844,0.014226913452148438,0.3089754581451416,0.7423336505889893,10.539751052856445,2.9443199634552
2_20251106_213718,1762436203697,2,0.5000351667404175,0.4778619706630707,0.3940255641937256,0.605273962020874,0.9191759824752808,3.088263750076294,1.6280168294906616,0.7342703342437744,10.553977966308594,3.253295421600342,-0.5706965923309326,-0.3729252815246582,-0.25822776556015015,24.270488739013672,-22.659637451171875,-6.419695854187012,-0.008063316345214844,0.014226913452148438,0.3089754581451416,0.7423336505889893,10.539751052856445,2.9443199634552
2_20251106_213718,1762436203716,2,0.5056971907615662,0.47724810242652893,0.38980621099472046,0.603784441947937,0.8707261681556702,3.1345620155334473,1.6612460613250732,0.8420047760009766,10.52165699005127,3.0964818000793457,-0.44608014822006226,-0.3900294899940491,-0.10367900878190994,24.228260040283203,-22.44097137451172,-7.336767196655273,0.09136950969696045,-0.014452934265136719,0.1008310317993164,0.7506352663040161,10.536109924316406,2.9956507682800293
2_20251106_213718,1762436203734,2,0.5107181668281555,0.47720426321029663,0.38537535071372986,0.6024357676506042,0.8707261681556702,3.1345620155334473,1.6612460613250732,0.8420047760009766,10.52165699005127,3.0964818000793457,-0.39415663480758667,-0.38147738575935364,-0.08107701689004898,24.147560119628906,-22.2620849609375,-8.283134460449219,0.09136950969696045,-0.014452934265136719,0.1008310317993164,0.7506352663040161,10.536109924316406,2.9956507682800293
2_20251106_213718,1762436203755,2,0.515361487865448,0.47749385237693787,0.3810986578464508,0.6009708642959595,0.846071183681488,3.1588783264160156,1.6793626546859741,1.0155768394470215,10.492927551269531,3.124013900756836,-0.39415663480758667,-0.38147738575935364,-0.08107701689004898,24.21149444580078,-22.087440490722656,-9.10223388671875,0.2119532823562622,-0.0345458984375,0.10269045829772949,0.8036235570907593,10.527473449707031,3.0213234424591064
2_20251106_213718,1762436203773,2,0.5197612047195435,0.4776083827018738,0.3777550458908081,0.599199116230011,0.8040580749511719,3.200998544692993,1.712763786315918,0.9090394973754883,10.344493865966797,3.0964818000793457,-0.2933639883995056,-0.21043525636196136,-0.23196059465408325,24.253990173339844,-21.85240936279297,-9.839897155761719,0.04754728078842163,-0.13511085510253906,0.02320265769958496,0.8614922165870667,10.479604721069336,3.0732791423797607
2_20251106_213718,1762436203793,2,0.5240541696548462,0.47680404782295227,0.37559694051742554,0.5974546074867249,0.7834501266479492,3.22013783454895,1.7287100553512573,0.7701817750930786,10.120645523071289,2.967200517654419,-0.29641830921173096,-0.12430332601070404,-0.2606712579727173,24.286331176757812,-21.56902313232422,-10.468864440917969,-0.07304835319519043,-0.2871675491333008,-0.08486294746398926,0.843230128288269,10.40781307220459,3.052063465118408
2_20251106_213718,1762436203812,2,0.5274477601051331,0.47492969036102295,0.3746032416820526,0.5965845584869385,0.7652378082275391,3.235335111618042,1.7425743341445923,0.6025949120521545,9.933905601501465,3.1455607414245605,-0.2890878915786743,-0.12919025123119354,-0.21119120717048645,24.315059661865234,-21.336944580078125,-10.99075698852539,-0.19250816106796265,-0.37912654876708984,0.0747976303100586,0.7951030731201172,10.313032150268555,3.070763111114502
2_20251106_213718,1762436203831,2,0.5314151048660278,0.4738542139530182,0.3727157413959503,0.5950992703437805,0.7454102635383606,3.2500202655792236,1.758287787437439,0.5966096520423889,9.866870880126953,3.4256703853607178,-0.2677076458930969,-0.11697295308113098,-0.12505929172039032,24.333629608154297,-21.05651092529297,-11.403955459594727,-0.15879476070404053,-0.3569297790527344,0.28392577171325684,0.7554044127464294,10.223800659179688,3.141744613647461
2_20251106_213718,1762436203849,2,0.5346740484237671,0.4730089008808136,0.3706960082054138,0.5941134095191956,0.7454102635383606,3.2500202655792236,1.758287787437439,0.5966096520423889,9.866870880126953,3.4256703853607178,-0.23044490814208984,-0.07421242445707321,-0.03587302565574646,24.397930145263672,-20.823394775390625,-11.789214134216309,-0.15879476070404053,-0.3569297790527344,0.28392577171325684,0.7554044127464294,10.223800659179688,3.141744613647461
2_20251106_213718,1762436203869,2,0.5370671153068542,0.47234633564949036,0.3687165677547455,0.5937137007713318,0.7109980583190918,3.273289203643799,1.7881942987442017,0.9593156576156616,9.909964561462402,3.345468044281006,-0.19257129728794098,-0.04611264914274216,0.01971565932035446,24.484386444091797,-20.626495361328125,-12.160767555236816,0.1622968316078186,-0.19396018981933594,0.10969781875610352,0.797018826007843,10.103924751281738,3.2357702255249023
2_20251106_213718,1762436203889,2,0.5388957262039185,0.47195306420326233,0.366787314414978,0.593564510345459,0.6950952410697937,3.283644437789917,1.8029426336288452,0.9796654582023621,9.897994995117188,3.237733840942383,-0.15225422382354736,-0.036949679255485535,0.028267765417695045,24.555145263671875,-20.4815673828125,-12.439253807067871,0.14611726999282837,-0.16474437713623047,0.0015709400177001953,0.8335481882095337,10.062739372253418,3.2361629009246826
2_20251106_213718,1762436203908,2,0.5404931306838989,0.4718345105648041,0.3650316894054413,0.5932884812355042,0.6950952410697937,3.283644437789917,1.8029426336288452,0.9796654582023621,9.897994995117188,3.237733840942383,-0.11621318757534027,-0.005184714216738939,0.015439607203006744,24.578472137451172,-20.314834594726562,-12.705657958984375,0.14611726999282837,-0.16474437713623047,0.0015709400177001953,0.8335481882095337,10.062739372253418,3.2361629009246826
2_20251106_213718,1762436203926,2,0.5418718457221985,0.47169408202171326,0.3637163043022156,0.5929502844810486,0.6688855886459351,3.2986788749694824,1.8272801637649536,0.8408077359199524,9.664569854736328,3.089299440383911,-0.10033071041107178,0.06811905652284622,0.009941824711859226,24.573802947998047,-20.212608337402344,-12.960845947265625,-0.006462514400482178,-0.26938438415527344,-0.11429452896118164,0.8472702503204346,9.933954238891602,3.2035939693450928
2_20251106_213718,1762436203945,2,0.5429419875144958,0.4711831212043762,0.3629162609577179,0.5928677916526794,0.6556093692779541,3.3051822185516357,1.8388466835021973,0.8982661366462708,9.683722496032715,2.9695944786071777,-0.12904135882854462,0.12126428633928299,0.06003273278474808,24.56824493408203,-20.111595153808594,-13.09438705444336,0.04079669713973999,-0.20018577575683594,-0.18719959259033203,0.8574694395065308,9.88390827178955,3.1567940711975098
2_20251106_213718,1762436203964,2,0.5436671376228333,0.4704057276248932,0.36202889680862427,0.5933629274368286,0.6556093692779541,3.3051822185516357,1.8388466835021973,0.8982661366462708,9.683722496032715,2.9695944786071777,-0.14125864207744598,0.11454477906227112,0.14005599915981293,24.6072998046875,-20.082611083984375,-13.241066932678223,0.04079669713973999,-0.20018577575683594,-0.18719959259033203,0.8574694395065308,9.88390827178955,3.1567940711975098
2_20251106_213718,1762436203984,2,0.5440634489059448,0.4699447751045227,0.36064013838768005,0.5942100286483765,0.6436086297035217,3.3106207847595215,1.8489782810211182,1.0586707592010498,9.640628814697266,2.875027656555176,-0.14125864207744598,0.11454477906227112,0.14005599915981293,24.581096649169922,-20.133079528808594,-13.378266334533691,0.16096103191375732,-0.1946239471435547,-0.22541308403015137,0.8977097272872925,9.83525276184082,3.100440740585327
2_20251106_213718,1762436204002,2,0.5439821481704712,0.4701520502567291,0.3589831292629242,0.5951231718063354,0.633301317691803,3.3155741691589355,1.8581690788269043,1.2573809623718262,9.765121459960938,2.9576239585876465,-0.07162006944417953,0.060788676142692566,0.23718348145484924,24.533451080322266,-20.12316131591797,-13.434028625488281,0.28773701190948486,-0.05610466003417969,-0.11425352096557617,0.9696439504623413,9.821226119995117,3.0718774795532227
2_20251106_213718,1762436204022,2,0.5435658693313599,0.4706701934337616,0.35731619596481323,0.5960963368415833,0.6198522448539734,3.32479190826416,1.87429940700531,1.7122596502304077,9.949467658996582,3.204216241836548,-0.06367883086204529,0.07544942945241928,0.24268126487731934,24.468700408935547,-20.190322875976562,-13.397252082824707,0.5151118040084839,0.08858585357666016,0.10480713844299316,1.1971478462219238,9.860881805419922,3.0994091033935547
2_20251106_213718,1762436204041,2,0.5430161952972412,0.4711640477180481,0.35572049021720886,0.5971606373786926,0.6198522448539734,3.32479190826416,1.87429940700531,1.7122596502304077,9.949467658996582,3.204216241836548,-0.06612228602170944,0.07789289206266403,0.22130100429058075,24.393569946289062,-20.232627868652344,-13.41450309753418,0.5151118040084839,0.08858585357666016,0.10480713844299316,1.1971478462219238,9.860881805419922,3.0994091033935547
2_20251106_213718,1762436204060,2,0.5425193309783936,0.471530020236969,0.35422155261039734,0.5982134342193604,0.6146504282951355,3.3345680236816406,1.8906654119491577,2.0510246753692627,10.058399200439453,3.250901222229004,-0.042298562824726105,0.13287071883678436,0.1779296100139618,24.259029388427734,-20.242042541503906,-13.352315902709961,0.5723375082015991,0.13502979278564453,0.08603811264038086,1.4786871671676636,9.923369407653809,3.164863109588623
2_20251106_213718,1762436204079,2,0.5420284867286682,0.4715941548347473,0.3532602787017822,0.5991754531860352,0.6154487729072571,3.33981990814209,1.8982222080230713,2.2760701179504395,9.969817161560059,2.9145302772521973,-0.042298562824726105,0.13287071883678436,0.1779296100139618,24.233455657958984,-20.256858825683594,-13.285980224609375,0.6379063129425049,0.03715801239013672,-0.20026636123657227,1.6381638050079346,9.932659149169922,3.1147966384887695
2_20251106_213718,1762436204100,2,0.5413975119590759,0.4715687334537506,0.3529808223247528,0.5999301671981812,0.618470311164856,3.3447656631469727,1.903915286064148,2.3826074600219727,9.918344497680664,2.6260414123535156,0.029783476144075394,0.10599266737699509,0.07591521739959717,24.212726593017578,-20.39685821533203,-13.181243896484375,0.5955549478530884,-0.01145172119140625,-0.3910040855407715,1.7870525121688843,9.92979621887207,3.017045497894287
2_20251106_213718,1762436204119,2,0.541138231754303,0.4718967080116272,0.35277336835861206,0.6000282168388367,0.6225816011428833,3.349125385284424,1.908180832862854,2.2916316986083984,9.892009735107422,2.699061393737793,0.007792344316840172,0.024136792868375778,0.004444042220711708,24.110301971435547,-20.491111755371094,-13.18701457977295,0.4036632776260376,-0.030229568481445312,-0.25438737869262695,1.8879684209823608,9.922239303588867,2.95344877243042
2_20251106_213718,1762436204136,2,0.5416288375854492,0.47239717841148376,0.3523485064506531,0.5994411110877991,0.6269869208335876,3.3526830673217773,1.9118915796279907,2.174320697784424,9.7735013961792,2.901362657546997,0.007792344316840172,0.024136792868375778,0.004444042220711708,24.110301971435547,-20.491111755371094,-13.18701457977295,0.2290818691253662,-0.11898994445800781,-0.04166889190673828,1.9452388286590576,9.892491340637207,2.9430315494537354
2_20251106_213718,1762436204156,2,0.5427411794662476,0.4724356532096863,0.3521164059638977,0.5985403656959534,0.6269869208335876,3.3526830673217773,1.9118915796279907,2.174320697784424,9.7735013961792,2.901362657546997,-0.025805216282606125,0.07178425043821335,-0.12994620203971863,24.02117919921875,-20.559860229492188,-13.15121841430664,0.2290818691253662,-0.11898994445800781,-0.04166889190673828,1.9452388286590576,9.892491340637207,2.9430315494537354
2_20251106_213718,1762436204174,2,0.5439996123313904,0.4719502031803131,0.3523654043674469,0.5976337194442749,0.6322576999664307,3.355654001235962,1.9160997867584229,1.9875810146331787,9.577184677124023,2.915727376937866,-0.025805216282606125,0.07178425043821335,-0.12994620203971863,23.982620239257812,-20.588165283203125,-13.072120666503906,0.033873796463012695,-0.2522459030151367,-0.02184319496154785,1.953707218170166,9.82943058013916,2.937570571899414
2_20251106_213718,1762436204193,2,0.545170783996582,0.4712769389152527,0.3526565730571747,0.596925675868988,0.6396622657775879,3.35845685005188,1.9226182699203491,1.8846348524093628,9.58077621459961,3.0713436603546143,-0.03680077940225601,0.09072104841470718,-0.1213940903544426,23.981616973876953,-20.60112762451172,-13.031835556030273,-0.04707920551300049,-0.15990447998046875,0.10629963874816895,1.9317140579223633,9.740680694580078,2.9650440216064453
2_20251106_213718,1762436204214,2,0.5463671684265137,0.4707084596157074,0.35262131690979004,0.5963008403778076,0.6430436968803406,3.358997106552124,1.9271810054779053,1.7816885709762573,9.516135215759277,3.2760391235351562,-0.055737584829330444,0.06689732521772385,-0.09695949405431747,23.992717742919922,-20.60181427001953,-12.882665634155273,-0.12002038955688477,-0.17963695526123047,0.2487959861755371,1.901708960533142,9.695772171020508,3.027243137359619
2_20251106_213718,1762436204233,2,0.5468819737434387,0.4700086712837219,0.353041410446167,0.5961323380470276,0.6430436968803406,3.358997106552124,1.9271810054779053,1.7816885709762573,9.516135215759277,3.2760391235351562,0.00046196766197681427,0.0436844639480114,-0.07252491265535355,24.090206146240234,-20.595458984375,-12.878742218017578,-0.12002038955688477,-0.17963695526123047,0.2487959861755371,1.901708960533142,9.695772171020508,3.027243137359619
2_20251106_213718,1762436204251,2,0.5477213859558105,0.4698364734649658,0.3531324863433838,0.5954430103302002,0.6469846963882446,3.3583264350891113,1.937375545501709,1.6571954488754272,9.449100494384766,3.169501781463623,0.036502987146377563,0.06201041117310524,-0.016325360164046288,24.101882934570312,-20.606948852539062,-12.905548095703125,-0.15284955501556396,-0.16591358184814453,0.06289076805114746,1.8100450038909912,9.61501407623291,3.1066110134124756
2_20251106_213718,1762436204270,2,0.5481078624725342,0.46994948387145996,0.35322996973991394,0.594940185546875,0.6481828093528748,3.357381820678711,1.9416604042053223,1.6931068897247314,9.453888893127441,2.999520778656006,0.06643535941839218,0.025969386100769043,0.04415024816989899,24.139652252197266,-20.57971954345703,-12.876516342163086,-0.09355056285858154,-0.12890052795410156,-0.08567214012145996,1.786657452583313,9.582789421081543,3.085192918777466
2_20251106_213718,1762436204290,2,0.5481494665145874,0.47067201137542725,0.35302644968032837,0.5944513082504272,0.6492358446121216,3.3559274673461914,1.9458136558532715,1.717047929763794,9.432342529296875,2.963609218597412,0.07437659800052643,0.01375209167599678,0.07652608305215836,24.191131591796875,-20.51483917236328,-12.765105247497559,-0.055687546730041504,-0.12035751342773438,-0.09726715087890625,1.7727354764938354,9.55270004272461,3.0608763694763184
2_20251106_213718,1762436204309,2,0.5479384660720825,0.47160834074020386,0.3527158200740814,0.5940880179405212,0.6504963636398315,3.354139804840088,1.9491760730743408,1.858299732208252,9.419174194335938,2.86904239654541,0.065824493765831,0.03757581487298012,0.09057597070932388,24.228801727294922,-20.487747192382812,-12.722557067871094,0.0684514045715332,-0.10682010650634766,-0.15346717834472656,1.7898483276367188,9.525994300842285,3.0225095748901367
2_20251106_213718,1762436204328,2,0.5476078391075134,0.47241920232772827,0.3524114787578583,0.5939292311668396,0.652043342590332,3.352351188659668,1.9514254331588745,1.9803986549377441,9.420371055603027,2.7684903144836426,0.065824493765831,0.03757581487298012,0.09057597070932388,24.215713500976562,-20.501365661621094,-12.696279525756836,0.15244030952453613,-0.08449840545654297,-0.2032153606414795,1.827958345413208,9.50486946105957,2.971705675125122
2_20251106_213718,1762436204347,2,0.5471910238265991,0.47321197390556335,0.3521226644515991,0.5938535332679749,0.6544453501701355,3.3502464294433594,1.9526433944702148,2.0809507369995117,9.433539390563965,2.591326951980591,0.0499420128762722,0.05284743383526802,0.08935423940420151,24.215927124023438,-20.489486694335938,-12.628433227539062,0.20239388942718506,-0.057064056396484375,-0.3043029308319092,1.8785568475723267,9.49060344696045,2.8956298828125
2_20251106_213718,1762436204366,2,0.5467106699943542,0.4743720591068268,0.35170361399650574,0.5936186909675598,0.6572702527046204,3.347996473312378,1.9527435302734375,2.1180596351623535,9.362913131713867,2.5314745903015137,0.005959751084446907,0.04429532587528229,0.0588110014796257,24.202625274658203,-20.514991760253906,-12.670001029968262,0.19160223007202148,-0.10215282440185547,-0.2913243770599365,1.926457405090332,9.465065956115723,2.82279896736145
2_20251106_213718,1762436204385,2,0.546532154083252,0.47553837299346924,0.3511141240596771,0.5931987166404724,0.6604270339012146,3.3457069396972656,1.9528112411499023,2.0989067554473877,9.409598350524902,2.8127810955047607,-0.045963749289512634,0.04612792283296585,0.011163554154336452,24.164165496826172,-20.54315948486328,-12.604418754577637,0.13795948028564453,-0.04437446594238281,-0.008014440536499023,1.9609472751617432,9.453972816467285,2.8207955360412598
2_20251106_213718,1762436204404,2,0.5468794107437134,0.4763776659965515,0.35037297010421753,0.5926432013511658,0.6636895537376404,3.343564510345459,1.953516960144043,2.0570099353790283,9.465860366821289,3.0545849800109863,-0.07528525590896606,0.05651262030005455,-0.0493120476603508,24.162769317626953,-20.556655883789062,-12.510068893432617,0.0768500566482544,0.009510040283203125,0.18703174591064453,1.980159878730774,9.456350326538086,2.867553234100342
2_20251106_213718,1762436204422,2,0.547648012638092,0.4763813614845276,0.34978795051574707,0.5922759771347046,0.6636895537376404,3.343564510345459,1.953516960144043,2.0570099353790283,9.465860366821289,3.0545849800109863,-0.055737584829330444,0.051014840602874756,-0.08779653161764145,24.112415313720703,-20.58521270751953,-12.485526084899902,0.0768500566482544,0.009510040283203125,0.18703174591064453,1.980159878730774,9.456350326538086,2.867553234100342
2_20251106_213718,1762436204441,2,0.5485780835151672,0.476034015417099,0.34946516156196594,0.591884970664978,0.6664085984230042,3.341397523880005,1.9551241397857666,1.8415409326553345,9.408400535583496,3.2090044021606445,-0.02458348497748375,0.05651262402534485,-0.06947058439254761,24.099029541015625,-20.59923553466797,-12.418699264526367,-0.11089515686035156,-0.038359642028808594,0.2731609344482422,1.952436089515686,9.446760177612305,2.9358434677124023
2_20251106_213718,1762436204462,2,0.5493897199630737,0.47547945380210876,0.34942391514778137,0.5916022062301636,0.6682519912719727,3.3387792110443115,1.9575326442718506,1.6643776893615723,9.298273086547852,3.199428081512451,0.0035162903368473053,0.044295329600572586,0.007498365826904774,24.156845092773438,-20.645896911621094,-12.376753807067871,-0.2304466962814331,-0.1187896728515625,0.21086764335632324,1.8948243856430054,9.417062759399414,2.988560438156128
2_20251106_213718,1762436204480,2,0.5497593283653259,0.47521740198135376,0.3493112027645111,0.5915359854698181,0.6698362231254578,3.3329997062683105,1.9618866443634033,1.7302154302597046,9.230040550231934,2.9276976585388184,0.02734001725912094,-0.005795578006654978,0.0789695456624031,24.202472686767578,-20.69335174560547,-12.335298538208008,-0.09309196472167969,-0.12199211120605469,-0.059828758239746094,1.8233073949813843,9.352032661437988,2.9875264167785645
2_20251106_213718,1762436204499,2,0.5497944951057434,0.4757689833641052,0.3487860858440399,0.5913696885108948,0.67047119140625,3.3299272060394287,1.9636026620864868,1.8355556726455688,9.303060531616211,2.8953776359558105,0.026729151606559753,-0.02167806215584278,0.09607375413179398,24.175575256347656,-20.744766235351562,-12.377883911132812,0.009798645973205566,-0.039177894592285156,-0.07371902465820312,1.8257570266723633,9.342238426208496,2.9690966606140137
2_20251106_213718,1762436204520,2,0.5497131943702698,0.47667425870895386,0.348081111907959,0.5911316275596619,0.67047119140625,3.3299272060394287,1.9636026620864868,1.8355556726455688,9.303060531616211,2.8953776359558105,0.026729151606559753,-0.02167806215584278,0.09607375413179398,24.175575256347656,-20.744766235351562,-12.377883911132812,0.009798645973205566,-0.039177894592285156,-0.07371902465820312,1.8257570266723633,9.342238426208496,2.9690966606140137
2_20251106_213718,1762436204538,2,0.5498148202896118,0.47725921869277954,0.3475034534931183,0.590904951095581,0.6719202995300293,3.3238611221313477,1.9655287265777588,1.8846347332000732,9.321016311645508,2.7409582138061523,-0.04107683151960373,0.06628646701574326,0.020937390625476837,24.1954345703125,-20.80731201171875,-12.243061065673828,0.04400217533111572,-0.013007164001464844,-0.15941548347473145,1.8406325578689575,9.334023475646973,2.900373697280884
2_20251106_213718,1762436204557,2,0.5500516891479492,0.47729456424713135,0.34720635414123535,0.5908306241035461,0.6726394295692444,3.3209495544433594,1.9657680988311768,1.8391468524932861,9.273134231567383,2.7684903144836426,-0.08139389753341675,0.07544942945241928,-0.004718928597867489,24.1954345703125,-20.80731201171875,-12.243061065673828,-0.001188516616821289,-0.04871177673339844,-0.10550665855407715,1.8403353691101074,9.321846008300781,2.8739969730377197
2_20251106_213718,1762436204575,2,0.5506261587142944,0.4771938920021057,0.34677034616470337,0.5906328558921814,0.6733897924423218,3.3182947635650635,1.9662129878997803,1.8822407722473145,9.307849884033203,2.967200517654419,-0.08139389753341675,0.07544942945241928,-0.004718928597867489,24.17892074584961,-20.883583068847656,-12.231618881225586,0.033524274826049805,-0.011197090148925781,0.07456278800964355,1.8487164974212646,9.319046974182129,2.8926377296447754
2_20251106_213718,1762436204596,2,0.5512470602989197,0.4769124388694763,0.34626132249832153,0.590579628944397,0.6744002103805542,3.3156185150146484,1.9673060178756714,1.9205461740493774,9.360519409179688,3.0976786613464355,-0.10033071041107178,0.07789289206266403,0.0013897186145186424,24.215282440185547,-20.8814697265625,-12.20311450958252,0.057463765144348145,0.03317737579345703,0.1640326976776123,1.8630824089050293,9.32734203338623,2.9336459636688232
2_20251106_213718,1762436204614,2,0.5517680644989014,0.4767838418483734,0.34546568989753723,0.5906628370285034,0.6753844022750854,3.313465118408203,1.9690380096435547,1.8894230127334595,9.422765731811523,3.205413341522217,-0.04962893947958946,0.005199986044317484,0.03254381939768791,24.236637115478516,-20.930381774902344,-12.176156997680664,0.02107250690460205,0.0763387680053711,0.21741390228271484,1.8683505058288574,9.346426963806152,2.987999439239502
2_20251106_213718,1762436204633,2,0.5521235466003418,0.47688761353492737,0.34464743733406067,0.5907249450683594,0.6761998534202576,3.3114514350891113,1.9710698127746582,1.824782371520996,9.358125686645508,3.1288022994995117,-0.055737584829330444,0.02963457629084587,0.014828742481768131,24.198570251464844,-20.95801544189453,-12.164640426635742,-0.03485441207885742,0.009358406066894531,0.11264228820800781,1.8596367835998535,9.348767280578613,3.016160011291504
2_20251106_213718,1762436204653,2,0.5525889992713928,0.4766324758529663,0.3440142571926117,0.5908646583557129,0.6767902374267578,3.3095510005950928,1.973423957824707,1.7924619913101196,9.353336334228516,3.170699119567871,-0.08811341226100922,0.07667116075754166,-0.0034971991553902626,24.16281509399414,-20.947708129882812,-12.179363250732422,-0.05373978614807129,0.0036554336547851562,0.12363123893737793,1.846201777458191,9.34968090057373,3.047067880630493
2_20251106_213718,1762436204672,2,0.5527628660202026,0.4757021367549896,0.3439411520957947,0.5914940237998962,0.6767902374267578,3.3095510005950928,1.973423957824707,1.7924619913101196,9.353336334228516,3.170699119567871,-0.10888281464576721,0.08155807852745056,0.011163553223013878,24.225269317626953,-20.906875610351562,-12.095022201538086,-0.05373978614807129,0.0036554336547851562,0.12363123893737793,1.846201777458191,9.34968090057373,3.047067880630493
2_20251106_213718,1762436204690,2,0.5533933639526367,0.47488632798194885,0.3433821499347687,0.5918846726417542,0.6775881052017212,3.306119918823242,1.9784671068191528,1.7517622709274292,9.283907890319824,3.153940200805664,-0.07100920379161835,0.04734965041279793,0.019104795530438423,24.238357543945312,-20.89325714111328,-12.121299743652344,-0.07289063930511475,-0.05971527099609375,0.07280349731445312,1.824652910232544,9.343623161315918,3.081136703491211
2_20251106_213718,1762436204710,2,0.5538461804389954,0.4745887815952301,0.34285134077072144,0.5920075178146362,0.6773912310600281,3.304276943206787,1.9807991981506348,1.6739541292190552,9.319819450378418,3.000717878341675,-0.059402771294116974,0.057734351605176926,0.04231765866279602,24.226776123046875,-20.881629943847656,-12.108010292053223,-0.12055909633636475,-0.01904296875,-0.06433510780334473,1.79451322555542,9.338862419128418,3.0650529861450195
2_20251106_213718,1762436204729,2,0.5541315674781799,0.4742477536201477,0.34238192439079285,0.5922853350639343,0.6772341728210449,3.3028371334075928,1.9826091527938843,1.802038311958313,9.420372009277344,2.9576241970062256,-0.059402771294116974,0.057734351605176926,0.04231765866279602,24.20543670654297,-20.82110595703125,-12.040090560913086,0.006019949913024902,0.06520748138427734,-0.08594298362731934,1.796018362045288,9.355164527893066,3.043567180633545
2_20251106_213718,1762436204749,2,0.5543836355209351,0.4739990234375,0.3416665196418762,0.5926615595817566,0.6778742074966431,3.3022544384002686,1.9847837686538696,2.0582070350646973,9.63703727722168,3.1635165214538574,-0.09666551649570465,0.06995164602994919,0.0899651050567627,24.19293975830078,-20.83391571044922,-12.09490966796875,0.20975100994110107,0.22549819946289062,0.09595942497253418,1.8484560251235962,9.411539077758789,3.0675570964813232
2_20251106_213718,1762436204766,2,0.5544483661651611,0.4741520583629608,0.340411514043808,0.5932005643844604,0.6791908740997314,3.3025314807891846,1.9873052835464478,2.2126264572143555,9.751955032348633,3.4160938262939453,-0.07284179329872131,-0.01251509040594101,0.13516908884048462,24.140968322753906,-20.89947509765625,-12.138740539550781,0.2913362979888916,0.27233219146728516,0.27882933616638184,1.9212901592254639,9.479622840881348,3.1372644901275635
2_20251106_213718,1762436204786,2,0.554427444934845,0.4748495817184448,0.3388760983943939,0.593541145324707,0.6816354393959045,3.3036835193634033,1.9908074140548706,2.2413554191589355,9.756742477416992,3.362226724624634,-0.014809650368988514,-0.013736819848418236,0.08629991859197617,24.154464721679688,-20.873703002929688,-12.124205589294434,0.25605225563049316,0.2216958999633789,0.17996978759765625,1.9853031635284424,9.535046577453613,3.1822569370269775
2_20251106_213718,1762436204805,2,0.5542495846748352,0.47543761134147644,0.33779504895210266,0.5938526391983032,0.6843274235725403,3.3050293922424316,1.994162917137146,2.1623501777648926,9.646614074707031,3.2532951831817627,-0.00625754427164793,0.009476039558649063,0.015439607203006744,24.177722930908203,-20.896820068359375,-12.164300918579102,0.14163756370544434,0.08925437927246094,0.056830406188964844,2.0207126140594482,9.55735969543457,3.196464776992798
2_20251106_213718,1762436204825,2,0.5543412566184998,0.47580328583717346,0.33720821142196655,0.5938077569007874,0.6868130564689636,3.306307077407837,1.9970693588256836,2.046236515045166,9.584367752075195,3.1503491401672363,-0.029470402747392654,0.051014840602874756,-0.03465130180120468,24.152236938476562,-20.923118591308594,-12.206358909606934,0.02041912078857422,0.0216064453125,-0.03689241409301758,2.025817394256592,9.562761306762695,3.187241554260254
2_20251106_213718,1762436204844,2,0.5547856092453003,0.47574374079704285,0.33696770668029785,0.593576967716217,0.6894151568412781,3.307594060897827,1.9997776746749878,2.018704414367676,9.542470932006836,3.0689496994018555,-0.029470402747392654,0.051014840602874756,-0.03465130180120468,24.069446563720703,-20.890464782714844,-12.263065338134766,-0.005690336227416992,-0.01623249053955078,-0.09463357925415039,2.0243947505950928,9.558703422546387,3.163583278656006
2_20251106_213718,1762436204862,2,0.5553092360496521,0.4755488634109497,0.3368253707885742,0.5933241844177246,0.6917643547058105,3.3087241649627686,2.002110004425049,2.0246896743774414,9.547258377075195,3.122817039489746,-0.03802251070737839,-0.0033521191217005253,0.0026114480569958687,24.05645751953125,-20.903953552246094,-12.250303268432617,0.00023603439331054688,-0.009156227111816406,-0.03261303901672363,2.024453639984131,9.556414604187012,3.1554300785064697
2_20251106_213718,1762436204882,2,0.5558522939682007,0.47599443793296814,0.3362372815608978,0.592791736125946,0.6938995718955994,3.310030221939087,2.0049726963043213,1.9540636539459229,9.614294052124023,3.329906463623047,-0.00014889705926179886,-0.09253836423158646,0.034987278282642365,24.08212661743164,-20.888999938964844,-12.330156326293945,-0.05631208419799805,0.046303749084472656,0.13958096504211426,2.010375738143921,9.56799030303955,3.1903254985809326
2_20251106_213718,1762436204900,2,0.5562669634819031,0.47711604833602905,0.3352887034416199,0.5920378565788269,0.6938995718955994,3.310030221939087,2.0049726963043213,1.9540636539459229,9.614294052124023,3.329906463623047,-0.00014889705926179886,-0.09253836423158646,0.034987278282642365,24.055740356445312,-20.928123474121094,-12.34544563293457,-0.05631208419799805,0.046303749084472656,0.13958096504211426,2.010375738143921,9.56799030303955,3.1903254985809326
2_20251106_213718,1762436204923,2,0.5566433668136597,0.47803881764411926,0.33444759249687195,0.5914151668548584,0.6970823407173157,3.3141257762908936,2.012582540512085,1.967231273651123,9.833353996276855,3.503478527069092,0.013290125876665115,-0.03572794795036316,0.021548254415392876,24.048587799072266,-20.84088134765625,-12.357604026794434,-0.017461419105529785,0.1815166473388672,0.2023334503173828,1.9846926927566528,9.651837348937988,3.301145076751709
2_20251106_213718,1762436204940,2,0.5570889115333557,0.4783145785331726,0.33400437235832214,0.5910230278968811,0.6985669732093811,3.3166425228118896,2.0166542530059814,2.013916015625,9.78307819366455,3.40891170501709,0.013900991529226303,0.011308632791042328,-0.01937968097627163,23.988758087158203,-20.831756591796875,-12.413857460021973,0.023378729820251465,0.10499286651611328,0.08621335029602051,1.9905372858047485,9.678085327148438,3.3226983547210693
2_20251106_213718,1762436204959,2,0.557523787021637,0.47823983430862427,0.33398377895355225,0.5906849503517151,0.6998017430305481,3.3188483715057373,2.0206735134124756,1.926531434059143,9.610702514648438,3.377788543701172,0.042611636221408844,0.021693333983421326,-0.06763799488544464,23.93950653076172,-20.84722137451172,-12.443115234375,-0.051204681396484375,-0.05390644073486328,0.04407215118408203,1.9777361154556274,9.6646089553833,3.33371639251709
2_20251106_213718,1762436204979,2,0.5580242276191711,0.47827520966529846,0.33433011174201965,0.5899874567985535,0.7003679275512695,3.3202707767486572,2.024271011352539,1.7565505504608154,9.419174194335938,3.253295421600342,0.07865265011787415,0.031467169523239136,-0.08840738981962204,23.889759063720703,-20.863357543945312,-12.404792785644531,-0.17694854736328125,-0.19634723663330078,-0.06433677673339844,1.9334990978240967,9.615521430969238,3.3176321983337402
2_20251106_213718,1762436204995,2,0.5584883689880371,0.4783082604408264,0.33503293991088867,0.5891221165657043,0.7003185749053955,3.320730447769165,2.0268301963806152,1.6919097900390625,9.274332046508789,3.09049654006958,0.07743091881275177,0.035132355988025665,-0.05908588320016861,23.889759063720703,-20.863357543945312,-12.404792785644531,-0.19327139854431152,-0.2729511260986328,-0.18170857429504395,1.885181188583374,9.547283172607422,3.272205114364624
2_20251106_213718,1762436205016,2,0.5587612986564636,0.4783208668231964,0.3358253836631775,0.5884014368057251,0.6998941898345947,3.3204615116119385,2.029010534286499,1.7637327909469604,9.289894104003906,3.0485997200012207,0.04322249814867973,0.013141227886080742,-0.005940658040344715,23.96026611328125,-20.896934509277344,-12.335060119628906,-0.09715878963470459,-0.20591068267822266,-0.17888450622558594,1.860891580581665,9.495804786682129,3.2274842262268066
2_20251106_213718,1762436205034,2,0.5589858889579773,0.4785732924938202,0.3361135721206665,0.5878180265426636,0.6995172500610352,3.319706439971924,2.0308947563171387,1.8630878925323486,9.309045791625977,3.1970338821411133,0.03161606937646866,-0.01618027873337269,0.014217877760529518,23.983524322509766,-20.920059204101562,-12.37515640258789,0.0017571449279785156,-0.14940738677978516,-0.024360179901123047,1.8613307476043701,9.458453178405762,3.2213940620422363
2_20251106_213718,1762436205054,2,0.5592502951622009,0.47913864254951477,0.3359755575656891,0.5871845483779907,0.6995172500610352,3.319706439971924,2.0308947563171387,1.8630878925323486,9.309045791625977,3.1970338821411133,0.03161606937646866,-0.01618027873337269,0.014217877760529518,23.93407440185547,-20.935791015625,-12.377382278442383,0.0017571449279785156,-0.14940738677978516,-0.024360179901123047,1.8613307476043701,9.458453178405762,3.2213940620422363
2_20251106_213718,1762436205073,2,0.5594167113304138,0.4795492887496948,0.33591604232788086,0.5867246389389038,0.6992067098617554,3.3166956901550293,2.0337562561035156,1.9025905132293701,9.184553146362305,3.092890739440918,0.04810941591858864,-0.003962984774261713,0.00016798917204141617,23.8978271484375,-20.92615509033203,-12.32452392578125,0.024491071701049805,-0.18966102600097656,-0.0920102596282959,1.8780994415283203,9.374214172363281,3.184900999069214
2_20251106_213718,1762436205092,2,0.5592749714851379,0.47971779108047485,0.3362886905670166,0.5865085124969482,0.6990063190460205,3.3147130012512207,2.0347557067871094,1.8427380323410034,9.269543647766113,3.122817039489746,0.00840320810675621,0.003978256601840258,-0.03465130180120468,23.884933471679688,-20.93950653076172,-12.325279235839844,-0.028289079666137695,-0.08373641967773438,-0.0496673583984375,1.8710271120071411,9.353280067443848,3.1724843978881836
2_20251106_213718,1762436205111,2,0.5597097277641296,0.47987931966781616,0.33616510033607483,0.5860323309898376,0.6990063190460205,3.3147130012512207,2.0347557067871094,1.8427380323410034,9.269543647766113,3.122817039489746,-0.015420515090227127,0.01986073888838291,-0.037094756960868835,23.897232055664062,-20.926963806152344,-12.243427276611328,-0.028289079666137695,-0.08373641967773438,-0.0496673583984375,1.8710271120071411,9.353280067443848,3.1724843978881836
2_20251106_213718,1762436205131,2,0.5602744817733765,0.4797650873661041,0.33607217669487,0.5856393575668335,0.6977609992027283,3.3100333213806152,2.037024736404419,1.7529593706130981,9.252784729003906,3.205413341522217,-0.006868408992886543,0.024136792868375778,-0.015103628858923912,23.930984497070312,-20.96319580078125,-12.148133277893066,-0.07805335521697998,-0.06163597106933594,0.018201828002929688,1.8310127258300781,9.314420700073242,3.187211513519287
2_20251106_213718,1762436205149,2,0.5607150197029114,0.47954070568084717,0.33598652482032776,0.5854505896568298,0.6977609992027283,3.3100333213806152,2.037024736404419,1.7529593706130981,9.252784729003906,3.205413341522217,0.007181480526924133,0.01069776900112629,0.02032652497291565,23.993324279785156,-20.934112548828125,-12.145153045654297,-0.07805335521697998,-0.06163597106933594,0.018201828002929688,1.8310127258300781,9.314420700073242,3.187211513519287
2_20251106_213718,1762436205169,2,0.5623296499252319,0.4803920388221741,0.33463865518569946,0.5839741230010986,0.6963841319084167,3.3051300048828125,2.038864850997925,1.9157581329345703,9.323410034179688,3.139575481414795,0.011457530781626701,-0.007628173101693392,0.03254381939768791,23.992816925048828,-20.946395874023438,-12.172449111938477,0.07338976860046387,0.021266937255859375,-0.03374290466308594,1.8423683643341064,9.302143096923828,3.173318386077881
2_20251106_213718,1762436205188,2,0.5637394785881042,0.4814126789569855,0.33323362469673157,0.5825761556625366,0.6963841319084167,3.3051300048828125,2.038864850997925,1.9157581329345703,9.323410034179688,3.139575481414795,0.01451185718178749,-0.011904226616024971,0.014217877760529518,23.968555450439453,-20.936233520507812,-12.092068672180176,0.07338976860046387,0.021266937255859375,-0.03374290466308594,1.8423683643341064,9.302143096923828,3.173318386077881
2_20251106_213718,1762436205206,2,0.5651605725288391,0.48255518078804016,0.33182433247566223,0.5810564756393433,0.69612717628479,3.3011810779571533,2.0396785736083984,1.9492754936218262,9.352140426635742,3.011491298675537,0.01451185718178749,-0.011904226616024971,0.014217877760529518,24.027076721191406,-20.9703369140625,-12.049860000610352,0.07129335403442383,0.03774452209472656,-0.1200408935546875,1.8779821395874023,9.314395904541016,3.1315321922302246
2_20251106_213718,1762436205226,2,0.5662824511528015,0.4833292067050934,0.33073532581329346,0.579940676689148,0.6963402628898621,3.2994391918182373,2.039759874343872,1.9504724740982056,9.368898391723633,3.091693639755249,-0.03985510393977165,-0.02167806215584278,-0.00105374027043581,24.074607849121094,-20.99200439453125,-12.075458526611328,0.05799233913421631,0.04360198974609375,-0.03187108039855957,1.8924801349639893,9.325296401977539,3.1235647201538086
2_20251106_213718,1762436205245,2,0.5674722194671631,0.48406943678855896,0.3295220136642456,0.5788499712944031,0.6964650750160217,3.2980687618255615,2.040090560913086,1.8678761720657349,9.398824691772461,3.217383861541748,-0.03985510393977165,-0.02167806215584278,-0.00105374027043581,24.121845245361328,-21.014076232910156,-12.060507774353027,-0.019683122634887695,0.0588226318359375,0.07505536079406738,1.8875592947006226,9.340002059936523,3.1423285007476807
2_20251106_213718,1762436205264,2,0.5689074993133545,0.48463448882102966,0.32815149426460266,0.5777458548545837,0.696332573890686,3.2969446182250977,2.040811061859131,1.796053171157837,9.404809951782227,3.2904038429260254,-0.058791909366846085,-0.022899791598320007,-0.010827576741576195,24.158092498779297,-21.023712158203125,-12.113365173339844,-0.0732048749923706,0.05184650421142578,0.11846017837524414,1.8692580461502075,9.3529634475708,3.1719436645507812
2_20251106_213718,1762436205282,2,0.5704994797706604,0.48480045795440674,0.32699599862098694,0.5766909718513489,0.6958709359169006,3.295863151550293,2.0415093898773193,1.7302154302597046,9.324607849121094,3.1922457218170166,-0.061846233904361725,0.004589121323078871,-0.027320923283696175,24.160110473632812,-20.986175537109375,-12.099058151245117,-0.11123418807983398,-0.022684097290039062,0.01624155044555664,1.8414496183395386,9.347291946411133,3.17600417137146
2_20251106_213718,1762436205302,2,0.5710880756378174,0.48412442207336426,0.3269416093826294,0.5767071843147278,0.6950673460960388,3.2947144508361816,2.0419392585754395,1.7373976707458496,9.34495735168457,3.074934959411621,-0.055737584829330444,0.03635408356785774,-0.034040436148643494,24.14801025390625,-20.998451232910156,-12.207942008972168,-0.08324146270751953,-0.0018672943115234375,-0.0808553695678711,1.8206391334533691,9.346824645996094,3.155790328979492
2_20251106_213718,1762436205320,2,0.5715168118476868,0.48343342542648315,0.32696595788002014,0.5768482685089111,0.6944435238838196,3.293816089630127,2.042196273803711,1.8463292121887207,9.380868911743164,3.110846519470215,-0.07589612156152725,0.019249875098466873,0.014217877760529518,24.185779571533203,-20.971221923828125,-12.178910255432129,0.02055203914642334,0.027235031127929688,-0.035954952239990234,1.8257771730422974,9.353633880615234,3.146801471710205
2_20251106_213718,1762436205340,2,0.5720514059066772,0.4832068085670471,0.32652974128723145,0.5767553448677063,0.693999171257019,3.293045997619629,2.042686939239502,1.8918170928955078,9.401219367980957,3.231748580932617,-0.0526832640171051,-0.04122573137283325,0.030711224302649498,24.212860107421875,-20.93115234375,-12.258234977722168,0.05283200740814209,0.03806781768798828,0.06795763969421387,1.8389850854873657,9.363151550292969,3.1637909412384033
2_20251106_213718,1762436205360,2,0.5723881125450134,0.48347508907318115,0.3258102834224701,0.5766032934188843,0.6934970617294312,3.2923223972320557,2.0436899662017822,1.8199940919876099,9.378475189208984,3.3323004245758057,-0.022140026092529297,-0.06077340245246887,0.02704603783786297,24.227161407470703,-20.892684936523438,-12.256952285766602,-0.015192747116088867,0.012258529663085938,0.13480758666992188,1.8351868391036987,9.366216659545898,3.197492837905884
2_20251106_213718,1762436205381,2,0.5727155804634094,0.48391079902648926,0.32505202293395996,0.5763405561447144,0.6930882334709167,3.291571617126465,2.045264720916748,1.866679072380066,9.367701530456543,3.340679883956909,-0.022140026092529297,-0.06077340245246887,0.02704603783786297,24.227161407470703,-20.892684936523438,-12.256952285766602,0.02519381046295166,0.0011882781982421875,0.11454963684082031,1.8414852619171143,9.3665132522583,3.226130247116089
2_20251106_213718,1762436205399,2,0.5729815363883972,0.48379024863243103,0.32460132241249084,0.576431393623352,0.6929512619972229,3.2910468578338623,2.046680212020874,1.9157580137252808,9.378475189208984,3.344270944595337,-0.03313559293746948,-0.014958549290895462,0.022769983857870102,24.220714569091797,-20.792884826660156,-12.268848419189453,0.05941808223724365,0.009569168090820312,0.0945124626159668,1.856339931488037,9.368906021118164,3.24975848197937
2_20251106_213718,1762436205418,2,0.5732858180999756,0.4833751618862152,0.3241509199142456,0.5767304301261902,0.692862331867218,3.290478467941284,2.04860782623291,1.8774524927139282,9.374883651733398,3.3634238243103027,-0.058181047439575195,0.014362957328557968,-0.0016646049916744232,24.220714569091797,-20.792884826660156,-12.268848419189453,0.01688992977142334,0.0047817230224609375,0.09093236923217773,1.8605625629425049,9.370101928710938,3.272491455078125
2_20251106_213718,1762436205435,2,0.5737195014953613,0.48302704095840454,0.3236742317676544,0.5768585801124573,0.6927513480186462,3.2899327278137207,2.0502431392669678,1.8427380323410034,9.33059310913086,3.3083596229553223,-0.03435732051730156,0.008254310116171837,-0.004108063876628876,24.172969818115234,-20.783096313476562,-12.311094284057617,-0.014259576797485352,-0.031607627868652344,0.028694629669189453,1.8569976091384888,9.362200736999512,3.279664993286133
2_20251106_213718,1762436205454,2,0.574081301689148,0.4827774465084076,0.32336243987083435,0.5768824219703674,0.6927513480186462,3.2899327278137207,2.0502431392669678,1.8427380323410034,9.33059310913086,3.3083596229553223,-0.014809650368988514,-0.01862373948097229,0.01055268943309784,24.21143341064453,-20.754928588867188,-12.376676559448242,-0.014259576797485352,-0.031607627868652344,0.028694629669189453,1.8569976091384888,9.362200736999512,3.279664993286133
2_20251106_213718,1762436205473,2,0.5743309259414673,0.48284319043159485,0.3230191469192505,0.5767712593078613,0.6922598481178284,3.2879955768585205,2.053443193435669,1.8056296110153198,9.233631134033203,3.2425217628479004,-0.014809650368988514,-0.01862373948097229,0.01055268943309784,24.21344757080078,-20.717391967773438,-12.3623685836792,-0.03689754009246826,-0.0876474380493164,-0.02664470672607422,1.842527151107788,9.32127857208252,3.2691664695739746
2_20251106_213718,1762436205492,2,0.57454514503479,0.48312944173812866,0.3225843906402588,0.576561450958252,0.6922598481178284,3.2879955768585205,2.053443193435669,1.8056296110153198,9.233631134033203,3.2425217628479004,-0.017253108322620392,-0.01251509040594101,0.03010036051273346,24.19127655029297,-20.692787170410156,-12.470951080322266,-0.03689754009246826,-0.0876474380493164,-0.02664470672607422,1.842527151107788,9.32127857208252,3.2691664695739746
2_20251106_213718,1762436205512,2,0.5746451616287231,0.4832070469856262,0.3222523629665375,0.5765824317932129,0.6919494271278381,3.2867605686187744,2.0546140670776367,1.840343952178955,9.275528907775879,3.157531261444092,-0.06123536825180054,-0.00029779644683003426,0.02032652497291565,24.178977966308594,-20.70532989501953,-12.552803039550781,-0.0017466545104980469,-0.03660011291503906,-0.08930826187133789,1.8420906066894531,9.312129020690918,3.2468395233154297
2_20251106_213718,1762436205531,2,0.5745767951011658,0.4829165041446686,0.3220949172973633,0.5769818425178528,0.6918681263923645,3.285801649093628,2.055635929107666,1.9145610332489014,9.368898391723633,3.234142541885376,-0.08444823324680328,0.0033673918806016445,0.005665771197527647,24.17845916748047,-20.729232788085938,-12.674978256225586,0.057976365089416504,0.04541587829589844,-0.010157585144042969,1.8565846681594849,9.323482513427734,3.244300127029419
2_20251106_213718,1762436205550,2,0.5763393640518188,0.48337751626968384,0.3204162120819092,0.5757712721824646,0.6919381618499756,3.2848408222198486,2.0584731101989746,1.8858319520950317,9.44072151184082,3.377788543701172,-0.05940277501940727,0.014362957328557968,-0.00105374027043581,24.151451110839844,-20.792388916015625,-12.798925399780273,0.018718242645263672,0.07733154296875,0.0875394344329834,1.867113709449768,9.36338996887207,3.2902491092681885
2_20251106_213718,1762436205569,2,0.5767921209335327,0.4830358028411865,0.32002130150794983,0.5758243203163147,0.6921418905258179,3.2846882343292236,2.0599427223205566,1.9181522130966187,9.422765731811523,3.293994903564453,-0.03374645859003067,0.009476039558649063,-0.004108063876628876,24.13946533203125,-20.79291534423828,-12.826448440551758,0.04083085060119629,0.0475006103515625,0.002996683120727539,1.8773213624954224,9.375265121459961,3.2909982204437256
2_20251106_213718,1762436205589,2,0.5771440267562866,0.4828431010246277,0.3197687268257141,0.5757736563682556,0.6925061345100403,3.2844398021698,2.061246871948242,1.9301226139068604,9.343761444091797,3.2365365028381348,-0.03374645859003067,0.009476039558649063,-0.004108063876628876,24.115093231201172,-20.79450225830078,-12.827428817749023,0.04224097728729248,-0.02520275115966797,-0.04356956481933594,1.8878816366195679,9.368964195251465,3.2801060676574707
2_20251106_213718,1762436205608,2,0.5774714946746826,0.48280277848243713,0.31957635283470154,0.5755859017372131,0.6925061345100403,3.2844398021698,2.061246871948242,1.9301226139068604,9.343761444091797,3.2365365028381348,-0.05085066705942154,0.022915061563253403,-0.024266598746180534,24.081241607666016,-20.758407592773438,-12.90920639038086,0.04224097728729248,-0.02520275115966797,-0.04356956481933594,1.8878816366195679,9.368964195251465,3.2801060676574707
2_20251106_213718,1762436205627,2,0.5778771638870239,0.4825855493545532,0.31937843561172485,0.5754707455635071,0.6931294798851013,3.2832863330841064,2.0628581047058105,1.8523144721984863,9.247997283935547,3.2245659828186035,-0.0783395767211914,0.04673878476023674,-0.037094756960868835,24.029468536376953,-20.823692321777344,-12.98006820678711,-0.03138172626495361,-0.08220672607421875,-0.027884721755981445,1.88369619846344,9.330204010009766,3.252450704574585
2_20251106_213718,1762436205645,2,0.578458309173584,0.4821406304836273,0.31919172406196594,0.5753633975982666,0.6931604146957397,3.282444953918457,2.0634260177612305,1.8056294918060303,9.271937370300293,3.1970338821411133,-0.10766108334064484,0.08277980983257294,-0.03831648826599121,24.05272674560547,-20.846817016601562,-13.020164489746094,-0.062453269958496094,-0.04661369323730469,-0.044333457946777344,1.8680827617645264,9.318551063537598,3.2413673400878906
2_20251106_213718,1762436205664,2,0.5790932178497314,0.48124152421951294,0.31908711791038513,0.5755354762077332,0.6932122111320496,3.2813994884490967,2.0639095306396484,1.8762555122375488,9.228843688964844,3.220974922180176,-0.1143805980682373,0.0797254890203476,-0.027931788936257362,24.077098846435547,-20.845230102539062,-13.019184112548828,0.006538271903991699,-0.07176589965820312,-0.016314029693603516,1.8697172403335571,9.300609588623047,3.2372889518737793
2_20251106_213718,1762436205683,2,0.579727053642273,0.4803922772407532,0.31894823908805847,0.5756838321685791,0.6932122111320496,3.2813994884490967,2.0639095306396484,1.8762555122375488,9.228843688964844,3.220974922180176,-0.09605465829372406,0.03635408356785774,-0.010827576741576195,24.093414306640625,-20.76922607421875,-13.003593444824219,0.006538271903991699,-0.07176589965820312,-0.016314029693603516,1.8697172403335571,9.300609588623047,3.2372889518737793
2_20251106_213718,1762436205703,2,0.5802494287490845,0.4799633324146271,0.3185046315193176,0.5757609009742737,0.6935641169548035,3.280164957046509,2.0646238327026367,1.968428373336792,9.238420486450195,3.31314754486084,-0.05940277501940727,-0.018012873828411102,0.007498365361243486,24.14588165283203,-20.70299530029297,-13.027344703674316,0.07896900177001953,-0.04975128173828125,0.06068706512451172,1.8894593715667725,9.288171768188477,3.252460479736328
2_20251106_213718,1762436205721,2,0.5805991291999817,0.48003968596458435,0.3177803158760071,0.5757449269294739,0.694919764995575,3.2778377532958984,2.067074775695801,2.0091280937194824,9.321016311645508,3.471158266067505,-0.058791909366846085,-0.040004003793001175,0.01727220043540001,24.18414306640625,-20.675094604492188,-13.06589412689209,0.08022713661193848,0.03615093231201172,0.15164971351623535,1.928900957107544,9.284865379333496,3.3195085525512695
2_20251106_213718,1762436205741,2,0.5809690356254578,0.48017188906669617,0.3168545365333557,0.5757717490196228,0.6959822773933411,3.2769112586975098,2.0693771839141846,2.0103249549865723,9.34256362915039,3.5884690284729004,-0.08811341226100922,-0.020456332713365555,-0.00044287554919719696,24.259967803955078,-20.631851196289062,-13.143257141113281,0.0651392936706543,0.046158790588378906,0.21516823768615723,1.945185661315918,9.296404838562012,3.373300790786743
2_20251106_213718,1762436205760,2,0.5815286040306091,0.4799554944038391,0.3159448206424713,0.5758872628211975,0.6969786882400513,3.2763102054595947,2.0723278522491455,1.958851933479309,9.38206672668457,3.691415309906006,-0.0991089791059494,0.000923932995647192,-0.030986113473773003,24.297428131103516,-20.61664581298828,-13.168554306030273,0.0109330415725708,0.06853008270263672,0.25449180603027344,1.9479188919067383,9.313536643981934,3.4369235038757324
2_20251106_213718,1762436205779,2,0.5822354555130005,0.4793354570865631,0.3152288794517517,0.5760816931724548,0.6976202726364136,3.2758255004882812,2.0758981704711914,1.8367527723312378,9.34495735168457,3.716553211212158,-0.07589612156152725,0.01680641621351242,-0.046868592500686646,24.373363494873047,-20.56165313720703,-13.164556503295898,-0.08893287181854248,0.025136947631835938,0.22370386123657227,1.9256856441497803,9.319820404052734,3.492849349975586
2_20251106_213718,1762436205799,2,0.5829113125801086,0.47856655716896057,0.31485018134117126,0.576244592666626,0.6976202726364136,3.2758255004882812,2.0758981704711914,1.8367527723312378,9.34495735168457,3.716553211212158,-0.049628935754299164,0.016195550560951233,-0.027320923283696175,24.373477935791016,-20.549903869628906,-13.083194732666016,-0.08893287181854248,0.025136947631835938,0.22370386123657227,1.9256856441497803,9.319820404052734,3.492849349975586
2_20251106_213718,1762436205820,2,0.583418607711792,0.4778735637664795,0.3146546185016632,0.576413094997406,0.6982169151306152,3.2749297618865967,2.0834848880767822,1.8798466920852661,9.317424774169922,3.5250253677368164,-0.035579051822423935,-0.019845467060804367,0.008109230548143387,24.386268615722656,-20.53668975830078,-13.068923950195312,-0.02225041389465332,-0.003448486328125,0.011782646179199219,1.9020971059799194,9.320873260498047,3.513242721557617
2_20251106_213718,1762436205838,2,0.5836716294288635,0.47771045565605164,0.31428518891334534,0.5764936804771423,0.6982169151306152,3.2749297618865967,2.0834848880767822,1.8798466920852661,9.317424774169922,3.5250253677368164,-0.03374645859003067,-0.06260599941015244,0.03437641263008118,24.386268615722656,-20.53668975830078,-13.068923950195312,-0.02225041389465332,-0.003448486328125,0.011782646179199219,1.9020971059799194,9.320873260498047,3.513242721557617
2_20251106_213718,1762436205856,2,0.5839336514472961,0.47801533341407776,0.31348946690559387,0.5764089226722717,0.6983383893966675,3.274712324142456,2.0903210639953613,1.8319646120071411,9.407204627990723,3.6160011291503906,-0.03374645859003067,-0.06260599941015244,0.03437641263008118,24.39815902709961,-20.536300659179688,-13.027883529663086,-0.051396727561950684,0.05793285369873047,0.07457542419433594,1.8833613395690918,9.349271774291992,3.5414257049560547
2_20251106_213718,1762436205876,2,0.5841549038887024,0.47824111580848694,0.3127765357494354,0.5763847231864929,0.6982501745223999,3.2747907638549805,2.0937273502349854,1.8630878925323486,9.378475189208984,3.497493267059326,-0.03985510393977165,-0.006406442727893591,0.025213442742824554,24.300472259521484,-20.542922973632812,-13.004775047302246,-0.01621866226196289,0.023363113403320312,-0.03514599800109863,1.8793065547943115,9.355112075805664,3.532639265060425
2_20251106_213718,1762436205895,2,0.5844009518623352,0.4780580997467041,0.31236791610717773,0.5765087008476257,0.6982501745223999,3.2747907638549805,2.0937273502349854,1.8630878925323486,9.378475189208984,3.497493267059326,-0.0374116450548172,0.019249875098466873,0.009330959990620613,24.25213623046875,-20.533950805664062,-12.965924263000488,-0.01621866226196289,0.023363113403320312,-0.03514599800109863,1.8793065547943115,9.355112075805664,3.532639265060425
2_20251106_213718,1762436205914,2,0.584611177444458,0.47789183259010315,0.31217536330223083,0.5765376687049866,0.6983686089515686,3.2745702266693115,2.0966944694519043,1.9408960342407227,9.265953063964844,3.404123306274414,-0.0374116450548172,0.019249875098466873,0.009330959990620613,24.254558563232422,-20.48426055908203,-12.910802841186523,0.049271583557128906,-0.07132720947265625,-0.1028127670288086,1.8916244506835938,9.3372802734375,3.5069360733032227
2_20251106_213718,1762436205932,2,0.5847780704498291,0.47790101170539856,0.3119239807128906,0.5764968991279602,0.6987106800079346,3.273974895477295,2.098703145980835,1.9792017936706543,9.18934154510498,3.309556484222412,-0.05757018178701401,-0.008239038288593292,-0.00899498164653778,24.22989273071289,-20.486251831054688,-12.871234893798828,0.07006192207336426,-0.11835098266601562,-0.15790367126464844,1.90913987159729,9.307692527770996,3.4674601554870605
2_20251106_213718,1762436205951,2,0.5850138664245605,0.47794657945632935,0.311527281999588,0.5764343738555908,0.6997849941253662,3.2718958854675293,2.10255765914917,1.9744133949279785,9.147444725036621,3.5980453491210938,-0.08261562883853912,-0.00884990207850933,-0.0260991919785738,24.195743560791016,-20.4505615234375,-12.912464141845703,0.038710594177246094,-0.10083484649658203,0.10004568099975586,1.9357028007507324,9.248279571533203,3.497999668121338
2_20251106_213718,1762436205971,2,0.5855487585067749,0.477605938911438,0.31091997027397156,0.5765014886856079,0.6997849941253662,3.2718958854675293,2.10255765914917,1.9744133949279785,9.147444725036621,3.5980453491210938,-0.0734526664018631,-0.010682497173547745,-0.049922920763492584,24.176898956298828,-20.363441467285156,-12.992694854736328,0.038710594177246094,-0.10083484649658203,0.10004568099975586,1.9357028007507324,9.248279571533203,3.497999668121338
