session_id,timestamp,label,quaternion_w,quaternion_x,quaternion_y,quaternion_z,position_x,position_y,position_z,accelerometer_x,accelerometer_y,accelerometer_z,gyroscope_x,gyroscope_y,gyroscope_z,magnetometer_x,magnetometer_y,magnetometer_z,linear_acceleration_x,linear_acceleration_y,linear_acceleration_z,gravity_x,gravity_y,gravity_z
2_20251106_213402,1762436005298,2,0.01666138507425785,-0.253743052482605,-0.8143931031227112,-0.5216327905654907,1.0103105306625366,2.8859403133392334,0.5751970410346985,3.165477752685547,8.660245895385742,-4.386274337768555,-0.03313559293746948,-0.027786709368228912,0.04659371078014374,3.6048192977905273,-12.948631286621094,39.451908111572266,-0.053171634674072266,0.5250177383422852,-0.07535648345947266,3.218649387359619,8.135228157043457,-4.310917854309082
2_20251106_213402,1762436005316,2,0.01668957620859146,-0.2541576325893402,-0.8141047358512878,-0.5218800902366638,1.0103105306625366,2.8859403133392334,0.5751970410346985,3.165477752685547,8.660245895385742,-4.386274337768555,-0.026416080072522163,-0.03450622037053108,0.05331321805715561,3.6048192977905273,-12.948631286621094,39.451908111572266,-0.053171634674072266,0.5250177383422852,-0.07535648345947266,3.218649387359619,8.135228157043457,-4.310917854309082
2_20251106_213402,1762436005335,2,0.016751350834965706,-0.25460395216941833,-0.8138557076454163,-0.5220488905906677,1.0156883001327515,2.8921871185302734,0.5448087453842163,3.1738569736480713,8.771570205688477,-4.347968101501465,-0.03069213405251503,0.01680641621351242,0.025213442742824554,3.5867834091186523,-13.061767578125,39.38146209716797,-0.03583383560180664,0.5090732574462891,-0.02964019775390625,3.209690809249878,8.262496948242188,-4.318327903747559
2_20251106_213402,1762436005354,2,0.016995979472994804,-0.25466111302375793,-0.813608705997467,-0.5223981142044067,1.0251786708831787,2.906587600708008,0.4895852506160736,3.1582953929901123,8.656654357910156,-4.417397499084473,-0.03496818616986275,0.018639009445905685,0.0038331770338118076,3.546799659729004,-13.126800537109375,39.36515426635742,-0.03806424140930176,0.24230098724365234,-0.07489633560180664,3.196359634399414,8.414353370666504,-4.342501163482666
2_20251106_213402,1762436005375,2,0.017150236293673515,-0.25453928112983704,-0.8133968710899353,-0.5227820873260498,1.0294448137283325,2.914548635482788,0.46305322647094727,3.130763292312622,8.679398536682129,-4.407820701599121,-0.030081268399953842,-0.02228892594575882,0.013607013039290905,3.5797348022460938,-13.187339782714844,39.378822326660156,-0.052477121353149414,0.2120361328125,-0.05225563049316406,3.1832404136657715,8.467362403869629,-4.355565071105957
2_20251106_213402,1762436005394,2,0.017010031268000603,-0.25475287437438965,-0.8131885528564453,-0.5230066776275635,1.033724308013916,2.9238510131835938,0.4351879358291626,3.1235809326171875,8.74882698059082,-4.357544898986816,-0.006868408992886543,-0.06810377538204193,0.034987278282642365,3.602202892303467,-13.211540222167969,39.44685745239258,-0.04772758483886719,0.2251720428466797,-0.0015840530395507812,3.1713085174560547,8.52365493774414,-4.355960845947266
2_20251106_213402,1762436005413,2,0.016710562631487846,-0.25528982281684875,-0.81307053565979,-0.5229380130767822,1.033724308013916,2.9238510131835938,0.4351879358291626,3.1235809326171875,8.74882698059082,-4.357544898986816,0.0242856927216053,-0.08887317031621933,0.047204576432704926,3.6765313148498535,-13.181930541992188,39.477359771728516,-0.04772758483886719,0.2251720428466797,-0.0015840530395507812,3.1713085174560547,8.52365493774414,-4.355960845947266
2_20251106_213402,1762436005432,2,0.016333434730768204,-0.2560865879058838,-0.8130490779876709,-0.5225935578346252,1.040331244468689,2.941251039505005,0.38901710510253906,3.0924577713012695,8.74882698059082,-4.233051300048828,0.04077903926372528,-0.07054723054170609,0.03926333039999008,3.699704170227051,-13.193572998046875,39.545658111572266,-0.051230430603027344,0.14181232452392578,0.08919620513916016,3.143688201904297,8.607014656066895,-4.322247505187988
2_20251106_213402,1762436005451,2,0.016139641404151917,-0.25664830207824707,-0.8131421804428101,-0.5221790671348572,1.0432642698287964,2.9498393535614014,0.36828696727752686,3.130763292312622,8.720098495483398,-4.154046535491943,0.04077903926372528,-0.07054723054170609,0.03926333039999008,3.724076271057129,-13.191986083984375,39.54663848876953,-0.010339975357055664,0.09046649932861328,0.13456058502197266,3.1411032676696777,8.629631996154785,-4.288607120513916
2_20251106_213402,1762436005470,2,0.01617034338414669,-0.25680676102638245,-0.8133057951927185,-0.521845281124115,1.0460058450698853,2.9580559730529785,0.34835493564605713,3.1247782707214355,8.65066909790039,-4.375500679016113,0.07315486669540405,-0.027786709368228912,0.0038331770338118076,3.745938301086426,-13.228607177734375,39.60089111328125,-0.01306009292602539,0.016829490661621094,-0.06951475143432617,3.137838363647461,8.63383960723877,-4.305985927581787
2_20251106_213402,1762436005489,2,0.016242096200585365,-0.25684234499931335,-0.8136317729949951,-0.5213171243667603,1.0484694242477417,2.965701103210449,0.32869017124176025,3.086472511291504,8.575254440307617,-4.571816444396973,0.10980675369501114,-0.09986873716115952,0.02338084764778614,3.760436534881592,-13.189872741699219,39.57514190673828,-0.041092872619628906,-0.046868324279785156,-0.21266460418701172,3.127565383911133,8.622122764587402,-4.359151840209961
2_20251106_213402,1762436005509,2,0.015967795625329018,-0.2573540508747101,-0.8141394257545471,-0.520279586315155,1.0507316589355469,2.9728071689605713,0.3081023693084717,3.0613343715667725,8.44477653503418,-4.662792205810547,0.13485220074653625,-0.16584213078022003,0.07286088913679123,3.748856544494629,-13.178245544433594,39.58843231201172,-0.05298471450805664,-0.1418771743774414,-0.24291229248046875,3.114319086074829,8.586653709411621,-4.419879913330078
2_20251106_213402,1762436005527,2,0.015431019477546215,-0.25866082310676575,-0.8146544098854065,-0.5188397169113159,1.0507316589355469,2.9728071689605713,0.3081023693084717,3.0613343715667725,8.44477653503418,-4.662792205810547,0.14096085727214813,-0.21715477108955383,0.12783870100975037,3.71280574798584,-13.168342590332031,39.6142578125,-0.05298471450805664,-0.1418771743774414,-0.24291229248046875,3.114319086074829,8.586653709411621,-4.419879913330078
2_20251106_213402,1762436005546,2,0.014811564236879349,-0.26060906052589417,-0.8150926828384399,-0.5171918869018555,1.0551156997680664,2.9849014282226562,0.27000322937965393,3.2432861328125,8.632713317871094,-4.783694267272949,0.1476803570985794,-0.27335435152053833,0.147386372089386,3.7364730834960938,-13.179313659667969,39.61497497558594,0.0963287353515625,0.04345893859863281,-0.22939395904541016,3.1469573974609375,8.589254379272461,-4.554300308227539
2_20251106_213402,1762436005566,2,0.013865706510841846,-0.26300978660583496,-0.8155112862586975,-0.5153396129608154,1.0578665733337402,2.991328001022339,0.24968579411506653,3.2780003547668457,8.692564964294434,-4.851925849914551,0.1525672823190689,-0.2806847095489502,0.14311031997203827,3.800321578979492,-13.124977111816406,39.60496520996094,0.10483431816101074,0.08264827728271484,-0.23810052871704102,3.173166036605835,8.609916687011719,-4.61382532119751
2_20251106_213402,1762436005584,2,0.012851715087890625,-0.2654300928115845,-0.8159347176551819,-0.5134512782096863,1.0578665733337402,2.991328001022339,0.24968579411506653,3.2780003547668457,8.692564964294434,-4.851925849914551,0.13424132764339447,-0.2654131054878235,0.11989747732877731,3.9025464057922363,-13.030998229980469,39.63776779174805,0.10483431816101074,0.08264827728271484,-0.23810052871704102,3.173166036605835,8.609916687011719,-4.61382532119751
2_20251106_213402,1762436005604,2,0.01193744596093893,-0.26784998178482056,-0.8161150217056274,-0.5119279026985168,1.0638788938522339,3.0032401084899902,0.2147943675518036,3.400099277496338,8.777556419372559,-4.508373260498047,0.11102847754955292,-0.21654391288757324,0.0997389405965805,4.051795959472656,-12.970970153808594,39.61767578125,0.15653729438781738,0.11801528930664062,0.0918130874633789,3.2435619831085205,8.659541130065918,-4.600186347961426
2_20251106_213402,1762436005622,2,0.011361024342477322,-0.2697494626045227,-0.8160725831985474,-0.511010468006134,1.0638788938522339,3.0032401084899902,0.2147943675518036,3.400099277496338,8.777556419372559,-4.508373260498047,0.14462603628635406,-0.18905499577522278,0.08629991859197617,4.216446399688721,-12.859382629394531,39.545066833496094,0.15653729438781738,0.11801528930664062,0.0918130874633789,3.2435619831085205,8.659541130065918,-4.600186347961426
2_20251106_213402,1762436005642,2,0.01103251799941063,-0.27144375443458557,-0.8160310387611389,-0.5101861357688904,1.0714378356933594,3.0161895751953125,0.18217319250106812,3.400099277496338,8.728477478027344,-4.535904884338379,0.20265819132328033,-0.21226786077022552,0.08691078424453735,4.332069396972656,-12.739761352539062,39.60592269897461,0.09807705879211426,0.024583816528320312,0.048226356506347656,3.3020222187042236,8.703893661499023,-4.584131240844727
2_20251106_213402,1762436005660,2,0.010698915459215641,-0.2731383144855499,-0.8163025379180908,-0.5088528394699097,1.0752283334732056,3.021716833114624,0.16813942790031433,3.4683310985565186,8.690171241760254,-4.666383743286133,0.26374465227127075,-0.2440328150987625,0.10645845532417297,4.506705284118652,-12.653572082519531,39.64140701293945,0.13304710388183594,-0.010977745056152344,-0.06580209732055664,3.3352839946746826,8.701148986816406,-4.600581645965576
2_20251106_213402,1762436005679,2,0.010411292314529419,-0.27510935068130493,-0.8168023824691772,-0.506991446018219,1.079529047012329,3.027294874191284,0.1534920334815979,3.5174102783203125,8.714112281799316,-4.81002950668335,0.31933337450027466,-0.2764086425304413,0.11195623874664307,4.683343887329102,-12.541458129882812,39.59632110595703,0.14570093154907227,0.010370254516601562,-0.1675581932067871,3.3717093467712402,8.703742027282715,-4.6424713134765625
2_20251106_213402,1762436005700,2,0.010054566897451878,-0.2774633765220642,-0.817542552947998,-0.5045167207717896,1.079529047012329,3.027294874191284,0.1534920334815979,3.5174102783203125,8.714112281799316,-4.81002950668335,0.31933337450027466,-0.2764086425304413,0.11195623874664307,4.835215091705322,-12.431472778320312,39.60431671142578,0.14570093154907227,0.010370254516601562,-0.1675581932067871,3.3717093467712402,8.703742027282715,-4.6424713134765625
2_20251106_213402,1762436005718,2,0.009752237237989902,-0.2798632085323334,-0.8183192014694214,-0.5019314289093018,1.0847561359405518,3.033865213394165,0.13616472482681274,3.506636619567871,8.821846961975098,-4.972827911376953,0.3266637325286865,-0.2703000009059906,0.11073450744152069,4.9641242027282715,-12.297958374023438,39.61186218261719,0.10794186592102051,0.09448432922363281,-0.2642850875854492,3.3986947536468506,8.727362632751465,-4.708542823791504
2_20251106_213402,1762436005739,2,0.009449836798012257,-0.28209763765335083,-0.8191951513290405,-0.4992503821849823,1.094483494758606,3.044149875640869,0.10596621036529541,3.6275386810302734,8.611166000366211,-5.106897354125977,0.38041985034942627,-0.2971780598163605,0.12173006683588028,5.091017723083496,-12.201980590820312,39.605098724365234,0.15852642059326172,-0.09600830078125,-0.2725672721862793,3.4690122604370117,8.707174301147461,-4.834330081939697
2_20251106_213402,1762436005756,2,0.009144967421889305,-0.2846459150314331,-0.8201960921287537,-0.4961566627025604,1.099357008934021,3.0482120513916016,0.09198153764009476,3.746046543121338,8.682989120483398,-5.322366714477539,0.38041985034942627,-0.2971780598163605,0.12173006683588028,5.091017723083496,-12.201980590820312,39.605098724365234,0.22162723541259766,-0.01934814453125,-0.3904294967651367,3.5244193077087402,8.702337265014648,-4.931937217712402
2_20251106_213402,1762436005775,2,0.008708133362233639,-0.28779396414756775,-0.8213503956794739,-0.49242493510246277,1.1053695678710938,3.052554130554199,0.0759207010269165,3.8298401832580566,8.712915420532227,-5.373839855194092,0.4353976249694824,-0.39552727341651917,0.14433205127716064,5.1874003410339355,-11.995773315429688,39.63978958129883,0.24433660507202148,0.008462905883789062,-0.35352230072021484,3.585503578186035,8.704452514648438,-5.020317554473877
2_20251106_213402,1762436005795,2,0.008038189262151718,-0.29126814007759094,-0.8224888443946838,-0.4884776175022125,1.112418532371521,3.0563576221466064,0.059377700090408325,4.072841167449951,8.587224960327148,-5.4887566566467285,0.4457823634147644,-0.4095771610736847,0.15349501371383667,5.278143882751465,-11.890029907226562,39.672367095947266,0.38987016677856445,-0.09378242492675781,-0.37475156784057617,3.6829710006713867,8.681007385253906,-5.114005088806152
2_20251106_213402,1762436005814,2,0.0074002607725560665,-0.29488444328308105,-0.82354736328125,-0.48451846837997437,1.121871829032898,3.0598394870758057,0.04081480950117111,4.473852634429932,8.575254440307617,-5.7784423828125,0.48487770557403564,-0.4914330244064331,0.16876664757728577,5.443103790283203,-11.766426086425781,39.65408706665039,0.6327052116394043,-0.08460235595703125,-0.5315499305725098,3.8411474227905273,8.659856796264648,-5.24689245223999
2_20251106_213402,1762436005832,2,0.006491027306765318,-0.2994678318500519,-0.8245477676391602,-0.47999778389930725,1.1323199272155762,3.0624520778656006,0.023835083469748497,4.801844596862793,8.511811256408691,-5.697043418884277,0.5105339884757996,-0.6227689385414124,0.15471674501895905,5.588625907897949,-11.556503295898438,39.63667297363281,0.7685575485229492,-0.11843681335449219,-0.3601207733154297,4.033287048339844,8.630248069763184,-5.336922645568848
2_20251106_213402,1762436005852,2,0.004853270947933197,-0.3052064776420593,-0.8254556655883789,-0.4748140275478363,1.1462781429290771,3.0645949840545654,0.004722660407423973,4.9969635009765625,8.428017616271973,-5.728166580200195,0.5105339884757996,-0.6227689385414124,0.15471674501895905,5.770719051361084,-11.332588195800781,39.715606689453125,0.7709412574768066,-0.16178417205810547,-0.31299495697021484,4.226022243499756,8.589801788330078,-5.4151716232299805
2_20251106_213402,1762436005872,2,0.0014964527217671275,-0.30922386050224304,-0.8273785710334778,-0.4688529074192047,1.162271499633789,3.065451145172119,-0.014287387952208519,5.12504768371582,8.201775550842285,-5.695845603942871,0.5129774808883667,-0.7003487944602966,0.08568905293941498,6.028537273406982,-11.065559387207031,39.73069381713867,0.7192201614379883,-0.3104209899902344,-0.22453880310058594,4.405827522277832,8.51219654083252,-5.471306800842285
2_20251106_213402,1762436005891,2,0.002813598606735468,0.3124412000179291,0.8295799493789673,0.4627847671508789,1.17837655544281,3.064807176589966,-0.031600210815668106,5.014918804168701,7.995882987976074,-5.52825927734375,0.4946514964103699,-0.7809829115867615,-0.2240193784236908,6.3849568367004395,-10.767471313476562,39.7907829284668,0.4872732162475586,-0.41305065155029297,-0.045561790466308594,4.527645587921143,8.408933639526367,-5.482697486877441
2_20251106_213402,1762436005910,2,0.00815530214458704,0.31444868445396423,0.8321530222892761,0.4567021131515503,1.1932014226913452,3.0623350143432617,-0.04693138599395752,4.661789417266846,7.640358924865723,-5.3810224533081055,0.4946514964103699,-0.7809829115867615,-0.2240193784236908,6.727780342102051,-10.495292663574219,39.849853515625,0.1073150634765625,-0.6148595809936523,0.08133983612060547,4.554474353790283,8.255218505859375,-5.462362289428711
2_20251106_213402,1762436005930,2,0.014080528169870377,0.31471675634384155,0.8350244760513306,0.4510977566242218,1.1932014226913452,3.0623350143432617,-0.04693138599395752,4.661789417266846,7.640358924865723,-5.3810224533081055,0.38530677556991577,-0.6783576607704163,-0.5752665996551514,7.155795097351074,-10.229301452636719,39.83099365234375,0.1073150634765625,-0.6148595809936523,0.08133983612060547,4.554474353790283,8.255218505859375,-5.462362289428711
2_20251106_213402,1762436005947,2,0.020412564277648926,0.31335267424583435,0.838082492351532,0.4461067020893097,1.2192550897598267,3.0485525131225586,-0.07663173973560333,3.8621604442596436,6.77130126953125,-5.382219314575195,0.3089486360549927,-0.6698055267333984,-0.6778918504714966,7.649574279785156,-9.871574401855469,39.829952239990234,-0.5070512294769287,-1.0213384628295898,0.05742025375366211,4.369211673736572,7.79263973236084,-5.439639568328857
2_20251106_213402,1762436005967,2,0.027396393939852715,0.31116345524787903,0.8410605192184448,0.4416378438472748,1.2192550897598267,3.0485525131225586,-0.07663173973560333,3.8621604442596436,6.77130126953125,-5.382219314575195,0.2606903314590454,-0.7119552493095398,-0.7108785510063171,8.21597671508789,-9.509750366210938,39.89943313598633,-0.5070512294769287,-1.0213384628295898,0.05742025375366211,4.369211673736572,7.79263973236084,-5.439639568328857
2_20251106_213402,1762436005985,2,0.03498915955424309,0.3087935149669647,0.8438957929611206,0.4373352825641632,1.2343248128890991,3.020400047302246,-0.10144397616386414,3.307926654815674,5.867528915405273,-5.260120391845703,0.27351850271224976,-0.8005306124687195,-0.690109133720398,8.840686798095703,-9.193916320800781,39.94327926635742,-0.7186770439147949,-1.2992973327636719,0.10340023040771484,4.026603698730469,7.166826248168945,-5.363520622253418
2_20251106_213402,1762436006005,2,0.04319300130009651,0.30698952078819275,0.8466067910194397,0.43260687589645386,1.2375494241714478,2.999462842941284,-0.11340241134166718,3.088866710662842,5.520384311676025,-5.390598297119141,0.27351850271224976,-0.8005306124687195,-0.690109133720398,9.479585647583008,-8.851364135742188,39.907047271728516,-0.7501895427703857,-1.3171534538269043,-0.021661758422851562,3.8390562534332275,6.83753776550293,-5.368936538696289
2_20251106_213402,1762436006024,2,0.05231257900595665,0.3060576319694519,0.8491708636283875,0.42720136046409607,1.2378814220428467,2.977755069732666,-0.12460576742887497,2.8542447090148926,5.291748046875,-5.766471862792969,0.29489874839782715,-0.9404186010360718,-0.654679000377655,10.142349243164062,-8.519508361816406,39.84449768066406,-0.7878491878509521,-1.2366318702697754,-0.31802845001220703,3.6420938968658447,6.528379917144775,-5.448443412780762
2_20251106_213402,1762436006043,2,0.06198382005095482,0.3056911826133728,0.8514601588249207,0.42157620191574097,1.2378814220428467,2.977755069732666,-0.12460576742887497,2.8542447090148926,5.291748046875,-5.766471862792969,0.2802380323410034,-1.0228854417800903,-0.6216922998428345,10.876312255859375,-8.220291137695312,39.75706481933594,-0.7878491878509521,-1.2366318702697754,-0.31802845001220703,3.6420938968658447,6.528379917144775,-5.448443412780762
2_20251106_213402,1762436006061,2,0.07221237570047379,0.3054695427417755,0.8535643815994263,0.4158143997192383,1.2345763444900513,2.9474904537200928,-0.1406244933605194,2.6387758255004883,5.152890205383301,-6.266838550567627,0.25702518224716187,-1.0827502012252808,-0.6278009414672852,11.724459648132324,-7.513938903808594,39.678646087646484,-0.8026542663574219,-1.1003918647766113,-0.6547160148620605,3.44143009185791,6.253282070159912,-5.612122535705566
2_20251106_213402,1762436006081,2,0.08340273052453995,0.30486738681793213,0.8554468750953674,0.410256564617157,1.221125841140747,2.891805648803711,-0.17302988469600677,1.9061816930770874,4.660902976989746,-7.03534460067749,0.18555398285388947,-1.1358953714370728,-0.7035481929779053,12.557320594787598,-7.183250427246094,39.595664978027344,-1.0551480054855347,-1.0551300048828125,-0.96697998046875,2.961329698562622,5.716032981872559,-6.06836462020874
2_20251106_213402,1762436006099,2,0.09567733108997345,0.3033285439014435,0.8568746447563171,0.4057135581970215,1.221125841140747,2.891805648803711,-0.17302988469600677,1.9061816930770874,4.660902976989746,-7.03534460067749,-0.19318215548992157,-1.1487234830856323,-0.8892510533332825,13.412919998168945,-6.899589538574219,39.35041427612305,-1.0551480054855347,-1.0551300048828125,-0.96697998046875,2.961329698562622,5.716032981872559,-6.06836462020874
2_20251106_213402,1762436006120,2,0.10875289142131805,0.3008098304271698,0.8576286435127258,0.40269023180007935,1.190319538116455,2.8237619400024414,-0.21625414490699768,0.7917287349700928,4.362837791442871,-7.140684604644775,-0.44180411100387573,-1.0699219703674316,-0.9515592455863953,14.34565544128418,-6.547698974609375,39.04184341430664,-1.480478048324585,-0.8836655616760254,-0.6893491744995117,2.2722067832946777,5.2465033531188965,-6.451335430145264
2_20251106_213402,1762436006139,2,0.12215763330459595,0.2971213161945343,0.8575704097747803,0.4017081558704376,1.1685190200805664,2.789196014404297,-0.2384440004825592,0.3105148673057556,4.376005172729492,-7.00900936126709,-0.6629371643066406,-0.990509569644928,-1.0156999826431274,15.33719253540039,-6.241127014160156,38.64005661010742,-1.5693535804748535,-0.6963987350463867,-0.4461393356323242,1.8798683881759644,5.072403907775879,-6.562870025634766
2_20251106_213402,1762436006160,2,0.1358252912759781,0.29225999116897583,0.8567973971366882,0.40253424644470215,1.1401063203811646,2.7526838779449463,-0.2608620226383209,-0.2951921224594116,4.4322662353515625,-6.6379241943359375,-0.8425313830375671,-0.9422512054443359,-1.0902255773544312,16.396825790405273,-6.006202697753906,38.34775924682617,-1.7400484085083008,-0.5121102333068848,-0.0600433349609375,1.4448562860488892,4.944376468658447,-6.577880859375
2_20251106_213402,1762436006176,2,0.14992655813694,0.2863043546676636,0.8554154634475708,0.40474221110343933,1.1120949983596802,2.722346544265747,-0.27766090631484985,-0.8625935316085815,4.555562973022461,-5.984334945678711,-0.8425313830375671,-0.9422512054443359,-1.0902255773544312,16.396825790405273,-6.006202697753906,38.34775924682617,-1.8459599018096924,-0.3110508918762207,0.4748368263244629,0.9833663702011108,4.866613864898682,-6.459171772003174
2_20251106_213402,1762436006196,2,0.16416773200035095,0.27859365940093994,0.8534014225006104,0.4088282883167267,1.1120949983596802,2.722346544265747,-0.27766090631484985,-0.8625935316085815,4.555562973022461,-5.984334945678711,-1.2304304838180542,-0.6979053020477295,-1.2875348329544067,17.409704208374023,-5.7601470947265625,37.8780517578125,-1.8459599018096924,-0.3110508918762207,0.4748368263244629,0.9833663702011108,4.866613864898682,-6.459171772003174
2_20251106_213402,1762436006215,2,0.17811691761016846,0.2690321207046509,0.8509700298309326,0.4144226312637329,1.031734824180603,2.655449867248535,-0.30339568853378296,-1.9626818895339966,4.862007141113281,-4.970434188842773,-1.333055853843689,-0.5720672011375427,-1.3333497047424316,18.31896209716797,-5.62158203125,37.46989059448242,-1.9712754487991333,0.06197977066040039,1.0087180137634277,0.008593589067459106,4.800027370452881,-5.979152202606201
2_20251106_213402,1762436006234,2,0.19146940112113953,0.25814250111579895,0.8482019305229187,0.4210171103477478,0.9850549697875977,2.6272168159484863,-0.30953872203826904,-2.6007089614868164,5.44497013092041,-4.6220927238464355,-1.330612301826477,-0.5341935753822327,-1.3419017791748047,19.192564010620117,-5.472572326660156,37.03348922729492,-2.087441921234131,0.5159544944763184,1.0856475830078125,-0.513266921043396,4.929015636444092,-5.707740306854248
2_20251106_213402,1762436006254,2,0.20451155304908752,0.2467811107635498,0.8452407717704773,0.4276004135608673,0.9850549697875977,2.6272168159484863,-0.30953872203826904,-2.6007089614868164,5.44497013092041,-4.6220927238464355,-1.2750235795974731,-0.5433565378189087,-1.3535081148147583,20.037057876586914,-5.41278076171875,36.56722640991211,-2.087441921234131,0.5159544944763184,1.0856475830078125,-0.513266921043396,4.929015636444092,-5.707740306854248
2_20251106_213402,1762436006272,2,0.21752668917179108,0.23522351682186127,0.842207670211792,0.43363383412361145,0.8757157325744629,2.5801117420196533,-0.3083842396736145,-4.010833740234375,5.5491132736206055,-3.9122421741485596,-1.1003162860870361,-0.5537412762641907,-1.2643219232559204,20.82949447631836,-5.407066345214844,36.16552734375,-2.362361431121826,0.3801994323730469,1.1851260662078857,-1.6484723091125488,5.168913841247559,-5.097368240356445
2_20251106_213402,1762436006291,2,0.22988955676555634,0.2246156483888626,0.8393768072128296,0.43834370374679565,0.8126959800720215,2.560147285461426,-0.3040328919887543,-4.804476737976074,5.588616371154785,-4.417397499084473,-0.8755180835723877,-0.6465926766395569,-1.025473952293396,21.521509170532227,-5.4696807861328125,35.677490234375,-2.524803638458252,0.33576202392578125,0.5439767837524414,-2.2796730995178223,5.252854347229004,-4.961374282836914
2_20251106_213402,1762436006311,2,0.24141965806484222,0.21637685596942902,0.8366382718086243,0.4415133595466614,0.7409782409667969,2.5417420864105225,-0.29808610677719116,-5.140848159790039,5.765779495239258,-4.436550140380859,-0.7643406987190247,-0.9214817881584167,-0.6949960589408875,22.121688842773438,-5.426582336425781,35.28251647949219,-2.288940191268921,0.4103403091430664,0.4198594093322754,-2.851907968521118,5.355439186096191,-4.856409549713135
2_20251106_213402,1762436006330,2,0.2535679042339325,0.21215881407260895,0.8329357504844666,0.4437454640865326,0.6696380376815796,2.526956796646118,-0.2911205291748047,-5.262947082519531,6.020750999450684,-4.273751258850098,-0.7173041105270386,-1.1108499765396118,-0.35107922554016113,22.58639907836914,-5.428947448730469,34.7867431640625,-1.9288315773010254,0.5322494506835938,0.4661269187927246,-3.334115505218506,5.48850154876709,-4.739878177642822
2_20251106_213402,1762436006349,2,0.26556864380836487,0.2114047408103943,0.8281702399253845,0.44599926471710205,0.5969801545143127,2.5153892040252686,-0.2834017276763916,-5.1145124435424805,6.391836166381836,-4.33839225769043,-0.7173041105270386,-1.1108499765396118,-0.35107922554016113,23.073083877563477,-5.456184387207031,34.42658615112305,-1.4243178367614746,0.7226676940917969,0.32118892669677734,-3.690194606781006,5.669168472290039,-4.659581184387207
2_20251106_213402,1762436006369,2,0.2768297791481018,0.21294397115707397,0.822631299495697,0.44866231083869934,0.5969801545143127,2.5153892040252686,-0.2834017276763916,-5.1145124435424805,6.391836166381836,-4.33839225769043,-0.8339792490005493,-1.1285649538040161,0.005665771663188934,23.64565086364746,-5.488670349121094,33.89388656616211,-1.4243178367614746,0.7226676940917969,0.32118892669677734,-3.690194606781006,5.669168472290039,-4.659581184387207
2_20251106_213402,1762436006388,2,0.28755080699920654,0.214808389544487,0.8162882328033447,0.4525984525680542,0.5128431916236877,2.506582498550415,-0.27356666326522827,-4.83560037612915,6.734192371368408,-4.294101715087891,-0.8339792490005493,-1.1285649538040161,0.005665771663188934,24.236949920654297,-5.620025634765625,33.36005783081055,-0.9163246154785156,0.8520188331604004,0.29238367080688477,-3.9192757606506348,5.882173538208008,-4.586485385894775
2_20251106_213402,1762436006406,2,0.29669463634490967,0.21472464501857758,0.8095340132713318,0.45882490277290344,0.3823468089103699,2.5015087127685547,-0.25262099504470825,-5.079798698425293,7.298003196716309,-3.4561665058135986,-1.0728274583816528,-0.8652822375297546,-0.01937968283891678,24.780000686645508,-5.753883361816406,32.756683349609375,-0.7883181571960449,0.9505653381347656,0.7557723522186279,-4.291480541229248,6.347437858581543,-4.211938858032227
2_20251106_213402,1762436006425,2,0.30339378118515015,0.21186962723731995,0.8031226992607117,0.4669662117958069,0.3125348687171936,2.5029330253601074,-0.2391333281993866,-5.450883865356445,7.265682220458984,-3.543550968170166,-1.2359281778335571,-0.47371792793273926,-0.08779653161764145,25.308143615722656,-5.938629150390625,32.138248443603516,-0.9275226593017578,0.7345952987670898,0.5347104072570801,-4.5233612060546875,6.5310869216918945,-4.078261375427246
2_20251106_213402,1762436006444,2,0.3081240653991699,0.20742058753967285,0.7968762516975403,0.47647085785865784,0.3125348687171936,2.5029330253601074,-0.2391333281993866,-5.450883865356445,7.265682220458984,-3.543550968170166,-1.3464947938919067,-0.19516363739967346,-0.08229874819517136,25.779407501220703,-6.253608703613281,31.663890838623047,-0.9275226593017578,0.7345952987670898,0.5347104072570801,-4.5233612060546875,6.5310869216918945,-4.078261375427246
2_20251106_213402,1762436006463,2,0.3116273880004883,0.2029428482055664,0.7901721000671387,0.4871659278869629,0.17446276545524597,2.5099077224731445,-0.20712415874004364,-5.610091209411621,7.100489616394043,-3.1604952812194824,-1.4613373279571533,-0.05588648468255997,0.26222896575927734,26.207855224609375,-6.695457458496094,31.077289581298828,-0.686121940612793,0.36441755294799805,0.5871787071228027,-4.923969268798828,6.736072063446045,-3.747673988342285
2_20251106_213402,1762436006483,2,0.3138590455055237,0.1999346762895584,0.7829026579856873,0.49858003854751587,0.17446276545524597,2.5099077224731445,-0.20712415874004364,-5.610091209411621,7.100489616394043,-3.1604952812194824,-1.450341820716858,-0.177448570728302,0.5206247568130493,26.597543716430664,-7.165885925292969,30.596820831298828,-0.686121940612793,0.36441755294799805,0.5871787071228027,-4.923969268798828,6.736072063446045,-3.747673988342285
2_20251106_213402,1762436006501,2,0.3156975209712982,0.19952240586280823,0.7746878862380981,0.5102789402008057,0.10187584906816483,2.5172359943389893,-0.18645264208316803,-5.160000801086426,7.659511566162109,-2.7810306549072266,-1.449120044708252,-0.19577451050281525,0.6403542160987854,26.940397262573242,-7.8266448974609375,30.07037353515625,-0.1888256072998047,0.7387514114379883,0.7733144760131836,-4.971175193786621,6.920760154724121,-3.55434513092041
2_20251106_213402,1762436006520,2,0.3168799579143524,0.20000985264778137,0.7660059332847595,0.5223199129104614,-0.011440332978963852,2.5390617847442627,-0.14107131958007812,-4.447756290435791,8.434003829956055,-1.2416253089904785,-1.3892552852630615,-0.08581884950399399,0.6482954621315002,27.080533981323242,-8.626625061035156,29.6280517578125,0.3857431411743164,0.9742221832275391,1.5937166213989258,-4.833499431610107,7.459781646728516,-2.8353419303894043
2_20251106_213402,1762436006540,2,0.3170369267463684,0.20022185146808624,0.7576467990875244,0.5342004895210266,-0.06686381995677948,2.555018186569214,-0.10864879190921783,-4.134129524230957,8.490264892578125,-0.7053470611572266,-1.3892552852630615,-0.08581884950399399,0.6482954621315002,27.106781005859375,-9.497482299804688,29.274612426757812,0.5594959259033203,0.8243865966796875,1.703995943069458,-4.693625450134277,7.6658782958984375,-2.4093430042266846
2_20251106_213402,1762436006559,2,0.3160896301269531,0.20043571293354034,0.7498391270637512,0.5455769300460815,-0.11428768187761307,2.573270320892334,-0.07489301264286041,-3.7474825382232666,9.069636344909668,-0.7711848020553589,-1.165678858757019,0.03757581487298012,0.7167123556137085,27.07442283630371,-10.322761535644531,28.98735809326172,0.7569143772125244,1.1230063438415527,1.3105264902114868,-4.504396915435791,7.946630001068115,-2.0817112922668457
2_20251106_213402,1762436006579,2,0.3143604099750519,0.20104168355464935,0.7424894571304321,0.5562995672225952,-0.11428768187761307,2.573270320892334,-0.07489301264286041,-3.7474825382232666,9.069636344909668,-0.7711848020553589,-1.0752707719802856,-0.03511708602309227,0.7362599968910217,27.07442283630371,-10.322761535644531,28.98735809326172,0.7569143772125244,1.1230063438415527,1.3105264902114868,-4.504396915435791,7.946630001068115,-2.0817112922668457
2_20251106_213402,1762436006598,2,0.3127581775188446,0.20253372192382812,0.7352447509765625,0.5661956667900085,-0.19423943758010864,2.6230227947235107,0.002920687198638916,-2.8832128047943115,10.124237060546875,-0.173857182264328,-0.9512653350830078,-0.09192749857902527,0.7093819379806519,26.84555435180664,-12.29718017578125,28.44091033935547,1.1097638607025146,1.4685564041137695,1.2775273323059082,-3.992976665496826,8.655680656433105,-1.4513845443725586
2_20251106_213402,1762436006617,2,0.3113780915737152,0.20458528399467468,0.72840416431427,0.5749921202659607,-0.22420799732208252,2.6524710655212402,0.044330302625894547,-2.497762680053711,10.338508605957031,0.11104057729244232,-0.9036178588867188,-0.056497346609830856,0.5853763818740845,26.84555435180664,-12.29718017578125,28.44091033935547,1.1961712837219238,1.346261978149414,1.2499401569366455,-3.6939339637756348,8.992246627807617,-1.138899564743042
2_20251106_213402,1762436006636,2,0.3102278709411621,0.20573972165584564,0.7220391631126404,0.5831717252731323,-0.24800138175487518,2.6828112602233887,0.08543433994054794,-2.403195858001709,10.550386428833008,0.4186822772026062,-1.0300668478012085,0.16097049415111542,0.383180171251297,26.694766998291016,-13.280693054199219,28.186622619628906,1.032590627670288,1.246511459350586,1.246065378189087,-3.435786485671997,9.303874969482422,-0.8273831605911255
2_20251106_213402,1762436006655,2,0.30893000960350037,0.20402401685714722,0.715875506401062,0.5919955372810364,-0.2705015540122986,2.7182915210723877,0.13349425792694092,-2.575571060180664,10.440258026123047,0.709565281867981,-1.103981375694275,0.41081416606903076,0.16998836398124695,26.521202087402344,-14.252029418945312,27.80997085571289,0.6881723403930664,0.9091062545776367,1.2295587062835693,-3.2637434005737305,9.53115177154541,-0.5199934840202332
2_20251106_213402,1762436006674,2,0.3072209358215332,0.1992056965827942,0.7103307843208313,0.6011344194412231,-0.28870493173599243,2.7509453296661377,0.17752766609191895,-2.84371018409729,10.472578048706055,0.6748508214950562,-1.103981375694275,0.41081416606903076,0.16998836398124695,26.252079010009766,-15.180702209472656,27.55209732055664,0.336026668548584,0.7531414031982422,0.9558754563331604,-3.179736852645874,9.719436645507812,-0.28102463483810425
2_20251106_213402,1762436006694,2,0.30492010712623596,0.19215966761112213,0.7052043676376343,0.6105613708496094,-0.30754947662353516,2.7876956462860107,0.22802679240703583,-3.0579819679260254,10.470184326171875,1.0411479473114014,-1.1540724039077759,0.6007930636405945,0.047815434634685516,25.953853607177734,-15.974037170410156,27.336204528808594,0.09740400314331055,0.6005983352661133,1.0577380657196045,-3.155385971069336,9.869585990905762,-0.01659013330936432
2_20251106_213402,1762436006712,2,0.3027415871620178,0.18526768684387207,0.700174868106842,0.619498610496521,-0.30754947662353516,2.7876956462860107,0.22802679240703583,-3.0579819679260254,10.470184326171875,1.0411479473114014,-0.9720346927642822,0.49328088760375977,0.09424115717411041,25.70648765563965,-16.726524353027344,27.123065948486328,0.09740400314331055,0.6005983352661133,1.0577380657196045,-3.155385971069336,9.869585990905762,-0.01659013330936432
2_20251106_213402,1762436006732,2,0.3005208969116211,0.17956170439720154,0.6955480575561523,0.6274214386940002,-0.34060510993003845,2.8576526641845703,0.32823821902275085,-3.251904010772705,10.498912811279297,1.6660077571868896,-0.8242053985595703,0.4126467704772949,0.1315038949251175,25.457809448242188,-17.503990173339844,26.89588165283203,-0.08915996551513672,0.3949165344238281,1.1302989721298218,-3.1627440452575684,10.103996276855469,0.5357087850570679
2_20251106_213402,1762436006749,2,0.29833394289016724,0.17498275637626648,0.691417396068573,0.6342868804931641,-0.356240838766098,2.889357805252075,0.3769572973251343,-3.585880756378174,10.306187629699707,1.8084566593170166,-0.8242053985595703,0.4126467704772949,0.1315038949251175,25.154052734375,-18.17308807373047,26.736202239990234,-0.33850955963134766,0.16175270080566406,1.0181983709335327,-3.247371196746826,10.144434928894043,0.7902582883834839
2_20251106_213402,1762436006769,2,0.29544851183891296,0.17085684835910797,0.6880374550819397,0.6404081583023071,-0.3744547963142395,2.922595739364624,0.43009912967681885,-3.8097290992736816,10.069171905517578,1.354774832725525,-0.5841356515884399,0.512828528881073,0.29277217388153076,24.883014678955078,-18.70166015625,26.499309539794922,-0.4498863220214844,-0.060210227966308594,0.45161330699920654,-3.3598427772521973,10.129382133483887,0.9031615257263184
2_20251106_213402,1762436006789,2,0.2911646366119385,0.16714854538440704,0.6852971911430359,0.6462602019309998,-0.3744547963142395,2.922595739364624,0.43009912967681885,-3.8097290992736816,10.069171905517578,1.354774832725525,-0.553592324256897,0.532376229763031,0.5151269435882568,24.551254272460938,-19.222320556640625,26.32781219482422,-0.4498863220214844,-0.060210227966308594,0.45161330699920654,-3.3598427772521973,10.129382133483887,0.9031615257263184
2_20251106_213402,1762436006807,2,0.2854253351688385,0.16492591798305511,0.6824759840965271,0.6523483395576477,-0.39395853877067566,2.9553239345550537,0.48380330204963684,-3.758255958557129,10.002138137817383,1.110576868057251,-0.553592324256897,0.532376229763031,0.5151269435882568,24.194530487060547,-19.745376586914062,26.236431121826172,-0.31873035430908203,-0.10179519653320312,0.165932297706604,-3.439525604248047,10.103933334350586,0.944644570350647
2_20251106_213402,1762436006826,2,0.27814731001853943,0.16398677229881287,0.6794577836990356,0.6588471531867981,-0.41074633598327637,2.983421802520752,0.5305630564689636,-3.4482202529907227,10.091917037963867,1.163246989250183,-0.5120535492897034,0.6270602345466614,0.9079129695892334,23.814647674560547,-20.24517822265625,26.171630859375,-0.006955623626708984,-0.009613037109375,0.1748819351196289,-3.4412646293640137,10.101530075073242,0.9883650541305542
2_20251106_213402,1762436006846,2,0.2691868841648102,0.16385877132415771,0.676449716091156,0.6656609773635864,-0.4326637089252472,3.0342488288879395,0.6143869161605835,-1.7998831272125244,10.409133911132812,1.2087347507476807,-0.4650169610977173,0.6698208451271057,1.0019861459732056,23.396896362304688,-20.7723388671875,26.091312408447266,1.1830213069915771,0.21793365478515625,0.13107717037200928,-2.9829044342041016,10.191200256347656,1.0776575803756714
2_20251106_213402,1762436006865,2,0.25916150212287903,0.16431082785129547,0.6735707521438599,0.6724133491516113,-0.4326637089252472,3.0342488288879395,0.6143869161605835,-1.7998831272125244,10.409133911132812,1.2087347507476807,-0.47173649072647095,0.6734859943389893,1.0013753175735474,22.983779907226562,-21.212005615234375,26.053390502929688,1.1830213069915771,0.21793365478515625,0.13107717037200928,-2.9829044342041016,10.191200256347656,1.0776575803756714
2_20251106_213402,1762436006883,2,0.2490994930267334,0.164944589138031,0.6705251932144165,0.6790719032287598,-0.4348328709602356,3.0855090618133545,0.6984497904777527,-0.7440855503082275,10.483351707458496,1.8838706016540527,-0.47173649072647095,0.6734859943389893,1.0013753175735474,22.48316192626953,-21.683425903320312,26.119640350341797,1.4941332340240479,0.19310569763183594,0.5920130014419556,-2.2382187843322754,10.29024600982666,1.2918576002120972
2_20251106_213402,1762436006902,2,0.2390100061893463,0.16464772820472717,0.6672734618186951,0.6859384179115295,-0.4348328709602356,3.0855090618133545,0.6984497904777527,-0.7440855503082275,10.483351707458496,1.8838706016540527,-0.5432076454162598,0.9080580472946167,0.813228964805603,21.907413482666016,-22.1971435546875,26.168636322021484,1.4941332340240479,0.19310569763183594,0.5920130014419556,-2.2382187843322754,10.29024600982666,1.2918576002120972
2_20251106_213402,1762436006921,2,0.22869059443473816,0.1625051498413086,0.6642560362815857,0.6928611397743225,-0.41930142045021057,3.133333921432495,0.7832204699516296,-0.6447305679321289,10.403148651123047,2.1867241859436035,-0.5584793090820312,1.0839869976043701,0.7032732963562012,21.26661491394043,-22.778427124023438,26.294960021972656,1.007383108139038,0.07015132904052734,0.5692671537399292,-1.652113676071167,10.33299732208252,1.6174570322036743
2_20251106_213402,1762436006941,2,0.21791797876358032,0.1583903729915619,0.661544919013977,0.6998446583747864,-0.41930142045021057,3.133333921432495,0.7832204699516296,-0.6447305679321289,10.403148651123047,2.1867241859436035,-0.5316011905670166,1.1615668535232544,0.6953320503234863,20.58926010131836,-23.362098693847656,26.419811248779297,1.007383108139038,0.07015132904052734,0.5692671537399292,-1.652113676071167,10.33299732208252,1.6174570322036743
2_20251106_213402,1762436006960,2,0.20668992400169373,0.1537412852048874,0.6590825319290161,0.7065784335136414,-0.4061547517776489,3.157461166381836,0.8287058472633362,-0.6411393880844116,10.214015007019043,1.976043462753296,-0.4448584318161011,1.057108998298645,0.8168941140174866,19.939306259155273,-23.88207244873047,26.614543914794922,0.8087793588638306,-0.09518623352050781,0.2868690490722656,-1.4499187469482422,10.30920124053955,1.6891744136810303
2_20251106_213402,1762436006979,2,0.19518689811229706,0.15073344111442566,0.6567439436912537,0.7126492261886597,-0.37692373991012573,3.195897102355957,0.9053646922111511,-0.1826694756746292,10.151768684387207,2.0945515632629395,-0.3306267261505127,0.9465425610542297,0.9213520288467407,19.21933937072754,-24.36779022216797,26.67196273803711,0.8571979403495789,-0.10458755493164062,0.28050947189331055,-1.0398674011230469,10.256356239318848,1.814042091369629
2_20251106_213402,1762436006999,2,0.18349605798721313,0.1493535190820694,0.6547170281410217,0.7178916335105896,-0.37692373991012573,3.195897102355957,0.9053646922111511,-0.1826694756746292,10.151768684387207,2.0945515632629395,-0.2725945711135864,0.9569272398948669,0.9580038785934448,18.523263931274414,-24.840980529785156,26.892822265625,0.8571979403495789,-0.10458755493164062,0.28050947189331055,-1.0398674011230469,10.256356239318848,1.814042091369629
2_20251106_213402,1762436007018,2,0.1713820844888687,0.14824828505516052,0.6529150009155273,0.7227396965026855,-0.33480989933013916,3.2335829734802246,0.9791561365127563,0.7929257154464722,10.539612770080566,1.5989727973937988,-0.24938170611858368,1.0021312236785889,0.9445648193359375,18.523263931274414,-24.840980529785156,26.892822265625,1.2651125192642212,0.20465087890625,-0.18629240989685059,-0.472186803817749,10.334961891174316,1.7852652072906494
2_20251106_213402,1762436007037,2,0.1590258628129959,0.14686281979084015,0.651277482509613,0.7273099422454834,-0.3087482154369354,3.251903533935547,1.0113157033920288,1.3339921236038208,10.703608512878418,1.517573595046997,-0.26098811626434326,0.9984660744667053,0.9091346859931946,17.778444290161133,-25.317344665527344,27.11172103881836,1.4449431896209717,0.29491710662841797,-0.21415328979492188,-0.11095103621482849,10.40869140625,1.731726884841919
2_20251106_213402,1762436007056,2,0.14699894189834595,0.1454630196094513,0.6495100259780884,0.7316888570785522,-0.27935856580734253,3.2699596881866455,1.041992425918579,1.5769929885864258,10.646150588989258,1.7773332595825195,-0.2646533250808716,0.9825835824012756,0.7997899055480957,17.02283477783203,-25.78099822998047,27.23577880859375,1.3503552675247192,0.18996810913085938,0.03648507595062256,0.22663775086402893,10.456182479858398,1.740848183631897
2_20251106_213402,1762436007075,2,0.13583029806613922,0.1436125934123993,0.6477383375167847,0.7357721328735352,-0.24761533737182617,3.2874271869659424,1.070641040802002,1.620086908340454,10.570735931396484,1.5606672763824463,-0.22922317683696747,1.0076289176940918,0.7044950127601624,16.30973243713379,-26.129798889160156,27.417747497558594,1.1147593259811401,0.09164237976074219,-0.14414477348327637,0.505327582359314,10.479093551635742,1.7048120498657227
2_20251106_213402,1762436007094,2,0.1250980794429779,0.1410333216190338,0.6462405323982239,0.7394817471504211,-0.21397386491298676,3.3043057918548584,1.0963845252990723,1.7757033109664917,10.582706451416016,1.1680351495742798,-0.1766888052225113,0.9471533894538879,0.7069385051727295,15.564611434936523,-26.39362335205078,27.654159545898438,1.0163006782531738,0.08289051055908203,-0.4294215440750122,0.7594026923179626,10.499815940856934,1.597456693649292
2_20251106_213402,1762436007113,2,0.11464246362447739,0.13893315196037292,0.6450013518333435,0.7426493167877197,-0.17786647379398346,3.3208043575286865,1.1203030347824097,2.2712817192077637,10.66889476776123,1.4014596939086914,-0.14797817170619965,0.8213152289390564,0.7167123556137085,14.86642837524414,-26.67992401123047,27.94607162475586,1.209503173828125,0.13526344299316406,-0.1567976474761963,1.0617785453796387,10.533631324768066,1.5582573413848877
2_20251106_213402,1762436007132,2,0.10491704940795898,0.13789775967597961,0.6437987685203552,0.745318591594696,-0.13943485915660858,3.336632251739502,1.1432818174362183,2.566953182220459,10.589889526367188,1.6516430377960205,-0.14797817170619965,0.8213152289390564,0.7167123556137085,14.158866882324219,-26.92840576171875,28.14366912841797,1.2041397094726562,0.04500579833984375,0.07470858097076416,1.3628134727478027,10.544883728027344,1.5769344568252563
2_20251106_213402,1762436007151,2,0.09568843245506287,0.13676516711711884,0.6428773999214172,0.7475611567497253,-0.09927630424499512,3.35174298286438,1.1641212701797485,2.692643165588379,10.571932792663574,1.2159171104431152,-0.07406352460384369,0.7700026035308838,0.5505571365356445,13.507827758789062,-27.012351989746094,28.535888671875,1.063863754272461,0.021638870239257812,-0.28881382942199707,1.628779411315918,10.550293922424316,1.5047309398651123
2_20251106_213402,1762436007170,2,0.08748818188905716,0.1353934407234192,0.6421063542366028,0.7494757175445557,-0.05816088616847992,3.3656747341156006,1.1826074123382568,2.709402084350586,10.395967483520508,1.0267833471298218,-0.09116774052381516,0.7315180897712708,0.4864163100719452,12.879429817199707,-27.143455505371094,28.779354095458984,0.8644981384277344,-0.12346076965332031,-0.382358193397522,1.8449039459228516,10.519428253173828,1.4091415405273438
2_20251106_213402,1762436007190,2,0.07995860278606415,0.13387787342071533,0.641304075717926,0.7512738704681396,-0.0139661505818367,3.37918758392334,1.2003532648086548,2.8578362464904785,10.381603240966797,1.1656410694122314,-0.14919988811016083,0.688757598400116,0.45709478855133057,12.292621612548828,-27.18414306640625,29.012622833251953,0.8103458881378174,-0.110260009765625,-0.19480037689208984,2.047490358352661,10.491863250732422,1.3604414463043213
2_20251106_213402,1762436007210,2,0.07304300367832184,0.132489874958992,0.6400753855705261,0.7532693147659302,0.028655201196670532,3.3910868167877197,1.216895341873169,3.0445756912231445,10.38399600982666,1.5522880554199219,-0.14919988811016083,0.688757598400116,0.45709478855133057,11.78286361694336,-27.145126342773438,29.290966033935547,0.79766845703125,-0.08629417419433594,0.15347731113433838,2.2469072341918945,10.470290184020996,1.3988107442855835
2_20251106_213402,1762436007229,2,0.06682678312063217,0.13096749782562256,0.6386156678199768,0.7553487420082092,0.07387614250183105,3.4024837017059326,1.2338166236877441,3.102034091949463,10.304990768432617,1.5235588550567627,-0.1143805980682373,0.624616801738739,0.3165959119796753,11.273005485534668,-27.106246948242188,29.58282470703125,0.6841015815734863,-0.13223934173583984,0.09979844093322754,2.4179325103759766,10.437230110168457,1.4237604141235352
2_20251106_213402,1762436007247,2,0.061328865587711334,0.1292770355939865,0.6376033425331116,0.7569597959518433,0.07387614250183105,3.4024837017059326,1.2338166236877441,3.102034091949463,10.304990768432617,1.5235588550567627,-0.02397262118756771,0.5189372301101685,0.2903287410736084,10.849254608154297,-27.049110412597656,29.864864349365234,0.6841015815734863,-0.13223934173583984,0.09979844093322754,2.4179325103759766,10.437230110168457,1.4237604141235352
2_20251106_213402,1762436007267,2,0.05648387223482132,0.12818479537963867,0.6372101306915283,0.7578532099723816,0.15908636152744293,3.42059063911438,1.2611476182937622,3.2361035346984863,10.184089660644531,1.0124187469482422,-0.02397262118756771,0.5189372301101685,0.2903287410736084,10.466277122497559,-26.925865173339844,30.05508041381836,0.5418245792388916,-0.16066837310791016,-0.28509294986724854,2.6942789554595947,10.344758033752441,1.2975116968154907
2_20251106_213402,1762436007285,2,0.05235186591744423,0.12820740044116974,0.6369735598564148,0.7583447694778442,0.19896677136421204,3.428109645843506,1.2723522186279297,3.36897611618042,10.277459144592285,1.1644439697265625,0.004127155989408493,0.3839361071586609,0.3049894869327545,10.107869148254395,-26.800758361816406,30.21924591064453,0.5397577285766602,-0.05383872985839844,-0.10645425319671631,2.8292183876037598,10.331297874450684,1.2708982229232788
2_20251106_213402,1762436007304,2,0.04897405952215195,0.12843364477157593,0.6366201639175415,0.7588288187980652,0.19896677136421204,3.428109645843506,1.2723522186279297,3.36897611618042,10.277459144592285,1.1644439697265625,-0.06673315167427063,0.39676427841186523,0.15288415551185608,9.79748821258545,-26.69664764404297,30.290233612060547,0.5397577285766602,-0.05383872985839844,-0.10645425319671631,2.8292183876037598,10.331297874450684,1.2708982229232788
2_20251106_213402,1762436007324,2,0.046009283512830734,0.1274937242269516,0.6360240578651428,0.759672224521637,0.28130218386650085,3.4426896572113037,1.2927995920181274,3.333064556121826,10.293020248413086,0.9070784449577332,-0.1247652992606163,0.4340270161628723,0.03926333039999008,9.501222610473633,-26.542724609375,30.484413146972656,0.3146088123321533,-0.02832794189453125,-0.27000099420547485,3.018455743789673,10.321348190307617,1.177079439163208
2_20251106_213402,1762436007342,2,0.043685007840394974,0.12554249167442322,0.6351706385612488,0.7608475089073181,0.32004401087760925,3.448845148086548,1.3012161254882812,3.098443031311035,10.12902545928955,0.9669308662414551,-0.1247652992606163,0.4340270161628723,0.03926333039999008,9.226510047912598,-26.43744659423828,30.678516387939453,0.06398987770080566,-0.15385913848876953,-0.16811883449554443,3.0344531536102295,10.28288459777832,1.1350497007369995
2_20251106_213402,1762436007362,2,0.04229884594678879,0.12378191202878952,0.634252667427063,0.7619792819023132,0.3582707345485687,3.454103469848633,1.3095182180404663,2.865018129348755,9.987773895263672,1.0974092483520508,-0.1455347090959549,0.35339289903640747,-0.021212277933955193,8.936580657958984,-26.39507293701172,30.803226470947266,-0.13554787635803223,-0.23608875274658203,-0.030112385749816895,3.000566005706787,10.223862648010254,1.1275216341018677
2_20251106_213402,1762436007380,2,0.04163689166307449,0.12259604781866074,0.6336134076118469,0.7627388834953308,0.39018458127975464,3.4580414295196533,1.3165335655212402,2.6878550052642822,9.997349739074707,1.093818187713623,-0.05757018178701401,0.20922879874706268,-0.056642428040504456,8.737482070922852,-26.25843048095703,30.852123260498047,-0.2501688003540039,-0.18121051788330078,-0.026962757110595703,2.938023805618286,10.178560256958008,1.1207809448242188
2_20251106_213402,1762436007401,2,0.04126045107841492,0.12154658883810043,0.6333059668540955,0.763182520866394,0.42106717824935913,3.461282968521118,1.322975516319275,2.529844284057617,9.920738220214844,0.90468430519104,-0.05940277501940727,0.19517891108989716,-0.06397280097007751,8.54635238647461,-26.184722900390625,30.99480438232422,-0.32654356956481934,-0.20625686645507812,-0.17287731170654297,2.8563878536224365,10.126995086669922,1.077561616897583
2_20251106_213402,1762436007421,2,0.04101734980940819,0.12049543112516403,0.633001983165741,0.7636143565177917,0.42106717824935913,3.461282968521118,1.322975516319275,2.529844284057617,9.920738220214844,0.90468430519104,-0.10155244171619415,0.14875319600105286,-0.060307614505290985,8.36901569366455,-26.0848388671875,31.111469268798828,-0.32654356956481934,-0.20625686645507812,-0.17287731170654297,2.8563878536224365,10.126995086669922,1.077561616897583
2_20251106_213402,1762436007439,2,0.04104034602642059,0.11972157657146454,0.6324167847633362,0.7642195224761963,0.4547303318977356,3.4641335010528564,1.3298474550247192,2.3957748413085938,9.908767700195312,0.9441869258880615,-0.10155244171619415,0.14875319600105286,-0.060307614505290985,8.285247802734375,-26.04192352294922,31.284801483154297,-0.36849021911621094,-0.17458152770996094,-0.10669970512390137,2.7642650604248047,10.083349227905273,1.050886631011963
2_20251106_213402,1762436007458,2,0.04144536331295967,0.11943282932043076,0.631747841835022,0.7647958993911743,0.4999288022518158,3.4669196605682373,1.3407576084136963,2.139606475830078,9.877644538879395,1.2159171104431152,-0.08505909144878387,0.057123489677906036,-0.04198167473077774,8.208930015563965,-26.085838317871094,31.429744720458984,-0.4229564666748047,-0.1333751678466797,0.11193990707397461,2.562562942504883,10.011019706726074,1.1039772033691406
2_20251106_213402,1762436007476,2,0.04194992408156395,0.11942636221647263,0.6311818361282349,0.7652366161346436,0.5192425847053528,3.4676895141601562,1.3460707664489746,2.168335437774658,9.881235122680664,1.142897129058838,-0.0734526664018631,0.024136792868375778,-0.00960584543645382,8.208930015563965,-26.085838317871094,31.429744720458984,-0.3153820037841797,-0.10382747650146484,0.031135916709899902,2.483717441558838,9.985062599182129,1.111761212348938
2_20251106_213402,1762436007496,2,0.04235745221376419,0.11977476626634598,0.6306602358818054,0.7655896544456482,0.5380895733833313,3.4683048725128174,1.3515760898590088,2.2940258979797363,9.927921295166016,1.1764144897460938,-0.0734526664018631,0.024136792868375778,-0.00960584543645382,8.150522232055664,-26.03998565673828,31.46889877319336,-0.15175318717956543,-0.04571247100830078,0.05172264575958252,2.4457790851593018,9.973633766174316,1.1246918439865112
2_20251106_213402,1762436007514,2,0.04297493025660515,0.12052647769451141,0.6301792860031128,0.7658332586288452,0.5380895733833313,3.4683048725128174,1.3515760898590088,2.2940258979797363,9.927921295166016,1.1764144897460938,-0.0630679577589035,-0.07115810364484787,-0.02548833005130291,8.126954078674316,-26.02887725830078,31.454666137695312,-0.15175318717956543,-0.04571247100830078,0.05172264575958252,2.4457790851593018,9.973633766174316,1.1246918439865112
2_20251106_213402,1762436007534,2,0.04409352317452431,0.12155268341302872,0.6297099590301514,0.7659935355186462,0.5575909614562988,3.468966245651245,1.357758641242981,2.359863519668579,9.97819709777832,1.2446463108062744,-0.0630679577589035,-0.07115810364484787,-0.02548833005130291,8.153342247009277,-25.98975372314453,31.469955444335938,-0.06873250007629395,0.003650665283203125,0.09596359729766846,2.428596019744873,9.974546432495117,1.148682713508606
2_20251106_213402,1762436007553,2,0.045718371868133545,0.12272104620933533,0.6293575167655945,0.7660016417503357,0.5889042615890503,3.470188856124878,1.3696610927581787,2.345499038696289,9.969817161560059,1.4074450731277466,-0.036189913749694824,-0.13774235546588898,-0.09695949405431747,8.199675559997559,-26.02465057373047,31.511672973632812,-0.053948163986206055,-0.008581161499023438,0.16828930377960205,2.399447202682495,9.978398323059082,1.2391557693481445
2_20251106_213402,1762436007572,2,0.047284118831157684,0.12345870584249496,0.6291680335998535,0.765943706035614,0.6034305691719055,3.4708595275878906,1.37555730342865,2.311981678009033,10.016502380371094,1.2314786911010742,-0.011755326762795448,-0.18477894365787506,-0.1256701648235321,8.258378982543945,-26.070098876953125,31.43197250366211,-0.06997251510620117,0.030483245849609375,-0.00614166259765625,2.3819541931152344,9.986019134521484,1.2376203536987305
2_20251106_213402,1762436007591,2,0.04959234222769737,0.12655587494373322,0.6291916370391846,0.7652725577354431,0.6034305691719055,3.4708595275878906,1.37555730342865,2.311981678009033,10.016502380371094,1.2314786911010742,0.01451185718178749,-0.26296961307525635,-0.14949387311935425,8.316081047058105,-26.128509521484375,31.392555236816406,-0.06997251510620117,0.030483245849609375,-0.00614166259765625,2.3819541931152344,9.986019134521484,1.2376203536987305
2_20251106_213402,1762436007611,2,0.05250730738043785,0.13002657890319824,0.6295981407165527,0.7641611099243164,0.6286712288856506,3.4714841842651367,1.38693106174469,2.1132712364196777,9.888418197631836,1.2649961709976196,0.0010728323832154274,-0.2867933511734009,-0.15499165654182434,8.39905834197998,-26.172508239746094,31.327350616455078,-0.18249106407165527,-0.06629467010498047,0.01043403148651123,2.295762300491333,9.954712867736816,1.2545621395111084
2_20251106_213402,1762436007630,2,0.055596958845853806,0.13329988718032837,0.6297942996025085,0.7632163763046265,0.6396217346191406,3.4718124866485596,1.392539381980896,2.1455917358398438,10.009320259094238,1.3763216733932495,-0.03191386163234711,-0.3277212977409363,-0.1672089546918869,8.506505966186523,-26.21477508544922,31.249610900878906,-0.12013649940490723,0.0436859130859375,0.09740769863128662,2.265728235244751,9.9656343460083,1.278913974761963
2_20251106_213402,1762436007649,2,0.059118058532476425,0.1366889625787735,0.6297731995582581,0.7623692750930786,0.6396217346191406,3.4718124866485596,1.392539381980896,2.1455917358398438,10.009320259094238,1.3763216733932495,-0.03191386163234711,-0.3277212977409363,-0.1672089546918869,8.648904800415039,-26.280044555664062,31.199848175048828,-0.12013649940490723,0.0436859130859375,0.09740769863128662,2.265728235244751,9.9656343460083,1.278913974761963
2_20251106_213402,1762436007668,2,0.06281427294015884,0.13983917236328125,0.6295218467712402,0.7617096304893494,0.6505686640739441,3.472259521484375,1.3993443250656128,2.1013007164001465,9.996152877807617,1.5522880554199219,-0.04718548059463501,-0.3210017681121826,-0.22646284103393555,8.813758850097656,-26.381126403808594,31.123241424560547,-0.13154196739196777,0.024415016174316406,0.21869921684265137,2.2328426837921143,9.9717378616333,1.3335888385772705
2_20251106_213402,1762436007687,2,0.06659737229347229,0.14254942536354065,0.629124104976654,0.7612143158912659,0.6665750741958618,3.4726200103759766,1.411141037940979,1.9133639335632324,9.919541358947754,1.3021047115325928,-0.02152916230261326,-0.362540602684021,-0.22707369923591614,9.016988754272461,-26.44255828857422,31.089447021484375,-0.21883106231689453,-0.03359699249267578,-0.05098581314086914,2.132194995880127,9.95313835144043,1.353090524673462
2_20251106_213402,1762436007705,2,0.07066572457551956,0.14547042548656464,0.6289347410202026,0.7604510188102722,0.6727844476699829,3.47265362739563,1.4160569906234741,1.865481972694397,9.92193603515625,1.2254934310913086,-0.02152916230261326,-0.362540602684021,-0.22707369923591614,9.195029258728027,-26.529891967773438,30.973045349121094,-0.2133704423904419,-0.024961471557617188,-0.10207772254943848,2.078852415084839,9.946897506713867,1.327571153640747
2_20251106_213402,1762436007725,2,0.07512348145246506,0.14878307282924652,0.6289840340614319,0.7593412399291992,0.678514301776886,3.472586154937744,1.4211597442626953,1.8978023529052734,9.909964561462402,1.3906863927841187,-0.05573758855462074,-0.454170286655426,-0.22707369923591614,9.459275245666504,-26.598838806152344,30.833309173583984,-0.14484000205993652,-0.029546737670898438,0.050492167472839355,2.04264235496521,9.9395112991333,1.3401942253112793
2_20251106_213402,1762436007743,2,0.07975451648235321,0.1521499752998352,0.6287896633148193,0.7583621740341187,0.678514301776886,3.472586154937744,1.4211597442626953,1.8978023529052734,9.909964561462402,1.3906863927841187,-0.07223093509674072,-0.4657767415046692,-0.24601051211357117,9.71878433227539,-26.755409240722656,30.664691925048828,-0.14484000205993652,-0.029546737670898438,0.050492167472839355,2.04264235496521,9.9395112991333,1.3401942253112793
2_20251106_213402,1762436007763,2,0.08460917323827744,0.1554967314004898,0.6282389760017395,0.7576132416725159,0.6879746317863464,3.4712936878204346,1.4327651262283325,1.8630878925323486,9.724422454833984,1.6648106575012207,-0.05634845048189163,-0.4749397039413452,-0.2661690413951874,9.968124389648438,-26.87523651123047,30.509891510009766,-0.12066054344177246,-0.15182971954345703,0.21848011016845703,1.983748435974121,9.876252174377441,1.4463305473327637
2_20251106_213402,1762436007782,2,0.08955541998147964,0.15869665145874023,0.6275328397750854,0.7569661140441895,0.6915873885154724,3.4695441722869873,1.4389920234680176,1.7290184497833252,9.59394359588623,1.5151793956756592,-0.00625754427164793,-0.5079264044761658,-0.2808297872543335,10.239819526672363,-27.03101348876953,30.341766357421875,-0.20378398895263672,-0.2258472442626953,0.055079102516174316,1.932802438735962,9.819790840148926,1.4601002931594849
2_20251106_213402,1762436007801,2,0.09470211714506149,0.16201116144657135,0.6270582675933838,0.756030261516571,0.6939965486526489,3.467033624649048,1.4442604780197144,1.6224809885025024,9.480223655700684,1.3320308923721313,-0.00625754427164793,-0.5079264044761658,-0.2808297872543335,10.523391723632812,-27.198013305664062,30.119800567626953,-0.24825716018676758,-0.2716531753540039,-0.1024554967880249,1.87073814868927,9.751876831054688,1.4344863891601562
2_20251106_213402,1762436007820,2,0.10007679462432861,0.16546842455863953,0.6267128586769104,0.7548747062683105,0.6954090595245361,3.463845729827881,1.4490622282028198,1.5638254880905151,9.374883651733398,1.4589180946350098,-0.067954882979393,-0.5702345967292786,-0.26861250400543213,10.805962562561035,-27.377975463867188,29.938121795654297,-0.2455301284790039,-0.30159473419189453,0.019545435905456543,1.809355616569519,9.676478385925293,1.4393726587295532
2_20251106_213402,1762436007839,2,0.10562485456466675,0.16901026666164398,0.6260767579078674,0.7538613080978394,0.6961463093757629,3.4598731994628906,1.4539427757263184,1.5614315271377563,9.476633071899414,1.3775187730789185,-0.11682406067848206,-0.5714563131332397,-0.25150829553604126,11.052061080932617,-27.571800231933594,29.646575927734375,-0.19833922386169434,-0.15987586975097656,-0.04948318004608154,1.7597707509994507,9.63650894165039,1.427001953125
2_20251106_213402,1762436007859,2,0.11112067103385925,0.17247016727924347,0.6248866319656372,0.7532747983932495,0.6962292194366455,3.455824375152588,1.4590001106262207,1.5566432476043701,9.546061515808105,1.5654555559158325,-0.15714113414287567,-0.6111624836921692,-0.2594495117664337,11.467057228088379,-27.78002166748047,29.40191650390625,-0.16250205039978027,-0.0723581314086914,0.11076295375823975,1.7191452980041504,9.618419647216797,1.4546926021575928
2_20251106_213402,1762436007879,2,0.11694055795669556,0.17614655196666718,0.6234831213951111,0.7527058124542236,0.6955790519714355,3.451998233795166,1.4641047716140747,1.4548940658569336,9.555638313293457,1.6516430377960205,-0.16508238017559052,-0.601388692855835,-0.28754928708076477,11.748403549194336,-27.996444702148438,29.097797393798828,-0.21140098571777344,-0.050225257873535156,0.1575603485107422,1.666295051574707,9.605863571166992,1.4940826892852783
2_20251106_213402,1762436007897,2,0.12297043204307556,0.17955289781093597,0.6218417286872864,0.7522977590560913,0.6937836408615112,3.4479496479034424,1.4693963527679443,1.237031102180481,9.455085754394531,1.6552343368530273,-0.16508238017559052,-0.601388692855835,-0.28754928708076477,11.748403549194336,-27.996444702148438,29.097797393798828,-0.3434112071990967,-0.12062263488769531,0.12892138957977295,1.5804423093795776,9.575708389282227,1.5263129472732544
2_20251106_213402,1762436007917,2,0.12917514145374298,0.18250951170921326,0.6202290654182434,0.7518776059150696,0.6905803680419922,3.4434397220611572,1.4747631549835205,1.1173261404037476,9.42396354675293,1.551090955734253,-0.16263891756534576,-0.6050538420677185,-0.3223685920238495,12.045360565185547,-28.14942169189453,28.809005737304688,-0.37049293518066406,-0.12139606475830078,0.019822359085083008,1.4878190755844116,9.54535961151123,1.53126859664917
2_20251106_213402,1762436007936,2,0.13536100089550018,0.18523339927196503,0.6186370253562927,0.7514347434043884,0.6905803680419922,3.4434397220611572,1.4747631549835205,1.1173261404037476,9.42396354675293,1.551090955734253,-0.1455347090959549,-0.6869097352027893,-0.28327322006225586,12.340499877929688,-28.33966827392578,28.47887420654297,-0.37049293518066406,-0.12139606475830078,0.019822359085083008,1.4878190755844116,9.54535961151123,1.53126859664917
2_20251106_213402,1762436007954,2,0.14178675413131714,0.18855950236320496,0.617185115814209,0.7506160140037537,0.6820441484451294,3.4360196590423584,1.4842865467071533,1.007197618484497,9.59274673461914,1.7043132781982422,-0.14797817170619965,-0.740665853023529,-0.2924362123012543,12.660603523254395,-28.527511596679688,28.068622589111328,-0.3223453760147095,0.030710220336914062,0.13966917991638184,1.3295429944992065,9.562036514282227,1.5646440982818604
2_20251106_213402,1762436007973,2,0.14861652255058289,0.1922416090965271,0.6156981587409973,0.7495812773704529,0.6766625046730042,3.4325640201568604,1.4893711805343628,0.8970690965652466,9.492195129394531,1.8084566593170166,-0.14797817170619965,-0.740665853023529,-0.2924362123012543,12.993611335754395,-28.690391540527344,27.754005432128906,-0.34597909450531006,-0.05587291717529297,0.19505000114440918,1.2430481910705566,9.548068046569824,1.6134066581726074
2_20251106_213402,1762436007992,2,0.1554356813430786,0.19529052078723907,0.6139447093009949,0.7488479614257812,0.6698500514030457,3.428772211074829,1.4953057765960693,0.8707339763641357,9.500574111938477,1.800077199935913,-0.19929079711437225,-0.7131769061088562,-0.3205359876155853,13.314334869384766,-28.854202270507812,27.452411651611328,-0.29785144329071045,-0.037995338439941406,0.14933645725250244,1.1685854196548462,9.538569450378418,1.6507407426834106
2_20251106_213402,1762436008011,2,0.16226840019226074,0.1980149745941162,0.611916720867157,0.7483428120613098,0.6628156304359436,3.4249796867370605,1.5011305809020996,0.8455959558486938,9.403614044189453,1.8216240406036377,-0.17913226783275604,-0.7541048526763916,-0.31381648778915405,13.644523620605469,-29.06731414794922,27.136737823486328,-0.25839149951934814,-0.10796451568603516,0.13670659065246582,1.103987455368042,9.511578559875488,1.6849174499511719
2_20251106_213402,1762436008030,2,0.16915492713451385,0.20105303823947906,0.6099758148193359,0.7475919723510742,0.6552138328552246,3.421592950820923,1.506733775138855,0.7689847946166992,9.590353012084961,1.7102985382080078,-0.17913226783275604,-0.7541048526763916,-0.31381648778915405,13.978829383850098,-29.216827392578125,26.741287231445312,-0.26800215244293213,0.0630197525024414,0.02030479907989502,1.0369869470596313,9.52733325958252,1.6899937391281128
2_20251106_213402,1762436008049,2,0.1760842502117157,0.20446456968784332,0.6079449653625488,0.7467204928398132,0.6470170617103577,3.4184696674346924,1.5122997760772705,0.6816002130508423,9.561622619628906,1.7785303592681885,-0.17485620081424713,-0.8194673657417297,-0.3211468458175659,14.37195110321045,-29.400039672851562,26.347496032714844,-0.28430938720703125,0.027431488037109375,0.07082939147949219,0.9659096002578735,9.534191131591797,1.7077009677886963
2_20251106_213402,1762436008069,2,0.1834975928068161,0.20800155401229858,0.6060270667076111,0.7455167174339294,0.6374174356460571,3.414614677429199,1.518175721168518,0.5044368505477905,9.293484687805176,1.8096535205841064,-0.17485620081424713,-0.8194673657417297,-0.3211468458175659,14.775750160217285,-29.607711791992188,25.967182159423828,-0.3691781759262085,-0.1925649642944336,0.08156204223632812,0.873615026473999,9.48604965209961,1.7280914783477783
2_20251106_213402,1762436008090,2,0.1909230351448059,0.21114948391914368,0.6039769649505615,0.7444300651550293,0.6276489496231079,3.410449504852295,1.523584246635437,0.47091948986053467,9.236026763916016,1.7665598392486572,-0.24632738530635834,-0.7693764567375183,-0.3022100329399109,15.205838203430176,-29.776390075683594,25.615676879882812,-0.3221564292907715,-0.20001888275146484,0.030774593353271484,0.7930759191513062,9.43604564666748,1.7357852458953857
2_20251106_213402,1762436008108,2,0.19791732728481293,0.2142651081085205,0.6014537215232849,0.7437557578086853,0.6183145642280579,3.406161308288574,1.5286928415298462,0.5726686716079712,9.216873168945312,1.833594560623169,-0.29214221239089966,-0.7718199491500854,-0.25211915373802185,15.624741554260254,-29.932899475097656,25.22339630126953,-0.17632579803466797,-0.1753377914428711,0.07824742794036865,0.7489944696426392,9.392210960388184,1.7553471326828003
2_20251106_213402,1762436008126,2,0.20464974641799927,0.2175896316766739,0.5984708666801453,0.7433746457099915,0.6087069511413574,3.4019317626953125,1.534056544303894,0.6588562726974487,9.417978286743164,1.8431710004806519,-0.2738162875175476,-0.813358724117279,-0.23196062445640564,16.0180606842041,-30.1158447265625,24.802574157714844,-0.07211059331893921,0.020613670349121094,0.0702592134475708,0.7309668660163879,9.397364616394043,1.772911787033081
2_20251106_213402,1762436008145,2,0.2114405333995819,0.22139288485050201,0.5954309701919556,0.7427920699119568,0.5991946458816528,3.398009777069092,1.5395418405532837,0.5906244516372681,9.432342529296875,1.9149938821792603,-0.24693824350833893,-0.8738343119621277,-0.2612821161746979,16.41489028930664,-30.24761962890625,24.288192749023438,-0.1122739315032959,0.027982711791992188,0.11366569995880127,0.702898383140564,9.404359817504883,1.801328182220459
2_20251106_213402,1762436008164,2,0.21862190961837769,0.22545886039733887,0.5925047397613525,0.7418294548988342,0.5886169075965881,3.3936634063720703,1.5456966161727905,0.3524115979671478,9.264755249023438,2.021531581878662,-0.26037728786468506,-0.8701691627502441,-0.29793399572372437,16.873371124267578,-30.35124969482422,23.87140655517578,-0.2803894579410553,-0.11168384552001953,0.1761627197265625,0.6328010559082031,9.376439094543457,1.8453688621520996
2_20251106_213402,1762436008184,2,0.22607658803462982,0.22924570739269257,0.5895164012908936,0.7408145666122437,0.5772316455841064,3.3890419006347656,1.5518935918807983,0.19320401549339294,9.214479446411133,1.960481882095337,-0.3000834584236145,-0.8261868953704834,-0.29426878690719604,17.220256805419922,-30.499427795410156,23.422382354736328,-0.35167762637138367,-0.12956809997558594,0.09209036827087402,0.5448816418647766,9.344047546386719,1.868391513824463
2_20251106_213402,1762436008203,2,0.2332967221736908,0.23254236578941345,0.5863050818443298,0.7400966882705688,0.5659029483795166,3.3850016593933105,1.5578211545944214,0.16088369488716125,9.391643524169922,1.990408182144165,-0.3465092182159424,-0.8390150666236877,-0.2508974075317383,17.610313415527344,-30.617630004882812,22.944839477539062,-0.30719834566116333,0.03807640075683594,0.09761333465576172,0.4680820405483246,9.353567123413086,1.8927948474884033
2_20251106_213402,1762436008221,2,0.24040423333644867,0.23605084419250488,0.5826167464256287,0.7396239638328552,0.5659029483795166,3.3850016593933105,1.5578211545944214,0.16088369488716125,9.391643524169922,1.990408182144165,-0.3666677474975586,-0.8713908791542053,-0.22585198283195496,17.949737548828125,-30.690589904785156,22.429325103759766,-0.30719834566116333,0.03807640075683594,0.09761333465576172,0.4680820405483246,9.353567123413086,1.8927948474884033
2_20251106_213402,1762436008241,2,0.24750246107578278,0.23983034491539001,0.5786353349685669,0.7391921877861023,0.542655885219574,3.3791139125823975,1.5717717409133911,0.10103122144937515,9.596338272094727,2.4859867095947266,-0.3904914855957031,-0.8854407668113708,-0.2496756911277771,18.26226806640625,-30.814964294433594,21.871227264404297,-0.2523415982723236,0.1628437042236328,0.4280993938446045,0.35337281227111816,9.433494567871094,2.057887315750122
2_20251106_213402,1762436008260,2,0.25501206517219543,0.2428472936153412,0.5746973752975464,0.7387266159057617,0.5300436019897461,3.377087354660034,1.5808322429656982,-0.17429013550281525,9.587959289550781,2.7505345344543457,-0.41553688049316406,-0.813969612121582,-0.26800161600112915,18.58729362487793,-30.926528930664062,21.36794662475586,-0.4221303462982178,0.12357139587402344,0.5541176795959473,0.24784022569656372,9.464387893676758,2.1964168548583984
2_20251106_213402,1762436008279,2,0.26214441657066345,0.2457726001739502,0.5704697966575623,0.7385393381118774,0.5300436019897461,3.377087354660034,1.5808322429656982,-0.17429013550281525,9.587959289550781,2.7505345344543457,-0.4124825596809387,-0.7528831362724304,-0.2337931990623474,18.983604431152344,-31.082199096679688,20.73139190673828,-0.4221303462982178,0.12357139587402344,0.5541176795959473,0.24784022569656372,9.464387893676758,2.1964168548583984
2_20251106_213402,1762436008299,2,0.26867932081222534,0.24834856390953064,0.566294252872467,0.7385426759719849,0.5157222747802734,3.3754727840423584,1.591620922088623,-0.3143449127674103,9.599928855895996,2.764899253845215,-0.388047993183136,-0.776095986366272,-0.17637193202972412,19.344877243041992,-31.203392028808594,20.175254821777344,-0.44974812865257263,0.10843276977539062,0.4547858238220215,0.13540321588516235,9.491496086120605,2.3101134300231934
2_20251106_213402,1762436008319,2,0.27493220567703247,0.25147056579589844,0.5620568990707397,0.7384218573570251,0.5002142190933228,3.374574661254883,1.604400396347046,-0.22935441136360168,9.704072952270508,2.9121360778808594,-0.3654460310935974,-0.8066392540931702,-0.14582869410514832,19.644306182861328,-31.352996826171875,19.54855728149414,-0.29180610179901123,0.1700611114501953,0.48161816596984863,0.06245169788599014,9.534011840820312,2.4305179119110107
2_20251106_213402,1762436008336,2,0.2809983491897583,0.2549840807914734,0.5577901601791382,0.7381687760353088,0.4745575785636902,3.374840021133423,1.6309078931808472,-0.1551373451948166,9.804624557495117,3.7740116119384766,-0.36483514308929443,-0.7748742699623108,-0.13788744807243347,19.644306182861328,-31.352996826171875,19.54855728149414,-0.13274504244327545,0.1772136688232422,0.9297435283660889,-0.022392302751541138,9.627410888671875,2.8442680835723877
2_20251106_213402,1762436008356,2,0.2867649495601654,0.25822713971138,0.5535200238227844,0.7380380630493164,0.4603974521160126,3.3758351802825928,1.6499890089035034,-0.16351668536663055,9.816595077514648,4.042150497436523,-0.34834176301956177,-0.7143986821174622,-0.13544398546218872,19.982208251953125,-31.46282196044922,18.951152801513672,-0.11289950460195541,0.15134716033935547,0.958305835723877,-0.05061718076467514,9.665247917175293,3.0838446617126465
2_20251106_213402,1762436008375,2,0.2921786606311798,0.26108625531196594,0.5494173765182495,0.7379743456840515,0.4475676417350769,3.3771157264709473,1.6703546047210693,-0.06894980370998383,9.804624557495117,4.2300872802734375,-0.3257398009300232,-0.6062756180763245,-0.12505929172039032,20.27297592163086,-31.550437927246094,18.32528305053711,-0.014666099101305008,0.11150169372558594,0.9169940948486328,-0.05428370460867882,9.693122863769531,3.3130931854248047
2_20251106_213402,1762436008393,2,0.29683980345726013,0.2632322311401367,0.5457080602645874,0.7381041049957275,0.4363354444503784,3.3780946731567383,1.690063238143921,0.07349909096956253,9.622673034667969,3.8733668327331543,-0.24693824350833893,-0.5506868958473206,-0.11284198611974716,20.561443328857422,-31.664382934570312,17.82052993774414,0.10222624242305756,-0.05636024475097656,0.44821882247924805,-0.028727147728204727,9.679033279418945,3.4251480102539062
2_20251106_213402,1762436008413,2,0.3008420467376709,0.2652224600315094,0.5426532626152039,0.7380234003067017,0.4363354444503784,3.3780946731567383,1.690063238143921,0.07349909096956253,9.622673034667969,3.8733668327331543,-0.1455347090959549,-0.6575882434844971,-0.10428988188505173,20.787273406982422,-31.807815551757812,17.353347778320312,0.10222624242305756,-0.05636024475097656,0.44821882247924805,-0.028727147728204727,9.679033279418945,3.4251480102539062
2_20251106_213402,1762436008432,2,0.3053387701511383,0.2685755789279938,0.5398997068405151,0.7369828224182129,0.4241608679294586,3.378188371658325,1.712490439414978,0.05314923822879791,9.383262634277344,3.599242687225342,-0.0942220613360405,-0.7040139436721802,-0.09085085242986679,21.115314483642578,-31.868881225585938,16.824092864990234,0.06550110876560211,-0.2366161346435547,0.13927555084228516,-0.012351871468126774,9.619878768920898,3.4599671363830566
2_20251106_213402,1762436008453,2,0.3094571530818939,0.27220892906188965,0.5374918580055237,0.7356908917427063,0.4026479125022888,3.376542568206787,1.750182867050171,-0.13239338994026184,9.42635726928711,3.0857083797454834,-0.0942220613360405,-0.7040139436721802,-0.09085085242986679,21.295124053955078,-31.96540069580078,16.369518280029297,-0.08908435702323914,-0.11580944061279297,-0.3029212951660156,-0.043309032917022705,9.542166709899902,3.388629674911499
2_20251106_213402,1762436008470,2,0.31364762783050537,0.27542054653167725,0.5352824926376343,0.7343305349349976,0.3933599889278412,3.375347137451172,1.7640386819839478,-0.2604776620864868,9.380868911743164,2.9887473583221436,-0.1559194028377533,-0.5690128207206726,-0.13910917937755585,21.465255737304688,-32.024505615234375,15.861184120178223,-0.1737349033355713,-0.12903785705566406,-0.31990599632263184,-0.08674275875091553,9.509906768798828,3.3086533546447754
2_20251106_213402,1762436008489,2,0.31768935918807983,0.27777308225631714,0.5329975485801697,0.7333683967590332,0.3933599889278412,3.375347137451172,1.7640386819839478,-0.2604776620864868,9.380868911743164,2.9887473583221436,-0.25671207904815674,-0.4401203989982605,-0.13910917937755585,21.67405891418457,-32.043548583984375,15.355111122131348,-0.1737349033355713,-0.12903785705566406,-0.31990599632263184,-0.08674275875091553,9.509906768798828,3.3086533546447754
2_20251106_213402,1762436008510,2,0.32137054204940796,0.27892065048217773,0.5304057002067566,0.7332080602645874,0.3701682686805725,3.372393846511841,1.7928541898727417,-0.502281665802002,9.473041534423828,3.203019142150879,-0.29214221239089966,-0.352766752243042,-0.11895062774419785,21.856178283691406,-32.10212707519531,14.874299049377441,-0.28222477436065674,-0.02263641357421875,-0.05266690254211426,-0.22005689144134521,9.495677947998047,3.255686044692993
2_20251106_213402,1762436008528,2,0.32459214329719543,0.27942875027656555,0.5277677178382874,0.7334989905357361,0.3701682686805725,3.372393846511841,1.7928541898727417,-0.502281665802002,9.473041534423828,3.203019142150879,-0.29641830921173096,-0.34910154342651367,-0.07130318135023117,22.074769973754883,-32.14684295654297,14.503352165222168,-0.28222477436065674,-0.02263641357421875,-0.05266690254211426,-0.22005689144134521,9.495677947998047,3.255686044692993
2_20251106_213402,1762436008546,2,0.32751521468162537,0.28013691306114197,0.524963915348053,0.733941376209259,0.3482417166233063,3.3708410263061523,1.8180656433105469,-0.5166462659835815,9.719635009765625,3.785982131958008,-0.3061921000480652,-0.3423820436000824,-0.02182314172387123,22.269893646240234,-32.180320739746094,14.104655265808105,-0.18675273656845093,0.16344261169433594,0.39493250846862793,-0.3298935294151306,9.556192398071289,3.39104962348938
2_20251106_213402,1762436008566,2,0.33001652359962463,0.2809363901615143,0.5219807624816895,0.734642744064331,0.3482417166233063,3.3708410263061523,1.8180656433105469,-0.5166462659835815,9.719635009765625,3.785982131958008,-0.25671207904815674,-0.3112279176712036,0.012996148318052292,22.469440460205078,-32.13818359375,13.680510520935059,-0.18675273656845093,0.16344261169433594,0.39493250846862793,-0.3298935294151306,9.556192398071289,3.39104962348938
2_20251106_213402,1762436008584,2,0.331941694021225,0.2817832827568054,0.5193185806274414,0.7353373765945435,0.32520174980163574,3.3721842765808105,1.8478801250457764,-0.5058727860450745,9.892008781433105,4.057712554931641,-0.19806908071041107,-0.2586935758590698,0.04659371078014374,22.504241943359375,-32.20777130126953,13.34249210357666,-0.10745549201965332,0.22277545928955078,0.4437100887298584,-0.39841729402542114,9.669233322143555,3.6140024662017822
2_20251106_213402,1762436008604,2,0.33321094512939453,0.2825908660888672,0.5171326994895935,0.7359936237335205,0.3137487471103668,3.3738064765930176,1.8647006750106812,-0.42806458473205566,9.863280296325684,4.139111518859863,-0.19806908071041107,-0.2586935758590698,0.04659371078014374,22.638742446899414,-32.23320007324219,12.995673179626465,-0.023717820644378662,0.15523719787597656,0.4200873374938965,-0.404346764087677,9.708043098449707,3.719024181365967
2_20251106_213402,1762436008622,2,0.33375754952430725,0.2833464443683624,0.515365481376648,0.7366946935653687,0.3040306568145752,3.3756375312805176,1.8796805143356323,-0.374197393655777,9.888418197631836,3.9619483947753906,-0.11804578453302383,-0.177448570728302,0.09546288847923279,22.744754791259766,-32.323814392089844,12.72765064239502,0.02411949634552002,0.1443004608154297,0.19433927536010742,-0.398316890001297,9.744117736816406,3.767609119415283
2_20251106_213402,1762436008642,2,0.33410173654556274,0.28410980105400085,0.5138214826583862,0.737322986125946,0.2942681312561035,3.3780126571655273,1.8957449197769165,-0.23533965647220612,9.88961410522461,3.8506228923797607,-0.1247652992606163,-0.19149845838546753,0.10706932097673416,22.83757972717285,-32.428184509277344,12.499421119689941,0.13038180768489838,0.11639690399169922,0.06641077995300293,-0.3657214641571045,9.77321720123291,3.784212112426758
2_20251106_213402,1762436008661,2,0.33442452549934387,0.2850266695022583,0.5121892690658569,0.7379581332206726,0.28608447313308716,3.380629777908325,1.9107733964920044,-0.1371816098690033,9.945876121520996,3.9775102138519287,-0.12293270230293274,-0.2141004502773285,0.10523671656847,22.860206604003906,-32.48695373535156,12.255789756774902,0.18283188343048096,0.13812732696533203,0.15463852882385254,-0.32001349329948425,9.807748794555664,3.822871685028076
2_20251106_213402,1762436008680,2,0.33488911390304565,0.28616654872894287,0.5104953050613403,0.7384798526763916,0.279387503862381,3.383352041244507,1.9246561527252197,-0.04859994351863861,9.956649780273438,3.9679338932037354,-0.11621318757534027,-0.19577451050281525,0.09179770201444626,22.857757568359375,-32.55986785888672,12.010912895202637,0.2171308547258377,0.11912059783935547,0.11604976654052734,-0.2657307982444763,9.837529182434082,3.851884126663208
2_20251106_213402,1762436008699,2,0.33538493514060974,0.2871725857257843,0.5089021325111389,0.738963782787323,0.2733679413795471,3.3865292072296143,1.9401288032531738,0.07948432862758636,9.937496185302734,4.121155738830566,-0.11621318757534027,-0.14446187019348145,0.06736310571432114,22.828832626342773,-32.660430908203125,11.85914134979248,0.27617210149765015,0.07997417449951172,0.21541714668273926,-0.19668778777122498,9.857522010803223,3.905738592147827
2_20251106_213402,1762436008719,2,0.3357544243335724,0.28768908977508545,0.5075529217720032,0.7395228147506714,0.26876547932624817,3.389528751373291,1.9551515579223633,0.17046009004116058,9.851309776306152,4.0122246742248535,-0.09116773307323456,-0.0644385889172554,0.028878631070256233,22.760221481323242,-32.82562255859375,11.650513648986816,0.2937183082103729,-0.004969596862792969,0.0851888656616211,-0.12325821071863174,9.856279373168945,3.9270358085632324
2_20251106_213402,1762436008738,2,0.3358212411403656,0.28746989369392395,0.5067489743232727,0.7401288151741028,0.2657230496406555,3.391923427581787,1.9682996273040771,0.28178566694259644,9.742378234863281,3.7776026725769043,-0.06978747248649597,-0.06138426810503006,0.01666133664548397,22.760221481323242,-32.82562255859375,11.650513648986816,0.324035108089447,-0.09112071990966797,-0.11954641342163086,-0.042249441146850586,9.83349895477295,3.897149085998535
2_20251106_213402,1762436008757,2,0.33599644899368286,0.28574538230895996,0.5061730146408081,0.7411105632781982,0.2638859748840332,3.3939056396484375,1.9809582233428955,0.34163814783096313,9.726816177368164,3.958357334136963,-0.05451585352420807,-0.13346630334854126,0.022769983857870102,22.736724853515625,-32.837615966796875,11.433009147644043,0.307110071182251,-0.08534622192382812,0.048966407775878906,0.03452807292342186,9.812162399291992,3.909390926361084
2_20251106_213402,1762436008775,2,0.3365492522716522,0.28513601422309875,0.5055009722709656,0.7415529489517212,0.2630065083503723,3.3954410552978516,1.9926307201385498,0.34882044792175293,9.711254119873047,4.022997856140137,-0.029470402747392654,-0.07543415576219559,0.007498365361243486,22.649085998535156,-32.90434265136719,11.266060829162598,0.2514339089393616,-0.08072662353515625,0.09088563919067383,0.09738654643297195,9.791980743408203,3.932112216949463
2_20251106_213402,1762436008795,2,0.3367311358451843,0.28402480483055115,0.5050469040870667,0.7422059774398804,0.26276516914367676,3.3962666988372803,2.0040528774261475,0.33086472749710083,9.531697273254395,3.8290762901306152,0.009624939411878586,0.01069776900112629,-0.010216711089015007,22.624191284179688,-32.929832458496094,11.142905235290527,0.18678253889083862,-0.20822715759277344,-0.0824286937713623,0.1440821886062622,9.739924430847168,3.9115049839019775
2_20251106_213402,1762436008813,2,0.3364788293838501,0.2823280990123749,0.5051264762878418,0.7429132461547852,0.26288414001464844,3.3962433338165283,2.013991355895996,0.27101224660873413,9.445509910583496,3.578892707824707,0.0242856927216053,0.008254310116171837,-0.005329793319106102,22.549652099609375,-32.97132873535156,11.044556617736816,0.10154405236244202,-0.23553180694580078,-0.26608991622924805,0.16946819424629211,9.681041717529297,3.844982624053955
2_20251106_213402,1762436008833,2,0.33617937564849854,0.2808893620967865,0.5054075717926025,0.7434028387069702,0.26288414001464844,3.3962433338165283,2.013991355895996,0.27101224660873413,9.445509910583496,3.578892707824707,0.0242856927216053,0.008254310116171837,-0.005329793319106102,22.510473251342773,-33.02366638183594,11.014996528625488,0.10154405236244202,-0.23553180694580078,-0.26608991622924805,0.16946819424629211,9.681041717529297,3.844982624053955
2_20251106_213402,1762436008852,2,0.33598119020462036,0.2798006236553192,0.5056909322738647,0.7437102198600769,0.26273778080940247,3.392500162124634,2.0314135551452637,0.11659286171197891,9.258769989013672,3.5417842864990234,0.007181480526924133,-0.0064064436592161655,0.012996148318052292,22.497272491455078,-33.049034118652344,10.959914207458496,-0.03537244349718094,-0.2631673812866211,-0.21913695335388184,0.15196530520915985,9.521937370300293,3.7609212398529053
2_20251106_213402,1762436008872,2,0.3353075087070465,0.27822208404541016,0.5057721734046936,0.7445507645606995,0.2632625997066498,3.3893868923187256,2.0382752418518066,0.3679732084274292,9.23363208770752,3.434049606323242,-0.00625754427164793,0.05345829948782921,0.147386372089386,22.498260498046875,-33.04768371582031,10.824751853942871,0.17280632257461548,-0.23064422607421875,-0.26149749755859375,0.19516688585281372,9.464276313781738,3.695547103881836
2_20251106_213402,1762436008890,2,0.3339614272117615,0.27711597084999084,0.5058910250663757,0.7454869747161865,0.2647499442100525,3.3867318630218506,2.0435922145843506,0.6169595122337341,9.467056274414062,3.472355365753174,0.0242856927216053,-0.00884990207850933,0.21274890005588531,22.55858612060547,-33.05613708496094,10.813424110412598,0.3374341130256653,0.002223968505859375,-0.17855358123779297,0.27952539920806885,9.464832305908203,3.650908946990967
2_20251106_213402,1762436008909,2,0.33233192563056946,0.2773553133010864,0.5057469010353088,0.7462235689163208,0.2677616477012634,3.384114980697632,2.0484867095947266,0.8336254358291626,9.48142147064209,3.4915080070495605,0.03528125584125519,0.0027565271593630314,0.21152716875076294,22.566640853881836,-33.13054656982422,10.798813819885254,0.44328004121780396,0.013271331787109375,-0.12752079963684082,0.39034539461135864,9.46815013885498,3.6190288066864014
2_20251106_213402,1762436008930,2,0.33056551218032837,0.2779070734977722,0.5055920481681824,0.7469074726104736,0.2729472517967224,3.381500005722046,2.0529417991638184,0.9940300583839417,9.507756233215332,3.4148969650268555,0.034670390188694,0.047960516065359116,0.17854046821594238,22.578332901000977,-33.13042449951172,10.8668851852417,0.4829477071762085,0.03168487548828125,-0.16330552101135254,0.5110823512077332,9.47607135772705,3.578202486038208
2_20251106_213402,1762436008949,2,0.32885241508483887,0.2784397304058075,0.5055425763130188,0.7474985718727112,0.2789396047592163,3.379204750061035,2.0559847354888916,1.070641279220581,9.458677291870117,3.2916007041931152,0.034670390188694,0.047960516065359116,0.17854046821594238,22.463823318481445,-33.225341796875,10.847107887268066,0.4476471543312073,-0.013915061950683594,-0.22928142547607422,0.6229941248893738,9.4725923538208,3.5208821296691895
2_20251106_213402,1762436008967,2,0.32732078433036804,0.27869901061058044,0.5056270956993103,0.7480168342590332,0.2853966951370239,3.377098798751831,2.05802321434021,1.0550795793533325,9.456283569335938,3.2365365028381348,0.03161606937646866,0.05651262030005455,0.13761253654956818,22.398353576660156,-33.316673278808594,10.788743019104004,0.34566837549209595,-0.013047218322753906,-0.2274765968322754,0.7094112038612366,9.469330787658691,3.46401309967041
2_20251106_213402,1762436008985,2,0.32603877782821655,0.2788631319999695,0.5057381391525269,0.7484403848648071,0.29242631793022156,3.3749747276306152,2.059163808822632,1.0730352401733398,9.419175148010254,3.140772819519043,0.019398774951696396,0.057734351605176926,0.08629991859197617,22.297143936157227,-33.386085510253906,10.810532569885254,0.29089927673339844,-0.04012489318847656,-0.2585921287536621,0.7821359634399414,9.45930004119873,3.399364948272705
2_20251106_213402,1762436009006,2,0.3249431848526001,0.2788859009742737,0.5058755874633789,0.7488153576850891,0.3012807369232178,3.3725221157073975,2.0589916706085205,1.0993704795837402,9.429948806762695,2.9707915782928467,-0.007479273714125156,0.0638430044054985,0.06675224006175995,22.20590591430664,-33.49250793457031,10.845536231994629,0.253787636756897,-0.023481369018554688,-0.34285855293273926,0.8455828428268433,9.45343017578125,3.313650131225586
2_20251106_213402,1762436009024,2,0.32398325204849243,0.2786701023578644,0.5059191584587097,0.7492820620536804,0.3012807369232178,3.3725221157073975,2.0589916706085205,1.0993704795837402,9.429948806762695,2.9707915782928467,-0.007479273714125156,0.0638430044054985,0.06675224006175995,22.103483200073242,-33.586761474609375,10.839764595031738,0.253787636756897,-0.023481369018554688,-0.34285855293273926,0.8455828428268433,9.45343017578125,3.313650131225586
2_20251106_213402,1762436009042,2,0.3234126567840576,0.27806639671325684,0.5055603981018066,0.7499946355819702,0.3166258633136749,3.3682427406311035,2.0569567680358887,0.9820595979690552,9.40361213684082,3.1455607414245605,-0.08078303933143616,0.07239510864019394,0.03681987151503563,21.979507446289062,-33.63237762451172,10.834067344665527,0.07757723331451416,-0.030925750732421875,-0.08823299407958984,0.904482364654541,9.434537887573242,3.2337937355041504
2_20251106_213402,1762436009062,2,0.32317712903022766,0.2771449685096741,0.5048543810844421,0.7509122490882874,0.32464665174484253,3.3661766052246094,2.056042432785034,0.9126306772232056,9.493391990661621,3.3239212036132812,-0.13820432126522064,0.07606029510498047,0.012996148318052292,21.903079986572266,-33.68804931640625,10.897650718688965,0.006518661975860596,0.04708385467529297,0.07210206985473633,0.906112015247345,9.446308135986328,3.251819133758545
2_20251106_213402,1762436009081,2,0.3231790065765381,0.27627286314964294,0.5041113495826721,0.7517315745353699,0.33147963881492615,3.3646316528320312,2.056058645248413,0.7582113742828369,9.562820434570312,3.5585427284240723,-0.13942605257034302,0.04918224737048149,-0.005940658040344715,21.874874114990234,-33.764442443847656,10.841021537780762,-0.1183205246925354,0.09321022033691406,0.24537873268127441,0.8765318989753723,9.469610214233398,3.313163995742798
2_20251106_213402,1762436009101,2,0.3232661485671997,0.27543365955352783,0.5034162998199463,0.7524675130844116,0.337734580039978,3.3633081912994385,2.057344913482666,0.686388373374939,9.542470932006836,3.7309179306030273,-0.11865665018558502,0.057734351605176926,0.011774418875575066,21.93439483642578,-33.78558349609375,10.84294605255127,-0.15211480855941772,0.05828857421875,0.33420324325561523,0.8385031819343567,9.484182357788086,3.396714687347412
2_20251106_213402,1762436009120,2,0.3230989873409271,0.27458426356315613,0.5027673244476318,0.7532832026481628,0.34315937757492065,3.3623950481414795,2.0592191219329834,0.7582113742828369,9.586761474609375,3.656700849533081,-0.11865665018558502,0.057734351605176926,0.011774418875575066,21.922515869140625,-33.77436065673828,10.896784782409668,-0.06423342227935791,0.08206367492675781,0.20798897743225098,0.8224447965621948,9.504697799682617,3.44871187210083
2_20251106_213402,1762436009139,2,0.3223772943019867,0.2740398347377777,0.5023277997970581,0.7540834546089172,0.34315937757492065,3.3623950481414795,2.0592191219329834,0.7582113742828369,9.586761474609375,3.656700849533081,-0.035579051822423935,0.03391062840819359,0.11745401471853256,21.922515869140625,-33.77436065673828,10.896784782409668,-0.06423342227935791,0.08206367492675781,0.20798897743225098,0.8224447965621948,9.504697799682617,3.44871187210083
2_20251106_213402,1762436009161,2,0.32129931449890137,0.2737310528755188,0.501987099647522,0.7548820972442627,0.35474979877471924,3.3620529174804688,2.063737154006958,1.0790205001831055,9.766319274902344,3.638745069503784,-0.03374645859003067,-0.0009086611680686474,0.1260061264038086,21.835792541503906,-33.816650390625,10.797945976257324,0.18738329410552979,0.18773937225341797,0.13828396797180176,0.8916372060775757,9.578579902648926,3.5004611015319824
2_20251106_213402,1762436009178,2,0.3203381597995758,0.2741352319717407,0.5015337467193604,0.7554450631141663,0.3605612516403198,3.362745523452759,2.0665807723999023,1.1221143007278442,9.796245574951172,3.78239107131958,-0.020307432860136032,-0.014347685500979424,0.09179770201444626,21.77143669128418,-33.883270263671875,10.780657768249512,0.18438172340393066,0.1741323471069336,0.22554397583007812,0.9377325773239136,9.622113227844238,3.556847095489502
2_20251106_213402,1762436009196,2,0.3196088671684265,0.2746444344520569,0.5010815858840942,0.7558689117431641,0.3667009472846985,3.3638389110565186,2.07011342048645,1.0514883995056152,9.76751708984375,3.8051352500915527,0.01512272097170353,-0.007017308380454779,0.041095927357673645,21.77143669128418,-33.883270263671875,10.780657768249512,0.09100461006164551,0.11632347106933594,0.19863033294677734,0.9604837894439697,9.651193618774414,3.6065049171447754
2_20251106_213402,1762436009215,2,0.31904172897338867,0.27485349774360657,0.5009077787399292,0.7561476826667786,0.3724910318851471,3.3650259971618652,2.0735840797424316,0.944951057434082,9.705268859863281,3.6483216285705566,0.020620502531528473,0.041851866990327835,0.014828742481768131,21.758434295654297,-33.90837097167969,10.698542594909668,-0.012426137924194336,0.04326057434082031,0.03345322608947754,0.9573771953582764,9.662008285522461,3.614868402481079
2_20251106_213402,1762436009235,2,0.3185112476348877,0.274509459733963,0.5009915828704834,0.7564407587051392,0.3781196177005768,3.365875244140625,2.0765669345855713,0.9042513370513916,9.550849914550781,3.454399585723877,0.035281259566545486,0.061399538069963455,0.03193295747041702,21.756206512451172,-33.957794189453125,10.616389274597168,-0.04250067472457886,-0.08892631530761719,-0.12837505340576172,0.9467520117759705,9.639776229858398,3.5827746391296387
2_20251106_213402,1762436009254,2,0.31783226132392883,0.2741492688655853,0.5013839602470398,0.7565969824790955,0.3831427991390228,3.366240978240967,2.0782854557037354,1.032335638999939,9.493391990661621,3.2449159622192383,0.06765709072351456,0.007032580208033323,0.07896953821182251,21.694374084472656,-33.97459411621094,10.640706062316895,0.0684669017791748,-0.11710739135742188,-0.27028703689575195,0.9638687372207642,9.610499382019043,3.5152029991149902
2_20251106_213402,1762436009273,2,0.31696268916130066,0.2745271921157837,0.5018877387046814,0.7564907073974609,0.3885287046432495,3.3666114807128906,2.079674482345581,1.0909910202026367,9.611900329589844,3.393350124359131,0.060937583446502686,-0.07237982749938965,0.10096067190170288,21.59859275817871,-33.95542907714844,10.596762657165527,0.10169786214828491,0.0011205673217773438,-0.09748220443725586,0.9892931580543518,9.610779762268066,3.4908323287963867
2_20251106_213402,1762436009292,2,0.31650105118751526,0.27602386474609375,0.5020471811294556,0.7560334205627441,0.3885287046432495,3.3666114807128906,2.079674482345581,1.0909910202026367,9.611900329589844,3.393350124359131,0.02734001725912094,-0.05038870498538017,0.0740826204419136,21.547325134277344,-34.00843048095703,10.553196907043457,0.10169786214828491,0.0011205673217773438,-0.09748220443725586,0.9892931580543518,9.610779762268066,3.4908323287963867
2_20251106_213402,1762436009310,2,0.31607410311698914,0.2769870460033417,0.5020076036453247,0.7558860182762146,0.3946009874343872,3.3675177097320557,2.081608533859253,1.1137349605560303,9.765121459960938,3.6327598094940186,0.012068398296833038,0.04063013941049576,0.009941824711859226,21.49756622314453,-34.03617858886719,10.496642112731934,0.09955346584320068,0.1234731674194336,0.11354184150695801,1.0141814947128296,9.641648292541504,3.5192179679870605
2_20251106_213402,1762436009330,2,0.3156246244907379,0.27673012018203735,0.5021435022354126,0.7560777068138123,0.4049757122993469,3.369121789932251,2.085653781890869,1.0598677396774292,9.570003509521484,3.5262224674224854,0.03100520372390747,0.08827759325504303,-0.0157144945114851,21.470176696777344,-34.08826446533203,10.521637916564941,0.024834036827087402,-0.06749629974365234,-0.02386307716369629,1.0350337028503418,9.637499809265137,3.5500855445861816
2_20251106_213402,1762436009350,2,0.3150760531425476,0.27595701813697815,0.5025469660758972,0.7563209533691406,0.41020825505256653,3.3694286346435547,2.0876212120056152,1.0359266996383667,9.512544631958008,3.545375347137451,0.03100520372390747,0.08827759325504303,-0.0157144945114851,21.5322208404541,-34.05958557128906,10.565167427062988,0.000714421272277832,-0.09996414184570312,-0.0037682056427001953,1.0352122783660889,9.612508773803711,3.5491435527801514
2_20251106_213402,1762436009369,2,0.3146393299102783,0.2756856083869934,0.5030532479286194,0.7562651634216309,0.41020825505256653,3.3694286346435547,2.0876212120056152,1.0359266996383667,9.512544631958008,3.545375347137451,0.048720285296440125,0.041851870715618134,-0.008384117856621742,21.504436492919922,-34.112213134765625,10.6442289352417,0.000714421272277832,-0.09996414184570312,-0.0037682056427001953,1.0352122783660889,9.612508773803711,3.5491435527801514
2_20251106_213402,1762436009388,2,0.3141965866088867,0.2755124270915985,0.5035274028778076,0.7561967968940735,0.41917645931243896,3.368131637573242,2.091836929321289,0.9545274376869202,9.348548889160156,3.5082669258117676,0.058494120836257935,0.032078031450510025,0.0007788538932800293,21.40676498413086,-34.10722351074219,10.762215614318848,-0.06198078393936157,-0.17448902130126953,-0.056996822357177734,1.0165082216262817,9.523037910461426,3.5652637481689453
2_20251106_213402,1762436009407,2,0.3134959638118744,0.2751706540584564,0.5041441917419434,0.7562010884284973,0.41917645931243896,3.368131637573242,2.091836929321289,0.9545274376869202,9.348548889160156,3.5082669258117676,0.10064378380775452,0.038186680525541306,0.0020005833357572556,21.356313705444336,-34.13591766357422,10.800274848937988,-0.06198078393936157,-0.17448902130126953,-0.056996822357177734,1.0165082216262817,9.523037910461426,3.5652637481689453
2_20251106_213402,1762436009426,2,0.3127844035625458,0.2748332917690277,0.5050432682037354,0.7560184001922607,0.42568719387054443,3.3638248443603516,2.093144178390503,0.7809553146362305,9.170188903808594,3.1778812408447266,0.1067524254322052,0.04734965041279793,0.00016798917204141617,21.364383697509766,-34.19871520996094,10.88054370880127,-0.1632031798362732,-0.2298450469970703,-0.2672691345214844,0.9441584944725037,9.400033950805664,3.445150375366211
2_20251106_213402,1762436009444,2,0.3121888339519501,0.2744327485561371,0.5057998895645142,0.7559042572975159,0.42779502272605896,3.3609135150909424,2.09266996383667,0.7474378943443298,9.128291130065918,3.1898515224456787,0.06399190425872803,0.051625706255435944,0.009941823780536652,21.389373779296875,-34.17308807373047,10.99018383026123,-0.1573764681816101,-0.2173938751220703,-0.2042391300201416,0.9048143625259399,9.345685005187988,3.3940906524658203
2_20251106_213402,1762436009464,2,0.3115737736225128,0.27419960498809814,0.5062500238418579,0.7559413313865662,0.429592490196228,3.3572051525115967,2.0917632579803467,0.7641965746879578,9.13667106628418,3.2604775428771973,0.035892125219106674,-0.0033521200530231,0.10340412706136703,21.38858413696289,-34.174163818359375,11.098313331604004,-0.11249423027038574,-0.16721153259277344,-0.10689067840576172,0.8766908049583435,9.303882598876953,3.367368221282959
2_20251106_213402,1762436009484,2,0.31072595715522766,0.2744652032852173,0.5065430998802185,0.7559975981712341,0.43145665526390076,3.353454113006592,2.0905041694641113,0.9281923174858093,9.228843688964844,3.2365365028381348,0.058494120836257935,-0.014347685500979424,0.15899279713630676,21.37801742553711,-34.137962341308594,11.1661958694458,0.04120117425918579,-0.06003093719482422,-0.10466527938842773,0.8869911432266235,9.288874626159668,3.3412017822265625
2_20251106_213402,1762436009501,2,0.309446781873703,0.27505314350128174,0.5067535042762756,0.7561675310134888,0.43347838521003723,3.3504958152770996,2.0892181396484375,1.1221143007278442,9.321016311645508,3.218580722808838,0.065824493765831,-0.033895354717969894,0.17548614740371704,21.302379608154297,-34.19255065917969,11.121647834777832,0.18809854984283447,0.025712966918945312,-0.09809684753417969,0.9340157508850098,9.295303344726562,3.3166775703430176
2_20251106_213402,1762436009521,2,0.30809301137924194,0.2761310338973999,0.5068516731262207,0.7562616467475891,0.43640050292015076,3.3477108478546143,2.0879709720611572,1.2166812419891357,9.425159454345703,3.359832763671875,0.042000770568847656,-0.06138426810503006,0.15349501371383667,21.25414276123047,-34.183441162109375,11.14698314666748,0.22613239288330078,0.10388469696044922,0.03452420234680176,0.990548849105835,9.321274757385254,3.3253085613250732
2_20251106_213402,1762436009540,2,0.30715447664260864,0.2775859236717224,0.5066275000572205,0.7562610507011414,0.43640050292015076,3.3477108478546143,2.0879709720611572,1.2166812419891357,9.425159454345703,3.359832763671875,0.014511855319142342,-0.04183659330010414,0.11623228341341019,21.227964401245117,-34.21068572998047,11.199540138244629,0.22613239288330078,0.10388469696044922,0.03452420234680176,0.990548849105835,9.321274757385254,3.3253085613250732
2_20251106_213402,1762436009560,2,0.3063529431819916,0.2785746455192566,0.5062374472618103,0.756483793258667,0.44447821378707886,3.3436179161071777,2.0869877338409424,1.3280067443847656,9.456283569335938,3.517843246459961,0.010235803201794624,-0.0021303906105458736,0.07591521739959717,21.19119644165039,-34.224952697753906,11.130223274230957,0.22248494625091553,0.08314990997314453,0.12781906127929688,1.10552179813385,9.373133659362793,3.390024185180664
2_20251106_213402,1762436009580,2,0.3055531680583954,0.2789865732192993,0.5059248208999634,0.7568644881248474,0.4494064748287201,3.3421905040740967,2.086718797683716,1.3399772644042969,9.492195129394531,3.3801825046539307,0.020009640604257584,0.022304197773337364,0.04598284512758255,21.078800201416016,-34.282196044921875,11.111237525939941,0.18756437301635742,0.09524917602539062,-0.007873296737670898,1.1524128913879395,9.39694595336914,3.3880558013916016
2_20251106_213402,1762436009598,2,0.3049283027648926,0.2792012691497803,0.5057323575019836,0.7571658492088318,0.4494064748287201,3.3421905040740967,2.086718797683716,1.3399772644042969,9.492195129394531,3.3801825046539307,0.02367483079433441,0.009476039558649063,0.01666133664548397,21.078800201416016,-34.282196044921875,11.111237525939941,0.18756437301635742,0.09524917602539062,-0.007873296737670898,1.1524128913879395,9.39694595336914,3.3880558013916016
2_20251106_213402,1762436009617,2,0.30454206466674805,0.27948617935180664,0.5057670474052429,0.7571930289268494,0.45852991938591003,3.340200185775757,2.0856921672821045,1.1472523212432861,9.450298309326172,3.31195068359375,0.010846668854355812,0.0033673918806016445,0.00627663591876626,20.99148178100586,-34.325294494628906,11.093497276306152,-0.016901135444641113,0.03069782257080078,-0.049664974212646484,1.1641534566879272,9.419600486755371,3.3616156578063965
2_20251106_213402,1762436009636,2,0.30435022711753845,0.27960851788520813,0.505855143070221,0.7571661472320557,0.4626734256744385,3.339376926422119,2.0849738121032715,1.149646520614624,9.435934066772461,3.3023743629455566,0.0016836971044540405,0.014362957328557968,0.012996148318052292,20.94103240966797,-34.35398864746094,11.131556510925293,-0.011605501174926758,0.013067245483398438,-0.047393083572387695,1.1612520217895508,9.422866821289062,3.3497674465179443
2_20251106_213402,1762436009655,2,0.30408143997192383,0.27950069308280945,0.5059677362442017,0.7572387456893921,0.4626734256744385,3.339376926422119,2.0849738121032715,1.149646520614624,9.435934066772461,3.3023743629455566,-0.005035814829170704,0.01741728000342846,0.028267765417695045,20.912429809570312,-34.43092346191406,11.12899112701416,-0.011605501174926758,0.013067245483398438,-0.047393083572387695,1.1612520217895508,9.422866821289062,3.3497674465179443
2_20251106_213402,1762436009674,2,0.30395054817199707,0.2795942425727844,0.5059133768081665,0.7572930455207825,0.4671818017959595,3.3387246131896973,2.0838522911071777,1.2083019018173218,9.486209869384766,3.2401278018951416,-0.000759761780500412,-0.0009086611680686474,0.02704603783786297,20.860977172851562,-34.47257995605469,11.207335472106934,0.03763985633850098,0.0506744384765625,-0.08771181106567383,1.1706620454788208,9.435535430908203,3.3278396129608154
2_20251106_213402,1762436009692,2,0.30328693985939026,0.27956604957580566,0.5061018466949463,0.7574435472488403,0.47454842925071716,3.338440418243408,2.082444190979004,1.2418192625045776,9.547258377075195,3.420882225036621,0.005348885431885719,0.015584684908390045,0.01727220043540001,20.8121337890625,-34.47589111328125,11.218890190124512,0.04764735698699951,0.07131099700927734,0.06988978385925293,1.1941719055175781,9.475947380065918,3.350992441177368
2_20251106_213402,1762436009712,2,0.3032744526863098,0.27977508306503296,0.5060523152351379,0.7574045062065125,0.4786202907562256,3.338676929473877,2.082167387008667,1.227454662322998,9.565214157104492,3.467567205429077,0.010235801339149475,0.024136792868375778,0.0038331770338118076,20.823814392089844,-34.48738098144531,11.192084312438965,0.026626229286193848,0.07141304016113281,0.09325981140136719,1.2008284330368042,9.49380111694336,3.37430739402771
2_20251106_213402,1762436009731,2,0.30268025398254395,0.2794208228588104,0.5062506794929504,0.7576403617858887,0.4823123812675476,3.3390567302703857,2.0819499492645264,1.2071049213409424,9.554441452026367,3.3861677646636963,0.012679262086749077,0.035132355988025665,0.0026114475913345814,20.83309555053711,-34.52533721923828,11.299912452697754,0.005021214485168457,0.04851245880126953,0.009488344192504883,1.202083706855774,9.505928993225098,3.3766794204711914
2_20251106_213402,1762436009750,2,0.30223050713539124,0.2790552079677582,0.506404459476471,0.7578518390655518,0.48580408096313477,3.3394718170166016,2.0817630290985107,1.1963313817977905,9.525712013244629,3.3837738037109375,0.019398774951696396,0.018028143793344498,0.012996148318052292,20.881839752197266,-34.52215576171875,11.301875114440918,-0.004601836204528809,0.01582622528076172,0.005675554275512695,1.2009332180023193,9.509885787963867,3.378098249435425
2_20251106_213402,1762436009770,2,0.3017748296260834,0.27891212701797485,0.5066239833831787,0.7579393982887268,0.48928919434547424,3.3399226665496826,2.0816338062286377,1.2621691226959229,9.530500411987305,3.3957443237304688,0.02795088291168213,-0.008239038288593292,0.028878631070256233,20.82020378112793,-34.53868103027344,11.299159049987793,0.0489886999130249,0.01649188995361328,0.014116764068603516,1.213180422782898,9.514008522033691,3.3816275596618652
2_20251106_213402,1762436009789,2,0.301637202501297,0.27924567461013794,0.5066655278205872,0.7578436136245728,0.49303969740867615,3.340471029281616,2.0816967487335205,1.300474762916565,9.546061515808105,3.4448232650756836,0.05360720306634903,-0.0283975750207901,0.02643517218530178,20.821712493896484,-34.51343536376953,11.28617000579834,0.06983554363250732,0.02564239501953125,0.05055665969848633,1.2306392192840576,9.520419120788574,3.3942666053771973
2_20251106_213402,1762436009808,2,0.3010197877883911,0.27952316403388977,0.5069600343704224,0.7577898502349854,0.49651432037353516,3.340862274169922,2.0817017555236816,1.2633661031723022,9.48261833190918,3.375394344329834,0.05360720306634903,-0.0283975750207901,0.02643517218530178,20.860187530517578,-34.47364807128906,11.315464973449707,0.026181578636169434,-0.030241012573242188,-0.015097856521606445,1.2371845245361328,9.512859344482422,3.3904922008514404
2_20251106_213402,1762436009828,2,0.3003617227077484,0.2795013189315796,0.5072702169418335,0.7578514218330383,0.5000175833702087,3.3409905433654785,2.081169605255127,1.2466074228286743,9.42635726928711,3.2137928009033203,0.0346703939139843,0.041851866990327835,0.00627663591876626,20.885250091552734,-34.47111511230469,11.221831321716309,0.007538318634033203,-0.06920146942138672,-0.14135956764221191,1.2390691041946411,9.495558738708496,3.3551523685455322
2_20251106_213402,1762436009846,2,0.2999494671821594,0.2793489694595337,0.5075446963310242,0.7578871250152588,0.503237783908844,3.3409621715545654,2.080239772796631,1.330400824546814,9.439523696899414,3.1623196601867676,0.016955316066741943,0.04001927375793457,0.011774418875575066,20.897537231445312,-34.470184326171875,11.208806037902832,0.07306540012359619,-0.04482841491699219,-0.1542661190032959,1.2573354244232178,9.484352111816406,3.3165857791900635
2_20251106_213402,1762436009864,2,0.29969584941864014,0.27937862277030945,0.5077682137489319,0.7578268051147461,0.503237783908844,3.3409621715545654,2.080239772796631,1.330400824546814,9.439523696899414,3.1623196601867676,0.016955316066741943,0.04001927375793457,0.011774418875575066,20.930866241455078,-34.530181884765625,11.168408393859863,0.07306540012359619,-0.04482841491699219,-0.1542661190032959,1.2573354244232178,9.484352111816406,3.3165857791900635
2_20251106_213402,1762436009883,2,0.29957640171051025,0.2799071967601776,0.5079616904258728,0.7575492262840271,0.5066542625427246,3.3406596183776855,2.079176425933838,1.3256126642227173,9.38446044921875,3.268857002258301,0.0603267103433609,-0.0259541142731905,-0.005940658040344715,20.860149383544922,-34.50848388671875,11.030831336975098,0.05462181568145752,-0.07991313934326172,-0.038182973861694336,1.2709908485412598,9.464373588562012,3.307039976119995
2_20251106_213402,1762436009903,2,0.2995714843273163,0.2804535925388336,0.5082219243049622,0.7571744322776794,0.5125784873962402,3.3390352725982666,2.0769083499908447,1.19633150100708,9.315032005310059,3.1766839027404785,0.05238546431064606,-0.010071631520986557,-0.020601412281394005,20.801742553710938,-34.46263122558594,11.06998348236084,-0.057741403579711914,-0.09538650512695312,-0.1033468246459961,1.254072904586792,9.410418510437012,3.2800307273864746
2_20251106_213402,1762436009921,2,0.2996158003807068,0.28062883019447327,0.5084971785545349,0.7569071650505066,0.5125784873962402,3.3390352725982666,2.0769083499908447,1.19633150100708,9.315032005310059,3.1766839027404785,0.005959749221801758,-0.00884990207850933,-0.01937968283891678,20.826311111450195,-34.46076965332031,11.043932914733887,-0.057741403579711914,-0.09538650512695312,-0.1033468246459961,1.254072904586792,9.410418510437012,3.2800307273864746
2_20251106_213402,1762436009941,2,0.2997392416000366,0.28064239025115967,0.5086295008659363,0.75676429271698,0.5168840289115906,3.3366777896881104,2.073991298675537,1.0850058794021606,9.38206672668457,3.327512264251709,-0.017253108322620392,-0.0009086611680686474,-0.00105374027043581,20.751686096191406,-34.49078369140625,11.05397891998291,-0.11452329158782959,-0.009717941284179688,0.05490398406982422,1.1995291709899902,9.39178466796875,3.2726082801818848
2_20251106_213402,1762436009960,2,0.29970628023147583,0.2804638743400574,0.5086628794670105,0.7568211555480957,0.5183870792388916,3.3357200622558594,2.0729997158050537,1.1388731002807617,9.417978286743164,3.3394827842712402,-0.005646679550409317,0.01986073888838291,0.02338084764778614,20.66507339477539,-34.521324157714844,11.03650188446045,-0.04852485656738281,0.02095508575439453,0.053499698638916016,1.1873979568481445,9.39702320098877,3.285983085632324
2_20251106_213402,1762436009979,2,0.29900795221328735,0.27984946966171265,0.5088157057762146,0.7572219371795654,0.5201390385627747,3.3347253799438477,2.0720064640045166,1.2418192625045776,9.402416229248047,3.3035712242126465,0.018787909299135208,0.007643444929271936,0.03010036051273346,20.639909744262695,-34.52399444580078,11.143651008605957,0.043537020683288574,0.004314422607421875,0.014070510864257812,1.198282241821289,9.398101806640625,3.2895007133483887
2_20251106_213402,1762436009999,2,0.2985491454601288,0.2797100245952606,0.508938193321228,0.7573722004890442,0.5201390385627747,3.3347253799438477,2.0720064640045166,1.2418192625045776,9.402416229248047,3.3035712242126465,0.018787909299135208,0.007643444929271936,0.03010036051273346,20.639909744262695,-34.52399444580078,11.143651008605957,0.043537020683288574,0.004314422607421875,0.014070510864257812,1.198282241821289,9.398101806640625,3.2895007133483887
2_20251106_213402,1762436010019,2,0.2982936501502991,0.2799358367919922,0.508996844291687,0.7573500275611877,0.5220285058021545,3.3336875438690186,2.071155071258545,1.2406222820281982,9.384459495544434,3.3311033248901367,0.026729151606559753,-0.010682497173547745,0.020937390625476837,20.627513885498047,-34.53667449951172,11.07531452178955,0.033872008323669434,-0.010913848876953125,0.03328204154968262,1.2067502737045288,9.395373344421387,3.297821283340454
2_20251106_213402,1762436010037,2,0.29855817556381226,0.2804644703865051,0.5088441371917725,0.757152795791626,0.5248197913169861,3.331850528717041,2.069762706756592,1.1759815216064453,9.36770248413086,3.2401275634765625,0.03100520372390747,-0.0064064436592161655,0.024602578952908516,20.53284454345703,-34.4927978515625,11.072447776794434,-0.017202138900756836,-0.019624710083007812,-0.050905704498291016,1.1931836605072021,9.387327194213867,3.2910332679748535
2_20251106_213402,1762436010055,2,0.298414021730423,0.280609667301178,0.5089167952537537,0.7571069598197937,0.5260866284370422,3.331066131591797,2.068502187728882,1.2083019018173218,9.416780471801758,3.0653586387634277,0.03405952826142311,-0.005184714216738939,0.02643517218530178,20.59418296813965,-34.47667694091797,11.11571216583252,0.012094616889953613,0.02356243133544922,-0.18053960800170898,1.1962072849273682,9.393218040466309,3.2458982467651367
2_20251106_213402,1762436010079,2,0.29884448647499084,0.281260222196579,0.5088520646095276,0.7567391991615295,0.5278847813606262,3.3305792808532715,2.0655338764190674,1.2609721422195435,9.508953094482422,2.888195276260376,0.026118285953998566,-0.004573849495500326,0.028878631070256233,20.654308319091797,-34.48539733886719,11.131415367126465,0.051811814308166504,0.09258842468261719,-0.2861623764038086,1.209160327911377,9.416364669799805,3.1743576526641846
2_20251106_213402,1762436010094,2,0.29865819215774536,0.2816770374774933,0.5091185569763184,0.7564784288406372,0.5291692614555359,3.3306612968444824,2.0629642009735107,1.2585779428482056,9.623870849609375,2.8618602752685547,-0.0032032206654548645,-0.017402008175849915,0.014217877760529518,20.654308319091797,-34.48539733886719,11.131415367126465,0.03953409194946289,0.16600513458251953,-0.24999785423278809,1.2190438508987427,9.457865715026855,3.1118581295013428
2_20251106_213402,1762436010113,2,0.29883262515068054,0.28234705328941345,0.5092992186546326,0.7560380101203918,0.5291692614555359,3.3306612968444824,2.0629642009735107,1.2585779428482056,9.623870849609375,2.8618602752685547,-0.04107683151960373,-0.01556941494345665,-0.0016646049916744232,20.67746925354004,-34.50865173339844,11.104836463928223,0.03953409194946289,0.16600513458251953,-0.24999785423278809,1.2190438508987427,9.457865715026855,3.1118581295013428
2_20251106_213402,1762436010132,2,0.2985645830631256,0.2823973298072815,0.5095748901367188,0.7559393644332886,0.5321911573410034,3.3331403732299805,2.057220697402954,1.2920953035354614,9.789063453674316,3.235339641571045,-0.05940277501940727,-0.0009086611680686474,-0.018157953396439552,20.725805282592773,-34.51762390136719,11.065985679626465,0.05805313587188721,0.21886157989501953,0.11082172393798828,1.2340421676635742,9.570201873779297,3.1245179176330566
2_20251106_213402,1762436010151,2,0.2985789477825165,0.28212854266166687,0.5096478462219238,0.755984902381897,0.533912718296051,3.3353590965270996,2.0559871196746826,1.3172333240509033,9.82856559753418,3.5753016471862793,-0.06490055471658707,-0.0021303906105458736,-0.03281870484352112,20.741207122802734,-34.466064453125,11.013466835021973,0.06655287742614746,0.20669078826904297,0.3606269359588623,1.2506804466247559,9.621874809265137,3.214674711227417
2_20251106_213402,1762436010170,2,0.2990955710411072,0.2820119559764862,0.5093302130699158,0.756038248538971,0.5356420874595642,3.3382344245910645,2.056704521179199,1.2849130630493164,9.901586532592773,3.9032928943634033,-0.06490055471658707,-0.0021303906105458736,-0.03281870484352112,20.71694564819336,-34.455902099609375,11.09384822845459,0.027386069297790527,0.2237691879272461,0.5508944988250732,1.2575269937515259,9.677817344665527,3.35239839553833
2_20251106_213402,1762436010189,2,0.29938259720802307,0.2814572751522064,0.5090044736862183,0.7563506364822388,0.5371663570404053,3.3417704105377197,2.0589566230773926,1.2142871618270874,9.971014976501465,3.924839973449707,0.029783476144075394,0.03268889710307121,-0.05480983108282089,20.75481414794922,-34.42854309082031,11.10936450958252,-0.0345919132232666,0.23455810546875,0.45795321464538574,1.248879075050354,9.736456871032715,3.4668867588043213
2_20251106_213402,1762436010209,2,0.29928383231163025,0.2804899215698242,0.5090453624725342,0.7567214965820312,0.5371663570404053,3.3417704105377197,2.0589566230773926,1.2142871618270874,9.971014976501465,3.924839973449707,0.0908699482679367,0.02719111554324627,-0.05908588320016861,20.765392303466797,-34.45313262939453,11.136359214782715,-0.0345919132232666,0.23455810546875,0.45795321464538574,1.248879075050354,9.736456871032715,3.4668867588043213
2_20251106_213402,1762436010228,2,0.29914194345474243,0.27964136004447937,0.5095616579055786,0.7567441463470459,0.538629412651062,3.350893259048462,2.0666778087615967,0.9569215178489685,10.08114242553711,3.8997018337249756,0.0908699482679367,0.02719111554324627,-0.05908588320016861,20.775760650634766,-34.48960876464844,11.09550952911377,-0.2129005789756775,0.23170757293701172,0.2785336971282959,1.169822096824646,9.849434852600098,3.6211681365966797
2_20251106_213402,1762436010247,2,0.29899275302886963,0.2785050570964813,0.5104560852050781,0.756619393825531,0.538629412651062,3.350893259048462,2.0666778087615967,0.9569215178489685,10.08114242553711,3.8997018337249756,0.1372956484556198,0.10171661525964737,-0.08413133770227432,20.718158721923828,-34.431060791015625,11.12140941619873,-0.2129005789756775,0.23170757293701172,0.2785336971282959,1.169822096824646,9.849434852600098,3.6211681365966797
2_20251106_213402,1762436010266,2,0.2986253499984741,0.276825487613678,0.5118013620376587,0.7564720511436462,0.5362992882728577,3.3606698513031006,2.075070858001709,0.7438467741012573,9.944679260253906,3.5537545680999756,0.16783888638019562,0.10293834656476974,-0.050533778965473175,20.732769012451172,-34.380577087402344,11.177020072937012,-0.2829667329788208,0.05272102355957031,-0.08030104637145996,1.0268135070800781,9.891958236694336,3.6340556144714355
